"trial_type","trial_index","time_elapsed","internal_node_id","subject","exp_part","BlockNumber","rt","stimulus","key_press","responses","question_order","button_pressed","InformedConsent","InitiationTime","MovementTime","TotalTime","start_time","PointRTLimit","ResponseCorrect","Feedback","TrialPoints","RuleBreak","PoliceCatch","ConformityCritical","PointAdvantage","TargetLocation","BlockadePosition","MouseStartX","MouseStartY","MouseEndX","MouseEndY","ScreenXMax","ScreenYMax","StartLocationX","StartLocationY","TargetLocationX","TargetLocationY","OppositeLocationX","OppositeLocationY","LocationMarkerXSize","LocationMarkerYSize","BlockadeLocationX","BlockadeLocationY","BlockadeXSize","BlockadeYSize","MouseX","MouseY","TrialTimeStamp","Target_Symbol","RuleType","Practice","TrialNumber","TrialNumberBlock","PointSum","RuleBreakRisk"
"pavlovia","0","4","0.0-0.0","byszkmchdc0obfy","","1","","","","","","","","","","","","","","","","","","","","","","","","","","","","","","","","","","","","","","","","","","","","","","","","",""
"html-keyboard-response","1","74100","0.0-1.0-0.0","byszkmchdc0obfy","instruction","1","74093","<div align=left><b>Vielen Dank, dass Sie an unserem Experiment teilnehmen möchten!</b> <br><br>Im Rahmen dieses Projektes an der Albert-Ludwigs-Universität Freiburg untersuchen wir wie Menschen ihre Handlungen steuern. <br> Dabei wird es Ihre Aufgabe sein, in verschiedenen Situationen so schnell und korrekt wie möglich mit der Maus zu reagieren. <br> Durch korrektes und schnelles Reagieren sammeln sie Punkte. <br><br>Wichtig ist, dass Sie sich an einem PC oder Laptop befinden und <b>eine Maus zur Verfügung haben</b>. Eine Teilnahme vom Smartphone <br>oder Tablet aus oder mittels Laptop-Touchpad ist leider nicht möglich! Falls Sie gerade nicht von einem PC/Laptop mit Maus <br> teilnehmen, beenden Sie den Versuch bitte jetzt und starten Sie ihn von einem geeigneten Gerät aus neu. <br><br>Das Experiment wird insgesamt etwa 35-40 Minuten in Anspruch nehmen. Bitte stellen Sie sicher, dass Sie während dieser Zeit <b>ungestört</b> <br>die Aufgabe bearbeiten können! Psychologiestudierende der Universität Freiburg erhalten für die Teilnahme <b>0,5 VP-Stunden</b>. Darüber <br>hinaus haben alle Teilnehmer*innen die <b>Chance auf einen 30€-Gutschein (Amazon)</b>. Dieser wird nach Abschluss der Studie an die <br>Person, die die meisten Punkte gesammelt hat, vergeben.<br><br><b>Wichtig: </b>Verlassen Sie dieses Browser-Fenster ausschließlich in den mit “PAUSE” gekennzeichneten Abschnitten des <br>Experiments und schließen Sie das Browser-Fenster nach Beendigung der Studie erst, wenn Sie dazu aufgefordert werden.<br> Klicken Sie hierzu auf den entsprechenden Button am Ende der Studie.<br>Falls Sie das Browser-Fenster dieser Studie außerhalb der Pausen verlassen oder vorzeitig schließen, können wir Ihre Teilnahme <br>nicht verbuchen. <br><br> Drücken Sie ENTER um zu beginnen. <br> ","13","","","","","","","","","","","","","","","","","","","","","","","","","","","","","","","","","","","","","","","","","","","","","",""
"survey-multi-choice","2","78121","0.0-1.0-1.0","byszkmchdc0obfy","survey","1","4018","","","{""DeviceUsed"":""Laptop mit Maus""}","[0]","","","","","","","","","","","","","","","","","","","","","","","","","","","","","","","","","","","","","","","","","","","",""
"html-button-response","3","90928","0.0-1.0-2.0","byszkmchdc0obfy","instruction","1","12805","<div align=left><strong> Informierte Einwilligung</strong>  <br>Ziel unserer Forschung ist es, menschliches Verhalten und mentale Prozesse besser zu verstehen. <br>In der folgenden Untersuchung wird dazu Ihr Verhalten (z.B. Wahlverhalten, Reaktionszeiten) aufgezeichnet. <br> <br><strong> Freiwilligkeit und Anonymität </strong> <br>Die Teilnahme an der Studie ist <strong>freiwillig</strong>.<br>Sie können jederzeit und ohne Angabe von Gründen Ihre Einwilligung zur Teilnahme an dieser  Studie widerrufen. <br><br> Da keine personenbezogenen Daten erhoben werden, ist nach Abschluss der Datenerhebung prinzipiell <br> <strong>keine Zuordnung mehr zwischen den Daten im Datensatz und Ihrer Person</strong> möglich – der Datensatz ist anonym. <br>Entsprechend ist nach Abschluss dieser Datenerhebung auch keine gezielte Löschung Ihres persönlichen <br>Datensatzes möglich, da wir diesen nicht zuordnen können.<br>Die Ergebnisse und Daten der Studie können als wissenschaftliche Publikation veröffentlicht werden. Dies geschieht <br>in <strong>anonymisierter Form</strong>, d. h. ohne dass die Daten einer spezifischen Person zugeordnet werden können.<br>Die vollständigen Daten dieser Studie können zur Gewährleistung von Transparenz in der Wissenschaft als offene <br>Daten im Internet in einem Datenarchiv und/oder anderen Forschenden zugänglich gemacht werden. <br> Damit folgt diese Studie den Empfehlungen der Deutschen Forschungsgemeinschaft (DFG) und der Deutschen <br>Gesellschaft für Psychologie (DGPs) zur Qualitätssicherung in der Forschung. <br><br> Wenn Sie jetzt oder nach dem Versuch Fragen haben, wenden Sie sich bitte an Christina Pfeuffer <br>(christina.pfeuffer@psychologie.uni-freiburg.de).<br><br>Hiermit versichere ich, dass ich die oben beschriebenen Teilnahmeinformationen verstanden habe <br>und mit den genannten Teilnahmebedingungen einverstanden bin.<br><br> </div>","","","","0","true","","","","","","","","","","","","","","","","","","","","","","","","","","","","","","","","","","","","","","","","","",""
"survey-text","4","93368","0.0-1.0-3.0-0.0","byszkmchdc0obfy","survey","1","2436","","","{""Age"":""31""}","","","","","","","","","","","","","","","","","","","","","","","","","","","","","","","","","","","","","","","","","","","","",""
"survey-multi-choice","5","95199","0.0-1.0-3.0-1.0","byszkmchdc0obfy","survey","1","1830","","","{""Handedness"":""rechts""}","[0]","","","","","","","","","","","","","","","","","","","","","","","","","","","","","","","","","","","","","","","","","","","",""
"survey-multi-choice","6","101631","0.0-1.0-3.0-2.0","byszkmchdc0obfy","survey","1","6430","","","{""Gender"":""weiblich"",""SchoolLevel"":""Abitur"",""EducationLevel"":""Promotion oder höher""}","[0,1,2]","","","","","","","","","","","","","","","","","","","","","","","","","","","","","","","","","","","","","","","","","","","",""
"html-keyboard-response","7","139674","0.0-2.0-0.0","byszkmchdc0obfy","instruction","1","38040","<b>Hinweise zur Aufgabe </b><br><br>Ihre Aufgabe wird es nun sein, Ihre Maus jeweils so schnell wie möglich von einem Startfeld (unten mittig) aus zu <br> einem von zwei Zielorten rechts und links oben auf dem Bildschirm zu bewegen. Vor jedem Durchgang wird Ihnen das Symbol <br>des Zielorts angezeigt (<img src='img/King_2.png' width='20' height='20'></img> oder <img src='img/Pawn.png' width='20' height='20'></img>) zu dem Sie sich bewegen sollen. Sobald Sie danach mit der Maus auf das Startfeld <br>(unten mittig) klicken, erscheint dieses Symbol zufällig entweder am rechten oder linken Zielort oben auf dem Bildschirm. <br><br><b>Bewegen Sie die Maus so schnell wie möglich auf das Symbol und vermeiden Sie dabei Fehler! </b><br><br>Gemeinsam mit dem Symbol, zu dem Sie sich im aktuellen Durchgang bewegen sollen, sehen Sie auch entweder die Zahl 1 oder 10. <br>Das ist die Anzahl Punkte, die Sie in diesem Durchgang erhalten können. <br><br><b> Der/die Teilnehmer*in, der/die im Hauptexperiment die meisten Punkte sammelt, erhält den 30€-Gutschein (Amazon). </b><br><br>Üben wir zunächst einmal die Aufgabe, ohne dass die Punkte von Bedeutung sind. <br>Bewegen Sie die Maus so schnell wie möglich auf das richtige Symbol! Sie können dabei den gesamten Bildschirm ausnutzen. <br>Die Umgebungsmerkmale die Ihnen angezeigt werden sind noch nicht von Bedeutung und können mit der Maus überfahren werden. <br><br>Drücken Sie ENTER um mit der Übung zu beginnen. ","13","","","","","","","","","","","","","","","","","","","","","","","","","","","","","","","","","","","","","","","","","","","","","",""
"rule-violation","8","143386","0.0-2.0-1.0-0.0","byszkmchdc0obfy","practice","1","","","","","","","","363","384","747","142383","1000","true","richtig!","10","true","false","true","10","2","2","601","505.3666687011719","1071","65.36666870117188","1216","576","587.52","494.08","1068.8","40.96","106.23999999999995","40.96","40.96","40.96","659.2","167.04000000000002","430.08","241.92","640,679,723,812,881,947,989,1024,1034,1037,1038,1038,1039,1040,1045,1048,1051,1051,1057,1063,1067,1071","461.3666687011719,421.3666687011719,373.3666687011719,287.3666687011719,233.36666870117188,188.36666870117188,164.36666870117188,140.36666870117188,130.36666870117188,125.36666870117188,123.36666870117188,123.36666870117188,122.36666870117188,119.36666870117188,116.36666870117188,113.36666870117188,109.36666870117188,109.36666870117188,101.36666870117188,89.36666870117188,77.36666870117188,65.36666870117188","363,379,396,413,430,446,462,479,497,512,530,547,597,614,630,646,662,679,696,713,730,746","king","Corona","1","1","1","",""
"rule-violation","9","146889","0.0-2.0-1.0-0.1","byszkmchdc0obfy","practice","1","","","","","","","","372","332","704","145973","1000","true","richtig!","1","true","false","true","1","1","1","613","503.3666687011719","113","62.366668701171875","1216","576","587.52","494.08","106.23999999999995","40.96","1068.8","40.96","40.96","40.96","126.72000000000003","167.04000000000002","430.08","241.92","543,455,349,249,151,73,55,48,47,47,48,51,51,56,70,88,103,113","439.3666687011719,363.3666687011719,292.3666687011719,221.36666870117188,153.36666870117188,90.36666870117188,71.36666870117188,59.366668701171875,55.366668701171875,53.366668701171875,52.366668701171875,50.366668701171875,50.366668701171875,51.366668701171875,55.366668701171875,59.366668701171875,61.366668701171875,62.366668701171875","372,388,405,421,437,455,471,488,505,521,538,555,572,638,655,672,687,704","king","Corona","1","2","2","",""
"rule-violation","10","150729","0.0-2.0-1.0-0.2","byszkmchdc0obfy","practice","1","","","","","","","","542","467","1009","149467","1000","true","richtig!","0","false","false","false","1","2","1","611","509.3666687011719","1103","43.366668701171875","1216","576","587.52","494.08","1068.8","40.96","106.23999999999995","40.96","40.96","40.96","126.72000000000003","167.04000000000002","430.08","241.92","608,601,591,589,601,628,695,780,849,913,1107,1103","499.3666687011719,465.3666687011719,421.3666687011719,365.3666687011719,300.3666687011719,240.36666870117188,163.36666870117188,98.36666870117188,48.366668701171875,7.366668701171875,21.366668701171875,43.366668701171875","542,559,576,592,608,625,643,659,675,692,993,1009","king","Everyday","1","3","3","",""
"rule-violation","11","154530","0.0-2.0-1.0-0.3","byszkmchdc0obfy","practice","1","","","","","","","","428","333","761","153563","1000","true","richtig!","1","true","false","true","1","1","1","597","520.3666687011719","146","43.366668701171875","1216","576","587.52","494.08","106.23999999999995","40.96","1068.8","40.96","40.96","40.96","126.72000000000003","167.04000000000002","430.08","241.92","563,512,435,339,245,211,187,169,159,156,155,155,155,152,149,148,146","461.3666687011719,400.3666687011719,319.3666687011719,227.36666870117188,132.36666870117188,109.36666870117188,88.36666870117188,72.36666870117188,61.366668701171875,55.366668701171875,52.366668701171875,48.366668701171875,45.366668701171875,43.366668701171875,42.366668701171875,42.366668701171875,43.366668701171875","428,446,461,477,494,511,527,545,562,577,595,611,628,645,662,677,761","pawn","Everyday","1","4","4","",""
"rule-violation","12","158318","0.0-2.0-1.0-0.4","byszkmchdc0obfy","practice","1","","","","","","","","401","348","749","157339","1000","true","richtig!","10","true","false","true","10","1","1","610","513.3666687011719","140","61.366668701171875","1216","576","587.52","494.08","106.23999999999995","40.96","1068.8","40.96","40.96","40.96","126.72000000000003","167.04000000000002","430.08","241.92","574,534,455,393,327,279,241,215,206,202,201,200,199,199,196,191,189,187,184,178,156,140","499.3666687011719,451.3666687011719,353.3666687011719,299.3666687011719,237.36666870117188,185.36666870117188,145.36666870117188,101.36666870117188,85.36666870117188,77.36666870117188,75.36666870117188,73.36666870117188,71.36666870117188,69.36666870117188,67.36666870117188,62.366668701171875,61.366668701171875,61.366668701171875,61.366668701171875,61.366668701171875,61.366668701171875,61.366668701171875","400,416,433,450,468,484,500,517,534,550,567,583,600,616,633,650,666,683,700,716,732,749","pawn","Corona","1","5","5","",""
"rule-violation","13","161758","0.0-2.0-1.0-0.5","byszkmchdc0obfy","practice","1","","","","","","","","484","116","600","160937","1000","false","falsch!","0","false","false","true","1","2","2","605","506.3666687011719","133","60.366668701171875","1216","576","587.52","494.08","1068.8","40.96","106.23999999999995","40.96","40.96","40.96","659.2","167.04000000000002","430.08","241.92","592,577,525,451,327,237,178,133","498.3666687011719,479.3666687011719,431.3666687011719,359.3666687011719,239.36666870117188,151.36666870117188,101.36666870117188,60.366668701171875","483,500,517,534,551,567,584,600","pawn","Corona","1","6","6","",""
"rule-violation","14","166108","0.0-2.0-1.0-0.6","byszkmchdc0obfy","practice","1","","","","","","","","608","149","757","165145","1000","false","falsch!","0","true","false","false","10","2","1","619","503.3666687011719","147","52.366668701171875","1216","576","587.52","494.08","1068.8","40.96","106.23999999999995","40.96","40.96","40.96","126.72000000000003","167.04000000000002","430.08","241.92","607,576,487,416,335,275,228,193,161,147","479.3666687011719,423.3666687011719,315.3666687011719,246.36666870117188,177.36666870117188,133.36666870117188,99.36666870117188,79.36666870117188,61.366668701171875,52.366668701171875","608,624,640,657,675,690,707,724,740,757","pawn","Everyday","1","7","7","",""
"rule-violation","15","169738","0.0-2.0-1.0-0.7","byszkmchdc0obfy","practice","1","","","","","","","","353","367","720","168797","1000","true","richtig!","10","false","false","false","10","1","2","606","524.3666687011719","124","75.36666870117188","1216","576","587.52","494.08","106.23999999999995","40.96","1068.8","40.96","40.96","40.96","659.2","167.04000000000002","430.08","241.92","575,529,464,366,289,187,141,118,102,94,91,91,91,91,89,87,87,87,88,93,99,111,124","487.3666687011719,433.3666687011719,363.3666687011719,291.3666687011719,235.36666870117188,170.36666870117188,148.36666870117188,139.36666870117188,129.36666870117188,122.36666870117188,119.36666870117188,117.36666870117188,114.36666870117188,111.36666870117188,109.36666870117188,107.36666870117188,105.36666870117188,102.36666870117188,101.36666870117188,95.36666870117188,91.36666870117188,85.36666870117188,75.36666870117188","353,369,386,402,420,437,453,470,486,503,520,536,553,570,587,604,620,637,653,670,687,703,719","king","Everyday","1","8","8","",""
"rule-violation","16","173699","0.0-2.0-1.0-0.8","byszkmchdc0obfy","practice","1","","","","","","","","387","365","752","172729","1000","true","richtig!","10","false","false","false","10","1","2","602","509.3666687011719","124","61.366668701171875","1216","576","587.52","494.08","106.23999999999995","40.96","1068.8","40.96","40.96","40.96","659.2","167.04000000000002","430.08","241.92","566,498,410,275,189,118,49,25,19,19,19,21,22,23,23,24,27,30,40,55,75,98,124","462.3666687011719,375.3666687011719,307.3666687011719,200.36666870117188,145.36666870117188,107.36666870117188,81.36666870117188,66.36666870117188,61.366668701171875,59.366668701171875,57.366668701171875,56.366668701171875,55.366668701171875,53.366668701171875,52.366668701171875,51.366668701171875,51.366668701171875,51.366668701171875,53.366668701171875,57.366668701171875,61.366668701171875,63.366668701171875,61.366668701171875","387,403,420,437,453,469,487,503,520,536,553,569,587,603,621,636,653,670,687,703,720,737,752","pawn","Corona","1","9","9","",""
"rule-violation","17","177259","0.0-2.0-1.0-0.9","byszkmchdc0obfy","practice","1","","","","","","","","328","233","561","176469","1000","true","richtig!","1","false","false","false","1","1","2","623","523.3666687011719","141","77.36666870117188","1216","576","587.52","494.08","106.23999999999995","40.96","1068.8","40.96","40.96","40.96","659.2","167.04000000000002","430.08","241.92","597,563,509,447,360,292,237,177,157,147,144,144,144,144,141","477.3666687011719,421.3666687011719,357.3666687011719,296.3666687011719,239.36666870117188,193.36666870117188,161.36666870117188,124.36666870117188,107.36666870117188,96.36666870117188,91.36666870117188,87.36666870117188,85.36666870117188,82.36666870117188,77.36666870117188","328,345,361,378,394,412,429,445,462,478,496,512,529,545,561","pawn","Corona","1","10","10","",""
"html-keyboard-response","18","254042","0.0-2.0-2.0","byszkmchdc0obfy","instruction","1","76778","<b>Super!</b> Nun noch zur Bedeutung der Umgebungsmerkmale, die Ihnen vermutlich bereits aufgefallen sind. <br><br>Nach einer weiteren kurzen Übungsphase folgt gleich das Hauptexperiment, in dem Sie für richtiges und schnelles <br>Ankommen am Zielort jeweils die Punkte erhalten, die Ihnen am Anfang jedes Durchgangs angezeigt werden (1 oder 10 Punkte). <br>Der/die Teilnehmer*in, der/die im Hauptexperiment die meisten Punkte sammelt, erhält den 30€-Gutschein (Amazon). <br><br><b>Strengen Sie sich also an, so viele Punkte wie möglich zu sammeln! </b><br><br>Die Situation für diese Studie ist die folgende: Sie befinden sich in der Innenstadt und müssen so schnell wie möglich <br>an den richtigen Zielort gelangen. Leider haben Sie Ihre Maske zu Hause vergessen. Auf Ihrem Weg durch die Innenstadt <br>gibt es einige Bereich, zu denen der <b>Zutritt untersagt</b> ist: <br><img src='img/Zutritt_verboten.png' width='60' height='40'></img> <br>oder die <b>nur mit Maske</b> passiert werden dürfen: <br><img src='img/Face_Mask.png' width='60' height='40'></img> <br> Wie im wirklichen Leben auch, können Sie diese Bereiche selbstverständlich trotzdem passieren, um möglichst <br>schnell ans Ziel zu kommen. <br><br>Denken Sie daran, die Punkte des jeweiligen Durchgangs erhalten Sie nur, wenn Sie <b>schnell und richtig</b> reagieren. <br>Wenn Sie mit der Maus die Bereiche, die Sie nicht betreten dürfen umfahren, gehen Sie kein Risiko ein. Sind Sie allerdings <br>nicht schnell genug, erhalten Sie nicht die entsprechenden Punkte. Wenn Sie den direkten Weg wählen und mit der Maus durch <br>die Bereiche, die Sie nicht betreten dürfen, fahren, besteht das Risiko, dass Sie von der Polizei, die ab und zu in der <br>Innenstadt kontrolliert, erwischt werden. Dann müssen Sie eine Strafe von 20 Punkten zahlen. <br><br>Im Folgenden sehen Sie, wie Ihnen die jeweils erhaltenen Punkte nach jedem Durchgang angezeigt werden können: <br><div class='row'><div class='column'><div class='container'><img src='img/Police_2.png' width='120' height='100'><div class='centeredred'>-20!</div></div></div><div class='column'><div class='container'><img src='img/Circle.png' width='100' height='100'><div class='centered'>+0!</div></div></div><div class='column'><div class='container'><img src='img/Star.png' width='100' height='100'><div class='centered'>+1!</div></div></div><div class='column'><div class='container'><img src='img/Star.png' width='100' height='100'><div class='centered'>+10!</div></div></div></div>Sie haben nun nochmal einige Durchgänge Gelegenheit, die Aufgabe zu üben. <b>Hier zählen die Punkte noch nicht</b>. Das wird erst <br>im Hauptexperiment der Fall sein. Probieren Sie also gern alles aus, um ein Gefühl für die Aufgabe zu bekommen. <br><br>Drücken Sie ENTER um mit der zweiten Übung zu beginnen.","13","","","","","","","","","","","","","","","","","","","","","","","","","","","","","","","","","","","","","","","","","","","","","",""
"rule-violation","19","257589","0.0-2.0-3.0-0.0","byszkmchdc0obfy","practice2","1","","","","","","","","415","151","566","256812","10000000","true","richtig!","10","false","false","false","10","2","1","609","510.3666687011719","1072","51.366668701171875","1216","576","587.52","494.08","1068.8","40.96","106.23999999999995","40.96","40.96","40.96","126.72000000000003","167.04000000000002","430.08","241.92","604,602,601,601,605,619,652,699,758,823,891,975,1023,1072","505.3666687011719,503.3666687011719,501.3666687011719,499.3666687011719,487.3666687011719,470.3666687011719,435.3666687011719,381.3666687011719,318.3666687011719,248.36666870117188,194.36666870117188,111.36666870117188,73.36666870117188,51.366668701171875","348,366,382,399,415,432,449,466,483,499,516,533,548,566","king","Everyday","2","1","1","",""
"rule-violation","20","263128","0.0-2.0-3.0-0.1","byszkmchdc0obfy","practice2","1","","","","","","","","447","400","847","262062","0","true","richtig!","0","true","false","true","1","2","2","603","513.3666687011719","1085","68.36666870117188","1216","576","587.52","494.08","1068.8","40.96","106.23999999999995","40.96","40.96","40.96","659.2","167.04000000000002","430.08","241.92","610,625,667,720,772,869,927,986,1023,1039,1047,1049,1055,1071,1085","503.3666687011719,484.3666687011719,445.3666687011719,392.3666687011719,333.3666687011719,235.36666870117188,177.36666870117188,142.36666870117188,121.36666870117188,113.36666870117188,109.36666870117188,107.36666870117188,100.36666870117188,84.36666870117188,68.36666870117188","447,463,480,496,513,530,546,564,580,597,613,629,814,830,847","pawn","Corona","2","2","2","",""
"rule-violation","21","267062","0.0-2.0-3.0-0.2","byszkmchdc0obfy","practice2","1","","","","","","","","382","267","649","266208","0","true","richtig!","0","false","false","false","10","1","2","607","517.3666687011719","107","81.36666870117188","1216","576","587.52","494.08","106.23999999999995","40.96","1068.8","40.96","40.96","40.96","659.2","167.04000000000002","430.08","241.92","571,497,382,292,215,166,141,127,116,114,114,114,114,114,111,108,107","473.3666687011719,414.3666687011719,328.3666687011719,264.3666687011719,200.36666870117188,152.36666870117188,125.36666870117188,111.36666870117188,101.36666870117188,97.36666870117188,97.36666870117188,94.36666870117188,92.36666870117188,89.36666870117188,86.36666870117188,83.36666870117188,81.36666870117188","382,398,416,433,449,465,482,499,515,532,550,566,582,598,616,631,649","king","Everyday","2","3","3","",""
"rule-violation","22","270688","0.0-2.0-3.0-0.3","byszkmchdc0obfy","practice2","1","","","","","","","","416","417","833","269639","10000000","true","richtig!","1","false","false","false","1","1","2","600","521.3666687011719","109","61.366668701171875","1216","576","587.52","494.08","106.23999999999995","40.96","1068.8","40.96","40.96","40.96","659.2","167.04000000000002","430.08","241.92","557,501,405,312,214,127,45,23,17,18,21,24,29,33,34,35,49,61,73,86,97,109","465.3666687011719,396.3666687011719,313.3666687011719,247.36666870117188,176.36666870117188,117.36666870117188,53.366668701171875,28.366668701171875,19.366668701171875,16.366668701171875,15.366668701171875,16.366668701171875,19.366668701171875,22.366668701171875,23.366668701171875,23.366668701171875,35.366668701171875,45.366668701171875,49.366668701171875,53.366668701171875,57.366668701171875,61.366668701171875","416,433,450,466,483,500,516,532,549,567,583,600,616,633,716,732,750,766,783,799,815,833","king","Everyday","2","4","4","",""
"rule-violation","23","274629","0.0-2.0-3.0-0.4","byszkmchdc0obfy","practice2","1","","","","","","","","479","749","1228","273175","10000000","true","richtig!","-20","true","true","true","10","2","2","610","517.3666687011719","1107","70.36666870117188","1216","576","587.52","494.08","1068.8","40.96","106.23999999999995","40.96","40.96","40.96","659.2","167.04000000000002","430.08","241.92","664,782,864,944,1003,1044,1059,1065,1067,1067,1065,1063,1061,1061,1065,1075,1093,1107,1115,1119,1121,1122,1119,1117,1115,1114,1114,1112,1107","478.3666687011719,391.3666687011719,331.3666687011719,269.3666687011719,228.36666870117188,211.36666870117188,203.36666870117188,199.36666870117188,195.36666870117188,191.36666870117188,187.36666870117188,183.36666870117188,178.36666870117188,172.36666870117188,161.36666870117188,150.36666870117188,132.36666870117188,115.36666870117188,101.36666870117188,92.36666870117188,89.36666870117188,86.36666870117188,80.36666870117188,77.36666870117188,75.36666870117188,75.36666870117188,74.36666870117188,73.36666870117188,70.36666870117188","479,495,512,528,546,563,578,595,612,629,646,662,678,695,712,728,745,763,778,795,812,828,845,862,879,895,912,1211,1228","pawn","Corona","2","5","5","",""
"rule-violation","24","278108","0.0-2.0-3.0-0.5","byszkmchdc0obfy","practice2","1","","","","","","","","468","367","835","277051","10000000","true","richtig!","10","true","false","true","10","1","1","606","505.3666687011719","118","41.366668701171875","1216","576","587.52","494.08","106.23999999999995","40.96","1068.8","40.96","40.96","40.96","126.72000000000003","167.04000000000002","430.08","241.92","572,529,442,394,347,299,271,244,227,209,197,186,175,165,153,137,131,126,124,123,121,120,118","450.3666687011719,403.3666687011719,310.3666687011719,260.3666687011719,215.36666870117188,165.36666870117188,131.36666870117188,103.36666870117188,85.36666870117188,65.36666870117188,55.366668701171875,47.366668701171875,41.366668701171875,38.366668701171875,34.366668701171875,32.366668701171875,32.366668701171875,33.366668701171875,35.366668701171875,36.366668701171875,37.366668701171875,39.366668701171875,41.366668701171875","468,485,500,518,534,551,569,583,601,617,635,651,668,683,700,718,734,750,769,784,800,817,835","pawn","Everyday","2","6","6","",""
"rule-violation","25","281329","0.0-2.0-3.0-0.6","byszkmchdc0obfy","practice2","1","","","","","","","","413","83","496","280621","10000000","true","richtig!","1","false","false","false","1","1","2","604","521.3666687011719","117","66.36666870117188","1216","576","587.52","494.08","106.23999999999995","40.96","1068.8","40.96","40.96","40.96","659.2","167.04000000000002","430.08","241.92","457,351,262,202,147,117","330.3666687011719,231.36666870117188,173.36666870117188,131.36666870117188,89.36666870117188,66.36666870117188","413,429,446,463,479,496","king","Corona","2","7","7","",""
"rule-violation","26","287229","0.0-2.0-3.0-0.7","byszkmchdc0obfy","practice2","1","","","","","","","","398","399","797","286217","10000000","true","richtig!","1","false","false","false","1","2","1","609","523.3666687011719","1105","63.366668701171875","1216","576","587.52","494.08","1068.8","40.96","106.23999999999995","40.96","40.96","40.96","126.72000000000003","167.04000000000002","430.08","241.92","628,661,726,816,923,1057,1139,1190,1209,1215,1213,1211,1209,1207,1203,1193,1177,1159,1143,1123,1105","503.3666687011719,472.3666687011719,410.3666687011719,347.3666687011719,278.3666687011719,185.36666870117188,124.36666870117188,80.36666870117188,61.366668701171875,40.366668701171875,37.366668701171875,35.366668701171875,33.366668701171875,33.366668701171875,33.366668701171875,36.366668701171875,41.366668701171875,48.366668701171875,52.366668701171875,58.366668701171875,63.366668701171875","398,414,431,448,464,481,497,514,530,613,631,647,663,680,697,713,729,746,763,781,797","king","Corona","2","8","8","",""
"rule-violation","27","290688","0.0-2.0-3.0-0.8","byszkmchdc0obfy","practice2","1","","","","","","","","469","299","768","289711","10000000","true","richtig!","1","true","false","true","1","2","2","596","513.3666687011719","1073","77.36666870117188","1216","576","587.52","494.08","1068.8","40.96","106.23999999999995","40.96","40.96","40.96","659.2","167.04000000000002","430.08","241.92","602,624,658,715,774,841,898,951,1016,1041,1054,1059,1062,1063,1063,1065,1067,1069,1073","503.3666687011719,472.3666687011719,438.3666687011719,396.3666687011719,336.3666687011719,282.3666687011719,242.36666870117188,200.36666870117188,147.36666870117188,129.36666870117188,116.36666870117188,109.36666870117188,103.36666870117188,101.36666870117188,98.36666870117188,93.36666870117188,87.36666870117188,83.36666870117188,77.36666870117188","469,485,502,519,535,551,568,585,602,619,635,651,668,685,701,719,735,752,768","pawn","Everyday","2","9","9","",""
"rule-violation","28","295049","0.0-2.0-3.0-0.9","byszkmchdc0obfy","practice2","1","","","","","","","","335","367","702","294125","10000000","true","richtig!","1","true","false","true","1","1","1","605","518.3666687011719","147","65.36666870117188","1216","576","587.52","494.08","106.23999999999995","40.96","1068.8","40.96","40.96","40.96","126.72000000000003","167.04000000000002","430.08","241.92","599,579,527,463,394,313,271,237,220,215,213,212,209,204,198,195,188,183,176,169,161,155,147","507.3666687011719,466.3666687011719,400.3666687011719,323.3666687011719,253.36666870117188,192.36666870117188,157.36666870117188,121.36666870117188,103.36666870117188,95.36666870117188,91.36666870117188,88.36666870117188,86.36666870117188,85.36666870117188,85.36666870117188,83.36666870117188,80.36666870117188,77.36666870117188,75.36666870117188,73.36666870117188,72.36666870117188,69.36666870117188,65.36666870117188","335,353,369,385,402,419,436,453,469,486,502,519,536,553,568,586,602,619,636,653,669,686,702","pawn","Everyday","2","10","10","",""
"rule-violation","29","298908","0.0-2.0-3.0-0.10","byszkmchdc0obfy","practice2","1","","","","","","","","453","582","1035","297657","10000000","true","richtig!","1","false","false","false","1","2","1","608","515.3666687011719","1085","41.366668701171875","1216","576","587.52","494.08","1068.8","40.96","106.23999999999995","40.96","40.96","40.96","126.72000000000003","167.04000000000002","430.08","241.92","664,746,845,1029,1143,1180,1162,1147,1132,1118,1103,1100,1099,1098,1097,1097,1095,1095,1095,1094,1093,1090,1087,1085","453.3666687011719,371.3666687011719,289.3666687011719,167.36666870117188,82.36666870117188,5.366668701171875,9.366668701171875,11.366668701171875,8.366668701171875,6.366668701171875,9.366668701171875,11.366668701171875,14.366668701171875,16.366668701171875,19.366668701171875,20.366668701171875,23.366668701171875,25.366668701171875,27.366668701171875,28.366668701171875,30.366668701171875,35.366668701171875,39.366668701171875,41.366668701171875","453,470,485,502,518,719,735,752,768,786,802,819,836,853,868,885,902,918,935,969,985,1002,1019,1035","king","Everyday","2","11","11","",""
"rule-violation","30","303412","0.0-2.0-3.0-0.11","byszkmchdc0obfy","practice2","1","","","","","","","","436","600","1036","302171","10000000","true","richtig!","-20","true","true","true","1","2","2","611","519.3666687011719","1109","56.366668701171875","1216","576","587.52","494.08","1068.8","40.96","106.23999999999995","40.96","40.96","40.96","659.2","167.04000000000002","430.08","241.92","635,663,705,767,843,868,885,915,933,950,964,967,969,970,971,971,972,975,987,1012,1049,1087,1127,1156,1159,1161,1161,1159,1157,1154,1145,1133,1119,1109","485.3666687011719,456.3666687011719,409.3666687011719,361.3666687011719,309.3666687011719,287.3666687011719,274.3666687011719,254.36666870117188,236.36666870117188,216.36666870117188,193.36666870117188,185.36666870117188,182.36666870117188,179.36666870117188,179.36666870117188,177.36666870117188,175.36666870117188,171.36666870117188,159.36666870117188,142.36666870117188,119.36666870117188,94.36666870117188,70.36666870117188,49.366668701171875,47.366668701171875,45.366668701171875,43.366668701171875,43.366668701171875,43.366668701171875,44.366668701171875,48.366668701171875,52.366668701171875,55.366668701171875,56.366668701171875","436,453,470,486,502,519,537,553,569,586,602,619,636,653,669,686,702,719,736,753,770,786,803,819,836,853,870,887,903,919,986,1003,1019,1036","king","Corona","2","12","12","",""
"rule-violation","31","307169","0.0-2.0-3.0-0.12","byszkmchdc0obfy","practice2","1","","","","","","","","471","399","870","306084","10000000","true","richtig!","10","false","false","false","10","2","1","599","522.3666687011719","1106","56.366668701171875","1216","576","587.52","494.08","1068.8","40.96","106.23999999999995","40.96","40.96","40.96","126.72000000000003","167.04000000000002","430.08","241.92","636,693,770,849,959,1043,1101,1147,1169,1176,1177,1173,1166,1154,1144,1141,1141,1135,1129,1120,1115,1111,1106","478.3666687011719,413.3666687011719,339.3666687011719,270.3666687011719,152.36666870117188,81.36666870117188,35.366668701171875,13.366668701171875,3.366668701171875,1.366668701171875,1.366668701171875,3.366668701171875,6.366668701171875,10.366668701171875,13.366668701171875,13.366668701171875,14.366668701171875,23.366668701171875,34.366668701171875,43.366668701171875,49.366668701171875,51.366668701171875,56.366668701171875","471,488,505,522,537,555,572,587,604,621,637,654,671,688,705,721,771,788,804,821,837,854,870","king","Corona","2","13","13","",""
"rule-violation","32","310668","0.0-2.0-3.0-0.13","byszkmchdc0obfy","practice2","1","","","","","","","","408","83","491","309962","10000000","true","richtig!","10","true","false","true","10","1","1","598","507.3666687011719","112","62.366668701171875","1216","576","587.52","494.08","106.23999999999995","40.96","1068.8","40.96","40.96","40.96","126.72000000000003","167.04000000000002","430.08","241.92","551,445,351,257,170,112","437.3666687011719,300.3666687011719,229.36666870117188,165.36666870117188,106.36666870117188,62.366668701171875","408,424,441,458,474,491","king","Everyday","2","14","14","",""
"rule-violation","33","314619","0.0-2.0-3.0-0.14","byszkmchdc0obfy","practice2","1","","","","","","","","452","300","752","313667","0","true","richtig!","0","false","false","false","1","2","1","600","507.3666687011719","1083","81.36666870117188","1216","576","587.52","494.08","1068.8","40.96","106.23999999999995","40.96","40.96","40.96","126.72000000000003","167.04000000000002","430.08","241.92","611,637,722,799,877,943,997,1049,1081,1085,1085,1085,1085,1084,1084,1083","495.3666687011719,471.3666687011719,394.3666687011719,333.3666687011719,266.3666687011719,203.36666870117188,155.36666870117188,121.36666870117188,95.36666870117188,90.36666870117188,89.36666870117188,89.36666870117188,86.36666870117188,85.36666870117188,85.36666870117188,81.36666870117188","452,468,486,502,518,534,552,568,585,602,618,684,701,717,734,752","pawn","Corona","2","15","15","",""
"rule-violation","34","318259","0.0-2.0-3.0-0.15","byszkmchdc0obfy","practice2","1","","","","","","","","501","466","967","317067","10000000","true","richtig!","-20","true","true","true","10","2","2","621","522.3666687011719","1102","55.366668701171875","1216","576","587.52","494.08","1068.8","40.96","106.23999999999995","40.96","40.96","40.96","659.2","167.04000000000002","430.08","241.92","637,652,681,723,766,820,910,980,1050,1111,1154,1175,1181,1182,1173,1149,1133,1118,1102","502.3666687011719,482.3666687011719,447.3666687011719,403.3666687011719,364.3666687011719,307.3666687011719,206.36666870117188,145.36666870117188,101.36666870117188,75.36666870117188,65.36666870117188,61.366668701171875,59.366668701171875,59.366668701171875,61.366668701171875,61.366668701171875,57.366668701171875,56.366668701171875,55.366668701171875","501,517,533,550,566,584,600,617,634,650,667,683,700,717,900,916,934,951,967","pawn","Everyday","2","16","16","",""
"rule-violation","35","321788","0.0-2.0-3.0-0.16","byszkmchdc0obfy","practice2","1","","","","","","","","349","332","681","320884","0","true","richtig!","0","false","false","false","10","1","2","607","502.3666687011719","146","64.36666870117188","1216","576","587.52","494.08","106.23999999999995","40.96","1068.8","40.96","40.96","40.96","659.2","167.04000000000002","430.08","241.92","592,565,494,421,351,259,203,177,169,167,159,146","481.3666687011719,430.3666687011719,365.3666687011719,285.3666687011719,209.36666870117188,111.36666870117188,60.366668701171875,32.366668701171875,22.366668701171875,27.366668701171875,47.366668701171875,64.36666870117188","349,365,381,398,414,432,448,465,481,648,664,681","pawn","Corona","2","17","17","",""
"rule-violation","36","325689","0.0-2.0-3.0-0.17","byszkmchdc0obfy","practice2","1","","","","","","","","308","615","923","324556","10000000","true","richtig!","-20","true","true","true","1","2","2","614","523.3666687011719","1088","59.366668701171875","1216","576","587.52","494.08","1068.8","40.96","106.23999999999995","40.96","40.96","40.96","659.2","167.04000000000002","430.08","241.92","612,647,703,773,846,922,1003,1025,1034,1035,1035,1027,1023,1021,1019,1021,1024,1029,1037,1050,1063,1088","523.3666687011719,489.3666687011719,432.3666687011719,365.3666687011719,286.3666687011719,219.36666870117188,153.36666870117188,141.36666870117188,137.36666870117188,135.36666870117188,132.36666870117188,128.36666870117188,127.36666870117188,126.36666870117188,126.36666870117188,123.36666870117188,117.36666870117188,111.36666870117188,102.36666870117188,90.36666870117188,77.36666870117188,59.366668701171875","308,542,558,574,591,608,624,641,658,675,691,707,724,741,758,824,841,857,874,890,907,923","king","Everyday","2","18","18","",""
"rule-violation","37","329249","0.0-2.0-3.0-0.18","byszkmchdc0obfy","practice2","1","","","","","","","","311","383","694","328335","0","true","richtig!","0","false","false","false","1","1","2","611","508.3666687011719","143","75.36666870117188","1216","576","587.52","494.08","106.23999999999995","40.96","1068.8","40.96","40.96","40.96","659.2","167.04000000000002","430.08","241.92","597,577,494,420,339,271,215,190,177,173,171,169,169,168,165,163,160,157,155,155,153,143","490.3666687011719,453.3666687011719,357.3666687011719,305.3666687011719,239.36666870117188,191.36666870117188,157.36666870117188,137.36666870117188,119.36666870117188,112.36666870117188,109.36666870117188,105.36666870117188,105.36666870117188,104.36666870117188,101.36666870117188,99.36666870117188,95.36666870117188,93.36666870117188,91.36666870117188,90.36666870117188,88.36666870117188,75.36666870117188","311,327,344,361,377,393,411,427,444,461,477,494,511,527,543,561,577,594,611,661,677,694","pawn","Corona","2","19","19","",""
"rule-violation","38","333439","0.0-2.0-3.0-0.19","byszkmchdc0obfy","practice2","1","","","","","","","","327","699","1026","332184","10000000","true","richtig!","-20","true","true","true","1","1","1","609","519.3666687011719","112","67.36666870117188","1216","576","587.52","494.08","106.23999999999995","40.96","1068.8","40.96","40.96","40.96","126.72000000000003","167.04000000000002","430.08","241.92","584,525,403,322,235,179,142,113,96,87,84,82,79,76,78,82,87,94,97,100,101,102,112","489.3666687011719,431.3666687011719,331.3666687011719,255.36666870117188,187.36666870117188,136.36666870117188,104.36666870117188,88.36666870117188,75.36666870117188,67.36666870117188,65.36666870117188,63.366668701171875,60.366668701171875,57.366668701171875,59.366668701171875,61.366668701171875,63.366668701171875,65.36666870117188,66.36666870117188,67.36666870117188,67.36666870117188,67.36666870117188,67.36666870117188","327,344,359,376,393,409,426,444,460,476,493,560,577,593,759,776,792,809,826,843,860,1010,1026","king","Everyday","2","20","20","",""
"rule-violation","39","343361","0.0-2.0-3.0-0.20","byszkmchdc0obfy","practice2","1","","","","","","","","327","367","694","342446","10000000","true","richtig!","10","false","false","false","10","1","2","617","519.3666687011719","145","73.36666870117188","1216","576","587.52","494.08","106.23999999999995","40.96","1068.8","40.96","40.96","40.96","659.2","167.04000000000002","430.08","241.92","587,549,482,401,333,259,207,194,187,185,183,179,176,174,173,171,168,165,161,157,151,149,145","483.3666687011719,435.3666687011719,362.3666687011719,293.3666687011719,239.36666870117188,192.36666870117188,152.36666870117188,139.36666870117188,130.36666870117188,126.36666870117188,123.36666870117188,118.36666870117188,111.36666870117188,109.36666870117188,105.36666870117188,103.36666870117188,100.36666870117188,97.36666870117188,90.36666870117188,85.36666870117188,79.36666870117188,75.36666870117188,73.36666870117188","327,343,360,376,393,409,426,443,460,476,493,509,527,544,560,576,593,610,626,644,660,676,694","king","Corona","2","21","21","",""
"rule-violation","40","346642","0.0-2.0-3.0-0.21","byszkmchdc0obfy","practice2","1","","","","","","","","389","134","523","345915","10000000","true","richtig!","10","false","false","false","10","2","1","599","520.3666687011719","1074","70.36666870117188","1216","576","587.52","494.08","1068.8","40.96","106.23999999999995","40.96","40.96","40.96","126.72000000000003","167.04000000000002","430.08","241.92","641,694,740,807,871,935,1031,1059,1074","474.3666687011719,431.3666687011719,383.3666687011719,313.3666687011719,247.36666870117188,190.36666870117188,113.36666870117188,87.36666870117188,70.36666870117188","389,406,423,439,455,472,489,506,523","pawn","Everyday","2","22","22","",""
"rule-violation","41","350725","0.0-2.0-3.0-0.22","byszkmchdc0obfy","practice2","1","","","","","","","","394","999","1393","349125","10000000","false","falsch!","0","true","false","false","1","1","2","623","514.3666687011719","1085","57.366668701171875","1216","576","587.52","494.08","106.23999999999995","40.96","1068.8","40.96","40.96","40.96","659.2","167.04000000000002","430.08","241.92","576,531,472,409,377,345,323,315,322,363,416,493,587,667,755,829,897,917,925,925,926,931,954,972,999,1054,1085","455.3666687011719,412.3666687011719,362.3666687011719,317.3666687011719,284.3666687011719,253.36666870117188,235.36666870117188,227.36666870117188,227.36666870117188,235.36666870117188,247.36666870117188,260.3666687011719,270.3666687011719,275.3666687011719,278.3666687011719,274.3666687011719,269.3666687011719,265.3666687011719,263.3666687011719,263.3666687011719,260.3666687011719,241.36666870117188,188.36666870117188,152.36666870117188,122.36666870117188,78.36666870117188,57.366668701171875","394,411,428,445,462,478,495,512,545,561,577,595,611,628,646,661,678,694,711,727,1294,1311,1328,1345,1361,1377,1393","pawn","Everyday","2","23","23","",""
"rule-violation","42","354174","0.0-2.0-3.0-0.23","byszkmchdc0obfy","practice2","1","","","","","","","","352","316","668","353299","10000000","true","richtig!","10","true","false","true","10","1","1","607","515.3666687011719","125","74.36666870117188","1216","576","587.52","494.08","106.23999999999995","40.96","1068.8","40.96","40.96","40.96","126.72000000000003","167.04000000000002","430.08","241.92","598,537,461,369,282,205,150,119,97,87,85,85,87,88,91,95,99,105,113,125","503.3666687011719,445.3666687011719,391.3666687011719,327.3666687011719,270.3666687011719,204.36666870117188,166.36666870117188,145.36666870117188,127.36666870117188,119.36666870117188,116.36666870117188,113.36666870117188,111.36666870117188,110.36666870117188,107.36666870117188,104.36666870117188,99.36666870117188,93.36666870117188,85.36666870117188,74.36666870117188","352,369,385,401,419,435,452,468,485,501,519,535,551,568,585,602,619,635,651,668","pawn","Corona","2","24","24","",""
"rule-violation","43","357399","0.0-2.0-3.0-0.24","byszkmchdc0obfy","practice2","1","","","","","","","","384","117","501","356682","10000000","true","richtig!","10","true","false","true","10","1","1","604","515.3666687011719","137","71.36666870117188","1216","576","587.52","494.08","106.23999999999995","40.96","1068.8","40.96","40.96","40.96","126.72000000000003","167.04000000000002","430.08","241.92","571,501,429,349,278,216,164,137","461.3666687011719,391.3666687011719,328.3666687011719,268.3666687011719,199.36666870117188,143.36666870117188,97.36666870117188,71.36666870117188","384,400,418,434,451,468,484,501","king","Corona","2","25","25","",""
"rule-violation","44","361620","0.0-2.0-3.0-0.25","byszkmchdc0obfy","practice2","1","","","","","","","","499","734","1233","360182","10000000","true","richtig!","10","true","false","true","10","2","2","607","518.3666687011719","1107","81.36666870117188","1216","576","587.52","494.08","1068.8","40.96","106.23999999999995","40.96","40.96","40.96","659.2","167.04000000000002","430.08","241.92","647,697,738,807,872,955,1033,1101,1116,1122,1123,1118,1114,1113,1111,1111,1109,1108,1107,1107,1107,1107,1107,1107,1107","480.3666687011719,437.3666687011719,385.3666687011719,316.3666687011719,256.3666687011719,191.36666870117188,142.36666870117188,100.36666870117188,93.36666870117188,90.36666870117188,89.36666870117188,92.36666870117188,93.36666870117188,93.36666870117188,93.36666870117188,92.36666870117188,91.36666870117188,89.36666870117188,87.36666870117188,87.36666870117188,86.36666870117188,85.36666870117188,85.36666870117188,83.36666870117188,81.36666870117188","499,516,532,549,566,582,598,616,633,649,666,732,749,766,783,799,882,899,916,933,1082,1098,1198,1215,1233","king","Everyday","2","26","26","",""
"rule-violation","45","365648","0.0-2.0-3.0-0.26","byszkmchdc0obfy","practice2","1","","","","","","","","501","399","900","364529","0","true","richtig!","0","true","false","true","10","2","2","615","514.3666687011719","1079","70.36666870117188","1216","576","587.52","494.08","1068.8","40.96","106.23999999999995","40.96","40.96","40.96","659.2","167.04000000000002","430.08","241.92","619,629,658,689,718,759,845,895,950,989,1007,1015,1016,1016,1017,1019,1022,1027,1032,1039,1055,1067,1079","499.3666687011719,486.3666687011719,451.3666687011719,403.3666687011719,350.3666687011719,290.3666687011719,200.36666870117188,162.36666870117188,135.36666870117188,115.36666870117188,110.36666870117188,107.36666870117188,105.36666870117188,104.36666870117188,101.36666870117188,99.36666870117188,95.36666870117188,93.36666870117188,89.36666870117188,86.36666870117188,81.36666870117188,77.36666870117188,70.36666870117188","483,501,517,534,551,567,583,600,617,633,651,667,684,750,767,783,800,817,833,850,867,883,900","king","Corona","2","27","27","",""
"rule-violation","46","369068","0.0-2.0-3.0-0.27","byszkmchdc0obfy","practice2","1","","","","","","","","420","100","520","368324","10000000","true","richtig!","1","true","false","true","1","1","1","608","505.3666687011719","133","66.36666870117188","1216","576","587.52","494.08","106.23999999999995","40.96","1068.8","40.96","40.96","40.96","126.72000000000003","167.04000000000002","430.08","241.92","550,439,348,259,197,153,133","424.3666687011719,299.3666687011719,228.36666870117188,169.36666870117188,121.36666870117188,87.36666870117188,66.36666870117188","419,436,453,470,486,504,520","king","Corona","2","28","28","",""
"rule-violation","47","372908","0.0-2.0-3.0-0.28","byszkmchdc0obfy","practice2","1","","","","","","","","450","451","901","371792","10000000","true","richtig!","1","true","false","true","1","1","1","622","511.3666687011719","108","50.366668701171875","1216","576","587.52","494.08","106.23999999999995","40.96","1068.8","40.96","40.96","40.96","126.72000000000003","167.04000000000002","430.08","241.92","596,533,401,314,231,170,119,87,73,64,63,63,63,63,63,66,74,86,103,108","478.3666687011719,417.3666687011719,315.3666687011719,247.36666870117188,181.36666870117188,132.36666870117188,89.36666870117188,65.36666870117188,50.366668701171875,38.366668701171875,35.366668701171875,35.366668701171875,34.366668701171875,33.366668701171875,33.366668701171875,34.366668701171875,38.366668701171875,43.366668701171875,48.366668701171875,50.366668701171875","450,467,483,500,516,533,550,567,583,599,617,633,700,717,733,834,850,866,884,901","pawn","Corona","2","29","29","",""
"rule-violation","48","377214","0.0-2.0-3.0-0.29","byszkmchdc0obfy","practice2","1","","","","","","","","501","467","968","376039","10000000","true","richtig!","1","false","false","false","1","2","1","601","513.3666687011719","1090","45.366668701171875","1216","576","587.52","494.08","1068.8","40.96","106.23999999999995","40.96","40.96","40.96","126.72000000000003","167.04000000000002","430.08","241.92","615,640,683,723,761,803,853,892,949,986,1029,1048,1065,1081,1098,1103,1102,1098,1093,1090","499.3666687011719,475.3666687011719,429.3666687011719,389.3666687011719,330.3666687011719,270.3666687011719,213.36666870117188,173.36666870117188,131.36666870117188,108.36666870117188,71.36666870117188,52.366668701171875,38.366668701171875,24.366668701171875,5.366668701171875,0.366668701171875,12.366668701171875,26.366668701171875,37.366668701171875,45.366668701171875","501,518,535,551,567,585,601,618,634,651,668,685,701,718,734,751,918,935,952,968","pawn","Everyday","2","30","30","",""
"rule-violation","49","380849","0.0-2.0-3.0-0.30","byszkmchdc0obfy","practice2","1","","","","","","","","610","216","826","379795","10000000","true","richtig!","10","false","false","false","10","2","1","611","506.3666687011719","1086","81.36666870117188","1216","576","587.52","494.08","1068.8","40.96","106.23999999999995","40.96","40.96","40.96","126.72000000000003","167.04000000000002","430.08","241.92","633,669,712,763,818,871,927,977,1033,1058,1074,1082,1085,1086","435.3666687011719,381.3666687011719,325.3666687011719,273.3666687011719,220.36666870117188,181.36666870117188,147.36666870117188,126.36666870117188,108.36666870117188,98.36666870117188,91.36666870117188,86.36666870117188,83.36666870117188,81.36666870117188","610,626,644,660,677,694,710,727,744,760,777,794,811,826","pawn","Corona","2","31","31","",""
"rule-violation","50","384743","0.0-2.0-3.0-0.31","byszkmchdc0obfy","practice2","1","","","","","","","","383","367","750","383771","10000000","true","richtig!","10","false","false","false","10","1","2","607","519.3666687011719","137","55.366668701171875","1216","576","587.52","494.08","106.23999999999995","40.96","1068.8","40.96","40.96","40.96","659.2","167.04000000000002","430.08","241.92","574,532,475,379,323,265,224,201,185,183,181,181,181,178,175,173,172,171,169,159,148,137","463.3666687011719,403.3666687011719,331.3666687011719,229.36666870117188,173.36666870117188,131.36666870117188,100.36666870117188,83.36666870117188,69.36666870117188,67.36666870117188,64.36666870117188,61.366668701171875,61.366668701171875,59.366668701171875,59.366668701171875,58.366668701171875,58.366668701171875,58.366668701171875,59.366668701171875,59.366668701171875,57.366668701171875,55.366668701171875","383,399,417,433,450,466,483,500,517,532,550,566,583,599,617,633,649,666,699,716,733,750","pawn","Everyday","2","32","32","",""
"html-keyboard-response","51","398219","0.0-3.0-0.0","byszkmchdc0obfy","instruction","1","13474","<div align=left><b>Super!</b> Nun startet das Hauptexperiment. <br><br> Sie starten mit 0 Punkten. <b>Ab jetzt zählen alle Punkte, die Sie gewinnen oder verlieren. </b><br>Nach einigen Durchgängen gibt es jeweils eine Pause, in der Ihnen der aktuelle Punktestand angezeigt wird. <br>Denken Sie daran, Sie erhalten nur Punkte, wenn Sie sowohl <b>schnell als auch richtig</b> reagieren! <br><br>Drücken Sie ENTER um mit dem Experiment zu beginnen.","13","","","","","","","","","","","","","","","","","","","","","","","","","","","","","","","","","","","","","","","","","","","","","",""
"rule-violation","52","403099","0.0-3.0-1.0-0.0-0.0","byszkmchdc0obfy","main","1","","","","","","","","444","350","794","402085","642.2666666666667","true","richtig!","0","false","false","false","10","2","1","613","519.3666687011719","1073","41.366668701171875","1216","576","587.52","494.08","1068.8","40.96","106.23999999999995","40.96","40.96","40.96","126.72000000000003","167.04000000000002","430.08","241.92","639,686,750,821,865,921,974,1019,1043,1055,1056,1057,1066,1073","475.3666687011719,409.3666687011719,317.3666687011719,194.36666870117188,136.36666870117188,95.36666870117188,61.366668701171875,43.366668701171875,37.366668701171875,31.366668701171875,30.366668701171875,30.366668701171875,37.366668701171875,41.366668701171875","444,460,477,493,510,527,544,560,577,593,610,761,777,794","king","Everyday","0","1","1","0","15%"
"rule-violation","53","406678","0.0-3.0-1.0-0.0-0.1","byszkmchdc0obfy","main","1","","","","","","","","548","333","881","405579","642.2666666666667","true","richtig!","-20","true","true","true","1","2","2","611","511.3666687011719","1086","77.36666870117188","1216","576","587.52","494.08","1068.8","40.96","106.23999999999995","40.96","40.96","40.96","659.2","167.04000000000002","430.08","241.92","607,604,601,599,603,616,637,662,698,780,809,893,947,999,1023,1039,1055,1059,1060,1061,1062,1069,1077,1081,1084,1086","505.3666687011719,502.3666687011719,499.3666687011719,499.3666687011719,496.3666687011719,486.3666687011719,465.3666687011719,431.3666687011719,397.3666687011719,340.3666687011719,321.3666687011719,257.3666687011719,221.36666870117188,184.36666870117188,165.36666870117188,152.36666870117188,137.36666870117188,132.36666870117188,130.36666870117188,127.36666870117188,124.36666870117188,114.36666870117188,102.36666870117188,91.36666870117188,83.36666870117188,77.36666870117188","349,365,382,399,531,548,566,582,598,615,631,649,665,682,699,714,731,748,765,781,799,814,831,848,865,881","pawn","Corona","0","2","2","-20","15%"
"rule-violation","54","410259","0.0-3.0-1.0-0.0-0.2","byszkmchdc0obfy","main","1","","","","","","","","437","165","602","409439","642.2666666666667","true","richtig!","10","true","false","true","10","2","2","599","504.3666687011719","1070","55.366668701171875","1216","576","587.52","494.08","1068.8","40.96","106.23999999999995","40.96","40.96","40.96","659.2","167.04000000000002","430.08","241.92","622,639,693,786,848,907,968,1009,1035,1061,1070","481.3666687011719,459.3666687011719,392.3666687011719,286.3666687011719,220.36666870117188,172.36666870117188,119.36666870117188,90.36666870117188,74.36666870117188,59.366668701171875,55.366668701171875","437,453,469,486,503,519,536,553,570,586,602","pawn","Corona","0","3","3","-10","15%"
"rule-violation","55","413778","0.0-3.0-1.0-0.0-0.3","byszkmchdc0obfy","main","1","","","","","","","","448","283","731","412826","642.2666666666667","true","richtig!","0","false","false","false","10","2","1","603","509.3666687011719","1069","49.366668701171875","1216","576","587.52","494.08","1068.8","40.96","106.23999999999995","40.96","40.96","40.96","126.72000000000003","167.04000000000002","430.08","241.92","617,643,707,766,819,875,932,978,1018,1055,1067,1068,1069","501.3666687011719,482.3666687011719,413.3666687011719,353.3666687011719,282.3666687011719,210.36666870117188,149.36666870117188,109.36666870117188,75.36666870117188,51.366668701171875,49.366668701171875,49.366668701171875,49.366668701171875","448,465,481,498,514,532,548,565,581,598,615,632,731","king","Corona","0","4","4","-10","15%"
"rule-violation","56","417479","0.0-3.0-1.0-0.0-0.4","byszkmchdc0obfy","main","1","","","","","","","","463","365","828","416427","642.2666666666667","true","richtig!","0","false","false","false","1","2","1","604","516.3666687011719","1069","73.36666870117188","1216","576","587.52","494.08","1068.8","40.96","106.23999999999995","40.96","40.96","40.96","126.72000000000003","167.04000000000002","430.08","241.92","654,717,817,873,927,993,1036,1060,1073,1073,1071,1054,1049,1048,1047,1049,1051,1053,1055,1058,1064,1069","472.3666687011719,423.3666687011719,344.3666687011719,289.3666687011719,227.36666870117188,177.36666870117188,141.36666870117188,123.36666870117188,112.36666870117188,111.36666870117188,113.36666870117188,121.36666870117188,123.36666870117188,123.36666870117188,119.36666870117188,113.36666870117188,109.36666870117188,106.36666870117188,104.36666870117188,98.36666870117188,85.36666870117188,73.36666870117188","463,479,494,512,528,545,562,578,595,612,645,662,678,695,712,728,744,761,778,794,812,828","pawn","Everyday","0","5","5","-10","15%"
"rule-violation","57","421158","0.0-3.0-1.0-0.0-0.5","byszkmchdc0obfy","main","1","","","","","","","","465","400","865","420072","642.2666666666667","true","richtig!","0","false","false","false","10","2","1","608","516.3666687011719","1087","79.36666870117188","1216","576","587.52","494.08","1068.8","40.96","106.23999999999995","40.96","40.96","40.96","126.72000000000003","167.04000000000002","430.08","241.92","657,749,813,890,957,1029,1099,1127,1149,1158,1159,1158,1157,1147,1141,1134,1117,1105,1095,1091,1087","477.3666687011719,412.3666687011719,384.3666687011719,345.3666687011719,305.3666687011719,247.36666870117188,180.36666870117188,155.36666870117188,138.36666870117188,130.36666870117188,127.36666870117188,127.36666870117188,126.36666870117188,115.36666870117188,109.36666870117188,105.36666870117188,99.36666870117188,95.36666870117188,88.36666870117188,83.36666870117188,79.36666870117188","465,481,499,515,532,548,565,581,598,614,631,681,731,748,764,781,798,815,831,848,865","pawn","Everyday","0","6","6","-10","15%"
"rule-violation","58","424542","0.0-3.0-1.0-0.0-0.6","byszkmchdc0obfy","main","1","","","","","","","","424","334","758","423578","642.2666666666667","true","richtig!","0","true","false","true","10","1","1","607","504.3666687011719","126","77.36666870117188","1216","576","587.52","494.08","106.23999999999995","40.96","1068.8","40.96","40.96","40.96","126.72000000000003","167.04000000000002","430.08","241.92","557,485,387,291,199,137,129,127,127,127,127,127,126","448.3666687011719,379.3666687011719,303.3666687011719,223.36666870117188,165.36666870117188,131.36666870117188,121.36666870117188,116.36666870117188,115.36666870117188,114.36666870117188,108.36666870117188,93.36666870117188,77.36666870117188","424,441,458,473,491,508,525,541,557,575,725,741,758","king","Corona","0","7","7","-10","15%"
"rule-violation","59","427738","0.0-3.0-1.0-0.0-0.7","byszkmchdc0obfy","main","1","","","","","","","","446","83","529","426989","642.2666666666667","true","richtig!","10","false","false","false","10","1","2","613","516.3666687011719","119","64.36666870117188","1216","576","587.52","494.08","106.23999999999995","40.96","1068.8","40.96","40.96","40.96","659.2","167.04000000000002","430.08","241.92","591,538,453,293,189,119","489.3666687011719,425.3666687011719,338.3666687011719,199.36666870117188,120.36666870117188,64.36666870117188","446,462,478,495,512,529","pawn","Corona","0","8","8","0","15%"
"rule-violation","60","431122","0.0-3.0-1.0-0.0-0.8","byszkmchdc0obfy","main","1","","","","","","","","460","84","544","430372","642.2666666666667","true","richtig!","10","false","false","false","10","1","2","612","523.3666687011719","135","75.36666870117188","1216","576","587.52","494.08","106.23999999999995","40.96","1068.8","40.96","40.96","40.96","659.2","167.04000000000002","430.08","241.92","583,507,414,311,206,135","502.3666687011719,424.3666687011719,333.3666687011719,241.36666870117188,147.36666870117188,75.36666870117188","460,478,495,511,528,544","king","Everyday","0","9","9","10","15%"
"rule-violation","61","434908","0.0-3.0-1.0-0.0-0.9","byszkmchdc0obfy","main","1","","","","","","","","526","616","1142","433539","642.2666666666667","true","richtig!","0","false","false","false","10","1","2","607","516.3666687011719","127","50.366668701171875","1216","576","587.52","494.08","106.23999999999995","40.96","1068.8","40.96","40.96","40.96","659.2","167.04000000000002","430.08","241.92","575,519,424,325,223,101,103,108,109,109,109,111,113,114,115,115,115,118,121,127","460.3666687011719,383.3666687011719,281.3666687011719,172.36666870117188,89.36666870117188,15.366668701171875,18.366668701171875,22.366668701171875,24.366668701171875,25.366668701171875,25.366668701171875,27.366668701171875,28.366668701171875,30.366668701171875,31.366668701171875,31.366668701171875,32.366668701171875,35.366668701171875,39.366668701171875,50.366668701171875","526,542,559,575,592,909,925,942,959,976,992,1009,1026,1042,1059,1076,1091,1108,1126,1142","king","Corona","0","10","10","10","15%"
"rule-violation","62","438109","0.0-3.0-1.0-0.0-0.10","byszkmchdc0obfy","main","1","","","","","","","","481","167","648","437232","642.2666666666667","true","richtig!","0","false","false","false","1","1","2","610","516.3666687011719","136","69.36666870117188","1216","576","587.52","494.08","106.23999999999995","40.96","1068.8","40.96","40.96","40.96","659.2","167.04000000000002","430.08","241.92","592,565,478,439,346,282,233,198,171,151,136","499.3666687011719,473.3666687011719,386.3666687011719,351.3666687011719,269.3666687011719,219.36666870117188,175.36666870117188,145.36666870117188,115.36666870117188,88.36666870117188,69.36666870117188","481,499,514,530,548,564,581,598,614,631,647","pawn","Everyday","0","11","11","10","15%"
"rule-violation","63","442101","0.0-3.0-1.0-0.0-0.11","byszkmchdc0obfy","main","1","","","","","","","","465","433","898","440996","642.2666666666667","true","richtig!","0","true","false","true","1","2","2","609","506.3666687011719","1109","50.366668701171875","1216","576","587.52","494.08","1068.8","40.96","106.23999999999995","40.96","40.96","40.96","659.2","167.04000000000002","430.08","241.92","646,701,771,854,929,1022,1085,1127,1148,1157,1161,1161,1162,1160,1157,1155,1151,1139,1125,1115,1112,1110,1109","470.3666687011719,429.3666687011719,389.3666687011719,339.3666687011719,289.3666687011719,213.36666870117188,143.36666870117188,81.36666870117188,52.366668701171875,37.366668701171875,33.366668701171875,31.366668701171875,30.366668701171875,27.366668701171875,25.366668701171875,25.366668701171875,29.366668701171875,35.366668701171875,40.366668701171875,43.366668701171875,47.366668701171875,49.366668701171875,50.366668701171875","465,482,499,515,532,549,565,582,599,615,632,648,732,748,765,782,799,815,832,848,865,882,898","pawn","Everyday","0","12","12","10","15%"
"rule-violation","64","445539","0.0-3.0-1.0-0.0-0.12","byszkmchdc0obfy","main","1","","","","","","","","456","200","656","444671","642.2666666666667","true","richtig!","0","false","false","false","1","2","1","613","506.3666687011719","1109","69.36666870117188","1216","576","587.52","494.08","1068.8","40.96","106.23999999999995","40.96","40.96","40.96","126.72000000000003","167.04000000000002","430.08","241.92","648,704,765,826,946,1021,1071,1099,1113,1116,1114,1111,1109","469.3666687011719,413.3666687011719,363.3666687011719,304.3666687011719,219.36666870117188,170.36666870117188,132.36666870117188,101.36666870117188,85.36666870117188,77.36666870117188,73.36666870117188,71.36666870117188,69.36666870117188","456,472,489,505,522,539,556,571,588,604,622,639,656","king","Everyday","0","13","13","10","15%"
"rule-violation","65","453768","0.0-3.0-1.0-0.0-0.13","byszkmchdc0obfy","main","1","","","","","","","","606","449","1055","452484","642.2666666666667","true","richtig!","0","false","false","false","1","1","2","609","517.3666687011719","123","48.366668701171875","1216","576","587.52","494.08","106.23999999999995","40.96","1068.8","40.96","40.96","40.96","659.2","167.04000000000002","430.08","241.92","561,505,438,355,221,149,112,101,101,111,123","467.3666687011719,395.3666687011719,315.3666687011719,232.36666870117188,113.36666870117188,54.366668701171875,15.366668701171875,0.366668701171875,7.366668701171875,24.366668701171875,48.366668701171875","606,622,639,656,672,689,705,723,1022,1038,1055","pawn","Corona","0","14","14","10","15%"
"rule-violation","66","458426","0.0-3.0-1.0-0.0-0.14","byszkmchdc0obfy","main","1","","","","","","","","401","583","984","457219","642.2666666666667","true","richtig!","0","true","false","true","10","1","1","604","505.3666687011719","132","41.366668701171875","1216","576","587.52","494.08","106.23999999999995","40.96","1068.8","40.96","40.96","40.96","126.72000000000003","167.04000000000002","430.08","241.92","569,497,389,303,152,77,24,31,50,67,90,96,113,123,128,131,132,132","468.3666687011719,407.3666687011719,310.3666687011719,236.36666870117188,116.36666870117188,55.366668701171875,10.366668701171875,1.366668701171875,6.366668701171875,13.366668701171875,19.366668701171875,21.366668701171875,27.366668701171875,30.366668701171875,33.366668701171875,36.366668701171875,37.366668701171875,41.366668701171875","401,418,434,452,468,485,501,736,751,768,784,801,818,835,852,868,884,984","pawn","Everyday","0","15","15","10","15%"
"rule-violation","67","461979","0.0-3.0-1.0-0.0-0.15","byszkmchdc0obfy","main","1","","","","","","","","370","350","720","461032","642.2666666666667","true","richtig!","0","false","false","false","1","1","2","603","507.3666687011719","135","65.36666870117188","1216","576","587.52","494.08","106.23999999999995","40.96","1068.8","40.96","40.96","40.96","659.2","167.04000000000002","430.08","241.92","599,589,567,543,493,435,364,314,264,245,228,219,215,213,211,208,203,196,189,184,173,150,135","506.3666687011719,501.3666687011719,481.3666687011719,449.3666687011719,401.3666687011719,341.3666687011719,269.3666687011719,213.36666870117188,162.36666870117188,142.36666870117188,128.36666870117188,120.36666870117188,117.36666870117188,115.36666870117188,112.36666870117188,109.36666870117188,105.36666870117188,102.36666870117188,99.36666870117188,97.36666870117188,93.36666870117188,80.36666870117188,65.36666870117188","354,370,387,404,420,437,454,470,487,504,520,537,553,570,586,603,620,638,653,670,686,704,720","king","Everyday","0","16","16","10","15%"
"rule-violation","68","465799","0.0-3.0-1.0-0.0-0.16","byszkmchdc0obfy","main","1","","","","","","","","345","500","845","464739","642.2666666666667","true","richtig!","0","true","false","true","1","1","1","626","523.3666687011719","107","71.36666870117188","1216","576","587.52","494.08","106.23999999999995","40.96","1068.8","40.96","40.96","40.96","126.72000000000003","167.04000000000002","430.08","241.92","645,663,683,695,700,692,647,589,509,413,317,241,169,149,137,131,129,127,124,119,110,101,96,95,95,97,101,104,107","489.3666687011719,457.3666687011719,422.3666687011719,401.3666687011719,378.3666687011719,339.3666687011719,275.3666687011719,247.36666870117188,213.36666870117188,182.36666870117188,159.36666870117188,137.36666870117188,120.36666870117188,116.36666870117188,112.36666870117188,110.36666870117188,107.36666870117188,105.36666870117188,101.36666870117188,98.36666870117188,93.36666870117188,88.36666870117188,85.36666870117188,83.36666870117188,82.36666870117188,79.36666870117188,77.36666870117188,74.36666870117188,71.36666870117188","345,362,378,395,412,428,445,461,478,495,511,528,544,561,578,595,612,628,644,661,678,695,712,728,779,794,812,828,844","pawn","Everyday","0","17","17","10","15%"
"rule-violation","69","469419","0.0-3.0-1.0-0.0-0.17","byszkmchdc0obfy","main","1","","","","","","","","375","468","843","468357","642.2666666666667","true","richtig!","-20","true","true","true","1","1","1","606","521.3666687011719","133","42.366668701171875","1216","576","587.52","494.08","106.23999999999995","40.96","1068.8","40.96","40.96","40.96","126.72000000000003","167.04000000000002","430.08","241.92","577,507,432,359,297,237,193,161,153,151,150,147,144,139,132,130,129,129,127,126,125,125,127,129,130,132,133","473.3666687011719,372.3666687011719,291.3666687011719,221.36666870117188,168.36666870117188,110.36666870117188,69.36666870117188,42.366668701171875,34.366668701171875,30.366668701171875,27.366668701171875,24.366668701171875,21.366668701171875,17.366668701171875,13.366668701171875,13.366668701171875,13.366668701171875,13.366668701171875,16.366668701171875,22.366668701171875,25.366668701171875,27.366668701171875,29.366668701171875,32.366668701171875,35.366668701171875,39.366668701171875,42.366668701171875","375,392,409,426,443,459,475,492,509,526,543,559,575,592,609,625,642,691,708,725,742,758,775,791,808,825,842","king","Corona","0","18","18","-10","15%"
"rule-violation","70","472959","0.0-3.0-1.0-0.0-0.18","byszkmchdc0obfy","main","1","","","","","","","","565","99","664","472066","642.2666666666667","true","richtig!","-20","true","true","true","1","1","1","613","511.3666687011719","144","65.36666870117188","1216","576","587.52","494.08","106.23999999999995","40.96","1068.8","40.96","40.96","40.96","126.72000000000003","167.04000000000002","430.08","241.92","509,443,366,291,233,181,144","387.3666687011719,309.3666687011719,237.36666870117188,176.36666870117188,130.36666870117188,93.36666870117188,65.36666870117188","565,581,598,614,631,647,664","king","Everyday","0","19","19","-30","15%"
"rule-violation","71","476178","0.0-3.0-1.0-0.0-0.19","byszkmchdc0obfy","main","1","","","","","","","","350","99","449","475512","642.2666666666667","true","richtig!","10","true","false","true","10","1","1","613","507.3666687011719","138","43.366668701171875","1216","576","587.52","494.08","106.23999999999995","40.96","1068.8","40.96","40.96","40.96","126.72000000000003","167.04000000000002","430.08","241.92","546,483,402,323,243,171,138","419.3666687011719,344.3666687011719,245.36666870117188,170.36666870117188,107.36666870117188,63.366668701171875,43.366668701171875","350,367,384,399,417,433,449","king","Everyday","0","20","20","-20","15%"
"rule-violation","72","479709","0.0-3.0-1.0-0.0-0.20","byszkmchdc0obfy","main","1","","","","","","","","372","398","770","478723","642.2666666666667","true","richtig!","0","false","false","false","1","2","1","613","514.3666687011719","1076","64.36666870117188","1216","576","587.52","494.08","1068.8","40.96","106.23999999999995","40.96","40.96","40.96","126.72000000000003","167.04000000000002","430.08","241.92","621,633,657,704,748,808,849,875,893,905,907,910,911,911,911,911,917,924,935,975,1011,1041,1076","495.3666687011719,472.3666687011719,427.3666687011719,357.3666687011719,299.3666687011719,204.36666870117188,160.36666870117188,139.36666870117188,125.36666870117188,116.36666870117188,113.36666870117188,109.36666870117188,107.36666870117188,106.36666870117188,105.36666870117188,105.36666870117188,95.36666870117188,88.36666870117188,84.36666870117188,76.36666870117188,71.36666870117188,67.36666870117188,64.36666870117188","372,388,405,421,438,454,471,488,505,521,537,555,571,588,605,655,671,688,704,720,738,754,770","pawn","Corona","0","21","21","-20","15%"
"rule-violation","73","483399","0.0-3.0-1.0-0.0-0.21","byszkmchdc0obfy","main","1","","","","","","","","413","366","779","482413","642.2666666666667","true","richtig!","0","true","false","true","10","2","2","613","504.3666687011719","1081","54.366668701171875","1216","576","587.52","494.08","1068.8","40.96","106.23999999999995","40.96","40.96","40.96","659.2","167.04000000000002","430.08","241.92","657,697,743,789,845,889,926,950,967,979,983,985,997,1013,1030,1047,1065,1081","461.3666687011719,411.3666687011719,345.3666687011719,275.3666687011719,184.36666870117188,135.36666870117188,103.36666870117188,89.36666870117188,83.36666870117188,79.36666870117188,77.36666870117188,76.36666870117188,75.36666870117188,71.36666870117188,67.36666870117188,63.366668701171875,59.366668701171875,54.366668701171875","412,429,446,462,480,496,513,529,546,563,579,596,696,713,729,746,763,779","pawn","Everyday","0","22","22","-20","15%"
"rule-violation","74","487229","0.0-3.0-1.0-0.0-0.22","byszkmchdc0obfy","main","1","","","","","","","","463","683","1146","485861","642.2666666666667","true","richtig!","0","true","false","true","10","2","2","619","505.3666687011719","1073","63.366668701171875","1216","576","587.52","494.08","1068.8","40.96","106.23999999999995","40.96","40.96","40.96","659.2","167.04000000000002","430.08","241.92","633,657,682,707,744,815,875,945,994,1019,1038,1053,1059,1060,1062,1064,1065,1068,1073","481.3666687011719,442.3666687011719,404.3666687011719,364.3666687011719,321.3666687011719,252.36666870117188,197.36666870117188,155.36666870117188,119.36666870117188,102.36666870117188,90.36666870117188,79.36666870117188,76.36666870117188,75.36666870117188,72.36666870117188,69.36666870117188,68.36666870117188,66.36666870117188,63.366668701171875","463,480,496,513,530,547,563,580,597,613,630,647,664,763,780,797,814,1130,1146","king","Corona","0","23","23","-20","15%"
"rule-violation","75","491109","0.0-3.0-1.0-0.0-0.23","byszkmchdc0obfy","main","1","","","","","","","","661","333","994","489911","642.2666666666667","true","richtig!","0","false","false","false","1","2","1","609","511.3666687011719","1078","81.36666870117188","1216","576","587.52","494.08","1068.8","40.96","106.23999999999995","40.96","40.96","40.96","126.72000000000003","167.04000000000002","430.08","241.92","636,679,731,811,859,902,929,947,963,968,973,977,979,982,990,1003,1027,1044,1055,1065,1078","488.3666687011719,452.3666687011719,411.3666687011719,333.3666687011719,291.3666687011719,253.36666870117188,225.36666870117188,208.36666870117188,196.36666870117188,185.36666870117188,174.36666870117188,169.36666870117188,167.36666870117188,164.36666870117188,161.36666870117188,153.36666870117188,135.36666870117188,119.36666870117188,105.36666870117188,93.36666870117188,81.36666870117188","661,677,695,711,728,745,761,778,794,811,829,845,861,877,894,911,928,945,961,978,994","king","Corona","0","24","24","-20","15%"
"rule-violation","76","495049","0.0-3.0-1.0-0.0-0.24","byszkmchdc0obfy","main","1","","","","","","","","670","500","1170","493668","642.2666666666667","true","richtig!","0","false","false","true","10","1","1","611","516.3666687011719","136","50.366668701171875","1216","576","587.52","494.08","106.23999999999995","40.96","1068.8","40.96","40.96","40.96","126.72000000000003","167.04000000000002","430.08","241.92","630,653,677,699,720,738,735,722,693,665,581,519,463,410,247,235,221,203,193,191,188,184,179,162,156,136","481.3666687011719,430.3666687011719,361.3666687011719,288.3666687011719,235.36666870117188,167.36666870117188,137.36666870117188,108.36666870117188,81.36666870117188,59.366668701171875,29.366668701171875,21.366668701171875,17.366668701171875,6.366668701171875,2.366668701171875,6.366668701171875,9.366668701171875,14.366668701171875,17.366668701171875,19.366668701171875,22.366668701171875,25.366668701171875,30.366668701171875,40.366668701171875,44.366668701171875,50.366668701171875","670,686,703,720,736,753,769,785,802,819,836,853,870,886,986,1003,1018,1036,1052,1070,1086,1102,1119,1135,1152,1170","pawn","Corona","0","25","25","-20","15%"
"rule-violation","77","499591","0.0-3.0-1.0-0.0-0.25","byszkmchdc0obfy","main","1","","","","","","","","447","1033","1480","497905","642.2666666666667","true","richtig!","0","false","false","true","1","1","1","616","511.3666687011719","113","60.366668701171875","1216","576","587.52","494.08","106.23999999999995","40.96","1068.8","40.96","40.96","40.96","126.72000000000003","167.04000000000002","430.08","241.92","635,657,678,713,741,758,775,777,769,751,688,617,533,431,342,247,111,51,23,7,11,34,58,79,93,101,103,113","467.3666687011719,418.3666687011719,369.3666687011719,313.3666687011719,274.3666687011719,241.36666870117188,205.36666870117188,183.36666870117188,163.36666870117188,149.36666870117188,119.36666870117188,96.36666870117188,72.36666870117188,49.366668701171875,39.366668701171875,37.366668701171875,37.366668701171875,43.366668701171875,47.366668701171875,51.366668701171875,53.366668701171875,52.366668701171875,52.366668701171875,53.366668701171875,56.366668701171875,59.366668701171875,61.366668701171875,60.366668701171875","447,464,481,497,515,531,547,564,580,597,614,631,647,664,681,696,714,731,747,764,964,980,997,1014,1031,1046,1063,1480","pawn","Corona","0","26","26","-20","15%"
"rule-violation","78","503423","0.0-3.0-1.0-0.0-0.26","byszkmchdc0obfy","main","1","","","","","","","","506","482","988","502228","642.2666666666667","true","richtig!","0","false","false","true","1","2","2","619","519.3666687011719","1076","78.36666870117188","1216","576","587.52","494.08","1068.8","40.96","106.23999999999995","40.96","40.96","40.96","659.2","167.04000000000002","430.08","241.92","605,583,550,516,481,466,463,472,488,510,561,687,777,857,929,986,1021,1046,1051,1053,1057,1062,1065,1069,1071,1076","495.3666687011719,452.3666687011719,389.3666687011719,320.3666687011719,245.36666870117188,201.36666870117188,171.36666870117188,143.36666870117188,120.36666870117188,101.36666870117188,76.36666870117188,51.366668701171875,48.366668701171875,47.366668701171875,46.366668701171875,64.36666870117188,77.36666870117188,89.36666870117188,91.36666870117188,92.36666870117188,93.36666870117188,95.36666870117188,94.36666870117188,91.36666870117188,88.36666870117188,78.36666870117188","506,522,539,555,572,589,606,622,639,655,672,689,706,722,739,756,772,789,805,822,905,922,939,956,972,988","king","Everyday","0","27","27","-20","15%"
"rule-violation","79","506619","0.0-3.0-1.0-0.0-0.27","byszkmchdc0obfy","main","1","","","","","","","","419","148","567","505831","642.2666666666667","true","richtig!","1","false","false","false","1","1","2","617","503.3666687011719","107","71.36666870117188","1216","576","587.52","494.08","106.23999999999995","40.96","1068.8","40.96","40.96","40.96","659.2","167.04000000000002","430.08","241.92","606,577,515,446,317,240,179,145,121,107","491.3666687011719,455.3666687011719,389.3666687011719,318.3666687011719,219.36666870117188,164.36666870117188,125.36666870117188,100.36666870117188,83.36666870117188,71.36666870117188","419,435,451,468,484,501,517,534,551,567","king","Corona","0","28","28","-19","15%"
"rule-violation","80","510209","0.0-3.0-1.0-0.0-0.28","byszkmchdc0obfy","main","1","","","","","","","","651","116","767","509230","642.2666666666667","true","richtig!","0","true","false","true","10","2","2","619","516.3666687011719","1076","75.36666870117188","1216","576","587.52","494.08","1068.8","40.96","106.23999999999995","40.96","40.96","40.96","659.2","167.04000000000002","430.08","241.92","634,705,771,833,896,953,1027,1076","488.3666687011719,433.3666687011719,382.3666687011719,302.3666687011719,232.36666870117188,163.36666870117188,99.36666870117188,75.36666870117188","651,667,684,701,717,733,750,767","king","Everyday","0","29","29","-19","15%"
"rule-violation","81","514029","0.0-3.0-1.0-0.0-0.29","byszkmchdc0obfy","main","1","","","","","","","","629","450","1079","512733","642.2666666666667","true","richtig!","0","false","false","true","1","2","2","607","515.3666687011719","1072","75.36666870117188","1216","576","587.52","494.08","1068.8","40.96","106.23999999999995","40.96","40.96","40.96","659.2","167.04000000000002","430.08","241.92","598,584,549,511,483,473,491,525,584,673,783,887,983,1022,1041,1049,1050,1053,1056,1063,1072","501.3666687011719,477.3666687011719,426.3666687011719,357.3666687011719,295.3666687011719,212.36666870117188,171.36666870117188,137.36666870117188,99.36666870117188,72.36666870117188,68.36666870117188,74.36666870117188,73.36666870117188,79.36666870117188,86.36666870117188,89.36666870117188,90.36666870117188,87.36666870117188,85.36666870117188,79.36666870117188,75.36666870117188","629,646,663,679,696,713,729,747,763,778,796,812,829,846,863,879,895,1028,1046,1062,1079","king","Corona","0","30","30","-19","15%"
"rule-violation","82","517383","0.0-3.0-1.0-0.0-0.30","byszkmchdc0obfy","main","1","","","","","","","","424","134","558","516603","642.2666666666667","true","richtig!","10","false","false","false","10","2","1","617","520.3666687011719","1078","63.366668701171875","1216","576","587.52","494.08","1068.8","40.96","106.23999999999995","40.96","40.96","40.96","126.72000000000003","167.04000000000002","430.08","241.92","645,686,725,779,848,959,1017,1041,1078","467.3666687011719,405.3666687011719,345.3666687011719,295.3666687011719,226.36666870117188,134.36666870117188,92.36666870117188,76.36666870117188,63.366668701171875","424,441,457,474,490,507,524,541,558","pawn","Corona","0","31","31","-9","15%"
"rule-violation","83","521166","0.0-3.0-1.0-0.0-0.31","byszkmchdc0obfy","main","1","","","","","","","","553","381","934","520007","642.2666666666667","true","richtig!","0","false","false","false","10","1","2","601","507.3666687011719","125","57.366668701171875","1216","576","587.52","494.08","106.23999999999995","40.96","1068.8","40.96","40.96","40.96","659.2","167.04000000000002","430.08","241.92","483,402,296,191,97,55,31,27,25,25,25,24,24,22,19,17,17,17,30,48,72,97,125","404.3666687011719,333.3666687011719,256.3666687011719,188.36666870117188,128.36666870117188,105.36666870117188,93.36666870117188,90.36666870117188,88.36666870117188,87.36666870117188,86.36666870117188,86.36666870117188,85.36666870117188,83.36666870117188,80.36666870117188,77.36666870117188,77.36666870117188,77.36666870117188,74.36666870117188,69.36666870117188,64.36666870117188,59.366668701171875,57.366668701171875","553,569,585,601,618,635,652,669,685,702,717,734,769,784,802,818,835,851,867,884,901,918,934","pawn","Everyday","0","32","32","-9","15%"
"html-keyboard-response","84","528354","0.0-3.0-1.0-1.0","byszkmchdc0obfy","break","2","7188","<b>PAUSE</b><br><br><b>Block 1/2 geschafft! </b><br><br>Sie haben bisher insgesamt <b>-9 Punkte </b>erzielt. Sie können jetzt eine Pause einlegen.<br><br>WEITER mit ENTER","13","","","","","","","","","","","","","","","","","","","","","","","","","","","","","","","","","","","","","","","","","","","","","",""
"rule-violation","85","532049","0.0-3.0-1.0-0.1-0.32","byszkmchdc0obfy","main","2","","","","","","","","422","367","789","531048","642.2666666666667","true","richtig!","0","false","false","false","10","1","2","615","507.3666687011719","108","75.36666870117188","1216","576","587.52","494.08","106.23999999999995","40.96","1068.8","40.96","40.96","40.96","659.2","167.04000000000002","430.08","241.92","588,531,459,341,245,165,90,45,31,29,31,33,34,35,35,35,46,61,79,108","489.3666687011719,441.3666687011719,384.3666687011719,297.3666687011719,241.36666870117188,183.36666870117188,134.36666870117188,87.36666870117188,71.36666870117188,61.366668701171875,58.366668701171875,57.366668701171875,56.366668701171875,56.366668701171875,55.366668701171875,55.366668701171875,55.366668701171875,59.366668701171875,63.366668701171875,75.36666870117188","422,439,455,473,489,506,522,539,556,572,589,606,622,640,706,722,739,755,772,788","king","Corona","0","33","1","-9","15%"
"rule-violation","86","536869","0.0-3.0-1.0-0.1-0.33","byszkmchdc0obfy","main","2","","","","","","","","447","599","1046","535605","642.2666666666667","true","richtig!","0","true","false","true","10","1","1","607","511.3666687011719","110","69.36666870117188","1216","576","587.52","494.08","106.23999999999995","40.96","1068.8","40.96","40.96","40.96","126.72000000000003","167.04000000000002","430.08","241.92","570,539,469,390,269,195,142,111,97,94,93,94,101,110","481.3666687011719,447.3666687011719,384.3666687011719,309.3666687011719,201.36666870117188,144.36666870117188,103.36666870117188,82.36666870117188,71.36666870117188,69.36666870117188,69.36666870117188,69.36666870117188,69.36666870117188,69.36666870117188","447,464,481,497,513,531,546,564,581,597,614,1013,1029,1046","king","Corona","0","34","2","-9","15%"
"rule-violation","87","541188","0.0-3.0-1.0-0.1-0.34","byszkmchdc0obfy","main","2","","","","","","","","347","616","963","540003","642.2666666666667","true","richtig!","0","false","false","false","1","1","2","623","511.3666687011719","128","60.366668701171875","1216","576","587.52","494.08","106.23999999999995","40.96","1068.8","40.96","40.96","40.96","659.2","167.04000000000002","430.08","241.92","615,595,532,464,377,320,277,259,251,249,247,247,247,245,243,243,241,218,201,185,170,160,157,156,151,128","500.3666687011719,471.3666687011719,401.3666687011719,325.3666687011719,240.36666870117188,191.36666870117188,151.36666870117188,135.36666870117188,125.36666870117188,122.36666870117188,121.36666870117188,118.36666870117188,115.36666870117188,111.36666870117188,109.36666870117188,109.36666870117188,108.36666870117188,97.36666870117188,89.36666870117188,84.36666870117188,78.36666870117188,73.36666870117188,71.36666870117188,71.36666870117188,69.36666870117188,60.366668701171875","346,364,381,398,413,430,447,463,480,497,513,529,546,563,580,598,647,664,680,698,714,730,747,763,946,963","pawn","Everyday","0","35","3","-9","15%"
"rule-violation","88","559647","0.0-3.0-1.0-0.1-0.35","byszkmchdc0obfy","main","2","","","","","","","","402","350","752","558673","642.2666666666667","true","richtig!","0","true","false","true","1","2","2","612","503.3666687011719","1109","81.36666870117188","1216","576","587.52","494.08","1068.8","40.96","106.23999999999995","40.96","40.96","40.96","659.2","167.04000000000002","430.08","241.92","632,669,733,841,929,991,1047,1099,1125,1141,1144,1142,1142,1141,1141,1140,1130,1109","479.3666687011719,442.3666687011719,393.3666687011719,332.3666687011719,287.3666687011719,235.36666870117188,172.36666870117188,117.36666870117188,95.36666870117188,83.36666870117188,82.36666870117188,83.36666870117188,84.36666870117188,84.36666870117188,84.36666870117188,84.36666870117188,84.36666870117188,81.36666870117188","402,418,435,452,468,486,502,518,535,552,568,618,636,652,701,718,735,752","king","Everyday","0","36","4","-9","15%"
"rule-violation","89","563563","0.0-3.0-1.0-0.1-0.36","byszkmchdc0obfy","main","2","","","","","","","","319","451","770","562587","642.2666666666667","true","richtig!","0","true","false","true","1","1","1","603","515.3666687011719","115","42.366668701171875","1216","576","587.52","494.08","106.23999999999995","40.96","1068.8","40.96","40.96","40.96","126.72000000000003","167.04000000000002","430.08","241.92","557,491,381,214,136,112,103,105,107,110,110,111,115","443.3666687011719,349.3666687011719,235.36666870117188,97.36666870117188,24.366668701171875,0.366668701171875,11.366668701171875,19.366668701171875,23.366668701171875,27.366668701171875,28.366668701171875,31.366668701171875,42.366668701171875","319,336,352,369,386,398,669,685,703,719,735,752,769","pawn","Everyday","0","37","5","-9","15%"
"rule-violation","90","567143","0.0-3.0-1.0-0.1-0.37","byszkmchdc0obfy","main","2","","","","","","","","379","399","778","566160","642.2666666666667","true","richtig!","0","true","false","true","10","1","1","601","509.3666687011719","107","45.366668701171875","1216","576","587.52","494.08","106.23999999999995","40.96","1068.8","40.96","40.96","40.96","126.72000000000003","167.04000000000002","430.08","241.92","549,471,335,249,155,91,69,83,96,107","427.3666687011719,341.3666687011719,203.36666870117188,125.36666870117188,51.366668701171875,12.366668701171875,2.366668701171875,19.366668701171875,35.366668701171875,45.366668701171875","379,394,411,428,444,461,729,744,761,778","pawn","Corona","0","38","6","-9","15%"
"rule-violation","91","571175","0.0-3.0-1.0-0.1-0.38","byszkmchdc0obfy","main","2","","","","","","","","474","666","1140","569829","642.2666666666667","true","richtig!","0","false","false","false","1","1","2","605","503.3666687011719","107","60.366668701171875","1216","576","587.52","494.08","106.23999999999995","40.96","1068.8","40.96","40.96","40.96","659.2","167.04000000000002","430.08","241.92","555,431,332,229,131,61,29,22,25,29,30,37,57,68,79,85,88,93,99,103,105,107","457.3666687011719,354.3666687011719,278.3666687011719,204.36666870117188,139.36666870117188,95.36666870117188,74.36666870117188,67.36666870117188,69.36666870117188,72.36666870117188,72.36666870117188,73.36666870117188,76.36666870117188,75.36666870117188,71.36666870117188,67.36666870117188,65.36666870117188,65.36666870117188,63.366668701171875,61.366668701171875,61.366668701171875,60.366668701171875","473,491,508,524,542,557,574,591,673,691,707,773,791,808,825,841,858,1074,1090,1108,1124,1140","king","Everyday","0","39","7","-9","15%"
"rule-violation","92","574924","0.0-3.0-1.0-0.1-0.39","byszkmchdc0obfy","main","2","","","","","","","","313","333","646","574055","642.2666666666667","true","richtig!","0","true","false","true","1","1","1","619","513.3666687011719","122","77.36666870117188","1216","576","587.52","494.08","106.23999999999995","40.96","1068.8","40.96","40.96","40.96","126.72000000000003","167.04000000000002","430.08","241.92","583,479,385,285,208,149,121,115,115,117,118,118,117,117,117,120,122","471.3666687011719,383.3666687011719,316.3666687011719,251.36666870117188,193.36666870117188,155.36666870117188,129.36666870117188,119.36666870117188,115.36666870117188,115.36666870117188,115.36666870117188,111.36666870117188,99.36666870117188,90.36666870117188,85.36666870117188,82.36666870117188,77.36666870117188","313,330,346,363,380,395,412,430,445,463,479,563,580,596,613,629,646","king","Corona","0","40","8","-9","15%"
"rule-violation","93","578465","0.0-3.0-1.0-0.1-0.40","byszkmchdc0obfy","main","2","","","","","","","","302","366","668","577581","642.2666666666667","true","richtig!","0","false","false","false","10","1","2","607","519.3666687011719","122","77.36666870117188","1216","576","587.52","494.08","106.23999999999995","40.96","1068.8","40.96","40.96","40.96","659.2","167.04000000000002","430.08","241.92","589,549,439,345,269,209,187,180,180,180,180,179,171,153,141,133,127,122","498.3666687011719,457.3666687011719,367.3666687011719,296.3666687011719,243.36666870117188,210.36666870117188,193.36666870117188,184.36666870117188,183.36666870117188,182.36666870117188,181.36666870117188,169.36666870117188,153.36666870117188,125.36666870117188,112.36666870117188,99.36666870117188,87.36666870117188,77.36666870117188","302,318,336,352,369,386,402,418,435,451,551,568,585,602,619,635,652,668","pawn","Everyday","0","41","9","-9","15%"
"rule-violation","94","581829","0.0-3.0-1.0-0.1-0.41","byszkmchdc0obfy","main","2","","","","","","","","412","133","545","581069","642.2666666666667","true","richtig!","10","false","false","false","10","2","1","601","509.3666687011719","1085","73.36666870117188","1216","576","587.52","494.08","1068.8","40.96","106.23999999999995","40.96","40.96","40.96","126.72000000000003","167.04000000000002","430.08","241.92","596,593,592,591,593,605,651,697,763,845,926,991,1085","506.3666687011719,505.3666687011719,503.3666687011719,501.3666687011719,491.3666687011719,477.3666687011719,423.3666687011719,369.3666687011719,315.3666687011719,257.3666687011719,203.36666870117188,143.36666870117188,73.36666870117188","345,362,379,396,412,428,446,462,479,497,513,529,545","king","Everyday","0","42","10","1","15%"
"rule-violation","95","585610","0.0-3.0-1.0-0.1-0.42","byszkmchdc0obfy","main","2","","","","","","","","358","433","791","584605","642.2666666666667","true","richtig!","0","true","false","true","1","1","1","600","519.3666687011719","117","43.366668701171875","1216","576","587.52","494.08","106.23999999999995","40.96","1068.8","40.96","40.96","40.96","126.72000000000003","167.04000000000002","430.08","241.92","557,503,391,323,264,201,148,105,91,87,97,106,117","453.3666687011719,393.3666687011719,301.3666687011719,235.36666870117188,172.36666870117188,111.36666870117188,61.366668701171875,24.366668701171875,13.366668701171875,9.366668701171875,19.366668701171875,31.366668701171875,43.366668701171875","358,376,391,408,425,442,459,475,491,508,758,775,791","king","Everyday","0","43","11","1","15%"
"rule-violation","96","589293","0.0-3.0-1.0-0.1-0.43","byszkmchdc0obfy","main","2","","","","","","","","575","284","859","588236","642.2666666666667","true","richtig!","-20","true","true","true","10","2","2","601","499.3666687011719","1106","68.36666870117188","1216","576","587.52","494.08","1068.8","40.96","106.23999999999995","40.96","40.96","40.96","659.2","167.04000000000002","430.08","241.92","700,753,825,909,971,1035,1049,1054,1054,1052,1047,1042,1042,1044,1053,1065,1088,1106","413.3666687011719,370.3666687011719,311.3666687011719,255.36666870117188,213.36666870117188,179.36666870117188,168.36666870117188,165.36666870117188,163.36666870117188,160.36666870117188,157.36666870117188,155.36666870117188,152.36666870117188,143.36666870117188,130.36666870117188,118.36666870117188,93.36666870117188,68.36666870117188","575,592,608,625,642,658,675,692,709,725,742,758,775,792,809,825,841,859","pawn","Corona","0","44","12","-19","15%"
"rule-violation","97","593269","0.0-3.0-1.0-0.1-0.44","byszkmchdc0obfy","main","2","","","","","","","","549","266","815","592228","642.2666666666667","true","richtig!","0","false","false","false","10","2","1","609","505.3666687011719","1071","47.366668701171875","1216","576","587.52","494.08","1068.8","40.96","106.23999999999995","40.96","40.96","40.96","126.72000000000003","167.04000000000002","430.08","241.92","659,689,734,791,844,928,973,1009,1031,1047,1057,1061,1063,1064,1066,1068,1071","464.3666687011719,440.3666687011719,403.3666687011719,349.3666687011719,295.3666687011719,203.36666870117188,150.36666870117188,113.36666870117188,93.36666870117188,81.36666870117188,71.36666870117188,66.36666870117188,61.366668701171875,57.366668701171875,53.366668701171875,49.366668701171875,47.366668701171875","549,565,582,598,614,632,648,665,682,698,714,732,749,764,782,798,815","pawn","Corona","0","45","13","-19","15%"
"rule-violation","98","596881","0.0-3.0-1.0-0.1-0.45","byszkmchdc0obfy","main","2","","","","","","","","478","383","861","595813","642.2666666666667","true","richtig!","0","false","false","false","10","2","1","601","511.3666687011719","1103","55.366668701171875","1216","576","587.52","494.08","1068.8","40.96","106.23999999999995","40.96","40.96","40.96","126.72000000000003","167.04000000000002","430.08","241.92","607,619,652,743,813,889,963,1025,1082,1125,1133,1135,1135,1135,1133,1133,1132,1131,1129,1128,1125,1117,1103","499.3666687011719,485.3666687011719,453.3666687011719,387.3666687011719,329.3666687011719,259.3666687011719,202.36666870117188,149.36666870117188,109.36666870117188,72.36666870117188,60.366668701171875,56.366668701171875,54.366668701171875,53.366668701171875,52.366668701171875,51.366668701171875,51.366668701171875,49.366668701171875,47.366668701171875,47.366668701171875,47.366668701171875,50.366668701171875,55.366668701171875","462,478,494,511,528,544,562,578,595,611,628,645,662,678,694,711,728,778,795,811,828,845,861","king","Corona","0","46","14","-19","15%"
"rule-violation","99","600729","0.0-3.0-1.0-0.1-0.46","byszkmchdc0obfy","main","2","","","","","","","","590","416","1006","599516","642.2666666666667","false","falsch!","0","false","false","true","10","2","2","606","511.3666687011719","144","55.366668701171875","1216","576","587.52","494.08","1068.8","40.96","106.23999999999995","40.96","40.96","40.96","659.2","167.04000000000002","430.08","241.92","593,553,493,427,360,305,260,235,217,213,213,213,213,213,210,207,203,198,194,190,187,179,169,159,149,144","485.3666687011719,414.3666687011719,346.3666687011719,281.3666687011719,225.36666870117188,183.36666870117188,150.36666870117188,132.36666870117188,120.36666870117188,116.36666870117188,114.36666870117188,112.36666870117188,110.36666870117188,107.36666870117188,100.36666870117188,89.36666870117188,83.36666870117188,76.36666870117188,73.36666870117188,71.36666870117188,69.36666870117188,65.36666870117188,61.366668701171875,57.366668701171875,55.366668701171875,55.366668701171875","590,606,623,640,657,675,690,706,723,740,757,773,790,806,822,840,856,874,889,906,923,940,957,973,989,1006","king","Everyday","0","47","15","-19","15%"
"rule-violation","100","604844","0.0-3.0-1.0-0.1-0.47","byszkmchdc0obfy","main","2","","","","","","","","478","383","861","603760","642.2666666666667","true","richtig!","0","true","false","true","1","2","2","607","519.3666687011719","1074","63.366668701171875","1216","576","587.52","494.08","1068.8","40.96","106.23999999999995","40.96","40.96","40.96","659.2","167.04000000000002","430.08","241.92","651,750,813,891,961,1004,1023,1033,1036,1036,1041,1061,1066,1074","460.3666687011719,359.3666687011719,296.3666687011719,239.36666870117188,188.36666870117188,153.36666870117188,135.36666870117188,125.36666870117188,122.36666870117188,121.36666870117188,113.36666870117188,87.36666870117188,79.36666870117188,63.366668701171875","478,494,511,528,544,561,579,594,611,794,810,827,844,861","pawn","Everyday","0","48","16","-19","15%"
"rule-violation","101","608709","0.0-3.0-1.0-0.1-0.48","byszkmchdc0obfy","main","2","","","","","","","","507","400","907","607579","642.2666666666667","true","richtig!","0","false","false","false","10","1","2","607","503.3666687011719","139","81.36666870117188","1216","576","587.52","494.08","106.23999999999995","40.96","1068.8","40.96","40.96","40.96","659.2","167.04000000000002","430.08","241.92","585,551,491,413,317,255,197,165,151,146,145,145,146,146,139","469.3666687011719,420.3666687011719,359.3666687011719,293.3666687011719,211.36666870117188,163.36666870117188,122.36666870117188,105.36666870117188,96.36666870117188,93.36666870117188,92.36666870117188,91.36666870117188,91.36666870117188,91.36666870117188,81.36666870117188","507,523,540,557,573,591,608,623,640,657,674,824,840,890,907","king","Everyday","0","49","17","-19","15%"
"rule-violation","102","612823","0.0-3.0-1.0-0.1-0.49","byszkmchdc0obfy","main","2","","","","","","","","498","717","1215","611403","642.2666666666667","true","richtig!","0","true","false","true","10","2","2","607","507.3666687011719","1107","65.36666870117188","1216","576","587.52","494.08","1068.8","40.96","106.23999999999995","40.96","40.96","40.96","659.2","167.04000000000002","430.08","241.92","656,708,765,832,899,979,1078,1125,1153,1175,1158,1149,1142,1136,1129,1122,1117,1114,1113,1107","459.3666687011719,411.3666687011719,359.3666687011719,299.3666687011719,245.36666870117188,179.36666870117188,93.36666870117188,39.366668701171875,11.366668701171875,1.366668701171875,7.366668701171875,13.366668701171875,23.366668701171875,29.366668701171875,40.366668701171875,49.366668701171875,55.366668701171875,61.366668701171875,61.366668701171875,65.36666870117188","498,515,532,548,565,581,598,614,632,830,847,864,880,897,915,930,947,964,980,1214","pawn","Everyday","0","50","18","-19","15%"
"rule-violation","103","616655","0.0-3.0-1.0-0.1-0.50","byszkmchdc0obfy","main","2","","","","","","","","421","317","738","615711","642.2666666666667","true","richtig!","0","false","false","false","10","1","2","602","511.3666687011719","117","81.36666870117188","1216","576","587.52","494.08","106.23999999999995","40.96","1068.8","40.96","40.96","40.96","659.2","167.04000000000002","430.08","241.92","570,467,386,309,211,151,109,105,105,107,109,113,114,115,115,116,117","470.3666687011719,364.3666687011719,298.3666687011719,234.36666870117188,169.36666870117188,123.36666870117188,91.36666870117188,84.36666870117188,83.36666870117188,83.36666870117188,86.36666870117188,89.36666870117188,89.36666870117188,89.36666870117188,86.36666870117188,85.36666870117188,81.36666870117188","421,438,455,471,488,504,521,538,555,588,604,621,639,689,704,721,738","pawn","Corona","0","51","19","-19","15%"
"rule-violation","104","620469","0.0-3.0-1.0-0.1-0.51","byszkmchdc0obfy","main","2","","","","","","","","376","383","759","619488","642.2666666666667","true","richtig!","0","false","false","false","1","1","2","611","513.3666687011719","144","51.366668701171875","1216","576","587.52","494.08","106.23999999999995","40.96","1068.8","40.96","40.96","40.96","659.2","167.04000000000002","430.08","241.92","603,580,535,431,359,297,257,231,217,210,210,209,207,204,201,193,188,185,181,176,171,161,155,144","498.3666687011719,463.3666687011719,391.3666687011719,298.3666687011719,239.36666870117188,211.36666870117188,190.36666870117188,176.36666870117188,167.36666870117188,153.36666870117188,147.36666870117188,144.36666870117188,141.36666870117188,138.36666870117188,132.36666870117188,111.36666870117188,99.36666870117188,91.36666870117188,83.36666870117188,78.36666870117188,73.36666870117188,62.366668701171875,57.366668701171875,51.366668701171875","376,392,409,426,442,459,475,492,509,526,543,559,576,592,609,625,642,659,675,693,709,726,743,759","pawn","Corona","0","52","20","-19","15%"
