"trial_type","trial_index","time_elapsed","internal_node_id","subject","exp_part","BlockNumber","rt","stimulus","key_press","responses","question_order","button_pressed","InformedConsent","InitiationTime","MovementTime","TotalTime","start_time","PointRTLimit","ResponseCorrect","Feedback","TrialPoints","RuleBreak","PoliceCatch","ConformityCritical","PointAdvantage","TargetLocation","BlockadePosition","MouseStartX","MouseStartY","MouseEndX","MouseEndY","ScreenXMax","ScreenYMax","StartLocationX","StartLocationY","TargetLocationX","TargetLocationY","OppositeLocationX","OppositeLocationY","LocationMarkerXSize","LocationMarkerYSize","BlockadeLocationX","BlockadeLocationY","BlockadeXSize","BlockadeYSize","mousePosition","Target_Symbol","RuleType","Practice","TrialNumber","TrialNumberBlock","PointSum","RuleBreakRisk"
"pavlovia","0","2","0.0-0.0","z6g2p3jhvtsdnzn","","1","","","","","","","","","","","","","","","","","","","","","","","","","","","","","","","","","","","","","","","","","","","","","","",""
"html-keyboard-response","1","75197","0.0-1.0-0.0","z6g2p3jhvtsdnzn","instruction","1","75194.47000001674","<div align=left><b>Vielen Dank, dass Sie an unserem Experiment teilnehmen möchten!</b> <br><br>Im Rahmen dieses Projektes an der Albert-Ludwigs-Universität Freiburg untersuchen wir wie Menschen ihre Handlungen steuern. <br> Dabei wird es Ihre Aufgabe sein, in verschiedenen Situationen so schnell und korrekt wie möglich mit der Maus zu reagieren. <br> Durch korrektes und schnelles Reagieren sammeln sie Punkte. <br><br>Wichtig ist, dass Sie sich an einem PC oder Laptop befinden und <b>eine Maus zur Verfügung haben</b>. Eine Teilnahme vom Smartphone <br>oder Tablet aus oder mittels Laptop-Touchpad ist leider nicht möglich! Falls Sie gerade nicht von einem PC/Laptop mit Maus <br> teilnehmen, beenden Sie den Versuch bitte jetzt und starten Sie ihn von einem geeigneten Gerät aus neu. <br><br>Das Experiment wird insgesamt etwa 30 Minuten in Anspruch nehmen. Bitte stellen Sie sicher, dass Sie während dieser Zeit <b>ungestört</b> <br>die Aufgabe bearbeiten können! Psychologiestudierende der Universität Freiburg erhalten für die Teilnahme <b>0,5 VP-Stunden</b>. Darüber <br>hinaus haben alle Teilnehmer*innen die <b>Chance auf einen 30€-Gutschein (Amazon)</b>. Dieser wird nach Abschluss der Studie an die <br>Person, die die meisten Punkte gesammelt hat, vergeben.<br><br><b>Wichtig: </b>Verlassen Sie dieses Browser-Fenster ausschließlich in den mit “PAUSE” gekennzeichneten Abschnitten des <br>Experiments und schließen Sie das Browser-Fenster nach Beendigung der Studie erst, wenn Sie dazu aufgefordert werden.<br> Klicken Sie hierzu auf den entsprechenden Button am Ende der Studie.<br>Falls Sie das Browser-Fenster dieser Studie außerhalb der Pausen verlassen oder vorzeitig schließen, können wir Ihre Teilnahme <br>nicht verbuchen. <br><br> Drücken Sie ENTER um zu beginnen. <br> ","13","","","","","","","","","","","","","","","","","","","","","","","","","","","","","","","","","","","","","","","","","","","",""
"survey-multi-choice","2","78489","0.0-1.0-1.0","z6g2p3jhvtsdnzn","survey","1","3290.1500000152737","","","{""DeviceUsed"":""Laptop mit Maus""}","[0]","","","","","","","","","","","","","","","","","","","","","","","","","","","","","","","","","","","","","","","","","",""
"html-button-response","3","102621","0.0-1.0-2.0","z6g2p3jhvtsdnzn","instruction","1","24130.594999995083","<div align=left><strong> Informierte Einwilligung</strong>  <br>Ziel unserer Forschung ist es, menschliches Verhalten und mentale Prozesse besser zu verstehen. <br>In der folgenden Untersuchung wird dazu Ihr Verhalten (z.B. Wahlverhalten, Reaktionszeiten) aufgezeichnet. <br> <br><strong> Freiwilligkeit und Anonymität </strong> <br>Die Teilnahme an der Studie ist <strong>freiwillig</strong>.<br>Sie können jederzeit und ohne Angabe von Gründen Ihre Einwilligung zur Teilnahme an dieser  Studie widerrufen. <br><br> Da keine personenbezogenen Daten erhoben werden, ist nach Abschluss der Datenerhebung prinzipiell <br> <strong>keine Zuordnung mehr zwischen den Daten im Datensatz und Ihrer Person</strong> möglich – der Datensatz ist anonym. <br>Entsprechend ist nach Abschluss dieser Datenerhebung auch keine gezielte Löschung Ihres persönlichen <br>Datensatzes möglich, da wir diesen nicht zuordnen können.<br>Die Ergebnisse und Daten der Studie können als wissenschaftliche Publikation veröffentlicht werden. Dies geschieht <br>in <strong>anonymisierter Form</strong>, d. h. ohne dass die Daten einer spezifischen Person zugeordnet werden können.<br>Die vollständigen Daten dieser Studie können zur Gewährleistung von Transparenz in der Wissenschaft als offene <br>Daten im Internet in einem Datenarchiv und/oder anderen Forschenden zugänglich gemacht werden. <br> Damit folgt diese Studie den Empfehlungen der Deutschen Forschungsgemeinschaft (DFG) und der Deutschen <br>Gesellschaft für Psychologie (DGPs) zur Qualitätssicherung in der Forschung. <br><br> Wenn Sie jetzt oder nach dem Versuch Fragen haben, wenden Sie sich bitte an Christina Pfeuffer <br>(christina.pfeuffer@psychologie.uni-freiburg.de).<br><br>Hiermit versichere ich, dass ich die oben beschriebenen Teilnahmeinformationen verstanden habe <br>und mit den genannten Teilnahmebedingungen einverstanden bin.<br><br> </div>","","","","0","true","","","","","","","","","","","","","","","","","","","","","","","","","","","","","","","","","","","","","","","",""
"survey-text","4","109781","0.0-1.0-3.0-0.0","z6g2p3jhvtsdnzn","survey","1","7158.055000007153","","","{""Age"":""20""}","","","","","","","","","","","","","","","","","","","","","","","","","","","","","","","","","","","","","","","","","","",""
"survey-multi-choice","5","112115","0.0-1.0-3.0-1.0","z6g2p3jhvtsdnzn","survey","1","2333.359999989625","","","{""Handedness"":""rechts""}","[0]","","","","","","","","","","","","","","","","","","","","","","","","","","","","","","","","","","","","","","","","","",""
"survey-multi-choice","6","121977","0.0-1.0-3.0-2.0","z6g2p3jhvtsdnzn","survey","1","9860.964999999851","","","{""Gender"":""weiblich"",""SchoolLevel"":""Abitur"",""EducationLevel"":""Berufsakademie-, Fachhochschul- oder Universitätsabschluss""}","[0,1,2]","","","","","","","","","","","","","","","","","","","","","","","","","","","","","","","","","","","","","","","","","",""
"html-keyboard-response","7","206644","0.0-2.0-0.0","z6g2p3jhvtsdnzn","instruction","1","84665.3149999911","<b>Hinweise zur Aufgabe </b><br><br>Ihre Aufgabe wird es nun sein, Ihre Maus jeweils so schnell wie möglich von einem Startfeld (unten mittig) aus zu <br> einem von zwei Zielorten rechts und links oben auf dem Bildschirm zu bewegen. Vor jedem Durchgang wird Ihnen das Symbol <br>des Zielorts angezeigt (<img src='img/King_2.png' width='20' height='20'></img> oder <img src='img/Pawn.png' width='20' height='20'></img>) zu dem Sie sich bewegen sollen. Sobald Sie danach mit der Maus auf das Startfeld <br>(unten mittig) klicken, erscheint dieses Symbol zufällig entweder am rechten oder linken Zielort oben auf dem Bildschirm. <br><br><b>Bewegen Sie die Maus so schnell wie möglich auf das Symbol und vermeiden Sie dabei Fehler! </b><br><br>Gemeinsam mit dem Symbol, zu dem Sie sich im aktuellen Durchgang bewegen sollen, sehen Sie auch entweder die Zahl 1 oder 10. <br>Das ist die Anzahl Punkte, die Sie in diesem Durchgang erhalten können. <br><br><b> Der/die Teilnehmer*in, der/die im Hauptexperiment die meisten Punkte sammelt, erhält den 30€-Gutschein (Amazon). </b><br><br>Üben wir zunächst einmal die Aufgabe, ohne dass die Punkte von Bedeutung sind. <br>Bewegen Sie die Maus so schnell wie möglich auf das richtige Symbol! Sie können dabei den gesamten Bildschirm ausnutzen. <br>Die Umgebungsmerkmale die Ihnen angezeigt werden sind noch nicht von Bedeutung und können mit der Maus überfahren werden. <br><br>Drücken Sie ENTER um mit der Übung zu beginnen. ","13","","","","","","","","","","","","","","","","","","","","","","","","","","","","","","","","","","","","","","","","","","","",""
"rule-violation","8","231355","0.0-2.0-1.0-0.0","z6g2p3jhvtsdnzn","practice","1","","","","","","","","4098.230000003241","1901.7900000035297","6000.020000006771","224847.7600000042","1000","true","richtig!","0","false","false","false","0","2","2","920","795","1666","119","1824","890","880.3555555555556","763.4222222222222","1624","63.28888888888889","136.7111111111111","63.28888888888889","63.28888888888889","63.28888888888889","168.3555555555556","258.1","664.5333333333333","373.8","[object Object]","king","Corona","1","1","1","",""
"rule-violation","9","238025","0.0-2.0-1.0-0.1","z6g2p3jhvtsdnzn","practice","1","","","","","","","","48.695000004954636","450.4799999995157","499.17500000447035","237021.91999999923","1000","true","richtig!","10","false","false","false","10","2","2","917","787","1633","80","1824","890","880.3555555555556","763.4222222222222","1624","63.28888888888889","136.7111111111111","63.28888888888889","63.28888888888889","63.28888888888889","168.3555555555556","258.1","664.5333333333333","373.8","[object Object]","king","Everyday","1","2","2","",""
"rule-violation","10","241710","0.0-2.0-1.0-0.2","z6g2p3jhvtsdnzn","practice","1","","","","","","","","95.78000000328757","467.09499999997206","562.8750000032596","240645.26000001933","1000","true","richtig!","1","false","false","true","1","2","2","909","799","1662","100","1824","890","880.3555555555556","763.4222222222222","1624","63.28888888888889","136.7111111111111","63.28888888888889","63.28888888888889","63.28888888888889","991.1111111111111","258.1","664.5333333333333","373.8","[object Object]","king","Corona","1","3","3","",""
"rule-violation","11","245314","0.0-2.0-1.0-0.3","z6g2p3jhvtsdnzn","practice","1","","","","","","","","69.45499998982996","700.8900000073481","770.3449999971781","244041.4850000234","1000","true","richtig!","10","false","false","true","10","2","2","896","805","179","114","1824","890","880.3555555555556","763.4222222222222","1624","63.28888888888889","136.7111111111111","63.28888888888889","63.28888888888889","63.28888888888889","168.3555555555556","258.1","664.5333333333333","373.8","[object Object]","pawn","Corona","1","4","4","",""
"rule-violation","12","248851","0.0-2.0-1.0-0.4","z6g2p3jhvtsdnzn","practice","1","","","","","","","","58.66999999852851","450.3099999856204","508.9799999841489","247839.5550000132","1000","true","richtig!","1","false","false","false","1","2","2","929","777","1653","87","1824","890","880.3555555555556","763.4222222222222","1624","63.28888888888889","136.7111111111111","63.28888888888889","63.28888888888889","63.28888888888889","168.3555555555556","258.1","664.5333333333333","373.8","[object Object]","pawn","Corona","1","5","5","",""
"rule-violation","13","253138","0.0-2.0-1.0-0.5","z6g2p3jhvtsdnzn","practice","1","","","","","","","","82.08499997272156","900.9350000123959","983.0199999851175","251653.18000002299","1000","true","richtig!","1","false","false","true","1","2","2","897","785","1687","92","1824","890","880.3555555555556","763.4222222222222","1624","63.28888888888889","136.7111111111111","63.28888888888889","63.28888888888889","63.28888888888889","991.1111111111111","258.1","664.5333333333333","373.8","[object Object]","pawn","Everyday","1","6","6","",""
"rule-violation","14","256492","0.0-2.0-1.0-0.6","z6g2p3jhvtsdnzn","practice","1","","","","","","","","44.44999998668209","467.34999999171123","511.7999999783933","255477.8150000202","1000","true","richtig!","10","false","false","false","10","2","2","926","796","1637","117","1824","890","880.3555555555556","763.4222222222222","1624","63.28888888888889","136.7111111111111","63.28888888888889","63.28888888888889","63.28888888888889","168.3555555555556","258.1","664.5333333333333","373.8","[object Object]","king","Corona","1","7","7","",""
"rule-violation","15","259945","0.0-2.0-1.0-0.7","z6g2p3jhvtsdnzn","practice","1","","","","","","","","61.60999997518957","783.9350000140257","845.5449999892153","258597.3150000209","1000","true","richtig!","1","false","false","true","1","2","2","911","786","1629","101","1824","890","880.3555555555556","763.4222222222222","1624","63.28888888888889","136.7111111111111","63.28888888888889","63.28888888888889","63.28888888888889","991.1111111111111","258.1","664.5333333333333","373.8","[object Object]","pawn","Corona","1","8","8","",""
"rule-violation","16","263182","0.0-2.0-1.0-0.8","z6g2p3jhvtsdnzn","practice","1","","","","","","","","299.93999999715015","300.6949999835342","600.6349999806844","262079.3700000213","1000","true","richtig!","1","false","false","false","1","2","2","925","789","1625","120","1824","890","880.3555555555556","763.4222222222222","1624","63.28888888888889","136.7111111111111","63.28888888888889","63.28888888888889","63.28888888888889","168.3555555555556","258.1","664.5333333333333","373.8","[object Object]","king","Everyday","1","9","9","",""
"rule-violation","17","267053","0.0-2.0-1.0-0.9","z6g2p3jhvtsdnzn","practice","1","","","","","","","","98.2699999876786","1084.2550000234041","1182.5250000110827","265367.49500001315","1000","true","richtig!","0","false","false","false","0","2","2","925","778","188","125","1824","890","880.3555555555556","763.4222222222222","1624","63.28888888888889","136.7111111111111","63.28888888888889","63.28888888888889","63.28888888888889","991.1111111111111","258.1","664.5333333333333","373.8","[object Object]","pawn","Corona","1","10","10","",""
"html-keyboard-response","18","295927","0.0-2.0-2.0","z6g2p3jhvtsdnzn","instruction","1","28869.43500000052","<b>Super!</b> Nun noch zur Bedeutung der Umgebungsmerkmale, die Ihnen vermutlich bereits aufgefallen sind. <br><br>Nach einer weiteren kurzen Übungsphase folgt gleich das Hauptexperiment, in dem Sie für richtiges und schnelles <br>Ankommen am Zielort jeweils die Punkte erhalten, die Ihnen am Anfang jedes Durchgangs angezeigt werden (1 oder 10 Punkte). <br>Der/die Teilnehmer*in, der/die im Hauptexperiment die meisten Punkte sammelt, erhält den 30€-Gutschein (Amazon). <br><br><b>Strengen Sie sich also an, so viele Punkte wie möglich zu sammeln! </b><br><br>Die Situation für diese Studie ist die folgende: Sie befinden sich in der Innenstadt und müssen so schnell wie möglich <br>an den richtigen Zielort gelangen. Leider haben Sie Ihre Maske zu Hause vergessen. Auf Ihrem Weg durch die Innenstadt <br>gibt es einige Bereich, zu denen der <b>Zutritt untersagt</b> ist: <br><img src='img/Zutritt_verboten.png' width='60' height='40'></img> <br>oder die <b>nur mit Maske</b> passiert werden dürfen: <br><img src='img/Face_Mask.png' width='60' height='40'></img> <br> Wie im wirklichen Leben auch, können Sie diese Bereiche selbstverständlich trotzdem passieren, um möglichst <br>schnell ans Ziel zu kommen. <br><br>Denken Sie daran, die Punkte des jeweiligen Durchgangs erhalten Sie nur, wenn Sie <b>schnell und richtig</b> reagieren. <br>Wenn Sie mit der Maus die Bereiche, die Sie nicht betreten dürfen umfahren, gehen Sie kein Risiko ein. Sind Sie allerdings <br>nicht schnell genug, erhalten Sie nicht die entsprechenden Punkte. Wenn Sie den direkten Weg wählen und mit der Maus durch <br>die Bereiche, die Sie nicht betreten dürfen, fahren, besteht das Risiko, dass Sie von der Polizei, die ab und zu in der <br>Innenstadt kontrolliert, erwischt werden. Dann müssen Sie eine Strafe von 20 Punkten zahlen. <br><br>Im Folgenden sehen Sie, wie Ihnen die jeweils erhaltenen Punkte nach jedem Durchgang angezeigt werden können: <br><div class='row'><div class='column'><div class='container'><img src='img/Police_2.png' width='120' height='100'><div class='centeredred'>-20!</div></div></div><div class='column'><div class='container'><img src='img/Circle.png' width='100' height='100'><div class='centered'>+0!</div></div></div><div class='column'><div class='container'><img src='img/Star.png' width='100' height='100'><div class='centered'>+1!</div></div></div><div class='column'><div class='container'><img src='img/Star.png' width='100' height='100'><div class='centered'>+10!</div></div></div></div>Sie haben nun nochmal einige Durchgänge Gelegenheit, die Aufgabe zu üben. <b>Hier zählen die Punkte noch nicht</b>. Das wird erst <br>im Hauptexperiment der Fall sein. Probieren Sie also gern alles aus, um ein Gefühl für die Aufgabe zu bekommen. <br><br>Drücken Sie ENTER um mit der zweiten Übung zu beginnen.","13","","","","","","","","","","","","","","","","","","","","","","","","","","","","","","","","","","","","","","","","","","","",""
"rule-violation","19","309846","0.0-2.0-3.0-0.0","z6g2p3jhvtsdnzn","practice2","1","","","","","","","","322.2000000241678","467.1249999955762","789.325000019744","308553.5749999981","10000000","true","richtig!","10","false","false","false","10","2","2","914","782","140","86","1824","890","880.3555555555556","763.4222222222222","1624","63.28888888888889","136.7111111111111","63.28888888888889","63.28888888888889","63.28888888888889","991.1111111111111","258.1","664.5333333333333","373.8","[object Object]","king","Everyday","2","1","1","",""
"rule-violation","20","316169","0.0-2.0-3.0-0.1","z6g2p3jhvtsdnzn","practice2","1","","","","","","","","63.86999998358078","466.7500000214204","530.6200000050012","315135.265000019","10000000","true","richtig!","1","false","false","true","1","2","2","907","797","1633","71","1824","890","880.3555555555556","763.4222222222222","1624","63.28888888888889","136.7111111111111","63.28888888888889","63.28888888888889","63.28888888888889","991.1111111111111","258.1","664.5333333333333","373.8","[object Object]","king","Everyday","2","2","2","",""
"rule-violation","21","324678","0.0-2.0-3.0-0.2","z6g2p3jhvtsdnzn","practice2","1","","","","","","","","61.815000022761524","850.8949999813922","912.7100000041537","323261.48499999545","10000000","true","richtig!","1","false","false","true","1","2","2","914","786","199","69","1824","890","880.3555555555556","763.4222222222222","1624","63.28888888888889","136.7111111111111","63.28888888888889","63.28888888888889","63.28888888888889","168.3555555555556","258.1","664.5333333333333","373.8","[object Object]","king","Corona","2","3","3","",""
"rule-violation","22","327930","0.0-2.0-3.0-0.3","z6g2p3jhvtsdnzn","practice2","1","","","","","","","","103.65500001353212","550.5249999987427","654.1800000122748","326773.31499999855","10000000","true","richtig!","1","false","false","false","1","2","2","915","800","179","118","1824","890","880.3555555555556","763.4222222222222","1624","63.28888888888889","136.7111111111111","63.28888888888889","63.28888888888889","63.28888888888889","991.1111111111111","258.1","664.5333333333333","373.8","[object Object]","pawn","Everyday","2","4","4","",""
"rule-violation","23","332351","0.0-2.0-3.0-0.4","z6g2p3jhvtsdnzn","practice2","1","","","","","","","","896.0950000036974","1101.1599999910686","1997.254999994766","329851.4900000009","0","true","richtig!","0","false","false","false","0","2","2","910","771","1626","107","1824","890","880.3555555555556","763.4222222222222","1624","63.28888888888889","136.7111111111111","63.28888888888889","63.28888888888889","63.28888888888889","168.3555555555556","258.1","664.5333333333333","373.8","[object Object]","king","Everyday","2","5","5","",""
"rule-violation","24","335504","0.0-2.0-3.0-0.5","z6g2p3jhvtsdnzn","practice2","1","","","","","","","","41.6749999858439","416.9099999999162","458.5849999857601","334543.1850000168","0","true","richtig!","0","false","false","true","0","2","2","916","776","140","80","1824","890","880.3555555555556","763.4222222222222","1624","63.28888888888889","136.7111111111111","63.28888888888889","63.28888888888889","63.28888888888889","168.3555555555556","258.1","664.5333333333333","373.8","[object Object]","pawn","Everyday","2","6","6","",""
"rule-violation","25","339592","0.0-2.0-3.0-0.6","z6g2p3jhvtsdnzn","practice2","1","","","","","","","","66.5150000131689","817.4449999933131","883.960000006482","338205.1999999967","0","true","richtig!","0","false","false","true","0","2","2","909","779","197","84","1824","890","880.3555555555556","763.4222222222222","1624","63.28888888888889","136.7111111111111","63.28888888888889","63.28888888888889","63.28888888888889","168.3555555555556","258.1","664.5333333333333","373.8","[object Object]","pawn","Corona","2","7","7","",""
"rule-violation","26","342995","0.0-2.0-3.0-0.7","z6g2p3jhvtsdnzn","practice2","1","","","","","","","","333.02499999990687","549.8749999969732","882.8999999968801","341609.5100000093","0","true","richtig!","0","false","true","true","0","2","2","936","768","145","74","1824","890","880.3555555555556","763.4222222222222","1624","63.28888888888889","136.7111111111111","63.28888888888889","63.28888888888889","63.28888888888889","168.3555555555556","258.1","664.5333333333333","373.8","[object Object]","pawn","Everyday","2","8","8","",""
"rule-violation","27","346316","0.0-2.0-3.0-0.8","z6g2p3jhvtsdnzn","practice2","1","","","","","","","","194.4599999987986","650.5649999890011","845.0249999877997","344967.46500002337","10000000","true","richtig!","10","false","false","false","10","2","2","921","782","1678","81","1824","890","880.3555555555556","763.4222222222222","1624","63.28888888888889","136.7111111111111","63.28888888888889","63.28888888888889","63.28888888888889","168.3555555555556","258.1","664.5333333333333","373.8","[object Object]","pawn","Corona","2","9","9","",""
"rule-violation","28","349286","0.0-2.0-3.0-0.9","z6g2p3jhvtsdnzn","practice2","1","","","","","","","","61.664999986533076","368.23500000173226","429.89999998826534","348353.3950000128","0","true","richtig!","0","false","false","false","0","2","2","912","798","166","106","1824","890","880.3555555555556","763.4222222222222","1624","63.28888888888889","136.7111111111111","63.28888888888889","63.28888888888889","63.28888888888889","991.1111111111111","258.1","664.5333333333333","373.8","[object Object]","pawn","Corona","2","10","10","",""
"rule-violation","29","352406","0.0-2.0-3.0-0.10","z6g2p3jhvtsdnzn","practice2","1","","","","","","","","117.05000000074506","483.7200000183657","600.7700000191107","351301.2699999963","10000000","true","richtig!","1","false","false","false","1","2","2","923","771","191","91","1824","890","880.3555555555556","763.4222222222222","1624","63.28888888888889","136.7111111111111","63.28888888888889","63.28888888888889","63.28888888888889","991.1111111111111","258.1","664.5333333333333","373.8","[object Object]","king","Everyday","2","11","11","",""
"rule-violation","30","355724","0.0-2.0-3.0-0.11","z6g2p3jhvtsdnzn","practice2","1","","","","","","","","99.64000000036322","617.1849999809638","716.824999981327","354505.18500001635","10000000","true","richtig!","1","false","false","false","1","2","2","929","782","1655","123","1824","890","880.3555555555556","763.4222222222222","1624","63.28888888888889","136.7111111111111","63.28888888888889","63.28888888888889","63.28888888888889","168.3555555555556","258.1","664.5333333333333","373.8","[object Object]","pawn","Corona","2","12","12","",""
"rule-violation","31","359161","0.0-2.0-3.0-0.12","z6g2p3jhvtsdnzn","practice2","1","","","","","","","","49.749999976484105","233.75500002293848","283.5049999994226","358375.25500002084","10000000","false","","0","false","false","true","0","2","2","916","788","1664","81","1824","890","880.3555555555556","763.4222222222222","1624","63.28888888888889","136.7111111111111","63.28888888888889","63.28888888888889","63.28888888888889","168.3555555555556","258.1","664.5333333333333","373.8","[object Object]","king","Corona","2","13","13","",""
"rule-violation","32","362732","0.0-2.0-3.0-0.13","z6g2p3jhvtsdnzn","practice2","1","","","","","","","","73.79500000388362","533.8199999823701","607.6149999862537","361621.3100000168","0","true","richtig!","0","false","false","false","0","2","2","923","770","152","69","1824","890","880.3555555555556","763.4222222222222","1624","63.28888888888889","136.7111111111111","63.28888888888889","63.28888888888889","63.28888888888889","991.1111111111111","258.1","664.5333333333333","373.8","[object Object]","king","Corona","2","14","14","",""
"rule-violation","33","367087","0.0-2.0-3.0-0.14","z6g2p3jhvtsdnzn","practice2","1","","","","","","","","51.31999999866821","550.5650000122841","601.8850000109524","365981.4849999966","10000000","true","richtig!","1","false","false","false","1","2","2","899","778","1653","82","1824","890","880.3555555555556","763.4222222222222","1624","63.28888888888889","136.7111111111111","63.28888888888889","63.28888888888889","63.28888888888889","168.3555555555556","258.1","664.5333333333333","373.8","[object Object]","king","Everyday","2","15","15","",""
"rule-violation","34","371592","0.0-2.0-3.0-0.15","z6g2p3jhvtsdnzn","practice2","1","","","","","","","","89.74500000476837","600.5350000050385","690.2800000098068","370397.4450000096","10000000","true","richtig!","10","false","false","false","10","2","2","917","783","1631","81","1824","890","880.3555555555556","763.4222222222222","1624","63.28888888888889","136.7111111111111","63.28888888888889","63.28888888888889","63.28888888888889","168.3555555555556","258.1","664.5333333333333","373.8","[object Object]","king","Corona","2","16","16","",""
"rule-violation","35","377446","0.0-2.0-3.0-0.16","z6g2p3jhvtsdnzn","practice2","1","","","","","","","","52.1100000187289","884.1299999912735","936.2400000100024","376007.2999999975","10000000","true","richtig!","10","false","false","true","10","2","2","913","790","1670","90","1824","890","880.3555555555556","763.4222222222222","1624","63.28888888888889","136.7111111111111","63.28888888888889","63.28888888888889","63.28888888888889","991.1111111111111","258.1","664.5333333333333","373.8","[object Object]","king","Corona","2","17","17","",""
"rule-violation","36","382035","0.0-2.0-3.0-0.17","z6g2p3jhvtsdnzn","practice2","1","","","","","","","","50.950000004377216","467.3950000142213","518.3450000185985","381013.4700000053","0","true","richtig!","0","true","false","true","0","2","2","914","795","1658","65","1824","890","880.3555555555556","763.4222222222222","1624","63.28888888888889","136.7111111111111","63.28888888888889","63.28888888888889","63.28888888888889","991.1111111111111","258.1","664.5333333333333","373.8","[object Object]","pawn","Corona","2","18","18","",""
"rule-violation","37","385321","0.0-2.0-3.0-0.18","z6g2p3jhvtsdnzn","practice2","1","","","","","","","","81.56500000040978","667.2350000008009","748.8000000012107","384069.26499999827","10000000","true","richtig!","1","false","true","true","1","2","2","901","814","1629","91","1824","890","880.3555555555556","763.4222222222222","1624","63.28888888888889","136.7111111111111","63.28888888888889","63.28888888888889","63.28888888888889","991.1111111111111","258.1","664.5333333333333","373.8","[object Object]","pawn","Corona","2","19","19","",""
"rule-violation","38","388307","0.0-2.0-3.0-0.19","z6g2p3jhvtsdnzn","practice2","1","","","","","","","","133.58499997411855","333.7750000064261","467.35999998054467","387337.2400000226","10000000","true","richtig!","10","false","true","false","10","2","2","929","787","198","114","1824","890","880.3555555555556","763.4222222222222","1624","63.28888888888889","136.7111111111111","63.28888888888889","63.28888888888889","63.28888888888889","991.1111111111111","258.1","664.5333333333333","373.8","[object Object]","pawn","Everyday","2","20","20","",""
"rule-violation","39","391728","0.0-2.0-3.0-0.20","z6g2p3jhvtsdnzn","practice2","1","","","","","","","","64.22999998903833","851.5500000212342","915.7800000102725","390309.425000014","10000000","true","richtig!","-20","true","true","false","-20","2","2","928","777","1671","92","1824","890","880.3555555555556","763.4222222222222","1624","63.28888888888889","136.7111111111111","63.28888888888889","63.28888888888889","63.28888888888889","168.3555555555556","258.1","664.5333333333333","373.8","[object Object]","pawn","Everyday","2","21","21","",""
"rule-violation","40","395515","0.0-2.0-3.0-0.21","z6g2p3jhvtsdnzn","practice2","1","","","","","","","","54.32500000461005","784.2799999925774","838.6049999971874","394173.37500001304","10000000","true","richtig!","1","false","false","true","1","2","2","908","776","1660","114","1824","890","880.3555555555556","763.4222222222222","1624","63.28888888888889","136.7111111111111","63.28888888888889","63.28888888888889","63.28888888888889","991.1111111111111","258.1","664.5333333333333","373.8","[object Object]","pawn","Everyday","2","22","22","",""
"rule-violation","41","398551","0.0-2.0-3.0-0.22","z6g2p3jhvtsdnzn","practice2","1","","","","","","","","75.82999998703599","366.9449999870267","442.77499997406267","397605.25000002235","0","true","richtig!","0","true","false","true","0","2","2","927","778","176","67","1824","890","880.3555555555556","763.4222222222222","1624","63.28888888888889","136.7111111111111","63.28888888888889","63.28888888888889","63.28888888888889","168.3555555555556","258.1","664.5333333333333","373.8","[object Object]","pawn","Corona","2","23","23","",""
"rule-violation","42","402271","0.0-2.0-3.0-0.23","z6g2p3jhvtsdnzn","practice2","1","","","","","","","","93.26999998302199","767.4550000228919","860.7250000059139","400907.68500001286","0","true","richtig!","0","false","false","true","0","2","2","912","812","1634","104","1824","890","880.3555555555556","763.4222222222222","1624","63.28888888888889","136.7111111111111","63.28888888888889","63.28888888888889","63.28888888888889","991.1111111111111","258.1","664.5333333333333","373.8","[object Object]","pawn","Everyday","2","24","24","",""
"rule-violation","43","405841","0.0-2.0-3.0-0.24","z6g2p3jhvtsdnzn","practice2","1","","","","","","","","83.68500001961365","817.5999999803025","901.2849999999162","404437.4649999954","10000000","true","richtig!","1","true","false","false","1","2","2","920","782","199","117","1824","890","880.3555555555556","763.4222222222222","1624","63.28888888888889","136.7111111111111","63.28888888888889","63.28888888888889","63.28888888888889","991.1111111111111","258.1","664.5333333333333","373.8","[object Object]","pawn","Corona","2","25","25","",""
"rule-violation","44","409346","0.0-2.0-3.0-0.25","z6g2p3jhvtsdnzn","practice2","1","","","","","","","","76.57999999355525","784.1049999988172","860.6849999923725","407981.51000001235","0","true","richtig!","0","false","true","true","0","2","2","928","779","1648","70","1824","890","880.3555555555556","763.4222222222222","1624","63.28888888888889","136.7111111111111","63.28888888888889","63.28888888888889","63.28888888888889","991.1111111111111","258.1","664.5333333333333","373.8","[object Object]","king","Corona","2","26","26","",""
"rule-violation","45","412482","0.0-2.0-3.0-0.26","z6g2p3jhvtsdnzn","practice2","1","","","","","","","","82.03499999945052","467.18999999575317","549.2249999952037","411429.52000000514","10000000","true","richtig!","1","false","false","false","1","2","2","939","778","1657","122","1824","890","880.3555555555556","763.4222222222222","1624","63.28888888888889","136.7111111111111","63.28888888888889","63.28888888888889","63.28888888888889","168.3555555555556","258.1","664.5333333333333","373.8","[object Object]","pawn","Everyday","2","27","27","",""
"rule-violation","46","416335","0.0-2.0-3.0-0.27","z6g2p3jhvtsdnzn","practice2","1","","","","","","","","58.570000022882596","700.6899999978486","759.2600000207312","415073.1899999955","10000000","true","richtig!","1","false","false","false","1","2","2","905","793","1687","80","1824","890","880.3555555555556","763.4222222222222","1624","63.28888888888889","136.7111111111111","63.28888888888889","63.28888888888889","63.28888888888889","168.3555555555556","258.1","664.5333333333333","373.8","[object Object]","king","Corona","2","28","28","",""
"rule-violation","47","419538","0.0-2.0-3.0-0.28","z6g2p3jhvtsdnzn","practice2","1","","","","","","","","49.72999999881722","483.7999999872409","533.5299999860581","418502.1550000238","10000000","true","richtig!","1","false","false","true","1","2","2","906","780","153","111","1824","890","880.3555555555556","763.4222222222222","1624","63.28888888888889","136.7111111111111","63.28888888888889","63.28888888888889","63.28888888888889","168.3555555555556","258.1","664.5333333333333","373.8","[object Object]","king","Everyday","2","29","29","",""
"rule-violation","48","422808","0.0-2.0-3.0-0.29","z6g2p3jhvtsdnzn","practice2","1","","","","","","","","65.04499999573454","467.2800000116695","532.325000007404","421773.4300000011","10000000","true","richtig!","10","false","false","true","10","2","2","916","785","177","74","1824","890","880.3555555555556","763.4222222222222","1624","63.28888888888889","136.7111111111111","63.28888888888889","63.28888888888889","63.28888888888889","168.3555555555556","258.1","664.5333333333333","373.8","[object Object]","king","Everyday","2","30","30","",""
"rule-violation","49","426246","0.0-2.0-3.0-0.30","z6g2p3jhvtsdnzn","practice2","1","","","","","","","","87.68500000587665","767.6250000076834","855.31000001356","424887.4749999959","0","true","richtig!","0","false","true","true","0","2","2","917","785","1650","113","1824","890","880.3555555555556","763.4222222222222","1624","63.28888888888889","136.7111111111111","63.28888888888889","63.28888888888889","63.28888888888889","991.1111111111111","258.1","664.5333333333333","373.8","[object Object]","king","Everyday","2","31","31","",""
"rule-violation","50","429449","0.0-2.0-3.0-0.31","z6g2p3jhvtsdnzn","practice2","1","","","","","","","","128.98999999742955","467.24499997799285","596.2349999754224","428349.50500002014","10000000","true","richtig!","10","false","false","false","10","2","2","916","788","197","82","1824","890","880.3555555555556","763.4222222222222","1624","63.28888888888889","136.7111111111111","63.28888888888889","63.28888888888889","63.28888888888889","991.1111111111111","258.1","664.5333333333333","373.8","[object Object]","king","Corona","2","32","32","",""
"html-keyboard-response","51","438612","0.0-3.0-0.0","z6g2p3jhvtsdnzn","instruction","1","9161.410000000615","<div align=left><b>Super!</b> Nun startet das Hauptexperiment. <br><br> Sie starten mit 0 Punkten. <b>Ab jetzt zählen alle Punkte, die Sie gewinnen oder verlieren. </b><br>Nach einigen Durchgängen gibt es jeweils eine Pause, in der Ihnen der aktuelle Punktestand angezeigt wird. <br>Denken Sie daran, Sie erhalten nur Punkte, wenn Sie sowohl <b>schnell als auch richtig</b> reagieren! <br><br>Drücken Sie ENTER um mit dem Experiment zu beginnen.","13","","","","","","","","","","","","","","","","","","","","","","","","","","","","","","","","","","","","","","","","","","","",""
"rule-violation","52","441944","0.0-3.0-1.0-0.0-0.0","z6g2p3jhvtsdnzn","main","1","","","","","","","","68.02999999490567","583.9149999956135","651.9449999905191","440789.3900000199","657.6378124995244","true","richtig!","1","true","false","true","1","2","2","915","779","194","116","1824","890","880.3555555555556","763.4222222222222","1624","63.28888888888889","136.7111111111111","63.28888888888889","63.28888888888889","63.28888888888889","168.3555555555556","258.1","664.5333333333333","373.8","[object Object]","pawn","Everyday","0","33","33","1","15%"
"rule-violation","53","448669","0.0-3.0-1.0-0.0-0.1","z6g2p3jhvtsdnzn","main","1","","","","","","","","240.5000000144355","1101.1099999886937","1341.6100000031292","446823.1899999955","657.6378124995244","true","richtig!","0","false","false","false","0","2","2","915","782","1625","105","1824","890","880.3555555555556","763.4222222222222","1624","63.28888888888889","136.7111111111111","63.28888888888889","63.28888888888889","63.28888888888889","168.3555555555556","258.1","664.5333333333333","373.8","[object Object]","king","Corona","0","34","34","1","15%"
"rule-violation","54","452154","0.0-3.0-1.0-0.0-0.2","z6g2p3jhvtsdnzn","main","1","","","","","","","","87.26500000921078","566.9999999809079","654.2649999901187","450997.3100000061","657.6378124995244","true","richtig!","10","false","false","false","10","2","2","922","799","1640","108","1824","890","880.3555555555556","763.4222222222222","1624","63.28888888888889","136.7111111111111","63.28888888888889","63.28888888888889","63.28888888888889","168.3555555555556","258.1","664.5333333333333","373.8","[object Object]","king","Everyday","0","35","35","11","15%"
"rule-violation","55","455774","0.0-3.0-1.0-0.0-0.3","z6g2p3jhvtsdnzn","main","1","","","","","","","","94.7699999960605","683.9399999880698","778.7099999841303","454493.1450000149","657.6378124995244","true","richtig!","0","false","false","true","0","2","2","910","776","1633","112","1824","890","880.3555555555556","763.4222222222222","1624","63.28888888888889","136.7111111111111","63.28888888888889","63.28888888888889","63.28888888888889","991.1111111111111","258.1","664.5333333333333","373.8","[object Object]","king","Corona","0","36","36","11","15%"
"rule-violation","56","459396","0.0-3.0-1.0-0.0-0.4","z6g2p3jhvtsdnzn","main","1","","","","","","","","49.25000001094304","867.3499999858905","916.5999999968335","457975.52000000724","657.6378124995244","true","richtig!","0","false","false","true","0","2","2","931","785","137","92","1824","890","880.3555555555556","763.4222222222222","1624","63.28888888888889","136.7111111111111","63.28888888888889","63.28888888888889","63.28888888888889","168.3555555555556","258.1","664.5333333333333","373.8","[object Object]","pawn","Everyday","0","37","37","11","15%"
"rule-violation","57","462848","0.0-3.0-1.0-0.0-0.5","z6g2p3jhvtsdnzn","main","1","","","","","","","","39.68499999609776","600.6150000030175","640.2999999991152","461705.340000015","657.6378124995244","true","richtig!","10","false","false","false","10","2","2","918","795","185","113","1824","890","880.3555555555556","763.4222222222222","1624","63.28888888888889","136.7111111111111","63.28888888888889","63.28888888888889","63.28888888888889","991.1111111111111","258.1","664.5333333333333","373.8","[object Object]","king","Everyday","0","38","38","21","15%"
"rule-violation","58","465868","0.0-3.0-1.0-0.0-0.6","z6g2p3jhvtsdnzn","main","1","","","","","","","","57.3900000017602","500.4849999968428","557.874999998603","464807.41999999736","657.6378124995244","true","richtig!","1","false","false","false","1","2","2","922","778","194","117","1824","890","880.3555555555556","763.4222222222222","1624","63.28888888888889","136.7111111111111","63.28888888888889","63.28888888888889","63.28888888888889","991.1111111111111","258.1","664.5333333333333","373.8","[object Object]","king","Everyday","0","39","39","22","15%"
"rule-violation","59","468887","0.0-3.0-1.0-0.0-0.7","z6g2p3jhvtsdnzn","main","1","","","","","","","","62.13999999454245","333.78000001539476","395.9200000099372","467989.1800000041","657.6378124995244","true","richtig!","10","false","false","false","10","2","2","918","788","151","118","1824","890","880.3555555555556","763.4222222222222","1624","63.28888888888889","136.7111111111111","63.28888888888889","63.28888888888889","63.28888888888889","991.1111111111111","258.1","664.5333333333333","373.8","[object Object]","pawn","Corona","0","40","40","32","15%"
"rule-violation","60","472090","0.0-3.0-1.0-0.0-0.8","z6g2p3jhvtsdnzn","main","1","","","","","","","","102.50000000814907","550.5999999877531","653.0999999959022","470935.135000007","657.6378124995244","true","richtig!","10","false","false","true","10","2","2","913","788","1627","71","1824","890","880.3555555555556","763.4222222222222","1624","63.28888888888889","136.7111111111111","63.28888888888889","63.28888888888889","63.28888888888889","991.1111111111111","258.1","664.5333333333333","373.8","[object Object]","king","Everyday","0","41","41","42","15%"
"rule-violation","61","474977","0.0-3.0-1.0-0.0-0.9","z6g2p3jhvtsdnzn","main","1","","","","","","","","79.69499999308027","233.32500000833534","313.0200000014156","474161.23500000685","657.6378124995244","true","richtig!","1","false","false","false","1","2","2","906","796","182","110","1824","890","880.3555555555556","763.4222222222222","1624","63.28888888888889","136.7111111111111","63.28888888888889","63.28888888888889","63.28888888888889","991.1111111111111","258.1","664.5333333333333","373.8","[object Object]","pawn","Everyday","0","42","42","43","15%"
"rule-violation","62","478330","0.0-3.0-1.0-0.0-0.10","z6g2p3jhvtsdnzn","main","1","","","","","","","","63.999999983934686","500.52500001038425","564.5249999943189","477263.185000018","657.6378124995244","true","richtig!","1","false","false","true","1","2","2","917","766","160","86","1824","890","880.3555555555556","763.4222222222222","1624","63.28888888888889","136.7111111111111","63.28888888888889","63.28888888888889","63.28888888888889","168.3555555555556","258.1","664.5333333333333","373.8","[object Object]","king","Everyday","0","43","43","44","15%"
"rule-violation","63","482569","0.0-3.0-1.0-0.0-0.11","z6g2p3jhvtsdnzn","main","1","","","","","","","","42.22000000299886","783.5800000175368","825.8000000205357","481239.43499999586","657.6378124995244","true","richtig!","0","true","false","true","0","2","2","920","796","1627","65","1824","890","880.3555555555556","763.4222222222222","1624","63.28888888888889","136.7111111111111","63.28888888888889","63.28888888888889","63.28888888888889","991.1111111111111","258.1","664.5333333333333","373.8","[object Object]","king","Corona","0","44","44","44","15%"
"rule-violation","64","486238","0.0-3.0-1.0-0.0-0.12","z6g2p3jhvtsdnzn","main","1","","","","","","","","65.22500002756715","717.3599999805447","782.5850000081118","484953.0899999954","657.6378124995244","true","richtig!","0","true","false","false","0","2","2","926","802","1646","105","1824","890","880.3555555555556","763.4222222222222","1624","63.28888888888889","136.7111111111111","63.28888888888889","63.28888888888889","63.28888888888889","168.3555555555556","258.1","664.5333333333333","373.8","[object Object]","king","Corona","0","45","45","44","15%"
"rule-violation","65","489342","0.0-3.0-1.0-0.0-0.13","z6g2p3jhvtsdnzn","main","1","","","","","","","","139.68999998178333","434.21000000671484","573.8999999884982","488265.1800000167","657.6378124995244","true","richtig!","1","true","false","false","1","2","2","922","796","1646","91","1824","890","880.3555555555556","763.4222222222222","1624","63.28888888888889","136.7111111111111","63.28888888888889","63.28888888888889","63.28888888888889","168.3555555555556","258.1","664.5333333333333","373.8","[object Object]","pawn","Everyday","0","46","46","45","15%"
"rule-violation","66","492712","0.0-3.0-1.0-0.0-0.14","z6g2p3jhvtsdnzn","main","1","","","","","","","","137.51499998033978","584.0350000071339","721.5499999874737","491487.22500001895","657.6378124995244","true","richtig!","-20","true","true","true","-20","2","2","922","787","1636","120","1824","890","880.3555555555556","763.4222222222222","1624","63.28888888888889","136.7111111111111","63.28888888888889","63.28888888888889","63.28888888888889","991.1111111111111","258.1","664.5333333333333","373.8","[object Object]","pawn","Corona","0","47","47","25","15%"
"rule-violation","67","496215","0.0-3.0-1.0-0.0-0.15","z6g2p3jhvtsdnzn","main","1","","","","","","","","32.16000000247732","850.7949999766424","882.9549999791197","494829.25500001875","657.6378124995244","true","richtig!","0","true","false","true","0","2","2","890","794","1630","74","1824","890","880.3555555555556","763.4222222222222","1624","63.28888888888889","136.7111111111111","63.28888888888889","63.28888888888889","63.28888888888889","991.1111111111111","258.1","664.5333333333333","373.8","[object Object]","pawn","Corona","0","48","48","25","15%"
"rule-violation","68","499619","0.0-3.0-1.0-0.0-0.16","z6g2p3jhvtsdnzn","main","1","","","","","","","","42.54999998374842","433.82500001462176","476.3749999983702","498639.3500000122","657.6378124995244","true","richtig!","1","false","true","true","1","2","2","922","792","140","122","1824","890","880.3555555555556","763.4222222222222","1624","63.28888888888889","136.7111111111111","63.28888888888889","63.28888888888889","63.28888888888889","168.3555555555556","258.1","664.5333333333333","373.8","[object Object]","king","Corona","0","49","49","26","15%"
"rule-violation","69","503271","0.0-3.0-1.0-0.0-0.17","z6g2p3jhvtsdnzn","main","1","","","","","","","","67.86499998997897","734.0400000102818","801.9050000002608","501967.4400000076","657.6378124995244","true","richtig!","0","false","false","false","0","2","2","910","795","1653","66","1824","890","880.3555555555556","763.4222222222222","1624","63.28888888888889","136.7111111111111","63.28888888888889","63.28888888888889","63.28888888888889","168.3555555555556","258.1","664.5333333333333","373.8","[object Object]","king","Everyday","0","50","50","26","15%"
"rule-violation","70","506942","0.0-3.0-1.0-0.0-0.18","z6g2p3jhvtsdnzn","main","1","","","","","","","","263.9400000043679","350.4749999847263","614.4149999890942","505825.23000001675","657.6378124995244","true","richtig!","10","false","false","true","10","2","2","925","771","1644","113","1824","890","880.3555555555556","763.4222222222222","1624","63.28888888888889","136.7111111111111","63.28888888888889","63.28888888888889","63.28888888888889","991.1111111111111","258.1","664.5333333333333","373.8","[object Object]","pawn","Everyday","0","51","51","36","15%"
"rule-violation","71","509979","0.0-3.0-1.0-0.0-0.19","z6g2p3jhvtsdnzn","main","1","","","","","","","","75.04500000504777","434.3150000204332","509.360000025481","508967.17499999795","657.6378124995244","true","richtig!","10","false","false","false","10","2","2","920","819","177","124","1824","890","880.3555555555556","763.4222222222222","1624","63.28888888888889","136.7111111111111","63.28888888888889","63.28888888888889","63.28888888888889","991.1111111111111","258.1","664.5333333333333","373.8","[object Object]","king","Corona","0","52","52","46","15%"
"rule-violation","72","513515","0.0-3.0-1.0-0.0-0.20","z6g2p3jhvtsdnzn","main","1","","","","","","","","90.29999998165295","717.4900000100024","807.7899999916553","512205.21000001463","657.6378124995244","true","richtig!","0","false","false","false","0","2","2","925","775","1631","95","1824","890","880.3555555555556","763.4222222222222","1624","63.28888888888889","136.7111111111111","63.28888888888889","63.28888888888889","63.28888888888889","168.3555555555556","258.1","664.5333333333333","373.8","[object Object]","pawn","Corona","0","53","53","46","15%"
"rule-violation","73","516953","0.0-3.0-1.0-0.0-0.21","z6g2p3jhvtsdnzn","main","1","","","","","","","","94.87500000977889","683.4950000047684","778.3700000145473","515671.3049999962","657.6378124995244","true","richtig!","0","false","false","false","0","2","2","938","781","1640","77","1824","890","880.3555555555556","763.4222222222222","1624","63.28888888888889","136.7111111111111","63.28888888888889","63.28888888888889","63.28888888888889","168.3555555555556","258.1","664.5333333333333","373.8","[object Object]","pawn","Everyday","0","54","54","46","15%"
"rule-violation","74","520423","0.0-3.0-1.0-0.0-0.22","z6g2p3jhvtsdnzn","main","1","","","","","","","","54.18999999528751","784.220000001369","838.4099999966566","519081.4750000136","657.6378124995244","true","richtig!","0","false","true","true","0","2","2","932","797","1629","84","1824","890","880.3555555555556","763.4222222222222","1624","63.28888888888889","136.7111111111111","63.28888888888889","63.28888888888889","63.28888888888889","991.1111111111111","258.1","664.5333333333333","373.8","[object Object]","king","Everyday","0","55","55","46","15%"
"rule-violation","75","523936","0.0-3.0-1.0-0.0-0.23","z6g2p3jhvtsdnzn","main","1","","","","","","","","51.73500001546927","792.989999987185","844.7250000026543","522587.440000003","657.6378124995244","true","richtig!","0","false","false","true","0","2","2","915","776","173","126","1824","890","880.3555555555556","763.4222222222222","1624","63.28888888888889","136.7111111111111","63.28888888888889","63.28888888888889","63.28888888888889","168.3555555555556","258.1","664.5333333333333","373.8","[object Object]","pawn","Corona","0","56","56","46","15%"
"rule-violation","76","527613","0.0-3.0-1.0-0.0-0.24","z6g2p3jhvtsdnzn","main","1","","","","","","","","89.79500000714324","950.9100000141189","1040.705000021262","526069.445000001","657.6378124995244","true","richtig!","0","false","false","false","0","2","2","897","797","199","98","1824","890","880.3555555555556","763.4222222222222","1624","63.28888888888889","136.7111111111111","63.28888888888889","63.28888888888889","63.28888888888889","991.1111111111111","258.1","664.5333333333333","373.8","[object Object]","pawn","Corona","0","57","57","46","15%"
"rule-violation","77","531750","0.0-3.0-1.0-0.0-0.25","z6g2p3jhvtsdnzn","main","1","","","","","","","","61.17000000085682","1251.8500000005588","1313.0200000014156","529935.2599999984","657.6378124995244","true","richtig!","0","false","false","true","0","2","2","915","798","183","67","1824","890","880.3555555555556","763.4222222222222","1624","63.28888888888889","136.7111111111111","63.28888888888889","63.28888888888889","63.28888888888889","168.3555555555556","258.1","664.5333333333333","373.8","[object Object]","king","Corona","0","58","58","46","15%"
"rule-violation","78","534836","0.0-3.0-1.0-0.0-0.26","z6g2p3jhvtsdnzn","main","1","","","","","","","","103.86999999172986","366.97500001173466","470.8450000034645","533863.2950000174","657.6378124995244","true","richtig!","10","false","true","false","10","2","2","931","778","193","96","1824","890","880.3555555555556","763.4222222222222","1624","63.28888888888889","136.7111111111111","63.28888888888889","63.28888888888889","63.28888888888889","991.1111111111111","258.1","664.5333333333333","373.8","[object Object]","pawn","Everyday","0","59","59","56","15%"
"rule-violation","79","537722","0.0-3.0-1.0-0.0-0.27","z6g2p3jhvtsdnzn","main","1","","","","","","","","43.26999999466352","433.8200000056531","477.09000000031665","536743.3050000109","657.6378124995244","true","richtig!","1","false","false","false","1","2","2","919","784","193","79","1824","890","880.3555555555556","763.4222222222222","1624","63.28888888888889","136.7111111111111","63.28888888888889","63.28888888888889","63.28888888888889","991.1111111111111","258.1","664.5333333333333","373.8","[object Object]","king","Corona","0","60","60","57","15%"
"rule-violation","80","541162","0.0-3.0-1.0-0.0-0.28","z6g2p3jhvtsdnzn","main","1","","","","","","","","124.98999998206273","700.5749999952968","825.5649999773595","539831.4800000226","657.6378124995244","true","richtig!","0","false","false","true","0","2","2","919","783","152","65","1824","890","880.3555555555556","763.4222222222222","1624","63.28888888888889","136.7111111111111","63.28888888888889","63.28888888888889","63.28888888888889","168.3555555555556","258.1","664.5333333333333","373.8","[object Object]","king","Everyday","0","61","61","57","15%"
"rule-violation","81","544679","0.0-3.0-1.0-0.0-0.29","z6g2p3jhvtsdnzn","main","1","","","","","","","","189.0150000108406","850.895000010496","1039.9100000213366","543137.4450000003","657.6378124995244","true","richtig!","0","false","false","true","0","2","2","913","804","1673","85","1824","890","880.3555555555556","763.4222222222222","1624","63.28888888888889","136.7111111111111","63.28888888888889","63.28888888888889","63.28888888888889","991.1111111111111","258.1","664.5333333333333","373.8","[object Object]","pawn","Everyday","0","62","62","57","15%"
"rule-violation","82","548083","0.0-3.0-1.0-0.0-0.30","z6g2p3jhvtsdnzn","main","1","","","","","","","","159.8950000188779","733.5699999821372","893.4650000010151","546687.2750000039","657.6378124995244","true","richtig!","0","false","false","true","0","2","2","922","787","148","104","1824","890","880.3555555555556","763.4222222222222","1624","63.28888888888889","136.7111111111111","63.28888888888889","63.28888888888889","63.28888888888889","168.3555555555556","258.1","664.5333333333333","373.8","[object Object]","pawn","Corona","0","63","63","57","15%"
"rule-violation","83","551219","0.0-3.0-1.0-0.0-0.31","z6g2p3jhvtsdnzn","main","1","","","","","","","","53.35999999078922","650.7050000072923","704.0649999980815","550013.1700000202","657.6378124995244","true","richtig!","0","false","false","false","0","2","2","907","792","1627","70","1824","890","880.3555555555556","763.4222222222222","1624","63.28888888888889","136.7111111111111","63.28888888888889","63.28888888888889","63.28888888888889","168.3555555555556","258.1","664.5333333333333","373.8","[object Object]","pawn","Corona","0","64","64","57","15%"
"html-keyboard-response","84","577001","0.0-3.0-1.0-1.0","z6g2p3jhvtsdnzn","break","2","25780.22499999497","<b>PAUSE</b><br><br><b>Block 1/2 geschafft! </b><br><br>Sie haben bisher insgesamt <b>57 Punkte </b>erzielt. Sie können jetzt eine Pause einlegen.<br><br>WEITER mit ENTER","13","","","","","","","","","","","","","","","","","","","","","","","","","","","","","","","","","","","","","","","","","","","",""
"rule-violation","85","580450","0.0-3.0-1.0-0.1-0.32","z6g2p3jhvtsdnzn","main","2","","","","","","","","64.63499998790212","450.2500000235159","514.885000011418","579431.4050000103","657.6378124995244","true","richtig!","1","false","false","false","1","2","2","890","779","196","88","1824","890","880.3555555555556","763.4222222222222","1624","63.28888888888889","136.7111111111111","63.28888888888889","63.28888888888889","63.28888888888889","991.1111111111111","258.1","664.5333333333333","373.8","[object Object]","king","Everyday","0","65","1","58","15%"
"rule-violation","86","584352","0.0-3.0-1.0-0.1-0.33","z6g2p3jhvtsdnzn","main","2","","","","","","","","61.93500000517815","516.8999999877997","578.8349999929778","583271.3250000088","657.6378124995244","true","richtig!","10","false","false","false","10","2","2","918","787","199","103","1824","890","880.3555555555556","763.4222222222222","1624","63.28888888888889","136.7111111111111","63.28888888888889","63.28888888888889","63.28888888888889","991.1111111111111","258.1","664.5333333333333","373.8","[object Object]","king","Corona","0","66","2","68","15%"
"rule-violation","87","590192","0.0-3.0-1.0-0.1-0.34","z6g2p3jhvtsdnzn","main","2","","","","","","","","51.699999981792644","350.29000000213273","401.9899999839254","589287.3950000212","657.6378124995244","true","richtig!","1","true","false","true","1","2","2","917","786","160","83","1824","890","880.3555555555556","763.4222222222222","1624","63.28888888888889","136.7111111111111","63.28888888888889","63.28888888888889","63.28888888888889","168.3555555555556","258.1","664.5333333333333","373.8","[object Object]","pawn","Corona","0","67","3","69","15%"
"rule-violation","88","593412","0.0-3.0-1.0-0.1-0.35","z6g2p3jhvtsdnzn","main","2","","","","","","","","53.8500000257045","684.2349999933504","738.0850000190549","592171.4349999966","657.6378124995244","true","richtig!","0","true","false","true","0","2","2","930","794","141","89","1824","890","880.3555555555556","763.4222222222222","1624","63.28888888888889","136.7111111111111","63.28888888888889","63.28888888888889","63.28888888888889","168.3555555555556","258.1","664.5333333333333","373.8","[object Object]","king","Corona","0","68","4","69","15%"
"rule-violation","89","596884","0.0-3.0-1.0-0.1-0.36","z6g2p3jhvtsdnzn","main","2","","","","","","","","54.899999988265336","517.0100000104867","571.909999998752","595807.3800000129","657.6378124995244","true","richtig!","1","false","false","false","1","2","2","898","790","144","65","1824","890","880.3555555555556","763.4222222222222","1624","63.28888888888889","136.7111111111111","63.28888888888889","63.28888888888889","63.28888888888889","991.1111111111111","258.1","664.5333333333333","373.8","[object Object]","pawn","Everyday","0","69","5","70","15%"
"rule-violation","90","600252","0.0-3.0-1.0-0.1-0.37","z6g2p3jhvtsdnzn","main","2","","","","","","","","38.81500000716187","467.20499999355525","506.0200000007171","599243.4150000045","657.6378124995244","true","richtig!","1","false","false","true","1","2","2","913","779","193","88","1824","890","880.3555555555556","763.4222222222222","1624","63.28888888888889","136.7111111111111","63.28888888888889","63.28888888888889","63.28888888888889","168.3555555555556","258.1","664.5333333333333","373.8","[object Object]","pawn","Everyday","0","70","6","71","15%"
"rule-violation","91","603589","0.0-3.0-1.0-0.1-0.38","z6g2p3jhvtsdnzn","main","2","","","","","","","","31.7149999900721","467.1700000180863","498.8850000081584","602587.2350000136","657.6378124995244","true","richtig!","10","false","false","false","10","2","2","923","778","186","99","1824","890","880.3555555555556","763.4222222222222","1624","63.28888888888889","136.7111111111111","63.28888888888889","63.28888888888889","63.28888888888889","991.1111111111111","258.1","664.5333333333333","373.8","[object Object]","king","Everyday","0","71","7","81","15%"
"rule-violation","92","606592","0.0-3.0-1.0-0.1-0.39","z6g2p3jhvtsdnzn","main","2","","","","","","","","50.365000002784654","433.77000000327826","484.1350000060629","605605.0500000129","657.6378124995244","true","richtig!","10","true","false","true","10","2","2","907","778","180","121","1824","890","880.3555555555556","763.4222222222222","1624","63.28888888888889","136.7111111111111","63.28888888888889","63.28888888888889","63.28888888888889","168.3555555555556","258.1","664.5333333333333","373.8","[object Object]","pawn","Corona","0","72","8","91","15%"
"rule-violation","93","609695","0.0-3.0-1.0-0.1-0.40","z6g2p3jhvtsdnzn","main","2","","","","","","","","252.07500002579764","317.1349999902304","569.2100000160281","608623.0999999971","657.6378124995244","true","richtig!","1","false","true","false","1","2","2","893","782","198","97","1824","890","880.3555555555556","763.4222222222222","1624","63.28888888888889","136.7111111111111","63.28888888888889","63.28888888888889","63.28888888888889","991.1111111111111","258.1","664.5333333333333","373.8","[object Object]","king","Corona","0","73","9","92","15%"
"rule-violation","94","613114","0.0-3.0-1.0-0.1-0.41","z6g2p3jhvtsdnzn","main","2","","","","","","","","145.91500000096858","667.2549999784678","813.1699999794364","611799.1250000196","657.6378124995244","true","richtig!","0","false","false","false","0","2","2","925","764","1670","99","1824","890","880.3555555555556","763.4222222222222","1624","63.28888888888889","136.7111111111111","63.28888888888889","63.28888888888889","63.28888888888889","168.3555555555556","258.1","664.5333333333333","373.8","[object Object]","pawn","Corona","0","74","10","92","15%"
"rule-violation","95","616469","0.0-3.0-1.0-0.1-0.42","z6g2p3jhvtsdnzn","main","2","","","","","","","","66.66499999118969","634.2450000229292","700.9100000141189","615265.1600000099","657.6378124995244","true","richtig!","0","false","false","true","0","2","2","925","798","1677","65","1824","890","880.3555555555556","763.4222222222222","1624","63.28888888888889","136.7111111111111","63.28888888888889","63.28888888888889","63.28888888888889","991.1111111111111","258.1","664.5333333333333","373.8","[object Object]","king","Corona","0","75","11","92","15%"
"rule-violation","96","619888","0.0-3.0-1.0-0.1-0.43","z6g2p3jhvtsdnzn","main","2","","","","","","","","80.26499999687076","734.0649999969173","814.3299999937881","618571.4750000043","657.6378124995244","true","richtig!","0","false","false","false","0","2","2","914","775","1635","85","1824","890","880.3555555555556","763.4222222222222","1624","63.28888888888889","136.7111111111111","63.28888888888889","63.28888888888889","63.28888888888889","168.3555555555556","258.1","664.5333333333333","373.8","[object Object]","king","Everyday","0","76","12","92","15%"
"rule-violation","97","623409","0.0-3.0-1.0-0.1-0.44","z6g2p3jhvtsdnzn","main","2","","","","","","","","35.28999999980442","717.3400000028778","752.6300000026822","622153.2799999986","657.6378124995244","true","richtig!","0","false","false","false","0","2","2","915","793","1633","76","1824","890","880.3555555555556","763.4222222222222","1624","63.28888888888889","136.7111111111111","63.28888888888889","63.28888888888889","63.28888888888889","168.3555555555556","258.1","664.5333333333333","373.8","[object Object]","king","Corona","0","77","13","92","15%"
"rule-violation","98","626695","0.0-3.0-1.0-0.1-0.45","z6g2p3jhvtsdnzn","main","2","","","","","","","","118.51000000024214","750.5900000105612","869.1000000108033","625323.3450000116","657.6378124995244","true","richtig!","0","false","false","true","0","2","2","906","789","1677","87","1824","890","880.3555555555556","763.4222222222222","1624","63.28888888888889","136.7111111111111","63.28888888888889","63.28888888888889","63.28888888888889","991.1111111111111","258.1","664.5333333333333","373.8","[object Object]","king","Everyday","0","78","14","92","15%"
"rule-violation","99","630065","0.0-3.0-1.0-0.1-0.46","z6g2p3jhvtsdnzn","main","2","","","","","","","","67.22500000614673","783.8749999937136","851.0999999998603","628711.4250000159","657.6378124995244","true","richtig!","0","false","false","false","0","2","2","892","804","1658","65","1824","890","880.3555555555556","763.4222222222222","1624","63.28888888888889","136.7111111111111","63.28888888888889","63.28888888888889","63.28888888888889","168.3555555555556","258.1","664.5333333333333","373.8","[object Object]","king","Corona","0","79","15","92","15%"
"rule-violation","100","633285","0.0-3.0-1.0-0.1-0.47","z6g2p3jhvtsdnzn","main","2","","","","","","","","48.80999997840263","500.9450000070501","549.7549999854527","632233.1550000235","657.6378124995244","true","richtig!","10","false","false","true","10","2","2","913","779","194","82","1824","890","880.3555555555556","763.4222222222222","1624","63.28888888888889","136.7111111111111","63.28888888888889","63.28888888888889","63.28888888888889","168.3555555555556","258.1","664.5333333333333","373.8","[object Object]","king","Everyday","0","80","16","102","15%"
"rule-violation","101","636789","0.0-3.0-1.0-0.1-0.48","z6g2p3jhvtsdnzn","main","2","","","","","","","","52.75999999139458","834.2249999986961","886.9849999900907","635399.0550000162","657.6378124995244","true","richtig!","0","false","false","true","0","2","2","921","766","1632","78","1824","890","880.3555555555556","763.4222222222222","1624","63.28888888888889","136.7111111111111","63.28888888888889","63.28888888888889","63.28888888888889","991.1111111111111","258.1","664.5333333333333","373.8","[object Object]","pawn","Everyday","0","81","17","102","15%"
"rule-violation","102","639976","0.0-3.0-1.0-0.1-0.49","z6g2p3jhvtsdnzn","main","2","","","","","","","","57.64499999349937","433.40000000898726","491.04500000248663","638981.2850000162","657.6378124995244","true","richtig!","10","false","false","false","10","2","2","906","779","150","124","1824","890","880.3555555555556","763.4222222222222","1624","63.28888888888889","136.7111111111111","63.28888888888889","63.28888888888889","63.28888888888889","991.1111111111111","258.1","664.5333333333333","373.8","[object Object]","pawn","Everyday","0","82","18","112","15%"
"rule-violation","103","645382","0.0-3.0-1.0-0.1-0.50","z6g2p3jhvtsdnzn","main","2","","","","","","","","64.314999995986","734.2650000064168","798.5800000024028","644079.3800000101","657.6378124995244","true","richtig!","0","false","true","true","0","2","2","924","802","1637","103","1824","890","880.3555555555556","763.4222222222222","1624","63.28888888888889","136.7111111111111","63.28888888888889","63.28888888888889","63.28888888888889","991.1111111111111","258.1","664.5333333333333","373.8","[object Object]","king","Corona","0","83","19","112","15%"
"rule-violation","104","649502","0.0-3.0-1.0-0.1-0.51","z6g2p3jhvtsdnzn","main","2","","","","","","","","61.56999999075197","684.0000000083819","745.5699999991339","648253.1100000197","657.6378124995244","true","richtig!","0","true","false","false","0","2","2","922","774","1626","97","1824","890","880.3555555555556","763.4222222222222","1624","63.28888888888889","136.7111111111111","63.28888888888889","63.28888888888889","63.28888888888889","168.3555555555556","258.1","664.5333333333333","373.8","[object Object]","pawn","Everyday","0","84","20","112","15%"
"rule-violation","105","653238","0.0-3.0-1.0-0.1-0.52","z6g2p3jhvtsdnzn","main","2","","","","","","","","64.91000001551583","767.5649999873713","832.4750000028871","651903.3599999966","657.6378124995244","true","richtig!","0","false","false","false","0","2","2","920","789","1641","92","1824","890","880.3555555555556","763.4222222222222","1624","63.28888888888889","136.7111111111111","63.28888888888889","63.28888888888889","63.28888888888889","168.3555555555556","258.1","664.5333333333333","373.8","[object Object]","pawn","Everyday","0","85","21","112","15%"
"rule-violation","106","657192","0.0-3.0-1.0-0.1-0.53","z6g2p3jhvtsdnzn","main","2","","","","","","","","98.62999999313615","767.4100000003818","866.039999993518","655823.5950000235","657.6378124995244","true","richtig!","0","false","false","true","0","2","2","911","790","1631","108","1824","890","880.3555555555556","763.4222222222222","1624","63.28888888888889","136.7111111111111","63.28888888888889","63.28888888888889","63.28888888888889","991.1111111111111","258.1","664.5333333333333","373.8","[object Object]","pawn","Corona","0","86","22","112","15%"
"rule-violation","107","660245","0.0-3.0-1.0-0.1-0.54","z6g2p3jhvtsdnzn","main","2","","","","","","","","214.37499998137355","266.96500001708046","481.339999998454","659261.3500000152","657.6378124995244","true","richtig!","1","false","false","false","1","2","2","895","802","195","97","1824","890","880.3555555555556","763.4222222222222","1624","63.28888888888889","136.7111111111111","63.28888888888889","63.28888888888889","63.28888888888889","991.1111111111111","258.1","664.5333333333333","373.8","[object Object]","pawn","Corona","0","87","23","113","15%"
"rule-violation","108","663783","0.0-3.0-1.0-0.1-0.55","z6g2p3jhvtsdnzn","main","2","","","","","","","","90.51000000908971","883.6299999966286","974.1400000057183","662305.4650000122","657.6378124995244","true","richtig!","0","false","false","true","0","2","2","916","782","160","126","1824","890","880.3555555555556","763.4222222222222","1624","63.28888888888889","136.7111111111111","63.28888888888889","63.28888888888889","63.28888888888889","168.3555555555556","258.1","664.5333333333333","373.8","[object Object]","pawn","Everyday","0","88","24","113","15%"
"rule-violation","109","667320","0.0-3.0-1.0-0.1-0.56","z6g2p3jhvtsdnzn","main","2","","","","","","","","56.39000001247041","701.0099999897648","757.4000000022352","666059.3850000005","657.6378124995244","true","richtig!","0","true","false","false","0","2","2","906","782","1626","76","1824","890","880.3555555555556","763.4222222222222","1624","63.28888888888889","136.7111111111111","63.28888888888889","63.28888888888889","63.28888888888889","168.3555555555556","258.1","664.5333333333333","373.8","[object Object]","king","Everyday","0","89","25","113","15%"
"rule-violation","110","670856","0.0-3.0-1.0-0.1-0.57","z6g2p3jhvtsdnzn","main","2","","","","","","","","81.10999999917112","750.8350000134669","831.945000012638","669521.3999999978","657.6378124995244","true","richtig!","0","false","false","true","0","2","2","909","774","198","97","1824","890","880.3555555555556","763.4222222222222","1624","63.28888888888889","136.7111111111111","63.28888888888889","63.28888888888889","63.28888888888889","168.3555555555556","258.1","664.5333333333333","373.8","[object Object]","king","Corona","0","90","26","113","15%"
"rule-violation","111","674410","0.0-3.0-1.0-0.1-0.58","z6g2p3jhvtsdnzn","main","2","","","","","","","","59.6300000033807","834.1200000140816","893.7500000174623","673013.0650000065","657.6378124995244","true","richtig!","0","false","false","true","0","2","2","908","790","1632","76","1824","890","880.3555555555556","763.4222222222222","1624","63.28888888888889","136.7111111111111","63.28888888888889","63.28888888888889","63.28888888888889","991.1111111111111","258.1","664.5333333333333","373.8","[object Object]","king","Everyday","0","91","27","113","15%"
"rule-violation","112","677980","0.0-3.0-1.0-0.1-0.59","z6g2p3jhvtsdnzn","main","2","","","","","","","","79.99500000732951","684.4449999916833","764.4399999990128","676713.0800000159","657.6378124995244","true","richtig!","0","false","false","true","0","2","2","924","792","1631","105","1824","890","880.3555555555556","763.4222222222222","1624","63.28888888888889","136.7111111111111","63.28888888888889","63.28888888888889","63.28888888888889","991.1111111111111","258.1","664.5333333333333","373.8","[object Object]","pawn","Everyday","0","92","28","113","15%"
"rule-violation","113","681033","0.0-3.0-1.0-0.1-0.60","z6g2p3jhvtsdnzn","main","2","","","","","","","","104.83500000555068","450.3649999969639","555.2000000025146","679975.1899999974","657.6378124995244","true","richtig!","10","false","false","false","10","2","2","921","787","189","100","1824","890","880.3555555555556","763.4222222222222","1624","63.28888888888889","136.7111111111111","63.28888888888889","63.28888888888889","63.28888888888889","991.1111111111111","258.1","664.5333333333333","373.8","[object Object]","pawn","Corona","0","93","29","123","15%"
"rule-violation","114","685137","0.0-3.0-1.0-0.1-0.61","z6g2p3jhvtsdnzn","main","2","","","","","","","","94.95999998762272","884.1250000114087","979.0849999990314","683655.0900000148","657.6378124995244","true","richtig!","0","false","false","true","0","2","2","900","773","137","82","1824","890","880.3555555555556","763.4222222222222","1624","63.28888888888889","136.7111111111111","63.28888888888889","63.28888888888889","63.28888888888889","168.3555555555556","258.1","664.5333333333333","373.8","[object Object]","king","Everyday","0","94","30","123","15%"
"rule-violation","115","688308","0.0-3.0-1.0-0.1-0.62","z6g2p3jhvtsdnzn","main","2","","","","","","","","81.87500000349246","517.0799999905284","598.9549999940209","687205.0650000165","657.6378124995244","true","richtig!","10","false","false","false","10","2","2","924","789","1625","89","1824","890","880.3555555555556","763.4222222222222","1624","63.28888888888889","136.7111111111111","63.28888888888889","63.28888888888889","63.28888888888889","168.3555555555556","258.1","664.5333333333333","373.8","[object Object]","pawn","Corona","0","95","31","133","15%"
"rule-violation","116","692511","0.0-3.0-1.0-0.1-0.63","z6g2p3jhvtsdnzn","main","2","","","","","","","","57.95000001671724","950.9549999784213","1008.9049999951385","690999.3850000028","657.6378124995244","true","richtig!","0","false","false","true","0","2","2","909","798","1681","87","1824","890","880.3555555555556","763.4222222222222","1624","63.28888888888889","136.7111111111111","63.28888888888889","63.28888888888889","63.28888888888889","991.1111111111111","258.1","664.5333333333333","373.8","[object Object]","pawn","Corona","0","96","32","133","15%"
"html-keyboard-response","117","719094","0.0-3.0-1.0-1.1","z6g2p3jhvtsdnzn","break","3","26581.34499998414","<b>PAUSE</b><br><br><b>Block 2/2 geschafft! </b><br><br>Sie haben bisher insgesamt <b>133 Punkte </b>erzielt. Sie können jetzt eine Pause einlegen.<br><br>WEITER mit ENTER","13","","","","","","","","","","","","","","","","","","","","","","","","","","","","","","","","","","","","","","","","","","","",""
"html-keyboard-response","118","726165","0.0-4.0-0.0","z6g2p3jhvtsdnzn","instruction","3","7070.249999989755","<b>Vielen Dank!</b> Sie haben insgesamt 133 Punkte erreicht.<br><br>Bitte beantworten Sie nun noch kurz einige Fragen. <br><br>Am Ende des Experiments haben Sie dann die Möglichkeit, Ihre E-Mailadresse anzugeben, so dass wir Sie kontaktieren und <br>Ihnen den 30€-Gutschein (Amazon) schicken können, falls Sie die meisten Punkte erreicht haben. <br><br>Bitte antworten Sie <b>wahrheitsgemäß und spontan</b>. <br><br>Alle Antworten werden <b>anonym</b> gespeichert. Ihre E-Mailadresse, die zur Vergabe des Gutscheins abgefragt wird, wird separat <br>von Ihren Antworten in der Studie gespeichert. Ein Rückschluss auf Ihre Person ist nicht möglich. <br><br>Drücken Sie ENTER um fortzufahren.","13","","","","","","","","","","","","","","","","","","","","","","","","","","","","","","","","","","","","","","","","","","","",""
"survey-text","119","735763","0.0-4.0-1.0","z6g2p3jhvtsdnzn","instruction","3","9591.994999995222","","","{""Strategy"":""testetsttaetsttes""}","","","","","","","","","","","","","","","","","","","","","","","","","","","","","","","","","","","","","","","","","","",""
"survey-likert","120","765153","0.0-4.0-2.0","z6g2p3jhvtsdnzn","survey","3","29386.84000002104","","","{""CoronaRuleConformity_1"":6,""CoronaRuleConformity_2"":6,""CoronaRuleConformity_3"":6,""CoronaRuleConformity_4"":0,""CoronaRuleConformity_5"":0,""CoronaImpact_1"":0,""CoronaImpact_2"":2,""CoronaImpact_3"":2,""CoronaImpact_4"":2,""CoronaImpact_5"":2}","[0,1,2,3,4,5,6,7,8,9]","","","","","","","","","","","","","","","","","","","","","","","","","","","","","","","","","","","","","","","","","",""
"survey-likert","121","776612","0.0-4.0-3.0","z6g2p3jhvtsdnzn","survey","3","11457.155000010971","","","{""BIDR_RuleConformity_1"":6,""BIDR_RuleConformity_2"":5,""BIDR_RuleConformity_3"":4,""BIDR_RuleConformity_4"":3,""BIDR_RuleConformity_5"":2}","[0,1,2,3,4]","","","","","","","","","","","","","","","","","","","","","","","","","","","","","","","","","","","","","","","","","",""
"html-button-response","122","780809","0.0-4.0-4.0","z6g2p3jhvtsdnzn","instruction","3","4196.1450000235345","<div align=left><b> Vielen Dank für Ihre Teilnahme an unserer Studie!  </b><br><br>Diese Studie wurde im Rahmen eines Seminars von den Studierenden des Masterstudiengangs „Psychologie: Kognitionspsychologie, <br>Lernen und Arbeiten“ entwickelt, um zu untersuchen, in wie weit die aktuellen Corona-Regeln bereits von Menschen verinnerlicht <br>wurden. <br><br>Es gibt bereits einige Untersuchungen, die sich mit Regelbruch-Verhalten im Bezug auf Alltagsregeln, mit denen wir lebenslange <br>Erfahrung haben, beschäftigt haben. Dabei zeigte sich typischerweise, dass Personen unter anderem langsamer reagieren, wenn sie <br>eine Regel brechen als wenn sie sich regelkonform verhalten. Außerdem tendieren Menschen dazu sich erst in Richtung des regelkonformen <br>Verhaltens zu bewegen und dann auf den Regelbruch auszuweichen, was sich beispielsweise in der Bewegungsverläufen von Mausbewegungen <br>zeigt.<br><br>Hier wollen wir regelkonformes und regelbrechendes Verhalten in Bezug auf Alltagsregeln, mit denen wir lebenslange Erfahrung haben, <br>und Corona-Regeln vergleichen. Wir möchten damit herausfinden, wie stark Menschen bereits (relativ automatisch) dazu tendieren, die <br>Corona-Regeln einzuhalten. Darüber hinaus haben wir Ihnen einige Fragen bzgl. Ihrer Einstellungen zu den Corona-Regeln gestellt, um <br>zu ermitteln, ob Ihre Einstellungen bzgl. der Corona-Regeln beeinflussen, in wie weit sie bereits dazu tendieren diese zu befolgen. <br><br>Bitte klicken Sie auf 'Weiter zur E-Maileingabe', um zur Eingabe Ihrer E-mailadresse und zur Verbuchung der Versuchspersonenstunden <br>für Psychologiestudierende weitergeleitet zu werden. <br><b>Wichtig:</b> Auch wenn Sie nicht an der Verlosung teilnehmen wollen, schließen Sie das Browserfenster nicht an diesem Punkt! <br>Klicken Sie dennoch auf 'Weiter zur E-Maileingabe', um die Studie abzuschließen. Sie haben danach die Möglichkeit, das Browserfenster <br>zu schließen. <br><br>","","","","0","","","","","","","","","","","","","","","","","","","","","","","","","","","","","","","","","","","","","","","","",""
