"trial_type","trial_index","time_elapsed","internal_node_id","subject","exp_part","prolific_PID","study_ID","session_ID","use","rt","stimulus","key_press","button_pressed","responses","question_order","trial_part","correct","resp_map","correct_resp","probe_condition","category","image","forget_condition","list","trial_num","block_num","block","response","test_part","n_span","sequence","num_spaces"
"pavlovia","0","16","0.0-0.0","fzry6y53qndppb1","","5e74f8c002c79b0464a51925","5f60e3c0a3b16e07647b2ff9","5f60f1e5fa702c01b920cede","false","","","","","","","","","","","","","","","","","","","","","","",""
"html-keyboard-response","1","1351165","0.0-1.0-0.0-0.0","fzry6y53qndppb1","welcome","5e74f8c002c79b0464a51925","5f60e3c0a3b16e07647b2ff9","5f60f1e5fa702c01b920cede","false","1351108.7400000542","<div align=left>Dear participant, <br> thank you for participating in an online study of the Cognition, Action, and Sustainability Unit of the University of Freiburg! <br> <br>The aim of this study is to examine our ability to remember previously learned information. <br>Our goal is to find out, whether our memory improves, when we only remember information that is relevant to us. <br>The experiment will take about 35 minutes to complete. <br> <br>Please, note that you can only participate in this study if you are using a device with a keyboard (PC, Laptop etc.) <br>and not if you are using a mobile device such as a tablet or smartphone.<br> <br>Press 'SPACE' to proceed to the experiment. </div>","32","","","","","","","","","","","","","","","","","","","",""
"html-keyboard-response","2","1364324","0.0-1.0-0.0-1.0","fzry6y53qndppb1","welcome","5e74f8c002c79b0464a51925","5f60e3c0a3b16e07647b2ff9","5f60f1e5fa702c01b920cede","false","13155.365000013262","<div align=left><strong> Time Course of this experiment: </strong> <br><br> <strong> 1.</strong>  First, please fill in some information regarding your demographic data. <br><br> <strong> 2.</strong>  Next, your task will be to classify everyday objects. <br>In addition, you will be asked to remember certain objects and recall them later. <br>Working on these tasks requires your undivided attention and concentration.<br>It is therefore essential that you eliminate any sources of distraction in your  <br>environment and ensure that you will not be disturbed. <br><br><strong> 3.</strong>  At the end of the experiment, you will be asked to answer a few additional questions. <br> <br><strong> Important:</strong> After finishing the experiment, only close the browser window <br> by clicking on the 'end the experiment'-button when you are asked to do so. <br>Closing the browser window prematurely will make the allocation of your participation credit impossible. <br><br> Press 'SPACE' to start the experiment. </div>","32","","","","","","","","","","","","","","","","","","","",""
"html-button-response","3","1373738","0.0-1.0-0.0-2.0","fzry6y53qndppb1","welcome","5e74f8c002c79b0464a51925","5f60e3c0a3b16e07647b2ff9","5f60f1e5fa702c01b920cede","true","9408.984999870881","<div align=left><strong> Informed consent </strong>  <br>The aim of our research is to better understand human behavior and mental processes. <br>In the following study your behavior (e.g. choices, reaction times) will be studied. <br> <br><strong> Voluntariness and Anonymity </strong> <br>Your participation in this study is  <strong> voluntary</strong>.<br>You may withdraw your consent to participate at any time without providing a reason for doing so and without fear of prejudice. <br><br>As no personal data will be collected, <strong>your data and your person cannot be connected after data collection</strong> – the data-set is anonymous. <br>Respectively, deletion of your data will not be possible after data collection has been completed, as we cannot retrace your data-set.<br>The results and anonymized data collected in this study will be published as a scientific publication. <br>This will happen in an <strong>anonymized format</strong>, so that no data can be traced back to a specific person. <br> <br>The anonymized data of this study will be made available to other researchers and/or in a data archive on the Internet as a means of transparency and to enable subsequent re-use. By doing so, this study follows the recommendations of the Deutsche Forschungsgemeinschaft (DFG, German Research Foundation) and Deutsche Gesellschaft für Psychologie (DGPS, German Psychological Society) regarding quality assurance in research.<br>If you have any questions now or after the experiment, please contact our team (experiments@cs.uni-freiburg.de).<br><br><br>I hereby declare, that I understand the above described conditions of participation and I agree to participate under these conditions. <br><br> </div>","","0","","","","","","","","","","","","","","","","","","",""
"html-keyboard-response","4","1406820","0.0-1.0-0.0-3.0","fzry6y53qndppb1","welcome","5e74f8c002c79b0464a51925","5f60e3c0a3b16e07647b2ff9","5f60f1e5fa702c01b920cede","false","33072.229999816045","<div align=left><strong> General information concerning the experiment </strong>  <br> <br>Please follow the instructions:<ol> <li><strong> Do not leave this tab (your browser window) during the experiment and do not reload this tab! </strong>  <br>If you do switch tabs/windows during the experiment (to check your mail or visit another website, for example), <br>the experiment will end automatically and you will <strong>not receive credit</strong> for your participation. <br>Repeated participation or resumption of the experiment is impossible.</li> <br><li>Please close all other programs for the duration of your participation. </li> <br><li>Please mute or turn off your phone and put it out of your reach. </li> <br><li>Please also take off any disturbing accessories (such as wristwatches, bracelets, etc.). </li> <br><li>If you have music playing in the background, please turn it off now. </li> <br></ol>Thank you! <br>Press 'SPACE' to continue. </div>","32","","","","","","","","","","","","","","","","","","","",""
"survey-text","5","1410607","0.0-1.0-1.0-0.0","fzry6y53qndppb1","demographics","5e74f8c002c79b0464a51925","5f60e3c0a3b16e07647b2ff9","5f60f1e5fa702c01b920cede","true","3765.510000055656","","","","{""age"":""32""}","","","","","","","","","","","","","","","","","",""
"survey-multi-choice","6","1422474","0.0-1.0-1.0-1.0","fzry6y53qndppb1","demographics","5e74f8c002c79b0464a51925","5f60e3c0a3b16e07647b2ff9","5f60f1e5fa702c01b920cede","true","11859.845000086352","","","","{""gender"":""male"",""school"":""others"",""education"":""Doctorate degree""}","[0,1,2]","","","","","","","","","","","","","","","","",""
"html-keyboard-response","7","1442911","0.0-1.0-2.0","fzry6y53qndppb1","instructions","5e74f8c002c79b0464a51925","5f60e3c0a3b16e07647b2ff9","5f60f1e5fa702c01b920cede","false","20420.77500000596","<div align=left> The experiment is now about to start: <br> <br>In the following part, you will be presented pictures of everyday objects. <br>Your first task is to <strong>classify these objects. </strong> <br> <br> You will classify them either as mechanical or non-mechanical objects. <br> <br>Objects that include any kind of technical mechanism (for example, wheels, switches, levers, <br> electronic components) fall under the category of <strong>mechanical</strong> objects. <br>Only objects without any kind of technical mechanism should be classified as <strong>non-mechanical</strong>. <br><br>Press 'SPACE' to continue. </div>","32","","","","","","","","","","","","","","","","","","","",""
"html-keyboard-response","8","1482693","0.0-2.0-0.0","fzry6y53qndppb1","instructions","5e74f8c002c79b0464a51925","5f60e3c0a3b16e07647b2ff9","5f60f1e5fa702c01b920cede","false","39778.3950001467","<div align=justify>You will classify the objects using the <strong>'S'</strong> and the <strong>'L'</strong> keys on your keyboard.<br>For doing so, please place your <strong>left index finger</strong> on the <strong>'S'</strong> key and place your <strong>right index finger</strong> on the <strong>'L'</strong> key. <br><br> Each trial starts with an instruction, indicating which key ('S'/'L') you need to press to classify <br>the object as mechanical (letter M) or non-mechanical (letter N).<br>The instruction <strong>M + N</strong> indicates that, in the current trial, by pressing the left key ('S') you classify the displayed object as mechanical (M) <br> and by pressing the right key ('L') you classify the object as non-mechanical (N). <br>The instruction <strong>N + M</strong> on the other hand indicates that by pressing the left key ('S') you classify the displayed object as non-mechanical (N) <br> and by pressing the right key ('L') you classify the object as mechanical (M). <br><br>Please press the key corresponding to the correct classification as fast as possible as soon as the object is displayed and try to avoid making mistakes.<br>If you do not respond within a 2 second window, a corresponding feedback will be displayed and the next trial will start.<br> The experiment is divided into multiple blocks to give you the opportunity to take a break after each block. <br>First, you can now practice this task. <br><br>Please place your <strong>LEFT INDEX FINGER</strong> on the 'S' key and your <strong>RIGHT INDEX FINGER</strong> on the 'L' key now. <br><br>Press SPACE to continue.</div>","32","","","","","","","","","","","","","","","","","","","",""
"html-keyboard-response","9","1491691","0.0-2.0-1.0","fzry6y53qndppb1","instructions","5e74f8c002c79b0464a51925","5f60e3c0a3b16e07647b2ff9","5f60f1e5fa702c01b920cede","false","8994.565000059083","<div align=left> You will now have time to practice this task.<br><br>Remember: <br> <br><li>Please place your index fingers on the <strong>'S'</strong> and <strong>'L'</strong> keys <br>to respond as fast and accurately as possible.</li><li>Every picture can be classified as either mechanical or non-mechanical.</li><li>If you do not respond in time or commit an error, you will receive a corresponding feedback. </li><li> Please try to respond as <strong> fast </strong> and as <strong> accurately as possible </strong> .<br><li>To ensure optimal results, please minimize distractions and stay focused. </li><br><br>Press SPACE to continue.</div>","32","","","","","","","","","","","","","","","","","","","",""
"html-keyboard-response","10","1492399","0.0-2.0-2.0-0.0","fzry6y53qndppb1","practice_no_cue","5e74f8c002c79b0464a51925","5f60e3c0a3b16e07647b2ff9","5f60f1e5fa702c01b920cede","false","null","<span style=""color: black; font-size: 48px"">N + M</span>","null","","","","resp_prompt","","","","","","","","","","","","","","","",""
"categorize-image","11","1493969","0.0-2.0-2.0-1.0","fzry6y53qndppb1","practice_no_cue","5e74f8c002c79b0464a51925","5f60e3c0a3b16e07647b2ff9","5f60f1e5fa702c01b920cede","true","1064.1550000291318","./Stimuli/ImagesPractice/LN2.jpg","76","","","","test","false","N + M","83","","LN","LN2.jpg","remember","old","1","1","start","right","","","",""
"html-keyboard-response","12","1494673","0.0-2.0-2.0-0.1","fzry6y53qndppb1","practice_no_cue","5e74f8c002c79b0464a51925","5f60e3c0a3b16e07647b2ff9","5f60f1e5fa702c01b920cede","false","null","<span style=""color: black; font-size: 48px"">M + N</span>","null","","","","resp_prompt","","","","","","","","","","","","","","","",""
"categorize-image","13","1496598","0.0-2.0-2.0-1.1","fzry6y53qndppb1","practice_no_cue","5e74f8c002c79b0464a51925","5f60e3c0a3b16e07647b2ff9","5f60f1e5fa702c01b920cede","true","1419.90500013344","./Stimuli/ImagesPractice/SM97.jpg","83","","","","test","true","M + N","83","","SM","SM97.jpg","remember","old","2","1","start","left","","","",""
"html-keyboard-response","14","1497301","0.0-2.0-2.0-0.2","fzry6y53qndppb1","practice_no_cue","5e74f8c002c79b0464a51925","5f60e3c0a3b16e07647b2ff9","5f60f1e5fa702c01b920cede","false","null","<span style=""color: black; font-size: 48px"">N + M</span>","null","","","","resp_prompt","","","","","","","","","","","","","","","",""
"categorize-image","15","1498483","0.0-2.0-2.0-1.2","fzry6y53qndppb1","practice_no_cue","5e74f8c002c79b0464a51925","5f60e3c0a3b16e07647b2ff9","5f60f1e5fa702c01b920cede","true","676.7250001430511","./Stimuli/ImagesPractice/LM55.jpg","76","","","","test","true","N + M","76","","LM","LM55.jpg","remember","old","3","1","start","right","","","",""
"html-keyboard-response","16","1499186","0.0-2.0-2.0-0.3","fzry6y53qndppb1","practice_no_cue","5e74f8c002c79b0464a51925","5f60e3c0a3b16e07647b2ff9","5f60f1e5fa702c01b920cede","false","null","<span style=""color: black; font-size: 48px"">N + M</span>","null","","","","resp_prompt","","","","","","","","","","","","","","","",""
"categorize-image","17","1500274","0.0-2.0-2.0-1.3","fzry6y53qndppb1","practice_no_cue","5e74f8c002c79b0464a51925","5f60e3c0a3b16e07647b2ff9","5f60f1e5fa702c01b920cede","true","583.7749999482185","./Stimuli/ImagesPractice/LN109.jpg","83","","","","test","true","N + M","83","","LN","LN109.jpg","remember","old","4","1","start","left","","","",""
"html-keyboard-response","18","1500978","0.0-2.0-2.0-0.4","fzry6y53qndppb1","practice_no_cue","5e74f8c002c79b0464a51925","5f60e3c0a3b16e07647b2ff9","5f60f1e5fa702c01b920cede","false","null","<span style=""color: black; font-size: 48px"">N + M</span>","null","","","","resp_prompt","","","","","","","","","","","","","","","",""
"categorize-image","19","1502118","0.0-2.0-2.0-1.4","fzry6y53qndppb1","practice_no_cue","5e74f8c002c79b0464a51925","5f60e3c0a3b16e07647b2ff9","5f60f1e5fa702c01b920cede","true","636.2250000238419","./Stimuli/ImagesPractice/SN75.jpg","83","","","","test","true","N + M","83","","SN","SN75.jpg","forget","old","5","1","start","left","","","",""
"html-keyboard-response","20","1502821","0.0-2.0-2.0-0.5","fzry6y53qndppb1","practice_no_cue","5e74f8c002c79b0464a51925","5f60e3c0a3b16e07647b2ff9","5f60f1e5fa702c01b920cede","false","null","<span style=""color: black; font-size: 48px"">M + N</span>","null","","","","resp_prompt","","","","","","","","","","","","","","","",""
"categorize-image","21","1504086","0.0-2.0-2.0-1.5","fzry6y53qndppb1","practice_no_cue","5e74f8c002c79b0464a51925","5f60e3c0a3b16e07647b2ff9","5f60f1e5fa702c01b920cede","true","760.160000063479","./Stimuli/ImagesPractice/SM62.jpg","83","","","","test","true","M + N","83","","SM","SM62.jpg","forget","old","6","1","start","left","","","",""
"html-keyboard-response","22","1504791","0.0-2.0-2.0-0.6","fzry6y53qndppb1","practice_no_cue","5e74f8c002c79b0464a51925","5f60e3c0a3b16e07647b2ff9","5f60f1e5fa702c01b920cede","false","null","<span style=""color: black; font-size: 48px"">M + N</span>","null","","","","resp_prompt","","","","","","","","","","","","","","","",""
"categorize-image","23","1505861","0.0-2.0-2.0-1.6","fzry6y53qndppb1","practice_no_cue","5e74f8c002c79b0464a51925","5f60e3c0a3b16e07647b2ff9","5f60f1e5fa702c01b920cede","true","565.5499999411404","./Stimuli/ImagesPractice/LN4.jpg","76","","","","test","true","M + N","76","","LN","LN4.jpg","remember","old","7","1","start","right","","","",""
"html-keyboard-response","24","1506563","0.0-2.0-2.0-0.7","fzry6y53qndppb1","practice_no_cue","5e74f8c002c79b0464a51925","5f60e3c0a3b16e07647b2ff9","5f60f1e5fa702c01b920cede","false","null","<span style=""color: black; font-size: 48px"">M + N</span>","null","","","","resp_prompt","","","","","","","","","","","","","","","",""
"categorize-image","25","1507808","0.0-2.0-2.0-1.7","fzry6y53qndppb1","practice_no_cue","5e74f8c002c79b0464a51925","5f60e3c0a3b16e07647b2ff9","5f60f1e5fa702c01b920cede","true","739.9899999145418","./Stimuli/ImagesPractice/LM147.jpg","83","","","","test","true","M + N","83","","LM","LM147.jpg","remember","old","8","1","start","left","","","",""
"html-keyboard-response","26","1508511","0.0-2.0-2.0-0.8","fzry6y53qndppb1","practice_no_cue","5e74f8c002c79b0464a51925","5f60e3c0a3b16e07647b2ff9","5f60f1e5fa702c01b920cede","false","null","<span style=""color: black; font-size: 48px"">M + N</span>","null","","","","resp_prompt","","","","","","","","","","","","","","","",""
"categorize-image","27","1509551","0.0-2.0-2.0-1.8","fzry6y53qndppb1","practice_no_cue","5e74f8c002c79b0464a51925","5f60e3c0a3b16e07647b2ff9","5f60f1e5fa702c01b920cede","true","534.9300000816584","./Stimuli/ImagesPractice/SM98.jpg","83","","","","test","true","M + N","83","","SM","SM98.jpg","forget","old","9","1","start","left","","","",""
"html-keyboard-response","28","1510253","0.0-2.0-2.0-0.9","fzry6y53qndppb1","practice_no_cue","5e74f8c002c79b0464a51925","5f60e3c0a3b16e07647b2ff9","5f60f1e5fa702c01b920cede","false","null","<span style=""color: black; font-size: 48px"">M + N</span>","null","","","","resp_prompt","","","","","","","","","","","","","","","",""
"categorize-image","29","1511280","0.0-2.0-2.0-1.9","fzry6y53qndppb1","practice_no_cue","5e74f8c002c79b0464a51925","5f60e3c0a3b16e07647b2ff9","5f60f1e5fa702c01b920cede","true","522.9700000490993","./Stimuli/ImagesPractice/SN222.jpg","76","","","","test","true","M + N","76","","SN","SN222.jpg","forget","old","10","1","start","right","","","",""
"html-keyboard-response","30","1511984","0.0-2.0-2.0-0.10","fzry6y53qndppb1","practice_no_cue","5e74f8c002c79b0464a51925","5f60e3c0a3b16e07647b2ff9","5f60f1e5fa702c01b920cede","false","null","<span style=""color: black; font-size: 48px"">N + M</span>","null","","","","resp_prompt","","","","","","","","","","","","","","","",""
"categorize-image","31","1513049","0.0-2.0-2.0-1.10","fzry6y53qndppb1","practice_no_cue","5e74f8c002c79b0464a51925","5f60e3c0a3b16e07647b2ff9","5f60f1e5fa702c01b920cede","true","559.1700000222772","./Stimuli/ImagesPractice/SM35.jpg","76","","","","test","true","N + M","76","","SM","SM35.jpg","remember","old","11","1","start","right","","","",""
"html-keyboard-response","32","1513753","0.0-2.0-2.0-0.11","fzry6y53qndppb1","practice_no_cue","5e74f8c002c79b0464a51925","5f60e3c0a3b16e07647b2ff9","5f60f1e5fa702c01b920cede","false","null","<span style=""color: black; font-size: 48px"">N + M</span>","null","","","","resp_prompt","","","","","","","","","","","","","","","",""
"categorize-image","33","1514836","0.0-2.0-2.0-1.11","fzry6y53qndppb1","practice_no_cue","5e74f8c002c79b0464a51925","5f60e3c0a3b16e07647b2ff9","5f60f1e5fa702c01b920cede","true","578.2499997876585","./Stimuli/ImagesPractice/LM230.jpg","76","","","","test","true","N + M","76","","LM","LM230.jpg","forget","old","12","1","start","right","","","",""
"html-keyboard-response","34","1515538","0.0-2.0-2.0-0.12","fzry6y53qndppb1","practice_no_cue","5e74f8c002c79b0464a51925","5f60e3c0a3b16e07647b2ff9","5f60f1e5fa702c01b920cede","false","null","<span style=""color: black; font-size: 48px"">N + M</span>","null","","","","resp_prompt","","","","","","","","","","","","","","","",""
"categorize-image","35","1516568","0.0-2.0-2.0-1.12","fzry6y53qndppb1","practice_no_cue","5e74f8c002c79b0464a51925","5f60e3c0a3b16e07647b2ff9","5f60f1e5fa702c01b920cede","true","526.490000076592","./Stimuli/ImagesPractice/SN205.jpg","83","","","","test","true","N + M","83","","SN","SN205.jpg","forget","old","13","1","start","left","","","",""
"html-keyboard-response","36","1517271","0.0-2.0-2.0-0.13","fzry6y53qndppb1","practice_no_cue","5e74f8c002c79b0464a51925","5f60e3c0a3b16e07647b2ff9","5f60f1e5fa702c01b920cede","false","null","<span style=""color: black; font-size: 48px"">M + N</span>","null","","","","resp_prompt","","","","","","","","","","","","","","","",""
"categorize-image","37","1518383","0.0-2.0-2.0-1.13","fzry6y53qndppb1","practice_no_cue","5e74f8c002c79b0464a51925","5f60e3c0a3b16e07647b2ff9","5f60f1e5fa702c01b920cede","true","606.7550000734627","./Stimuli/ImagesPractice/SN76.jpg","76","","","","test","true","M + N","76","","SN","SN76.jpg","forget","old","14","1","start","right","","","",""
"html-keyboard-response","38","1519086","0.0-2.0-2.0-0.14","fzry6y53qndppb1","practice_no_cue","5e74f8c002c79b0464a51925","5f60e3c0a3b16e07647b2ff9","5f60f1e5fa702c01b920cede","false","null","<span style=""color: black; font-size: 48px"">M + N</span>","null","","","","resp_prompt","","","","","","","","","","","","","","","",""
"categorize-image","39","1520146","0.0-2.0-2.0-1.14","fzry6y53qndppb1","practice_no_cue","5e74f8c002c79b0464a51925","5f60e3c0a3b16e07647b2ff9","5f60f1e5fa702c01b920cede","true","555.7649999391288","./Stimuli/ImagesPractice/SM61.jpg","83","","","","test","true","M + N","83","","SM","SM61.jpg","remember","old","15","1","start","left","","","",""
"html-keyboard-response","40","1520851","0.0-2.0-2.0-0.15","fzry6y53qndppb1","practice_no_cue","5e74f8c002c79b0464a51925","5f60e3c0a3b16e07647b2ff9","5f60f1e5fa702c01b920cede","false","null","<span style=""color: black; font-size: 48px"">N + M</span>","null","","","","resp_prompt","","","","","","","","","","","","","","","",""
"categorize-image","41","1521933","0.0-2.0-2.0-1.15","fzry6y53qndppb1","practice_no_cue","5e74f8c002c79b0464a51925","5f60e3c0a3b16e07647b2ff9","5f60f1e5fa702c01b920cede","true","578.2000001054257","./Stimuli/ImagesPractice/LM143.jpg","76","","","","test","true","N + M","76","","LM","LM143.jpg","forget","old","16","1","start","right","","","",""
"html-keyboard-response","42","1525512","0.0-2.0-3.0","fzry6y53qndppb1","break","5e74f8c002c79b0464a51925","5f60e3c0a3b16e07647b2ff9","5f60f1e5fa702c01b920cede","false","3574.470000108704","<p style='font-size: 32px;'>Break</><br><br><br><br><br><p style='font-size: 24px;'>In the last block, you committed 1 errors and did not respond in time on 0 trials.
</p><p style='font-size: 24px;'>Try to respond as fast and accurately as possible in the next block as well! </p><p style='font-size: 24px;'>Press SPACE to continue.</p>","32","","","","","","","","","","","","","","","","","","","",""
"html-keyboard-response","43","1528306","0.0-2.0-4.0","fzry6y53qndppb1","instructions","5e74f8c002c79b0464a51925","5f60e3c0a3b16e07647b2ff9","5f60f1e5fa702c01b920cede","false","2791.6050001513213","<div align=left> Great!<br><br>Are you ready to continue?<br><br>If you want to reread the instructions and redo the practice trials, <br>please press „Z“. <br><br>Press SPACE to CONTINUE with the experiment when you are ready. </div>","32","","","","","","","","","","","","","","","","","","","",""
"html-keyboard-response","44","1558025","0.0-3.0-0.0","fzry6y53qndppb1","instructions","5e74f8c002c79b0464a51925","5f60e3c0a3b16e07647b2ff9","5f60f1e5fa702c01b920cede","false","29713.424999965355","<div align=left>Great!<br> <strong>Attention</strong>! You will now receive a second, additional task! <br><br>To this point it was you <strong>first task</strong> to correctly <strong>classify objects</strong>. <br><br>As mentioned in the beginning, we aim to examine how well humans can remember previously learned information.<br>We would like to find out whether our memory improves if we only remember information that is relevant to us. <br><br>Therefore, your <strong>second task</strong> will be to <strong>remember</strong> the pictures you are to categorize. <br> After the learning phase, there will be a memory test phase, in which you will be asked to indicate whether you have seen a picture before or not. <br>Some, but not all pictures shown in the learning phase will appear in the memory test phase.<br>After classifying a picture, you will be told whether you should remember it for the memory test phase or not. <br>Thus, some pictures can be forgotten, whereas others have to be remembered. <br><br>Note: From now on, feedback will only be displayed if you responded incorrectly or not in time.<br><br>Press SPACE to continue.</div>","32","","","","","","","","","","","","","","","","","","","",""
"html-keyboard-response","45","1572487","0.0-3.0-1.0","fzry6y53qndppb1","instructions","5e74f8c002c79b0464a51925","5f60e3c0a3b16e07647b2ff9","5f60f1e5fa702c01b920cede","false","14459.810000145808","<div align=left>In the following part, you will thus have to remember only some pictures. <br>Immediately after seeing and classifying the picture, a symbol will be displayed, indicating whether you should remember or forget the previous picture. <br><br>A <span style='color: dodgerblue; font-size: 28px'>O</span> indicates REMEMBER. That means, you have to remember this picture, because it will be tested later. <br><br>A <span style='color: darkorange; font-size:28px'>Ø</span> indicates FORGET. You do not have to remember this picture. <br><br> As you will have to remember a lot of pictures, it will be hard for you to remember all of them. <br>It will put you at an advantage if you instantly forget the pictures you are not asked to remember. <br> This will make it easier for you to remember the pictures that will be tested afterwards. <br><br>Press SPACE to continue.</div>","32","","","","","","","","","","","","","","","","","","","",""
"html-keyboard-response","46","1576537","0.0-3.0-2.0","fzry6y53qndppb1","instructions","5e74f8c002c79b0464a51925","5f60e3c0a3b16e07647b2ff9","5f60f1e5fa702c01b920cede","false","4047.4300000350922","<div align=left> Now you have the chance to practice both tasks together.<br><br>Remember: <br> <br><li>Please place your index fingers on the <strong>'S'</strong> and <strong>'L'</strong> keys <br>to respond as fast and accurately as possible.</li><li>Every picture can be classified as either mechanical or non-mechanical.</li><li>If you do not respond in time or commit an error, you will receive a corresponding feedback. <br>Please try to respond as <strong> fast </strong> and as <strong> accurately as possible </strong>.</li><li> Please remember only the to-be-remembered <span style='color: dodgerblue; font-size: 28px'>O</span> pictures. <br></li><li> Please minimize distractions and stay focused. </li><br><br>Press SPACE to START</div>","32","","","","","","","","","","","","","","","","","","","",""
"html-keyboard-response","47","1577241","0.0-3.0-3.0-0.0","fzry6y53qndppb1","practice_cue","5e74f8c002c79b0464a51925","5f60e3c0a3b16e07647b2ff9","5f60f1e5fa702c01b920cede","false","null","<span style=""color: black; font-size: 48px"">M + N</span>","null","","","","resp_prompt","","","","","","","","","","","","","","","",""
"categorize-image","48","1577745","0.0-3.0-3.0-1.0","fzry6y53qndppb1","practice_cue","5e74f8c002c79b0464a51925","5f60e3c0a3b16e07647b2ff9","5f60f1e5fa702c01b920cede","true","495.2950000297278","./Stimuli/ImagesPractice/SM98.jpg","83","","","","test","true","M + N","83","","SM","SM98.jpg","forget","old","17","2","practice_forget","left","","","",""
"html-keyboard-response","49","1579751","0.0-3.0-3.0-3.0","fzry6y53qndppb1","practice_cue","5e74f8c002c79b0464a51925","5f60e3c0a3b16e07647b2ff9","5f60f1e5fa702c01b920cede","false","null","<div style=""align-items: center; display: flex; color: darkorange; font-size: 90px""><b>ø</b></div>","null","","","","forget_cue","","","","","","","","","","","","","","","",""
"html-keyboard-response","50","1580454","0.0-3.0-3.0-0.1","fzry6y53qndppb1","practice_cue","5e74f8c002c79b0464a51925","5f60e3c0a3b16e07647b2ff9","5f60f1e5fa702c01b920cede","false","null","<span style=""color: black; font-size: 48px"">M + N</span>","null","","","","resp_prompt","","","","","","","","","","","","","","","",""
"categorize-image","51","1580968","0.0-3.0-3.0-1.1","fzry6y53qndppb1","practice_cue","5e74f8c002c79b0464a51925","5f60e3c0a3b16e07647b2ff9","5f60f1e5fa702c01b920cede","true","504.85999998636544","./Stimuli/ImagesPractice/SM61.jpg","83","","","","test","true","M + N","83","","SM","SM61.jpg","remember","old","18","2","practice_forget","left","","","",""
"html-keyboard-response","52","1582971","0.0-3.0-3.0-3.1","fzry6y53qndppb1","practice_cue","5e74f8c002c79b0464a51925","5f60e3c0a3b16e07647b2ff9","5f60f1e5fa702c01b920cede","false","null","<div style=""align-items: center; display: flex; color: dodgerblue; font-size: 90px""><b>o</b></div>","null","","","","forget_cue","","","","","","","","","","","","","","","",""
"html-keyboard-response","53","1583674","0.0-3.0-3.0-0.2","fzry6y53qndppb1","practice_cue","5e74f8c002c79b0464a51925","5f60e3c0a3b16e07647b2ff9","5f60f1e5fa702c01b920cede","false","null","<span style=""color: black; font-size: 48px"">N + M</span>","null","","","","resp_prompt","","","","","","","","","","","","","","","",""
"categorize-image","54","1584185","0.0-3.0-3.0-1.2","fzry6y53qndppb1","practice_cue","5e74f8c002c79b0464a51925","5f60e3c0a3b16e07647b2ff9","5f60f1e5fa702c01b920cede","true","503.1349998898804","./Stimuli/ImagesPractice/SN75.jpg","83","","","","test","true","N + M","83","","SN","SN75.jpg","forget","old","19","2","practice_forget","left","","","",""
"html-keyboard-response","55","1586189","0.0-3.0-3.0-3.2","fzry6y53qndppb1","practice_cue","5e74f8c002c79b0464a51925","5f60e3c0a3b16e07647b2ff9","5f60f1e5fa702c01b920cede","false","null","<div style=""align-items: center; display: flex; color: darkorange; font-size: 90px""><b>ø</b></div>","null","","","","forget_cue","","","","","","","","","","","","","","","",""
"html-keyboard-response","56","1586891","0.0-3.0-3.0-0.3","fzry6y53qndppb1","practice_cue","5e74f8c002c79b0464a51925","5f60e3c0a3b16e07647b2ff9","5f60f1e5fa702c01b920cede","false","null","<span style=""color: black; font-size: 48px"">M + N</span>","null","","","","resp_prompt","","","","","","","","","","","","","","","",""
"categorize-image","57","1587528","0.0-3.0-3.0-1.3","fzry6y53qndppb1","practice_cue","5e74f8c002c79b0464a51925","5f60e3c0a3b16e07647b2ff9","5f60f1e5fa702c01b920cede","true","628.3250001724809","./Stimuli/ImagesPractice/SN76.jpg","76","","","","test","true","M + N","76","","SN","SN76.jpg","forget","old","20","2","practice_forget","right","","","",""
"html-keyboard-response","58","1589533","0.0-3.0-3.0-3.3","fzry6y53qndppb1","practice_cue","5e74f8c002c79b0464a51925","5f60e3c0a3b16e07647b2ff9","5f60f1e5fa702c01b920cede","false","null","<div style=""align-items: center; display: flex; color: darkorange; font-size: 90px""><b>ø</b></div>","null","","","","forget_cue","","","","","","","","","","","","","","","",""
"html-keyboard-response","59","1590236","0.0-3.0-3.0-0.4","fzry6y53qndppb1","practice_cue","5e74f8c002c79b0464a51925","5f60e3c0a3b16e07647b2ff9","5f60f1e5fa702c01b920cede","false","null","<span style=""color: black; font-size: 48px"">N + M</span>","null","","","","resp_prompt","","","","","","","","","","","","","","","",""
"categorize-image","60","1590872","0.0-3.0-3.0-1.4","fzry6y53qndppb1","practice_cue","5e74f8c002c79b0464a51925","5f60e3c0a3b16e07647b2ff9","5f60f1e5fa702c01b920cede","true","628.2150000333786","./Stimuli/ImagesPractice/LM143.jpg","76","","","","test","true","N + M","76","","LM","LM143.jpg","forget","old","21","2","practice_forget","right","","","",""
"html-keyboard-response","61","1592876","0.0-3.0-3.0-3.4","fzry6y53qndppb1","practice_cue","5e74f8c002c79b0464a51925","5f60e3c0a3b16e07647b2ff9","5f60f1e5fa702c01b920cede","false","null","<div style=""align-items: center; display: flex; color: darkorange; font-size: 90px""><b>ø</b></div>","null","","","","forget_cue","","","","","","","","","","","","","","","",""
"html-keyboard-response","62","1593578","0.0-3.0-3.0-0.5","fzry6y53qndppb1","practice_cue","5e74f8c002c79b0464a51925","5f60e3c0a3b16e07647b2ff9","5f60f1e5fa702c01b920cede","false","null","<span style=""color: black; font-size: 48px"">N + M</span>","null","","","","resp_prompt","","","","","","","","","","","","","","","",""
"categorize-image","63","1594280","0.0-3.0-3.0-1.5","fzry6y53qndppb1","practice_cue","5e74f8c002c79b0464a51925","5f60e3c0a3b16e07647b2ff9","5f60f1e5fa702c01b920cede","true","692.9600001312792","./Stimuli/ImagesPractice/LM55.jpg","76","","","","test","true","N + M","76","","LM","LM55.jpg","remember","old","22","2","practice_forget","right","","","",""
"html-keyboard-response","64","1596290","0.0-3.0-3.0-3.5","fzry6y53qndppb1","practice_cue","5e74f8c002c79b0464a51925","5f60e3c0a3b16e07647b2ff9","5f60f1e5fa702c01b920cede","false","null","<div style=""align-items: center; display: flex; color: dodgerblue; font-size: 90px""><b>o</b></div>","null","","","","forget_cue","","","","","","","","","","","","","","","",""
"html-keyboard-response","65","1596993","0.0-3.0-3.0-0.6","fzry6y53qndppb1","practice_cue","5e74f8c002c79b0464a51925","5f60e3c0a3b16e07647b2ff9","5f60f1e5fa702c01b920cede","false","null","<span style=""color: black; font-size: 48px"">M + N</span>","null","","","","resp_prompt","","","","","","","","","","","","","","","",""
"categorize-image","66","1597586","0.0-3.0-3.0-1.6","fzry6y53qndppb1","practice_cue","5e74f8c002c79b0464a51925","5f60e3c0a3b16e07647b2ff9","5f60f1e5fa702c01b920cede","true","582.810000050813","./Stimuli/ImagesPractice/SM97.jpg","83","","","","test","true","M + N","83","","SM","SM97.jpg","remember","old","23","2","practice_forget","left","","","",""
"html-keyboard-response","67","1599591","0.0-3.0-3.0-3.6","fzry6y53qndppb1","practice_cue","5e74f8c002c79b0464a51925","5f60e3c0a3b16e07647b2ff9","5f60f1e5fa702c01b920cede","false","null","<div style=""align-items: center; display: flex; color: dodgerblue; font-size: 90px""><b>o</b></div>","null","","","","forget_cue","","","","","","","","","","","","","","","",""
"html-keyboard-response","68","1600293","0.0-3.0-3.0-0.7","fzry6y53qndppb1","practice_cue","5e74f8c002c79b0464a51925","5f60e3c0a3b16e07647b2ff9","5f60f1e5fa702c01b920cede","false","null","<span style=""color: black; font-size: 48px"">M + N</span>","null","","","","resp_prompt","","","","","","","","","","","","","","","",""
"categorize-image","69","1601040","0.0-3.0-3.0-1.7","fzry6y53qndppb1","practice_cue","5e74f8c002c79b0464a51925","5f60e3c0a3b16e07647b2ff9","5f60f1e5fa702c01b920cede","true","738.890000153333","./Stimuli/ImagesPractice/SM62.jpg","83","","","","test","true","M + N","83","","SM","SM62.jpg","forget","old","24","2","practice_forget","left","","","",""
"html-keyboard-response","70","1603043","0.0-3.0-3.0-3.7","fzry6y53qndppb1","practice_cue","5e74f8c002c79b0464a51925","5f60e3c0a3b16e07647b2ff9","5f60f1e5fa702c01b920cede","false","null","<div style=""align-items: center; display: flex; color: darkorange; font-size: 90px""><b>ø</b></div>","null","","","","forget_cue","","","","","","","","","","","","","","","",""
"html-keyboard-response","71","1603746","0.0-3.0-3.0-0.8","fzry6y53qndppb1","practice_cue","5e74f8c002c79b0464a51925","5f60e3c0a3b16e07647b2ff9","5f60f1e5fa702c01b920cede","false","null","<span style=""color: black; font-size: 48px"">N + M</span>","null","","","","resp_prompt","","","","","","","","","","","","","","","",""
"categorize-image","72","1604356","0.0-3.0-3.0-1.8","fzry6y53qndppb1","practice_cue","5e74f8c002c79b0464a51925","5f60e3c0a3b16e07647b2ff9","5f60f1e5fa702c01b920cede","true","601.4099998865277","./Stimuli/ImagesPractice/SM35.jpg","76","","","","test","true","N + M","76","","SM","SM35.jpg","remember","old","25","2","practice_forget","right","","","",""
"html-keyboard-response","73","1606361","0.0-3.0-3.0-3.8","fzry6y53qndppb1","practice_cue","5e74f8c002c79b0464a51925","5f60e3c0a3b16e07647b2ff9","5f60f1e5fa702c01b920cede","false","null","<div style=""align-items: center; display: flex; color: dodgerblue; font-size: 90px""><b>o</b></div>","null","","","","forget_cue","","","","","","","","","","","","","","","",""
"html-keyboard-response","74","1607063","0.0-3.0-3.0-0.9","fzry6y53qndppb1","practice_cue","5e74f8c002c79b0464a51925","5f60e3c0a3b16e07647b2ff9","5f60f1e5fa702c01b920cede","false","null","<span style=""color: black; font-size: 48px"">M + N</span>","null","","","","resp_prompt","","","","","","","","","","","","","","","",""
"categorize-image","75","1607866","0.0-3.0-3.0-1.9","fzry6y53qndppb1","practice_cue","5e74f8c002c79b0464a51925","5f60e3c0a3b16e07647b2ff9","5f60f1e5fa702c01b920cede","true","794.7350000031292","./Stimuli/ImagesPractice/SN222.jpg","76","","","","test","true","M + N","76","","SN","SN222.jpg","forget","old","26","2","practice_forget","right","","","",""
"html-keyboard-response","76","1609871","0.0-3.0-3.0-3.9","fzry6y53qndppb1","practice_cue","5e74f8c002c79b0464a51925","5f60e3c0a3b16e07647b2ff9","5f60f1e5fa702c01b920cede","false","null","<div style=""align-items: center; display: flex; color: darkorange; font-size: 90px""><b>ø</b></div>","null","","","","forget_cue","","","","","","","","","","","","","","","",""
"html-keyboard-response","77","1610573","0.0-3.0-3.0-0.10","fzry6y53qndppb1","practice_cue","5e74f8c002c79b0464a51925","5f60e3c0a3b16e07647b2ff9","5f60f1e5fa702c01b920cede","false","null","<span style=""color: black; font-size: 48px"">N + M</span>","null","","","","resp_prompt","","","","","","","","","","","","","","","",""
"categorize-image","78","1611088","0.0-3.0-3.0-1.10","fzry6y53qndppb1","practice_cue","5e74f8c002c79b0464a51925","5f60e3c0a3b16e07647b2ff9","5f60f1e5fa702c01b920cede","true","501.8849999178201","./Stimuli/ImagesPractice/LM230.jpg","76","","","","test","true","N + M","76","","LM","LM230.jpg","forget","old","27","2","practice_forget","right","","","",""
"html-keyboard-response","79","1613091","0.0-3.0-3.0-3.10","fzry6y53qndppb1","practice_cue","5e74f8c002c79b0464a51925","5f60e3c0a3b16e07647b2ff9","5f60f1e5fa702c01b920cede","false","null","<div style=""align-items: center; display: flex; color: darkorange; font-size: 90px""><b>ø</b></div>","null","","","","forget_cue","","","","","","","","","","","","","","","",""
"html-keyboard-response","80","1613793","0.0-3.0-3.0-0.11","fzry6y53qndppb1","practice_cue","5e74f8c002c79b0464a51925","5f60e3c0a3b16e07647b2ff9","5f60f1e5fa702c01b920cede","false","null","<span style=""color: black; font-size: 48px"">M + N</span>","null","","","","resp_prompt","","","","","","","","","","","","","","","",""
"categorize-image","81","1614371","0.0-3.0-3.0-1.11","fzry6y53qndppb1","practice_cue","5e74f8c002c79b0464a51925","5f60e3c0a3b16e07647b2ff9","5f60f1e5fa702c01b920cede","true","570.8649998996407","./Stimuli/ImagesPractice/LN4.jpg","76","","","","test","true","M + N","76","","LN","LN4.jpg","remember","old","28","2","practice_forget","right","","","",""
"html-keyboard-response","82","1616376","0.0-3.0-3.0-3.11","fzry6y53qndppb1","practice_cue","5e74f8c002c79b0464a51925","5f60e3c0a3b16e07647b2ff9","5f60f1e5fa702c01b920cede","false","null","<div style=""align-items: center; display: flex; color: dodgerblue; font-size: 90px""><b>o</b></div>","null","","","","forget_cue","","","","","","","","","","","","","","","",""
"html-keyboard-response","83","1617078","0.0-3.0-3.0-0.12","fzry6y53qndppb1","practice_cue","5e74f8c002c79b0464a51925","5f60e3c0a3b16e07647b2ff9","5f60f1e5fa702c01b920cede","false","null","<span style=""color: black; font-size: 48px"">N + M</span>","null","","","","resp_prompt","","","","","","","","","","","","","","","",""
"categorize-image","84","1617699","0.0-3.0-3.0-1.12","fzry6y53qndppb1","practice_cue","5e74f8c002c79b0464a51925","5f60e3c0a3b16e07647b2ff9","5f60f1e5fa702c01b920cede","true","612.5950000714511","./Stimuli/ImagesPractice/SN205.jpg","83","","","","test","true","N + M","83","","SN","SN205.jpg","forget","old","29","2","practice_forget","left","","","",""
"html-keyboard-response","85","1619706","0.0-3.0-3.0-3.12","fzry6y53qndppb1","practice_cue","5e74f8c002c79b0464a51925","5f60e3c0a3b16e07647b2ff9","5f60f1e5fa702c01b920cede","false","null","<div style=""align-items: center; display: flex; color: darkorange; font-size: 90px""><b>ø</b></div>","null","","","","forget_cue","","","","","","","","","","","","","","","",""
"html-keyboard-response","86","1620408","0.0-3.0-3.0-0.13","fzry6y53qndppb1","practice_cue","5e74f8c002c79b0464a51925","5f60e3c0a3b16e07647b2ff9","5f60f1e5fa702c01b920cede","false","null","<span style=""color: black; font-size: 48px"">N + M</span>","null","","","","resp_prompt","","","","","","","","","","","","","","","",""
"categorize-image","87","1621043","0.0-3.0-3.0-1.13","fzry6y53qndppb1","practice_cue","5e74f8c002c79b0464a51925","5f60e3c0a3b16e07647b2ff9","5f60f1e5fa702c01b920cede","true","627.3950000759214","./Stimuli/ImagesPractice/LN2.jpg","83","","","","test","true","N + M","83","","LN","LN2.jpg","remember","old","30","2","practice_forget","left","","","",""
"html-keyboard-response","88","1623048","0.0-3.0-3.0-3.13","fzry6y53qndppb1","practice_cue","5e74f8c002c79b0464a51925","5f60e3c0a3b16e07647b2ff9","5f60f1e5fa702c01b920cede","false","null","<div style=""align-items: center; display: flex; color: dodgerblue; font-size: 90px""><b>o</b></div>","null","","","","forget_cue","","","","","","","","","","","","","","","",""
"html-keyboard-response","89","1623751","0.0-3.0-3.0-0.14","fzry6y53qndppb1","practice_cue","5e74f8c002c79b0464a51925","5f60e3c0a3b16e07647b2ff9","5f60f1e5fa702c01b920cede","false","null","<span style=""color: black; font-size: 48px"">N + M</span>","null","","","","resp_prompt","","","","","","","","","","","","","","","",""
"categorize-image","90","1624459","0.0-3.0-3.0-1.14","fzry6y53qndppb1","practice_cue","5e74f8c002c79b0464a51925","5f60e3c0a3b16e07647b2ff9","5f60f1e5fa702c01b920cede","true","700.4249999299645","./Stimuli/ImagesPractice/LN109.jpg","83","","","","test","true","N + M","83","","LN","LN109.jpg","remember","old","31","2","practice_forget","left","","","",""
"html-keyboard-response","91","1626466","0.0-3.0-3.0-3.14","fzry6y53qndppb1","practice_cue","5e74f8c002c79b0464a51925","5f60e3c0a3b16e07647b2ff9","5f60f1e5fa702c01b920cede","false","null","<div style=""align-items: center; display: flex; color: dodgerblue; font-size: 90px""><b>o</b></div>","null","","","","forget_cue","","","","","","","","","","","","","","","",""
"html-keyboard-response","92","1627168","0.0-3.0-3.0-0.15","fzry6y53qndppb1","practice_cue","5e74f8c002c79b0464a51925","5f60e3c0a3b16e07647b2ff9","5f60f1e5fa702c01b920cede","false","null","<span style=""color: black; font-size: 48px"">M + N</span>","null","","","","resp_prompt","","","","","","","","","","","","","","","",""
"categorize-image","93","1627729","0.0-3.0-3.0-1.15","fzry6y53qndppb1","practice_cue","5e74f8c002c79b0464a51925","5f60e3c0a3b16e07647b2ff9","5f60f1e5fa702c01b920cede","true","550.370000069961","./Stimuli/ImagesPractice/LM147.jpg","83","","","","test","true","M + N","83","","LM","LM147.jpg","remember","old","32","2","practice_forget","left","","","",""
"html-keyboard-response","94","1629733","0.0-3.0-3.0-3.15","fzry6y53qndppb1","practice_cue","5e74f8c002c79b0464a51925","5f60e3c0a3b16e07647b2ff9","5f60f1e5fa702c01b920cede","false","null","<div style=""align-items: center; display: flex; color: dodgerblue; font-size: 90px""><b>o</b></div>","null","","","","forget_cue","","","","","","","","","","","","","","","",""
"html-keyboard-response","95","1631735","0.0-3.0-4.0","fzry6y53qndppb1","break","5e74f8c002c79b0464a51925","5f60e3c0a3b16e07647b2ff9","5f60f1e5fa702c01b920cede","false","1998.3449999708682","<p style='font-size: 32px;'>Break</><br><br><br><br><br><p style='font-size: 24px;'>In the last block, you committed 0 errors and did not respond in time on 0 trials.
</p><p style='font-size: 24px;'>Try to respond as fast and accurately as possible in the next block as well! </p><p style='font-size: 24px;'>Press SPACE to continue.</p>","32","","","","","","","","","","","","","","","","","","","",""
"html-keyboard-response","96","1639780","0.0-3.0-5.0","fzry6y53qndppb1","instructions","5e74f8c002c79b0464a51925","5f60e3c0a3b16e07647b2ff9","5f60f1e5fa702c01b920cede","false","8042.179999873042","<div align=left> Now, to practice, we kindly ask you to remember as many of the to-be-remembered pictures<br>of the previous learning phase as possible.<br><br>The pictures you were instructed to remember were the pictures followed by a <span style='color: dodgerblue; font-size: 28px'>O</span>.<br><br>In this memory test phase, you will also see some new pictures.<br>It is your task to remember whether you were presented with this specific picture in this study so far or not.<br>If you recognize an object (you have already seen it in this study), it is an OLD object. <br>If you do not recognize an object (you have NOT seen it in this study), it is a NEW object. <br><strong> Attention</strong>: As already mentioned, <span style='color: darkorange; font-size:28px'>Ø</span>-pictures will <strong>never</strong> appear in this memory test (neither as new objects). <br><br>Press SPACE to continue. </div>","32","","","","","","","","","","","","","","","","","","","",""
"html-keyboard-response","97","1659613","0.0-3.0-6.0","fzry6y53qndppb1","instructions","5e74f8c002c79b0464a51925","5f60e3c0a3b16e07647b2ff9","5f60f1e5fa702c01b920cede","false","19830.719999969006","<div align=left> M and N no longer will appear on the left/right of the fixation cross. <br>Instead there will be a note at the bottom of the left or right side  <br>indicating which key you should press for an old or new object:  <br> <br>Press the <strong>right</strong> key to classify an object as <strong>old</strong> and press the <strong>left</strong>, to classify an object as <strong>new</strong>.<br>Please classify the objects as new/old by again placing your index finger on the 'S' and 'L' keys <br>and press them accordingly.<br><br><strong>Old:</strong> This object has been presented before. <br><strong>New:</strong> This object has <strong>not</strong> been presented.<br><br>Now please put your right and left index fingers on the 'S' and 'L' keys of your keyboard. <br>Please respond as fast and as accurately as possible!<br><br>Press SPACE to continue. </div>","32","","","","","","","","","","","","","","","","","","","",""
"categorize-image","98","1661153","0.0-3.0-7.0-0.0","fzry6y53qndppb1","practice_recog","5e74f8c002c79b0464a51925","5f60e3c0a3b16e07647b2ff9","5f60f1e5fa702c01b920cede","true","1032.3250000365078","./Stimuli/ImagesPractice/SM97.jpg","76","","","","test","false","","83","","SM","SM97.jpg","","old","33","3","practice_recog","right","","","",""
"categorize-image","99","1662798","0.0-3.0-7.0-0.1","fzry6y53qndppb1","practice_recog","5e74f8c002c79b0464a51925","5f60e3c0a3b16e07647b2ff9","5f60f1e5fa702c01b920cede","true","1139.1799999400973","./Stimuli/ImagesPractice/LM147.jpg","83","","","","test","true","","83","","LM","LM147.jpg","","old","34","3","practice_recog","left","","","",""
"categorize-image","100","1664158","0.0-3.0-7.0-0.2","fzry6y53qndppb1","practice_recog","5e74f8c002c79b0464a51925","5f60e3c0a3b16e07647b2ff9","5f60f1e5fa702c01b920cede","true","852.8350000269711","./Stimuli/ImagesPractice/SN221.jpg","76","","","","test","true","","76","","SN","SN221.jpg","","new","35","3","practice_recog","right","","","",""
"categorize-image","101","1665705","0.0-3.0-7.0-0.3","fzry6y53qndppb1","practice_recog","5e74f8c002c79b0464a51925","5f60e3c0a3b16e07647b2ff9","5f60f1e5fa702c01b920cede","true","1042.1649999916553","./Stimuli/ImagesPractice/SM35.jpg","83","","","","test","true","","83","","SM","SM35.jpg","","old","36","3","practice_recog","left","","","",""
"categorize-image","102","1667017","0.0-3.0-7.0-0.4","fzry6y53qndppb1","practice_recog","5e74f8c002c79b0464a51925","5f60e3c0a3b16e07647b2ff9","5f60f1e5fa702c01b920cede","true","808.4850001614541","./Stimuli/ImagesPractice/LN17.jpg","76","","","","test","true","","76","","LN","LN17.jpg","","new","37","3","practice_recog","right","","","",""
"categorize-image","103","1668467","0.0-3.0-7.0-0.5","fzry6y53qndppb1","practice_recog","5e74f8c002c79b0464a51925","5f60e3c0a3b16e07647b2ff9","5f60f1e5fa702c01b920cede","true","946.995000122115","./Stimuli/ImagesPractice/SM61.jpg","83","","","","test","true","","83","","SM","SM61.jpg","","old","38","3","practice_recog","left","","","",""
"categorize-image","104","1669878","0.0-3.0-7.0-0.6","fzry6y53qndppb1","practice_recog","5e74f8c002c79b0464a51925","5f60e3c0a3b16e07647b2ff9","5f60f1e5fa702c01b920cede","true","907.9650000203401","./Stimuli/ImagesPractice/SN220.jpg","76","","","","test","true","","76","","SN","SN220.jpg","","new","39","3","practice_recog","right","","","",""
"categorize-image","105","1671217","0.0-3.0-7.0-0.7","fzry6y53qndppb1","practice_recog","5e74f8c002c79b0464a51925","5f60e3c0a3b16e07647b2ff9","5f60f1e5fa702c01b920cede","true","833.4999999497086","./Stimuli/ImagesPractice/LM224.jpg","76","","","","test","true","","76","","LM","LM224.jpg","","new","40","3","practice_recog","right","","","",""
"categorize-image","106","1672511","0.0-3.0-7.0-0.8","fzry6y53qndppb1","practice_recog","5e74f8c002c79b0464a51925","5f60e3c0a3b16e07647b2ff9","5f60f1e5fa702c01b920cede","true","786.8250000756234","./Stimuli/ImagesPractice/LN2.jpg","83","","","","test","true","","83","","LN","LN2.jpg","","old","41","3","practice_recog","left","","","",""
"categorize-image","107","1673763","0.0-3.0-7.0-0.9","fzry6y53qndppb1","practice_recog","5e74f8c002c79b0464a51925","5f60e3c0a3b16e07647b2ff9","5f60f1e5fa702c01b920cede","true","747.0199998933822","./Stimuli/ImagesPractice/LM55.jpg","83","","","","test","true","","83","","LM","LM55.jpg","","old","42","3","practice_recog","left","","","",""
"categorize-image","108","1675045","0.0-3.0-7.0-0.10","fzry6y53qndppb1","practice_recog","5e74f8c002c79b0464a51925","5f60e3c0a3b16e07647b2ff9","5f60f1e5fa702c01b920cede","true","776.4750001952052","./Stimuli/ImagesPractice/SM37.jpg","76","","","","test","true","","76","","SM","SM37.jpg","","new","43","3","practice_recog","right","","","",""
"categorize-image","109","1676460","0.0-3.0-7.0-0.11","fzry6y53qndppb1","practice_recog","5e74f8c002c79b0464a51925","5f60e3c0a3b16e07647b2ff9","5f60f1e5fa702c01b920cede","true","910.5599999893457","./Stimuli/ImagesPractice/LN109.jpg","83","","","","test","true","","83","","LN","LN109.jpg","","old","44","3","practice_recog","left","","","",""
"categorize-image","110","1677658","0.0-3.0-7.0-0.12","fzry6y53qndppb1","practice_recog","5e74f8c002c79b0464a51925","5f60e3c0a3b16e07647b2ff9","5f60f1e5fa702c01b920cede","true","692.890000063926","./Stimuli/ImagesPractice/LN72.jpg","76","","","","test","true","","76","","LN","LN72.jpg","","new","45","3","practice_recog","right","","","",""
"categorize-image","111","1678795","0.0-3.0-7.0-0.13","fzry6y53qndppb1","practice_recog","5e74f8c002c79b0464a51925","5f60e3c0a3b16e07647b2ff9","5f60f1e5fa702c01b920cede","true","630.7049999013543","./Stimuli/ImagesPractice/LN15.jpg","76","","","","test","true","","76","","LN","LN15.jpg","","new","46","3","practice_recog","right","","","",""
"categorize-image","112","1679909","0.0-3.0-7.0-0.14","fzry6y53qndppb1","practice_recog","5e74f8c002c79b0464a51925","5f60e3c0a3b16e07647b2ff9","5f60f1e5fa702c01b920cede","true","606.1050000134856","./Stimuli/ImagesPractice/LN4.jpg","83","","","","test","true","","83","","LN","LN4.jpg","","old","47","3","practice_recog","left","","","",""
"categorize-image","113","1681367","0.0-3.0-7.0-0.15","fzry6y53qndppb1","practice_recog","5e74f8c002c79b0464a51925","5f60e3c0a3b16e07647b2ff9","5f60f1e5fa702c01b920cede","true","951.9549999386072","./Stimuli/ImagesPractice/LM239.jpg","76","","","","test","true","","76","","LM","LM239.jpg","","new","48","3","practice_recog","right","","","",""
"html-keyboard-response","114","1684598","0.0-3.0-8.0","fzry6y53qndppb1","instructions","5e74f8c002c79b0464a51925","5f60e3c0a3b16e07647b2ff9","5f60f1e5fa702c01b920cede","false","3228.9050000254065","<div align=left> Great!<br><br>Are you ready to continue?<br>If you want to reread the instructions and redo the practice trials, please <br>press „Z“.<br><br>You can proceed when you are ready.<br><br>After the presentation of each object, you will receive an instruction whether to <br>remember or to forget the object.<br>We will test your memory of the following pictures only at the very end of <br>the experiment after all learning blocks are completed. <br><br>Press SPACE to CONTINUE when you are ready. </div>","32","","","","","","","","","","","","","","","","","","","",""
"html-keyboard-response","115","1686929","0.0-4.0-0.0","fzry6y53qndppb1","instructions","5e74f8c002c79b0464a51925","5f60e3c0a3b16e07647b2ff9","5f60f1e5fa702c01b920cede","false","2328.5099999047816","<div align=left> The actual experiment is about to start.<br>The practice trials are over!<br><br>Please always respond both fast and accurately!<br><br>Remember: <br> <br><li> Please place your index fingers on the <strong>'S'</strong> and <strong>'L'</strong> keys <br>to respond as fast and accurately as possible.</li><li> Every picture can be classified as either mechanical or non-mechanical.</li><li> If you do not respond in time or commit an error, you will receive a corresponding feedback.<br> Please try to respond as <strong> fast </strong> and as <strong> accurately as possible </strong>.</li><li> Remember the <span style='color: dodgerblue; font-size: 28px'>O</span> pictures. <br></li><li> Please minimize distractions and stay focused. </li><br><br>Press SPACE to START.</div>","32","","","","","","","","","","","","","","","","","","","",""
"html-keyboard-response","116","1687631","0.0-4.0-1.0-0.0","fzry6y53qndppb1","prime","5e74f8c002c79b0464a51925","5f60e3c0a3b16e07647b2ff9","5f60f1e5fa702c01b920cede","false","null","<span style=""color: black; font-size: 48px"">M + N</span>","null","","","","resp_prompt","","","","","","","","","","","","","","","",""
"categorize-image","117","1688207","0.0-4.0-1.0-1.0","fzry6y53qndppb1","prime","5e74f8c002c79b0464a51925","5f60e3c0a3b16e07647b2ff9","5f60f1e5fa702c01b920cede","true","568.2000000961125","./Stimuli/SelectedImages/SM/SM108.bmp","83","","","","test","true","M + N","83","repetition","SM","SM108.bmp","forget","","49","3","prime1","left","","","",""
"html-keyboard-response","118","1690211","0.0-4.0-1.0-3.0","fzry6y53qndppb1","prime","5e74f8c002c79b0464a51925","5f60e3c0a3b16e07647b2ff9","5f60f1e5fa702c01b920cede","false","null","<div style=""align-items: center; display: flex; color: darkorange; font-size: 90px""><b>ø</b></div>","null","","","","forget_cue","","","","","","","","","","","","","","","",""
"html-keyboard-response","119","1690914","0.0-4.0-1.0-0.1","fzry6y53qndppb1","prime","5e74f8c002c79b0464a51925","5f60e3c0a3b16e07647b2ff9","5f60f1e5fa702c01b920cede","false","null","<span style=""color: black; font-size: 48px"">M + N</span>","null","","","","resp_prompt","","","","","","","","","","","","","","","",""
"categorize-image","120","1691625","0.0-4.0-1.0-1.1","fzry6y53qndppb1","prime","5e74f8c002c79b0464a51925","5f60e3c0a3b16e07647b2ff9","5f60f1e5fa702c01b920cede","true","703.2849998213351","./Stimuli/SelectedImages/SM/SM106.bmp","83","","","","test","true","M + N","83","repetition","SM","SM106.bmp","remember","","50","3","prime1","left","","","",""
"html-keyboard-response","121","1693629","0.0-4.0-1.0-3.1","fzry6y53qndppb1","prime","5e74f8c002c79b0464a51925","5f60e3c0a3b16e07647b2ff9","5f60f1e5fa702c01b920cede","false","null","<div style=""align-items: center; display: flex; color: dodgerblue; font-size: 90px""><b>o</b></div>","null","","","","forget_cue","","","","","","","","","","","","","","","",""
"html-keyboard-response","122","1694332","0.0-4.0-1.0-0.2","fzry6y53qndppb1","prime","5e74f8c002c79b0464a51925","5f60e3c0a3b16e07647b2ff9","5f60f1e5fa702c01b920cede","false","null","<span style=""color: black; font-size: 48px"">M + N</span>","null","","","","resp_prompt","","","","","","","","","","","","","","","",""
"categorize-image","123","1694860","0.0-4.0-1.0-1.2","fzry6y53qndppb1","prime","5e74f8c002c79b0464a51925","5f60e3c0a3b16e07647b2ff9","5f60f1e5fa702c01b920cede","true","520.435000071302","./Stimuli/SelectedImages/LN/LN28.bmp","76","","","","test","true","M + N","76","repetition","LN","LN28.bmp","remember","","51","3","prime1","right","","","",""
"html-keyboard-response","124","1696864","0.0-4.0-1.0-3.2","fzry6y53qndppb1","prime","5e74f8c002c79b0464a51925","5f60e3c0a3b16e07647b2ff9","5f60f1e5fa702c01b920cede","false","null","<div style=""align-items: center; display: flex; color: dodgerblue; font-size: 90px""><b>o</b></div>","null","","","","forget_cue","","","","","","","","","","","","","","","",""
"html-keyboard-response","125","1697566","0.0-4.0-1.0-0.3","fzry6y53qndppb1","prime","5e74f8c002c79b0464a51925","5f60e3c0a3b16e07647b2ff9","5f60f1e5fa702c01b920cede","false","null","<span style=""color: black; font-size: 48px"">N + M</span>","null","","","","resp_prompt","","","","","","","","","","","","","","","",""
"categorize-image","126","1698249","0.0-4.0-1.0-1.3","fzry6y53qndppb1","prime","5e74f8c002c79b0464a51925","5f60e3c0a3b16e07647b2ff9","5f60f1e5fa702c01b920cede","true","676.4549999497831","./Stimuli/SelectedImages/SM/SM184.bmp","76","","","","test","true","N + M","76","repetition","SM","SM184.bmp","remember","","52","3","prime1","right","","","",""
"html-keyboard-response","127","1700251","0.0-4.0-1.0-3.3","fzry6y53qndppb1","prime","5e74f8c002c79b0464a51925","5f60e3c0a3b16e07647b2ff9","5f60f1e5fa702c01b920cede","false","null","<div style=""align-items: center; display: flex; color: dodgerblue; font-size: 90px""><b>o</b></div>","null","","","","forget_cue","","","","","","","","","","","","","","","",""
"html-keyboard-response","128","1700954","0.0-4.0-1.0-0.4","fzry6y53qndppb1","prime","5e74f8c002c79b0464a51925","5f60e3c0a3b16e07647b2ff9","5f60f1e5fa702c01b920cede","false","null","<span style=""color: black; font-size: 48px"">N + M</span>","null","","","","resp_prompt","","","","","","","","","","","","","","","",""
"categorize-image","129","1701520","0.0-4.0-1.0-1.4","fzry6y53qndppb1","prime","5e74f8c002c79b0464a51925","5f60e3c0a3b16e07647b2ff9","5f60f1e5fa702c01b920cede","true","557.3350000195205","./Stimuli/SelectedImages/SM/SM17.bmp","76","","","","test","true","N + M","76","repetition","SM","SM17.bmp","remember","","53","3","prime1","right","","","",""
"html-keyboard-response","130","1703524","0.0-4.0-1.0-3.4","fzry6y53qndppb1","prime","5e74f8c002c79b0464a51925","5f60e3c0a3b16e07647b2ff9","5f60f1e5fa702c01b920cede","false","null","<div style=""align-items: center; display: flex; color: dodgerblue; font-size: 90px""><b>o</b></div>","null","","","","forget_cue","","","","","","","","","","","","","","","",""
"html-keyboard-response","131","1704227","0.0-4.0-1.0-0.5","fzry6y53qndppb1","prime","5e74f8c002c79b0464a51925","5f60e3c0a3b16e07647b2ff9","5f60f1e5fa702c01b920cede","false","null","<span style=""color: black; font-size: 48px"">M + N</span>","null","","","","resp_prompt","","","","","","","","","","","","","","","",""
"categorize-image","132","1704804","0.0-4.0-1.0-1.5","fzry6y53qndppb1","prime","5e74f8c002c79b0464a51925","5f60e3c0a3b16e07647b2ff9","5f60f1e5fa702c01b920cede","true","567.3349997960031","./Stimuli/SelectedImages/LM/LM51.bmp","83","","","","test","true","M + N","83","repetition","LM","LM51.bmp","remember","","54","3","prime1","left","","","",""
"html-keyboard-response","133","1706806","0.0-4.0-1.0-3.5","fzry6y53qndppb1","prime","5e74f8c002c79b0464a51925","5f60e3c0a3b16e07647b2ff9","5f60f1e5fa702c01b920cede","false","null","<div style=""align-items: center; display: flex; color: dodgerblue; font-size: 90px""><b>o</b></div>","null","","","","forget_cue","","","","","","","","","","","","","","","",""
"html-keyboard-response","134","1707510","0.0-4.0-1.0-0.6","fzry6y53qndppb1","prime","5e74f8c002c79b0464a51925","5f60e3c0a3b16e07647b2ff9","5f60f1e5fa702c01b920cede","false","null","<span style=""color: black; font-size: 48px"">M + N</span>","null","","","","resp_prompt","","","","","","","","","","","","","","","",""
"categorize-image","135","1708075","0.0-4.0-1.0-1.6","fzry6y53qndppb1","prime","5e74f8c002c79b0464a51925","5f60e3c0a3b16e07647b2ff9","5f60f1e5fa702c01b920cede","true","557.5749999843538","./Stimuli/SelectedImages/LM/LM167.bmp","83","","","","test","true","M + N","83","repetition","LM","LM167.bmp","remember","","55","3","prime1","left","","","",""
"html-keyboard-response","136","1710079","0.0-4.0-1.0-3.6","fzry6y53qndppb1","prime","5e74f8c002c79b0464a51925","5f60e3c0a3b16e07647b2ff9","5f60f1e5fa702c01b920cede","false","null","<div style=""align-items: center; display: flex; color: dodgerblue; font-size: 90px""><b>o</b></div>","null","","","","forget_cue","","","","","","","","","","","","","","","",""
"html-keyboard-response","137","1710781","0.0-4.0-1.0-0.7","fzry6y53qndppb1","prime","5e74f8c002c79b0464a51925","5f60e3c0a3b16e07647b2ff9","5f60f1e5fa702c01b920cede","false","null","<span style=""color: black; font-size: 48px"">N + M</span>","null","","","","resp_prompt","","","","","","","","","","","","","","","",""
"categorize-image","138","1711312","0.0-4.0-1.0-1.7","fzry6y53qndppb1","prime","5e74f8c002c79b0464a51925","5f60e3c0a3b16e07647b2ff9","5f60f1e5fa702c01b920cede","true","523.6949999816716","./Stimuli/SelectedImages/SN/SN18.bmp","83","","","","test","true","N + M","83","repetition","SN","SN18.bmp","forget","","56","3","prime1","left","","","",""
"html-keyboard-response","139","1713316","0.0-4.0-1.0-3.7","fzry6y53qndppb1","prime","5e74f8c002c79b0464a51925","5f60e3c0a3b16e07647b2ff9","5f60f1e5fa702c01b920cede","false","null","<div style=""align-items: center; display: flex; color: darkorange; font-size: 90px""><b>ø</b></div>","null","","","","forget_cue","","","","","","","","","","","","","","","",""
"html-keyboard-response","140","1714019","0.0-4.0-1.0-0.8","fzry6y53qndppb1","prime","5e74f8c002c79b0464a51925","5f60e3c0a3b16e07647b2ff9","5f60f1e5fa702c01b920cede","false","null","<span style=""color: black; font-size: 48px"">N + M</span>","null","","","","resp_prompt","","","","","","","","","","","","","","","",""
"categorize-image","141","1714525","0.0-4.0-1.0-1.8","fzry6y53qndppb1","prime","5e74f8c002c79b0464a51925","5f60e3c0a3b16e07647b2ff9","5f60f1e5fa702c01b920cede","true","497.14000010862947","./Stimuli/SelectedImages/LN/LN111.bmp","83","","","","test","true","N + M","83","switch","LN","LN111.bmp","forget","","57","3","prime1","left","","","",""
"html-keyboard-response","142","1716529","0.0-4.0-1.0-3.8","fzry6y53qndppb1","prime","5e74f8c002c79b0464a51925","5f60e3c0a3b16e07647b2ff9","5f60f1e5fa702c01b920cede","false","null","<div style=""align-items: center; display: flex; color: darkorange; font-size: 90px""><b>ø</b></div>","null","","","","forget_cue","","","","","","","","","","","","","","","",""
"html-keyboard-response","143","1717231","0.0-4.0-1.0-0.9","fzry6y53qndppb1","prime","5e74f8c002c79b0464a51925","5f60e3c0a3b16e07647b2ff9","5f60f1e5fa702c01b920cede","false","null","<span style=""color: black; font-size: 48px"">M + N</span>","null","","","","resp_prompt","","","","","","","","","","","","","","","",""
"categorize-image","144","1717780","0.0-4.0-1.0-1.9","fzry6y53qndppb1","prime","5e74f8c002c79b0464a51925","5f60e3c0a3b16e07647b2ff9","5f60f1e5fa702c01b920cede","true","541.5400001220405","./Stimuli/SelectedImages/LN/LN128.bmp","76","","","","test","true","M + N","76","repetition","LN","LN128.bmp","forget","","58","3","prime1","right","","","",""
"html-keyboard-response","145","1719784","0.0-4.0-1.0-3.9","fzry6y53qndppb1","prime","5e74f8c002c79b0464a51925","5f60e3c0a3b16e07647b2ff9","5f60f1e5fa702c01b920cede","false","null","<div style=""align-items: center; display: flex; color: darkorange; font-size: 90px""><b>ø</b></div>","null","","","","forget_cue","","","","","","","","","","","","","","","",""
"html-keyboard-response","146","1720486","0.0-4.0-1.0-0.10","fzry6y53qndppb1","prime","5e74f8c002c79b0464a51925","5f60e3c0a3b16e07647b2ff9","5f60f1e5fa702c01b920cede","false","null","<span style=""color: black; font-size: 48px"">N + M</span>","null","","","","resp_prompt","","","","","","","","","","","","","","","",""
"categorize-image","147","1721021","0.0-4.0-1.0-1.10","fzry6y53qndppb1","prime","5e74f8c002c79b0464a51925","5f60e3c0a3b16e07647b2ff9","5f60f1e5fa702c01b920cede","true","527.1550000179559","./Stimuli/SelectedImages/LM/LM58.bmp","76","","","","test","true","N + M","76","repetition","LM","LM58.bmp","forget","","59","3","prime1","right","","","",""
"html-keyboard-response","148","1723026","0.0-4.0-1.0-3.10","fzry6y53qndppb1","prime","5e74f8c002c79b0464a51925","5f60e3c0a3b16e07647b2ff9","5f60f1e5fa702c01b920cede","false","null","<div style=""align-items: center; display: flex; color: darkorange; font-size: 90px""><b>ø</b></div>","null","","","","forget_cue","","","","","","","","","","","","","","","",""
"html-keyboard-response","149","1723728","0.0-4.0-1.0-0.11","fzry6y53qndppb1","prime","5e74f8c002c79b0464a51925","5f60e3c0a3b16e07647b2ff9","5f60f1e5fa702c01b920cede","false","null","<span style=""color: black; font-size: 48px"">M + N</span>","null","","","","resp_prompt","","","","","","","","","","","","","","","",""
"categorize-image","150","1724234","0.0-4.0-1.0-1.11","fzry6y53qndppb1","prime","5e74f8c002c79b0464a51925","5f60e3c0a3b16e07647b2ff9","5f60f1e5fa702c01b920cede","true","496.02500000037253","./Stimuli/SelectedImages/SM/SM73.bmp","83","","","","test","true","M + N","83","switch","SM","SM73.bmp","forget","","60","3","prime1","left","","","",""
"html-keyboard-response","151","1726239","0.0-4.0-1.0-3.11","fzry6y53qndppb1","prime","5e74f8c002c79b0464a51925","5f60e3c0a3b16e07647b2ff9","5f60f1e5fa702c01b920cede","false","null","<div style=""align-items: center; display: flex; color: darkorange; font-size: 90px""><b>ø</b></div>","null","","","","forget_cue","","","","","","","","","","","","","","","",""
"html-keyboard-response","152","1726941","0.0-4.0-1.0-0.12","fzry6y53qndppb1","prime","5e74f8c002c79b0464a51925","5f60e3c0a3b16e07647b2ff9","5f60f1e5fa702c01b920cede","false","null","<span style=""color: black; font-size: 48px"">M + N</span>","null","","","","resp_prompt","","","","","","","","","","","","","","","",""
"categorize-image","153","1727725","0.0-4.0-1.0-1.12","fzry6y53qndppb1","prime","5e74f8c002c79b0464a51925","5f60e3c0a3b16e07647b2ff9","5f60f1e5fa702c01b920cede","true","778.0899999197572","./Stimuli/SelectedImages/LM/LM157.bmp","83","","","","test","true","M + N","83","repetition","LM","LM157.bmp","forget","","61","3","prime1","left","","","",""
"html-keyboard-response","154","1729731","0.0-4.0-1.0-3.12","fzry6y53qndppb1","prime","5e74f8c002c79b0464a51925","5f60e3c0a3b16e07647b2ff9","5f60f1e5fa702c01b920cede","false","null","<div style=""align-items: center; display: flex; color: darkorange; font-size: 90px""><b>ø</b></div>","null","","","","forget_cue","","","","","","","","","","","","","","","",""
"html-keyboard-response","155","1730434","0.0-4.0-1.0-0.13","fzry6y53qndppb1","prime","5e74f8c002c79b0464a51925","5f60e3c0a3b16e07647b2ff9","5f60f1e5fa702c01b920cede","false","null","<span style=""color: black; font-size: 48px"">N + M</span>","null","","","","resp_prompt","","","","","","","","","","","","","","","",""
"categorize-image","156","1730981","0.0-4.0-1.0-1.13","fzry6y53qndppb1","prime","5e74f8c002c79b0464a51925","5f60e3c0a3b16e07647b2ff9","5f60f1e5fa702c01b920cede","true","540.0549999903888","./Stimuli/SelectedImages/LM/LM100.bmp","76","","","","test","true","N + M","76","switch","LM","LM100.bmp","forget","","62","3","prime1","right","","","",""
"html-keyboard-response","157","1732983","0.0-4.0-1.0-3.13","fzry6y53qndppb1","prime","5e74f8c002c79b0464a51925","5f60e3c0a3b16e07647b2ff9","5f60f1e5fa702c01b920cede","false","null","<div style=""align-items: center; display: flex; color: darkorange; font-size: 90px""><b>ø</b></div>","null","","","","forget_cue","","","","","","","","","","","","","","","",""
"html-keyboard-response","158","1733691","0.0-4.0-1.0-0.14","fzry6y53qndppb1","prime","5e74f8c002c79b0464a51925","5f60e3c0a3b16e07647b2ff9","5f60f1e5fa702c01b920cede","false","null","<span style=""color: black; font-size: 48px"">M + N</span>","null","","","","resp_prompt","","","","","","","","","","","","","","","",""
"categorize-image","159","1734369","0.0-4.0-1.0-1.14","fzry6y53qndppb1","prime","5e74f8c002c79b0464a51925","5f60e3c0a3b16e07647b2ff9","5f60f1e5fa702c01b920cede","true","669.6850000880659","./Stimuli/SelectedImages/LN/LN82.bmp","76","","","","test","true","M + N","76","repetition","LN","LN82.bmp","remember","","63","3","prime1","right","","","",""
"html-keyboard-response","160","1736374","0.0-4.0-1.0-3.14","fzry6y53qndppb1","prime","5e74f8c002c79b0464a51925","5f60e3c0a3b16e07647b2ff9","5f60f1e5fa702c01b920cede","false","null","<div style=""align-items: center; display: flex; color: dodgerblue; font-size: 90px""><b>o</b></div>","null","","","","forget_cue","","","","","","","","","","","","","","","",""
"html-keyboard-response","161","1737076","0.0-4.0-1.0-0.15","fzry6y53qndppb1","prime","5e74f8c002c79b0464a51925","5f60e3c0a3b16e07647b2ff9","5f60f1e5fa702c01b920cede","false","null","<span style=""color: black; font-size: 48px"">M + N</span>","null","","","","resp_prompt","","","","","","","","","","","","","","","",""
"categorize-image","162","1737751","0.0-4.0-1.0-1.15","fzry6y53qndppb1","prime","5e74f8c002c79b0464a51925","5f60e3c0a3b16e07647b2ff9","5f60f1e5fa702c01b920cede","true","666.1700000986457","./Stimuli/SelectedImages/SN/SN111.bmp","76","","","","test","true","M + N","76","repetition","SN","SN111.bmp","forget","","64","3","prime1","right","","","",""
"html-keyboard-response","163","1739753","0.0-4.0-1.0-3.15","fzry6y53qndppb1","prime","5e74f8c002c79b0464a51925","5f60e3c0a3b16e07647b2ff9","5f60f1e5fa702c01b920cede","false","null","<div style=""align-items: center; display: flex; color: darkorange; font-size: 90px""><b>ø</b></div>","null","","","","forget_cue","","","","","","","","","","","","","","","",""
"html-keyboard-response","164","1740457","0.0-4.0-1.0-0.16","fzry6y53qndppb1","prime","5e74f8c002c79b0464a51925","5f60e3c0a3b16e07647b2ff9","5f60f1e5fa702c01b920cede","false","null","<span style=""color: black; font-size: 48px"">N + M</span>","null","","","","resp_prompt","","","","","","","","","","","","","","","",""
"categorize-image","165","1741384","0.0-4.0-1.0-1.16","fzry6y53qndppb1","prime","5e74f8c002c79b0464a51925","5f60e3c0a3b16e07647b2ff9","5f60f1e5fa702c01b920cede","true","918.8550000544637","./Stimuli/SelectedImages/LN/LN12.bmp","83","","","","test","true","N + M","83","switch","LN","LN12.bmp","remember","","65","3","prime1","left","","","",""
"html-keyboard-response","166","1743387","0.0-4.0-1.0-3.16","fzry6y53qndppb1","prime","5e74f8c002c79b0464a51925","5f60e3c0a3b16e07647b2ff9","5f60f1e5fa702c01b920cede","false","null","<div style=""align-items: center; display: flex; color: dodgerblue; font-size: 90px""><b>o</b></div>","null","","","","forget_cue","","","","","","","","","","","","","","","",""
"html-keyboard-response","167","1744089","0.0-4.0-1.0-0.17","fzry6y53qndppb1","prime","5e74f8c002c79b0464a51925","5f60e3c0a3b16e07647b2ff9","5f60f1e5fa702c01b920cede","false","null","<span style=""color: black; font-size: 48px"">M + N</span>","null","","","","resp_prompt","","","","","","","","","","","","","","","",""
"categorize-image","168","1744732","0.0-4.0-1.0-1.17","fzry6y53qndppb1","prime","5e74f8c002c79b0464a51925","5f60e3c0a3b16e07647b2ff9","5f60f1e5fa702c01b920cede","true","634.6799999009818","./Stimuli/SelectedImages/SM/SM213.bmp","83","","","","test","true","M + N","83","repetition","SM","SM213.bmp","remember","","66","3","prime1","left","","","",""
"html-keyboard-response","169","1746734","0.0-4.0-1.0-3.17","fzry6y53qndppb1","prime","5e74f8c002c79b0464a51925","5f60e3c0a3b16e07647b2ff9","5f60f1e5fa702c01b920cede","false","null","<div style=""align-items: center; display: flex; color: dodgerblue; font-size: 90px""><b>o</b></div>","null","","","","forget_cue","","","","","","","","","","","","","","","",""
"html-keyboard-response","170","1747437","0.0-4.0-1.0-0.18","fzry6y53qndppb1","prime","5e74f8c002c79b0464a51925","5f60e3c0a3b16e07647b2ff9","5f60f1e5fa702c01b920cede","false","null","<span style=""color: black; font-size: 48px"">N + M</span>","null","","","","resp_prompt","","","","","","","","","","","","","","","",""
"categorize-image","171","1748164","0.0-4.0-1.0-1.18","fzry6y53qndppb1","prime","5e74f8c002c79b0464a51925","5f60e3c0a3b16e07647b2ff9","5f60f1e5fa702c01b920cede","true","720.5250000115484","./Stimuli/SelectedImages/SM/SM148.bmp","76","","","","test","true","N + M","76","switch","SM","SM148.bmp","remember","","67","3","prime1","right","","","",""
"html-keyboard-response","172","1750167","0.0-4.0-1.0-3.18","fzry6y53qndppb1","prime","5e74f8c002c79b0464a51925","5f60e3c0a3b16e07647b2ff9","5f60f1e5fa702c01b920cede","false","null","<div style=""align-items: center; display: flex; color: dodgerblue; font-size: 90px""><b>o</b></div>","null","","","","forget_cue","","","","","","","","","","","","","","","",""
"html-keyboard-response","173","1750869","0.0-4.0-1.0-0.19","fzry6y53qndppb1","prime","5e74f8c002c79b0464a51925","5f60e3c0a3b16e07647b2ff9","5f60f1e5fa702c01b920cede","false","null","<span style=""color: black; font-size: 48px"">N + M</span>","null","","","","resp_prompt","","","","","","","","","","","","","","","",""
"categorize-image","174","1751544","0.0-4.0-1.0-1.19","fzry6y53qndppb1","prime","5e74f8c002c79b0464a51925","5f60e3c0a3b16e07647b2ff9","5f60f1e5fa702c01b920cede","true","667.905000038445","./Stimuli/SelectedImages/SN/SN52.bmp","83","","","","test","true","N + M","83","switch","SN","SN52.bmp","remember","","68","3","prime1","left","","","",""
"html-keyboard-response","175","1753547","0.0-4.0-1.0-3.19","fzry6y53qndppb1","prime","5e74f8c002c79b0464a51925","5f60e3c0a3b16e07647b2ff9","5f60f1e5fa702c01b920cede","false","null","<div style=""align-items: center; display: flex; color: dodgerblue; font-size: 90px""><b>o</b></div>","null","","","","forget_cue","","","","","","","","","","","","","","","",""
"html-keyboard-response","176","1754249","0.0-4.0-1.0-0.20","fzry6y53qndppb1","prime","5e74f8c002c79b0464a51925","5f60e3c0a3b16e07647b2ff9","5f60f1e5fa702c01b920cede","false","null","<span style=""color: black; font-size: 48px"">N + M</span>","null","","","","resp_prompt","","","","","","","","","","","","","","","",""
"categorize-image","177","1754765","0.0-4.0-1.0-1.20","fzry6y53qndppb1","prime","5e74f8c002c79b0464a51925","5f60e3c0a3b16e07647b2ff9","5f60f1e5fa702c01b920cede","true","507.3750000447035","./Stimuli/SelectedImages/LN/LN166.bmp","83","","","","test","true","N + M","83","switch","LN","LN166.bmp","remember","","69","3","prime1","left","","","",""
"html-keyboard-response","178","1756769","0.0-4.0-1.0-3.20","fzry6y53qndppb1","prime","5e74f8c002c79b0464a51925","5f60e3c0a3b16e07647b2ff9","5f60f1e5fa702c01b920cede","false","null","<div style=""align-items: center; display: flex; color: dodgerblue; font-size: 90px""><b>o</b></div>","null","","","","forget_cue","","","","","","","","","","","","","","","",""
"html-keyboard-response","179","1757472","0.0-4.0-1.0-0.21","fzry6y53qndppb1","prime","5e74f8c002c79b0464a51925","5f60e3c0a3b16e07647b2ff9","5f60f1e5fa702c01b920cede","false","null","<span style=""color: black; font-size: 48px"">N + M</span>","null","","","","resp_prompt","","","","","","","","","","","","","","","",""
"categorize-image","180","1758150","0.0-4.0-1.0-1.21","fzry6y53qndppb1","prime","5e74f8c002c79b0464a51925","5f60e3c0a3b16e07647b2ff9","5f60f1e5fa702c01b920cede","true","670.9299997892231","./Stimuli/SelectedImages/SM/SM78.bmp","76","","","","test","true","N + M","76","switch","SM","SM78.bmp","forget","","70","3","prime1","right","","","",""
"html-keyboard-response","181","1760154","0.0-4.0-1.0-3.21","fzry6y53qndppb1","prime","5e74f8c002c79b0464a51925","5f60e3c0a3b16e07647b2ff9","5f60f1e5fa702c01b920cede","false","null","<div style=""align-items: center; display: flex; color: darkorange; font-size: 90px""><b>ø</b></div>","null","","","","forget_cue","","","","","","","","","","","","","","","",""
"html-keyboard-response","182","1760857","0.0-4.0-1.0-0.22","fzry6y53qndppb1","prime","5e74f8c002c79b0464a51925","5f60e3c0a3b16e07647b2ff9","5f60f1e5fa702c01b920cede","false","null","<span style=""color: black; font-size: 48px"">M + N</span>","null","","","","resp_prompt","","","","","","","","","","","","","","","",""
"categorize-image","183","1761563","0.0-4.0-1.0-1.22","fzry6y53qndppb1","prime","5e74f8c002c79b0464a51925","5f60e3c0a3b16e07647b2ff9","5f60f1e5fa702c01b920cede","true","698.0999999213964","./Stimuli/SelectedImages/LN/LN13.bmp","76","","","","test","true","M + N","76","switch","LN","LN13.bmp","forget","","71","3","prime1","right","","","",""
"html-keyboard-response","184","1763567","0.0-4.0-1.0-3.22","fzry6y53qndppb1","prime","5e74f8c002c79b0464a51925","5f60e3c0a3b16e07647b2ff9","5f60f1e5fa702c01b920cede","false","null","<div style=""align-items: center; display: flex; color: darkorange; font-size: 90px""><b>ø</b></div>","null","","","","forget_cue","","","","","","","","","","","","","","","",""
"html-keyboard-response","185","1764269","0.0-4.0-1.0-0.23","fzry6y53qndppb1","prime","5e74f8c002c79b0464a51925","5f60e3c0a3b16e07647b2ff9","5f60f1e5fa702c01b920cede","false","null","<span style=""color: black; font-size: 48px"">N + M</span>","null","","","","resp_prompt","","","","","","","","","","","","","","","",""
"categorize-image","186","1765026","0.0-4.0-1.0-1.23","fzry6y53qndppb1","prime","5e74f8c002c79b0464a51925","5f60e3c0a3b16e07647b2ff9","5f60f1e5fa702c01b920cede","true","749.9100000131875","./Stimuli/SelectedImages/LM/LM103.bmp","76","","","","test","true","N + M","76","switch","LM","LM103.bmp","forget","","72","3","prime1","right","","","",""
"html-keyboard-response","187","1767031","0.0-4.0-1.0-3.23","fzry6y53qndppb1","prime","5e74f8c002c79b0464a51925","5f60e3c0a3b16e07647b2ff9","5f60f1e5fa702c01b920cede","false","null","<div style=""align-items: center; display: flex; color: darkorange; font-size: 90px""><b>ø</b></div>","null","","","","forget_cue","","","","","","","","","","","","","","","",""
"html-keyboard-response","188","1767734","0.0-4.0-1.0-0.24","fzry6y53qndppb1","prime","5e74f8c002c79b0464a51925","5f60e3c0a3b16e07647b2ff9","5f60f1e5fa702c01b920cede","false","null","<span style=""color: black; font-size: 48px"">N + M</span>","null","","","","resp_prompt","","","","","","","","","","","","","","","",""
"categorize-image","189","1768306","0.0-4.0-1.0-1.24","fzry6y53qndppb1","prime","5e74f8c002c79b0464a51925","5f60e3c0a3b16e07647b2ff9","5f60f1e5fa702c01b920cede","true","563.1349999457598","./Stimuli/SelectedImages/SN/SN60.bmp","83","","","","test","true","N + M","83","repetition","SN","SN60.bmp","forget","","73","3","prime1","left","","","",""
"html-keyboard-response","190","1770312","0.0-4.0-1.0-3.24","fzry6y53qndppb1","prime","5e74f8c002c79b0464a51925","5f60e3c0a3b16e07647b2ff9","5f60f1e5fa702c01b920cede","false","null","<div style=""align-items: center; display: flex; color: darkorange; font-size: 90px""><b>ø</b></div>","null","","","","forget_cue","","","","","","","","","","","","","","","",""
"html-keyboard-response","191","1771014","0.0-4.0-1.0-0.25","fzry6y53qndppb1","prime","5e74f8c002c79b0464a51925","5f60e3c0a3b16e07647b2ff9","5f60f1e5fa702c01b920cede","false","null","<span style=""color: black; font-size: 48px"">N + M</span>","null","","","","resp_prompt","","","","","","","","","","","","","","","",""
"categorize-image","192","1771731","0.0-4.0-1.0-1.25","fzry6y53qndppb1","prime","5e74f8c002c79b0464a51925","5f60e3c0a3b16e07647b2ff9","5f60f1e5fa702c01b920cede","true","709.7599999979138","./Stimuli/SelectedImages/SM/SM205.bmp","76","","","","test","true","N + M","76","repetition","SM","SM205.bmp","forget","","74","3","prime1","right","","","",""
"html-keyboard-response","193","1773734","0.0-4.0-1.0-3.25","fzry6y53qndppb1","prime","5e74f8c002c79b0464a51925","5f60e3c0a3b16e07647b2ff9","5f60f1e5fa702c01b920cede","false","null","<div style=""align-items: center; display: flex; color: darkorange; font-size: 90px""><b>ø</b></div>","null","","","","forget_cue","","","","","","","","","","","","","","","",""
"html-keyboard-response","194","1774437","0.0-4.0-1.0-0.26","fzry6y53qndppb1","prime","5e74f8c002c79b0464a51925","5f60e3c0a3b16e07647b2ff9","5f60f1e5fa702c01b920cede","false","null","<span style=""color: black; font-size: 48px"">M + N</span>","null","","","","resp_prompt","","","","","","","","","","","","","","","",""
"categorize-image","195","1775241","0.0-4.0-1.0-1.26","fzry6y53qndppb1","prime","5e74f8c002c79b0464a51925","5f60e3c0a3b16e07647b2ff9","5f60f1e5fa702c01b920cede","true","795.2149999327958","./Stimuli/SelectedImages/SM/SM128.bmp","83","","","","test","true","M + N","83","switch","SM","SM128.bmp","remember","","75","3","prime1","left","","","",""
"html-keyboard-response","196","1777244","0.0-4.0-1.0-3.26","fzry6y53qndppb1","prime","5e74f8c002c79b0464a51925","5f60e3c0a3b16e07647b2ff9","5f60f1e5fa702c01b920cede","false","null","<div style=""align-items: center; display: flex; color: dodgerblue; font-size: 90px""><b>o</b></div>","null","","","","forget_cue","","","","","","","","","","","","","","","",""
"html-keyboard-response","197","1777946","0.0-4.0-1.0-0.27","fzry6y53qndppb1","prime","5e74f8c002c79b0464a51925","5f60e3c0a3b16e07647b2ff9","5f60f1e5fa702c01b920cede","false","null","<span style=""color: black; font-size: 48px"">M + N</span>","null","","","","resp_prompt","","","","","","","","","","","","","","","",""
"categorize-image","198","1779102","0.0-4.0-1.0-1.27","fzry6y53qndppb1","prime","5e74f8c002c79b0464a51925","5f60e3c0a3b16e07647b2ff9","5f60f1e5fa702c01b920cede","true","1147.7950001135468","./Stimuli/SelectedImages/SN/SN187.bmp","76","","","","test","true","M + N","76","switch","SN","SN187.bmp","remember","","76","3","prime1","right","","","",""
"html-keyboard-response","199","1781106","0.0-4.0-1.0-3.27","fzry6y53qndppb1","prime","5e74f8c002c79b0464a51925","5f60e3c0a3b16e07647b2ff9","5f60f1e5fa702c01b920cede","false","null","<div style=""align-items: center; display: flex; color: dodgerblue; font-size: 90px""><b>o</b></div>","null","","","","forget_cue","","","","","","","","","","","","","","","",""
"html-keyboard-response","200","1781809","0.0-4.0-1.0-0.28","fzry6y53qndppb1","prime","5e74f8c002c79b0464a51925","5f60e3c0a3b16e07647b2ff9","5f60f1e5fa702c01b920cede","false","null","<span style=""color: black; font-size: 48px"">N + M</span>","null","","","","resp_prompt","","","","","","","","","","","","","","","",""
"categorize-image","201","1783823","0.0-4.0-1.0-1.28","fzry6y53qndppb1","prime","5e74f8c002c79b0464a51925","5f60e3c0a3b16e07647b2ff9","5f60f1e5fa702c01b920cede","true","null","./Stimuli/SelectedImages/LN/LN9.bmp","null","","","","test","false","N + M","83","repetition","LN","LN9.bmp","remember","","77","3","prime1","too_slow","","","",""
"html-keyboard-response","202","1784326","0.0-4.0-1.0-2.28-0.28","fzry6y53qndppb1","prime","5e74f8c002c79b0464a51925","5f60e3c0a3b16e07647b2ff9","5f60f1e5fa702c01b920cede","false","null","<span style=""color: red; font-size: 48px"">Too slow!</span>","null","","","","feedback","","","","","","","","","","","","","","","",""
"html-keyboard-response","203","1786330","0.0-4.0-1.0-3.28","fzry6y53qndppb1","prime","5e74f8c002c79b0464a51925","5f60e3c0a3b16e07647b2ff9","5f60f1e5fa702c01b920cede","false","null","<div style=""align-items: center; display: flex; color: dodgerblue; font-size: 90px""><b>o</b></div>","null","","","","forget_cue","","","","","","","","","","","","","","","",""
"html-keyboard-response","204","1787034","0.0-4.0-1.0-0.29","fzry6y53qndppb1","prime","5e74f8c002c79b0464a51925","5f60e3c0a3b16e07647b2ff9","5f60f1e5fa702c01b920cede","false","null","<span style=""color: black; font-size: 48px"">N + M</span>","null","","","","resp_prompt","","","","","","","","","","","","","","","",""
"categorize-image","205","1788384","0.0-4.0-1.0-1.29","fzry6y53qndppb1","prime","5e74f8c002c79b0464a51925","5f60e3c0a3b16e07647b2ff9","5f60f1e5fa702c01b920cede","true","1343.2849999517202","./Stimuli/SelectedImages/SN/SN64.bmp","76","","","","test","false","N + M","83","repetition","SN","SN64.bmp","remember","","78","3","prime1","right","","","",""
"html-keyboard-response","206","1788889","0.0-4.0-1.0-2.29-0.29","fzry6y53qndppb1","prime","5e74f8c002c79b0464a51925","5f60e3c0a3b16e07647b2ff9","5f60f1e5fa702c01b920cede","false","null","<span style=""color: red; font-size: 48px"">Error!</span>","null","","","","feedback","","","","","","","","","","","","","","","",""
"html-keyboard-response","207","1790891","0.0-4.0-1.0-3.29","fzry6y53qndppb1","prime","5e74f8c002c79b0464a51925","5f60e3c0a3b16e07647b2ff9","5f60f1e5fa702c01b920cede","false","null","<div style=""align-items: center; display: flex; color: dodgerblue; font-size: 90px""><b>o</b></div>","null","","","","forget_cue","","","","","","","","","","","","","","","",""
"html-keyboard-response","208","1791593","0.0-4.0-1.0-0.30","fzry6y53qndppb1","prime","5e74f8c002c79b0464a51925","5f60e3c0a3b16e07647b2ff9","5f60f1e5fa702c01b920cede","false","null","<span style=""color: black; font-size: 48px"">N + M</span>","null","","","","resp_prompt","","","","","","","","","","","","","","","",""
"categorize-image","209","1792192","0.0-4.0-1.0-1.30","fzry6y53qndppb1","prime","5e74f8c002c79b0464a51925","5f60e3c0a3b16e07647b2ff9","5f60f1e5fa702c01b920cede","true","594.7149998974055","./Stimuli/SelectedImages/SM/SM195.bmp","76","","","","test","true","N + M","76","switch","SM","SM195.bmp","remember","","79","3","prime1","right","","","",""
"html-keyboard-response","210","1794196","0.0-4.0-1.0-3.30","fzry6y53qndppb1","prime","5e74f8c002c79b0464a51925","5f60e3c0a3b16e07647b2ff9","5f60f1e5fa702c01b920cede","false","null","<div style=""align-items: center; display: flex; color: dodgerblue; font-size: 90px""><b>o</b></div>","null","","","","forget_cue","","","","","","","","","","","","","","","",""
"html-keyboard-response","211","1794899","0.0-4.0-1.0-0.31","fzry6y53qndppb1","prime","5e74f8c002c79b0464a51925","5f60e3c0a3b16e07647b2ff9","5f60f1e5fa702c01b920cede","false","null","<span style=""color: black; font-size: 48px"">N + M</span>","null","","","","resp_prompt","","","","","","","","","","","","","","","",""
"categorize-image","212","1795898","0.0-4.0-1.0-1.31","fzry6y53qndppb1","prime","5e74f8c002c79b0464a51925","5f60e3c0a3b16e07647b2ff9","5f60f1e5fa702c01b920cede","true","990.2900001034141","./Stimuli/SelectedImages/LM/LM179.bmp","76","","","","test","true","N + M","76","switch","LM","LM179.bmp","remember","","80","3","prime1","right","","","",""
"html-keyboard-response","213","1797901","0.0-4.0-1.0-3.31","fzry6y53qndppb1","prime","5e74f8c002c79b0464a51925","5f60e3c0a3b16e07647b2ff9","5f60f1e5fa702c01b920cede","false","null","<div style=""align-items: center; display: flex; color: dodgerblue; font-size: 90px""><b>o</b></div>","null","","","","forget_cue","","","","","","","","","","","","","","","",""
"html-keyboard-response","214","1798604","0.0-4.0-1.0-0.32","fzry6y53qndppb1","prime","5e74f8c002c79b0464a51925","5f60e3c0a3b16e07647b2ff9","5f60f1e5fa702c01b920cede","false","null","<span style=""color: black; font-size: 48px"">N + M</span>","null","","","","resp_prompt","","","","","","","","","","","","","","","",""
"categorize-image","215","1799577","0.0-4.0-1.0-1.32","fzry6y53qndppb1","prime","5e74f8c002c79b0464a51925","5f60e3c0a3b16e07647b2ff9","5f60f1e5fa702c01b920cede","true","964.9700000882149","./Stimuli/SelectedImages/SN/SN179.bmp","83","","","","test","true","N + M","83","switch","SN","SN179.bmp","forget","","81","3","prime1","left","","","",""
"html-keyboard-response","216","1801586","0.0-4.0-1.0-3.32","fzry6y53qndppb1","prime","5e74f8c002c79b0464a51925","5f60e3c0a3b16e07647b2ff9","5f60f1e5fa702c01b920cede","false","null","<div style=""align-items: center; display: flex; color: darkorange; font-size: 90px""><b>ø</b></div>","null","","","","forget_cue","","","","","","","","","","","","","","","",""
"html-keyboard-response","217","1802289","0.0-4.0-1.0-0.33","fzry6y53qndppb1","prime","5e74f8c002c79b0464a51925","5f60e3c0a3b16e07647b2ff9","5f60f1e5fa702c01b920cede","false","null","<span style=""color: black; font-size: 48px"">M + N</span>","null","","","","resp_prompt","","","","","","","","","","","","","","","",""
"categorize-image","218","1802961","0.0-4.0-1.0-1.33","fzry6y53qndppb1","prime","5e74f8c002c79b0464a51925","5f60e3c0a3b16e07647b2ff9","5f60f1e5fa702c01b920cede","true","663.1549999583513","./Stimuli/SelectedImages/SN/SN181.bmp","76","","","","test","true","M + N","76","repetition","SN","SN181.bmp","remember","","82","3","prime1","right","","","",""
"html-keyboard-response","219","1804963","0.0-4.0-1.0-3.33","fzry6y53qndppb1","prime","5e74f8c002c79b0464a51925","5f60e3c0a3b16e07647b2ff9","5f60f1e5fa702c01b920cede","false","null","<div style=""align-items: center; display: flex; color: dodgerblue; font-size: 90px""><b>o</b></div>","null","","","","forget_cue","","","","","","","","","","","","","","","",""
"html-keyboard-response","220","1805666","0.0-4.0-1.0-0.34","fzry6y53qndppb1","prime","5e74f8c002c79b0464a51925","5f60e3c0a3b16e07647b2ff9","5f60f1e5fa702c01b920cede","false","null","<span style=""color: black; font-size: 48px"">N + M</span>","null","","","","resp_prompt","","","","","","","","","","","","","","","",""
"categorize-image","221","1807415","0.0-4.0-1.0-1.34","fzry6y53qndppb1","prime","5e74f8c002c79b0464a51925","5f60e3c0a3b16e07647b2ff9","5f60f1e5fa702c01b920cede","true","1742.4200000241399","./Stimuli/SelectedImages/LN/LN149.bmp","83","","","","test","true","N + M","83","repetition","LN","LN149.bmp","forget","","83","3","prime1","left","","","",""
"html-keyboard-response","222","1809419","0.0-4.0-1.0-3.34","fzry6y53qndppb1","prime","5e74f8c002c79b0464a51925","5f60e3c0a3b16e07647b2ff9","5f60f1e5fa702c01b920cede","false","null","<div style=""align-items: center; display: flex; color: darkorange; font-size: 90px""><b>ø</b></div>","null","","","","forget_cue","","","","","","","","","","","","","","","",""
"html-keyboard-response","223","1810123","0.0-4.0-1.0-0.35","fzry6y53qndppb1","prime","5e74f8c002c79b0464a51925","5f60e3c0a3b16e07647b2ff9","5f60f1e5fa702c01b920cede","false","null","<span style=""color: black; font-size: 48px"">N + M</span>","null","","","","resp_prompt","","","","","","","","","","","","","","","",""
"categorize-image","224","1810805","0.0-4.0-1.0-1.35","fzry6y53qndppb1","prime","5e74f8c002c79b0464a51925","5f60e3c0a3b16e07647b2ff9","5f60f1e5fa702c01b920cede","true","672.8050000965595","./Stimuli/SelectedImages/LM/LM235.bmp","76","","","","test","true","N + M","76","repetition","LM","LM235.bmp","forget","","84","3","prime1","right","","","",""
"html-keyboard-response","225","1812808","0.0-4.0-1.0-3.35","fzry6y53qndppb1","prime","5e74f8c002c79b0464a51925","5f60e3c0a3b16e07647b2ff9","5f60f1e5fa702c01b920cede","false","null","<div style=""align-items: center; display: flex; color: darkorange; font-size: 90px""><b>ø</b></div>","null","","","","forget_cue","","","","","","","","","","","","","","","",""
"html-keyboard-response","226","1813511","0.0-4.0-1.0-0.36","fzry6y53qndppb1","prime","5e74f8c002c79b0464a51925","5f60e3c0a3b16e07647b2ff9","5f60f1e5fa702c01b920cede","false","null","<span style=""color: black; font-size: 48px"">M + N</span>","null","","","","resp_prompt","","","","","","","","","","","","","","","",""
"categorize-image","227","1814353","0.0-4.0-1.0-1.36","fzry6y53qndppb1","prime","5e74f8c002c79b0464a51925","5f60e3c0a3b16e07647b2ff9","5f60f1e5fa702c01b920cede","true","835.8099998440593","./Stimuli/SelectedImages/SM/SM74.bmp","83","","","","test","true","M + N","83","switch","SM","SM74.bmp","forget","","85","3","prime1","left","","","",""
"html-keyboard-response","228","1816358","0.0-4.0-1.0-3.36","fzry6y53qndppb1","prime","5e74f8c002c79b0464a51925","5f60e3c0a3b16e07647b2ff9","5f60f1e5fa702c01b920cede","false","null","<div style=""align-items: center; display: flex; color: darkorange; font-size: 90px""><b>ø</b></div>","null","","","","forget_cue","","","","","","","","","","","","","","","",""
"html-keyboard-response","229","1817060","0.0-4.0-1.0-0.37","fzry6y53qndppb1","prime","5e74f8c002c79b0464a51925","5f60e3c0a3b16e07647b2ff9","5f60f1e5fa702c01b920cede","false","null","<span style=""color: black; font-size: 48px"">N + M</span>","null","","","","resp_prompt","","","","","","","","","","","","","","","",""
"categorize-image","230","1817639","0.0-4.0-1.0-1.37","fzry6y53qndppb1","prime","5e74f8c002c79b0464a51925","5f60e3c0a3b16e07647b2ff9","5f60f1e5fa702c01b920cede","true","570.5849998630583","./Stimuli/SelectedImages/SN/SN27.bmp","83","","","","test","true","N + M","83","switch","SN","SN27.bmp","forget","","86","3","prime1","left","","","",""
"html-keyboard-response","231","1819643","0.0-4.0-1.0-3.37","fzry6y53qndppb1","prime","5e74f8c002c79b0464a51925","5f60e3c0a3b16e07647b2ff9","5f60f1e5fa702c01b920cede","false","null","<div style=""align-items: center; display: flex; color: darkorange; font-size: 90px""><b>ø</b></div>","null","","","","forget_cue","","","","","","","","","","","","","","","",""
"html-keyboard-response","232","1820346","0.0-4.0-1.0-0.38","fzry6y53qndppb1","prime","5e74f8c002c79b0464a51925","5f60e3c0a3b16e07647b2ff9","5f60f1e5fa702c01b920cede","false","null","<span style=""color: black; font-size: 48px"">M + N</span>","null","","","","resp_prompt","","","","","","","","","","","","","","","",""
"categorize-image","233","1820950","0.0-4.0-1.0-1.38","fzry6y53qndppb1","prime","5e74f8c002c79b0464a51925","5f60e3c0a3b16e07647b2ff9","5f60f1e5fa702c01b920cede","true","595.3899999149144","./Stimuli/SelectedImages/LM/LM75.bmp","83","","","","test","true","M + N","83","switch","LM","LM75.bmp","forget","","87","3","prime1","left","","","",""
"html-keyboard-response","234","1822953","0.0-4.0-1.0-3.38","fzry6y53qndppb1","prime","5e74f8c002c79b0464a51925","5f60e3c0a3b16e07647b2ff9","5f60f1e5fa702c01b920cede","false","null","<div style=""align-items: center; display: flex; color: darkorange; font-size: 90px""><b>ø</b></div>","null","","","","forget_cue","","","","","","","","","","","","","","","",""
"html-keyboard-response","235","1823656","0.0-4.0-1.0-0.39","fzry6y53qndppb1","prime","5e74f8c002c79b0464a51925","5f60e3c0a3b16e07647b2ff9","5f60f1e5fa702c01b920cede","false","null","<span style=""color: black; font-size: 48px"">M + N</span>","null","","","","resp_prompt","","","","","","","","","","","","","","","",""
"categorize-image","236","1824977","0.0-4.0-1.0-1.39","fzry6y53qndppb1","prime","5e74f8c002c79b0464a51925","5f60e3c0a3b16e07647b2ff9","5f60f1e5fa702c01b920cede","true","1315.290000056848","./Stimuli/SelectedImages/LN/LN177.bmp","76","","","","test","true","M + N","76","repetition","LN","LN177.bmp","forget","","88","3","prime1","right","","","",""
"html-keyboard-response","237","1826984","0.0-4.0-1.0-3.39","fzry6y53qndppb1","prime","5e74f8c002c79b0464a51925","5f60e3c0a3b16e07647b2ff9","5f60f1e5fa702c01b920cede","false","null","<div style=""align-items: center; display: flex; color: darkorange; font-size: 90px""><b>ø</b></div>","null","","","","forget_cue","","","","","","","","","","","","","","","",""
"html-keyboard-response","238","1827688","0.0-4.0-1.0-0.40","fzry6y53qndppb1","prime","5e74f8c002c79b0464a51925","5f60e3c0a3b16e07647b2ff9","5f60f1e5fa702c01b920cede","false","null","<span style=""color: black; font-size: 48px"">N + M</span>","null","","","","resp_prompt","","","","","","","","","","","","","","","",""
"categorize-image","239","1828348","0.0-4.0-1.0-1.40","fzry6y53qndppb1","prime","5e74f8c002c79b0464a51925","5f60e3c0a3b16e07647b2ff9","5f60f1e5fa702c01b920cede","true","651.0349998716265","./Stimuli/SelectedImages/SM/SM24.bmp","76","","","","test","true","N + M","76","repetition","SM","SM24.bmp","forget","","89","3","prime1","right","","","",""
"html-keyboard-response","240","1830353","0.0-4.0-1.0-3.40","fzry6y53qndppb1","prime","5e74f8c002c79b0464a51925","5f60e3c0a3b16e07647b2ff9","5f60f1e5fa702c01b920cede","false","null","<div style=""align-items: center; display: flex; color: darkorange; font-size: 90px""><b>ø</b></div>","null","","","","forget_cue","","","","","","","","","","","","","","","",""
"html-keyboard-response","241","1831056","0.0-4.0-1.0-0.41","fzry6y53qndppb1","prime","5e74f8c002c79b0464a51925","5f60e3c0a3b16e07647b2ff9","5f60f1e5fa702c01b920cede","false","null","<span style=""color: black; font-size: 48px"">M + N</span>","null","","","","resp_prompt","","","","","","","","","","","","","","","",""
"categorize-image","242","1832191","0.0-4.0-1.0-1.41","fzry6y53qndppb1","prime","5e74f8c002c79b0464a51925","5f60e3c0a3b16e07647b2ff9","5f60f1e5fa702c01b920cede","true","1126.3200000394136","./Stimuli/SelectedImages/SN/SN240.bmp","76","","","","test","true","M + N","76","repetition","SN","SN240.bmp","remember","","90","3","prime1","right","","","",""
"html-keyboard-response","243","1834196","0.0-4.0-1.0-3.41","fzry6y53qndppb1","prime","5e74f8c002c79b0464a51925","5f60e3c0a3b16e07647b2ff9","5f60f1e5fa702c01b920cede","false","null","<div style=""align-items: center; display: flex; color: dodgerblue; font-size: 90px""><b>o</b></div>","null","","","","forget_cue","","","","","","","","","","","","","","","",""
"html-keyboard-response","244","1834898","0.0-4.0-1.0-0.42","fzry6y53qndppb1","prime","5e74f8c002c79b0464a51925","5f60e3c0a3b16e07647b2ff9","5f60f1e5fa702c01b920cede","false","null","<span style=""color: black; font-size: 48px"">N + M</span>","null","","","","resp_prompt","","","","","","","","","","","","","","","",""
"categorize-image","245","1835659","0.0-4.0-1.0-1.42","fzry6y53qndppb1","prime","5e74f8c002c79b0464a51925","5f60e3c0a3b16e07647b2ff9","5f60f1e5fa702c01b920cede","true","750.9749999735504","./Stimuli/SelectedImages/LN/LN101.bmp","83","","","","test","true","N + M","83","repetition","LN","LN101.bmp","forget","","91","3","prime1","left","","","",""
"html-keyboard-response","246","1837663","0.0-4.0-1.0-3.42","fzry6y53qndppb1","prime","5e74f8c002c79b0464a51925","5f60e3c0a3b16e07647b2ff9","5f60f1e5fa702c01b920cede","false","null","<div style=""align-items: center; display: flex; color: darkorange; font-size: 90px""><b>ø</b></div>","null","","","","forget_cue","","","","","","","","","","","","","","","",""
"html-keyboard-response","247","1838366","0.0-4.0-1.0-0.43","fzry6y53qndppb1","prime","5e74f8c002c79b0464a51925","5f60e3c0a3b16e07647b2ff9","5f60f1e5fa702c01b920cede","false","null","<span style=""color: black; font-size: 48px"">N + M</span>","null","","","","resp_prompt","","","","","","","","","","","","","","","",""
"categorize-image","248","1839016","0.0-4.0-1.0-1.43","fzry6y53qndppb1","prime","5e74f8c002c79b0464a51925","5f60e3c0a3b16e07647b2ff9","5f60f1e5fa702c01b920cede","true","642.4899999983609","./Stimuli/SelectedImages/LM/LM57.bmp","76","","","","test","true","N + M","76","repetition","LM","LM57.bmp","remember","","92","3","prime1","right","","","",""
"html-keyboard-response","249","1841020","0.0-4.0-1.0-3.43","fzry6y53qndppb1","prime","5e74f8c002c79b0464a51925","5f60e3c0a3b16e07647b2ff9","5f60f1e5fa702c01b920cede","false","null","<div style=""align-items: center; display: flex; color: dodgerblue; font-size: 90px""><b>o</b></div>","null","","","","forget_cue","","","","","","","","","","","","","","","",""
"html-keyboard-response","250","1841723","0.0-4.0-1.0-0.44","fzry6y53qndppb1","prime","5e74f8c002c79b0464a51925","5f60e3c0a3b16e07647b2ff9","5f60f1e5fa702c01b920cede","false","null","<span style=""color: black; font-size: 48px"">M + N</span>","null","","","","resp_prompt","","","","","","","","","","","","","","","",""
"categorize-image","251","1842399","0.0-4.0-1.0-1.44","fzry6y53qndppb1","prime","5e74f8c002c79b0464a51925","5f60e3c0a3b16e07647b2ff9","5f60f1e5fa702c01b920cede","true","668.4250000398606","./Stimuli/SelectedImages/LN/LN150.bmp","76","","","","test","true","M + N","76","switch","LN","LN150.bmp","remember","","93","3","prime1","right","","","",""
