"trial_type","trial_index","time_elapsed","internal_node_id","subject","exp_part","prolific_PID","study_ID","session_ID","use","rt","stimulus","key_press","button_pressed","responses","question_order","trial_part","correct","resp_map","correct_resp","probe_condition","category","image","forget_condition","list","trial_num","block_num","block","response","test_part","n_span","sequence","num_spaces"
"pavlovia","0","4","0.0-0.0","gu0j5pwg7ppmoz3","","5de960efa71cf402386bfe40","5f60e3c0a3b16e07647b2ff9","5f60ee9d27229101b8be7107","false","","","","","","","","","","","","","","","","","","","","","","",""
"html-keyboard-response","1","13628","0.0-1.0-0.0-0.0","gu0j5pwg7ppmoz3","welcome","5de960efa71cf402386bfe40","5f60e3c0a3b16e07647b2ff9","5f60ee9d27229101b8be7107","false","13618.000000000004","<div align=left>Dear participant, <br> thank you for participating in an online study of the Cognition, Action, and Sustainability Unit of the University of Freiburg! <br> <br>The aim of this study is to examine our ability to remember previously learned information. <br>Our goal is to find out, whether our memory improves, when we only remember information that is relevant to us. <br>The experiment will take about 35 minutes to complete. <br> <br>Please, note that you can only participate in this study if you are using a device with a keyboard (PC, Laptop etc.) <br>and not if you are using a mobile device such as a tablet or smartphone.<br> <br>Press 'SPACE' to proceed to the experiment. </div>","32","","","","","","","","","","","","","","","","","","","",""
"html-keyboard-response","2","25386","0.0-1.0-0.0-1.0","gu0j5pwg7ppmoz3","welcome","5de960efa71cf402386bfe40","5f60e3c0a3b16e07647b2ff9","5f60ee9d27229101b8be7107","false","11757","<div align=left><strong> Time Course of this experiment: </strong> <br><br> <strong> 1.</strong>  First, please fill in some information regarding your demographic data. <br><br> <strong> 2.</strong>  Next, your task will be to classify everyday objects. <br>In addition, you will be asked to remember certain objects and recall them later. <br>Working on these tasks requires your undivided attention and concentration.<br>It is therefore essential that you eliminate any sources of distraction in your  <br>environment and ensure that you will not be disturbed. <br><br><strong> 3.</strong>  At the end of the experiment, you will be asked to answer a few additional questions. <br> <br><strong> Important:</strong> After finishing the experiment, only close the browser window <br> by clicking on the 'end the experiment'-button when you are asked to do so. <br>Closing the browser window prematurely will make the allocation of your participation credit impossible. <br><br> Press 'SPACE' to start the experiment. </div>","32","","","","","","","","","","","","","","","","","","","",""
"html-button-response","3","30289","0.0-1.0-0.0-2.0","gu0j5pwg7ppmoz3","welcome","5de960efa71cf402386bfe40","5f60e3c0a3b16e07647b2ff9","5f60ee9d27229101b8be7107","true","4900","<div align=left><strong> Informed consent </strong>  <br>The aim of our research is to better understand human behavior and mental processes. <br>In the following study your behavior (e.g. choices, reaction times) will be studied. <br> <br><strong> Voluntariness and Anonymity </strong> <br>Your participation in this study is  <strong> voluntary</strong>.<br>You may withdraw your consent to participate at any time without providing a reason for doing so and without fear of prejudice. <br><br>As no personal data will be collected, <strong>your data and your person cannot be connected after data collection</strong> – the data-set is anonymous. <br>Respectively, deletion of your data will not be possible after data collection has been completed, as we cannot retrace your data-set.<br>The results and anonymized data collected in this study will be published as a scientific publication. <br>This will happen in an <strong>anonymized format</strong>, so that no data can be traced back to a specific person. <br> <br>The anonymized data of this study will be made available to other researchers and/or in a data archive on the Internet as a means of transparency and to enable subsequent re-use. By doing so, this study follows the recommendations of the Deutsche Forschungsgemeinschaft (DFG, German Research Foundation) and Deutsche Gesellschaft für Psychologie (DGPS, German Psychological Society) regarding quality assurance in research.<br>If you have any questions now or after the experiment, please contact our team (experiments@cs.uni-freiburg.de).<br><br><br>I hereby declare, that I understand the above described conditions of participation and I agree to participate under these conditions. <br><br> </div>","","0","","","","","","","","","","","","","","","","","","",""
"html-keyboard-response","4","48016","0.0-1.0-0.0-3.0","gu0j5pwg7ppmoz3","welcome","5de960efa71cf402386bfe40","5f60e3c0a3b16e07647b2ff9","5f60ee9d27229101b8be7107","false","17725","<div align=left><strong> General information concerning the experiment </strong>  <br> <br>Please follow the instructions:<ol> <li><strong> Do not leave this tab (your browser window) during the experiment and do not reload this tab! </strong>  <br>If you do switch tabs/windows during the experiment (to check your mail or visit another website, for example), <br>the experiment will end automatically and you will <strong>not receive credit</strong> for your participation. <br>Repeated participation or resumption of the experiment is impossible.</li> <br><li>Please close all other programs for the duration of your participation. </li> <br><li>Please mute or turn off your phone and put it out of your reach. </li> <br><li>Please also take off any disturbing accessories (such as wristwatches, bracelets, etc.). </li> <br><li>If you have music playing in the background, please turn it off now. </li> <br></ol>Thank you! <br>Press 'SPACE' to continue. </div>","32","","","","","","","","","","","","","","","","","","","",""
"survey-text","5","51300","0.0-1.0-1.0-0.0","gu0j5pwg7ppmoz3","demographics","5de960efa71cf402386bfe40","5f60e3c0a3b16e07647b2ff9","5f60ee9d27229101b8be7107","true","3260.9999999999927","","","","{""age"":""21""}","","","","","","","","","","","","","","","","","",""
"survey-multi-choice","6","73420","0.0-1.0-1.0-1.0","gu0j5pwg7ppmoz3","demographics","5de960efa71cf402386bfe40","5f60e3c0a3b16e07647b2ff9","5f60ee9d27229101b8be7107","true","22118","","","","{""gender"":""male"",""school"":""others"",""education"":""Completed university degree or equivalent""}","[0,1,2]","","","","","","","","","","","","","","","","",""
"html-keyboard-response","7","87749","0.0-1.0-2.0","gu0j5pwg7ppmoz3","instructions","5de960efa71cf402386bfe40","5f60e3c0a3b16e07647b2ff9","5f60ee9d27229101b8be7107","false","14326","<div align=left> The experiment is now about to start: <br> <br>In the following part, you will be presented pictures of everyday objects. <br>Your first task is to <strong>classify these objects. </strong> <br> <br> You will classify them either as mechanical or non-mechanical objects. <br> <br>Objects that include any kind of technical mechanism (for example, wheels, switches, levers, <br> electronic components) fall under the category of <strong>mechanical</strong> objects. <br>Only objects without any kind of technical mechanism should be classified as <strong>non-mechanical</strong>. <br><br>Press 'SPACE' to continue. </div>","32","","","","","","","","","","","","","","","","","","","",""
"html-keyboard-response","8","139083","0.0-2.0-0.0","gu0j5pwg7ppmoz3","instructions","5de960efa71cf402386bfe40","5f60e3c0a3b16e07647b2ff9","5f60ee9d27229101b8be7107","false","51332","<div align=justify>You will classify the objects using the <strong>'S'</strong> and the <strong>'L'</strong> keys on your keyboard.<br>For doing so, please place your <strong>left index finger</strong> on the <strong>'S'</strong> key and place your <strong>right index finger</strong> on the <strong>'L'</strong> key. <br><br> Each trial starts with an instruction, indicating which key ('S'/'L') you need to press to classify <br>the object as mechanical (letter M) or non-mechanical (letter N).<br>The instruction <strong>M + N</strong> indicates that, in the current trial, by pressing the left key ('S') you classify the displayed object as mechanical (M) <br> and by pressing the right key ('L') you classify the object as non-mechanical (N). <br>The instruction <strong>N + M</strong> on the other hand indicates that by pressing the left key ('S') you classify the displayed object as non-mechanical (N) <br> and by pressing the right key ('L') you classify the object as mechanical (M). <br><br>Please press the key corresponding to the correct classification as fast as possible as soon as the object is displayed and try to avoid making mistakes.<br>If you do not respond within a 2 second window, a corresponding feedback will be displayed and the next trial will start.<br> The experiment is divided into multiple blocks to give you the opportunity to take a break after each block. <br>First, you can now practice this task. <br><br>Please place your <strong>LEFT INDEX FINGER</strong> on the 'S' key and your <strong>RIGHT INDEX FINGER</strong> on the 'L' key now. <br><br>Press SPACE to continue.</div>","32","","","","","","","","","","","","","","","","","","","",""
"html-keyboard-response","9","141382","0.0-2.0-1.0","gu0j5pwg7ppmoz3","instructions","5de960efa71cf402386bfe40","5f60e3c0a3b16e07647b2ff9","5f60ee9d27229101b8be7107","false","2299","<div align=left> You will now have time to practice this task.<br><br>Remember: <br> <br><li>Please place your index fingers on the <strong>'S'</strong> and <strong>'L'</strong> keys <br>to respond as fast and accurately as possible.</li><li>Every picture can be classified as either mechanical or non-mechanical.</li><li>If you do not respond in time or commit an error, you will receive a corresponding feedback. </li><li> Please try to respond as <strong> fast </strong> and as <strong> accurately as possible </strong> .<br><li>To ensure optimal results, please minimize distractions and stay focused. </li><br><br>Press SPACE to continue.</div>","32","","","","","","","","","","","","","","","","","","","",""
"html-keyboard-response","10","142086","0.0-2.0-2.0-0.0","gu0j5pwg7ppmoz3","practice_no_cue","5de960efa71cf402386bfe40","5f60e3c0a3b16e07647b2ff9","5f60ee9d27229101b8be7107","false","null","<span style=""color: black; font-size: 48px"">N + M</span>","null","","","","resp_prompt","","","","","","","","","","","","","","","",""
"categorize-image","11","144591","0.0-2.0-2.0-1.0","gu0j5pwg7ppmoz3","practice_no_cue","5de960efa71cf402386bfe40","5f60e3c0a3b16e07647b2ff9","5f60ee9d27229101b8be7107","true","null","./Stimuli/ImagesPractice/LN72.jpg","null","","","","test","false","N + M","83","","LN","LN72.jpg","forget","old","1","1","start","too_slow","","","",""
"html-keyboard-response","12","145294","0.0-2.0-2.0-0.1","gu0j5pwg7ppmoz3","practice_no_cue","5de960efa71cf402386bfe40","5f60e3c0a3b16e07647b2ff9","5f60ee9d27229101b8be7107","false","null","<span style=""color: black; font-size: 48px"">N + M</span>","null","","","","resp_prompt","","","","","","","","","","","","","","","",""
"categorize-image","13","147896","0.0-2.0-2.0-1.1","gu0j5pwg7ppmoz3","practice_no_cue","5de960efa71cf402386bfe40","5f60e3c0a3b16e07647b2ff9","5f60ee9d27229101b8be7107","true","null","./Stimuli/ImagesPractice/SN220.jpg","null","","","","test","false","N + M","83","","SN","SN220.jpg","forget","old","2","1","start","too_slow","","","",""
"html-keyboard-response","14","148597","0.0-2.0-2.0-0.2","gu0j5pwg7ppmoz3","practice_no_cue","5de960efa71cf402386bfe40","5f60e3c0a3b16e07647b2ff9","5f60ee9d27229101b8be7107","false","null","<span style=""color: black; font-size: 48px"">M + N</span>","null","","","","resp_prompt","","","","","","","","","","","","","","","",""
"categorize-image","15","151101","0.0-2.0-2.0-1.2","gu0j5pwg7ppmoz3","practice_no_cue","5de960efa71cf402386bfe40","5f60e3c0a3b16e07647b2ff9","5f60ee9d27229101b8be7107","true","null","./Stimuli/ImagesPractice/LM224.jpg","null","","","","test","false","M + N","83","","LM","LM224.jpg","forget","old","3","1","start","too_slow","","","",""
"html-keyboard-response","16","151803","0.0-2.0-2.0-0.3","gu0j5pwg7ppmoz3","practice_no_cue","5de960efa71cf402386bfe40","5f60e3c0a3b16e07647b2ff9","5f60ee9d27229101b8be7107","false","null","<span style=""color: black; font-size: 48px"">N + M</span>","null","","","","resp_prompt","","","","","","","","","","","","","","","",""
"categorize-image","17","153836","0.0-2.0-2.0-1.3","gu0j5pwg7ppmoz3","practice_no_cue","5de960efa71cf402386bfe40","5f60e3c0a3b16e07647b2ff9","5f60ee9d27229101b8be7107","true","1530","./Stimuli/ImagesPractice/SM37.jpg","76","","","","test","true","N + M","76","","SM","SM37.jpg","remember","old","4","1","start","right","","","",""
"html-keyboard-response","18","154538","0.0-2.0-2.0-0.4","gu0j5pwg7ppmoz3","practice_no_cue","5de960efa71cf402386bfe40","5f60e3c0a3b16e07647b2ff9","5f60ee9d27229101b8be7107","false","null","<span style=""color: black; font-size: 48px"">M + N</span>","null","","","","resp_prompt","","","","","","","","","","","","","","","",""
"categorize-image","19","156095","0.0-2.0-2.0-1.4","gu0j5pwg7ppmoz3","practice_no_cue","5de960efa71cf402386bfe40","5f60e3c0a3b16e07647b2ff9","5f60ee9d27229101b8be7107","true","1052.999999999971","./Stimuli/ImagesPractice/LM230.jpg","83","","","","test","true","M + N","83","","LM","LM230.jpg","remember","old","5","1","start","left","","","",""
"html-keyboard-response","20","156797","0.0-2.0-2.0-0.5","gu0j5pwg7ppmoz3","practice_no_cue","5de960efa71cf402386bfe40","5f60e3c0a3b16e07647b2ff9","5f60ee9d27229101b8be7107","false","null","<span style=""color: black; font-size: 48px"">M + N</span>","null","","","","resp_prompt","","","","","","","","","","","","","","","",""
"categorize-image","21","157934","0.0-2.0-2.0-1.5","gu0j5pwg7ppmoz3","practice_no_cue","5de960efa71cf402386bfe40","5f60e3c0a3b16e07647b2ff9","5f60ee9d27229101b8be7107","true","634.0000000000291","./Stimuli/ImagesPractice/SN221.jpg","76","","","","test","true","M + N","76","","SN","SN221.jpg","forget","old","6","1","start","right","","","",""
"html-keyboard-response","22","158637","0.0-2.0-2.0-0.6","gu0j5pwg7ppmoz3","practice_no_cue","5de960efa71cf402386bfe40","5f60e3c0a3b16e07647b2ff9","5f60ee9d27229101b8be7107","false","null","<span style=""color: black; font-size: 48px"">N + M</span>","null","","","","resp_prompt","","","","","","","","","","","","","","","",""
"categorize-image","23","160314","0.0-2.0-2.0-1.6","gu0j5pwg7ppmoz3","practice_no_cue","5de960efa71cf402386bfe40","5f60e3c0a3b16e07647b2ff9","5f60ee9d27229101b8be7107","true","1176.000000000029","./Stimuli/ImagesPractice/SM61.jpg","83","","","","test","false","N + M","76","","SM","SM61.jpg","forget","old","7","1","start","left","","","",""
"html-keyboard-response","24","161017","0.0-2.0-2.0-0.7","gu0j5pwg7ppmoz3","practice_no_cue","5de960efa71cf402386bfe40","5f60e3c0a3b16e07647b2ff9","5f60ee9d27229101b8be7107","false","null","<span style=""color: black; font-size: 48px"">N + M</span>","null","","","","resp_prompt","","","","","","","","","","","","","","","",""
"categorize-image","25","162568","0.0-2.0-2.0-1.7","gu0j5pwg7ppmoz3","practice_no_cue","5de960efa71cf402386bfe40","5f60e3c0a3b16e07647b2ff9","5f60ee9d27229101b8be7107","true","1049","./Stimuli/ImagesPractice/SM35.jpg","83","","","","test","false","N + M","76","","SM","SM35.jpg","remember","old","8","1","start","left","","","",""
"html-keyboard-response","26","163271","0.0-2.0-2.0-0.8","gu0j5pwg7ppmoz3","practice_no_cue","5de960efa71cf402386bfe40","5f60e3c0a3b16e07647b2ff9","5f60ee9d27229101b8be7107","false","null","<span style=""color: black; font-size: 48px"">M + N</span>","null","","","","resp_prompt","","","","","","","","","","","","","","","",""
"categorize-image","27","164684","0.0-2.0-2.0-1.8","gu0j5pwg7ppmoz3","practice_no_cue","5de960efa71cf402386bfe40","5f60e3c0a3b16e07647b2ff9","5f60ee9d27229101b8be7107","true","911","./Stimuli/ImagesPractice/SM98.jpg","83","","","","test","true","M + N","83","","SM","SM98.jpg","forget","old","9","1","start","left","","","",""
"html-keyboard-response","28","165386","0.0-2.0-2.0-0.9","gu0j5pwg7ppmoz3","practice_no_cue","5de960efa71cf402386bfe40","5f60e3c0a3b16e07647b2ff9","5f60ee9d27229101b8be7107","false","null","<span style=""color: black; font-size: 48px"">M + N</span>","null","","","","resp_prompt","","","","","","","","","","","","","","","",""
"categorize-image","29","167086","0.0-2.0-2.0-1.9","gu0j5pwg7ppmoz3","practice_no_cue","5de960efa71cf402386bfe40","5f60e3c0a3b16e07647b2ff9","5f60ee9d27229101b8be7107","true","1197","./Stimuli/ImagesPractice/LM147.jpg","83","","","","test","true","M + N","83","","LM","LM147.jpg","forget","old","10","1","start","left","","","",""
"html-keyboard-response","30","167788","0.0-2.0-2.0-0.10","gu0j5pwg7ppmoz3","practice_no_cue","5de960efa71cf402386bfe40","5f60e3c0a3b16e07647b2ff9","5f60ee9d27229101b8be7107","false","null","<span style=""color: black; font-size: 48px"">N + M</span>","null","","","","resp_prompt","","","","","","","","","","","","","","","",""
"categorize-image","31","169189","0.0-2.0-2.0-1.10","gu0j5pwg7ppmoz3","practice_no_cue","5de960efa71cf402386bfe40","5f60e3c0a3b16e07647b2ff9","5f60ee9d27229101b8be7107","true","898","./Stimuli/ImagesPractice/LN109.jpg","83","","","","test","true","N + M","83","","LN","LN109.jpg","remember","old","11","1","start","left","","","",""
"html-keyboard-response","32","169891","0.0-2.0-2.0-0.11","gu0j5pwg7ppmoz3","practice_no_cue","5de960efa71cf402386bfe40","5f60e3c0a3b16e07647b2ff9","5f60ee9d27229101b8be7107","false","null","<span style=""color: black; font-size: 48px"">M + N</span>","null","","","","resp_prompt","","","","","","","","","","","","","","","",""
"categorize-image","33","171528","0.0-2.0-2.0-1.11","gu0j5pwg7ppmoz3","practice_no_cue","5de960efa71cf402386bfe40","5f60e3c0a3b16e07647b2ff9","5f60ee9d27229101b8be7107","true","1134","./Stimuli/ImagesPractice/SM97.jpg","83","","","","test","true","M + N","83","","SM","SM97.jpg","remember","old","12","1","start","left","","","",""
"html-keyboard-response","34","172234","0.0-2.0-2.0-0.12","gu0j5pwg7ppmoz3","practice_no_cue","5de960efa71cf402386bfe40","5f60e3c0a3b16e07647b2ff9","5f60ee9d27229101b8be7107","false","null","<span style=""color: black; font-size: 48px"">M + N</span>","null","","","","resp_prompt","","","","","","","","","","","","","","","",""
"categorize-image","35","173490","0.0-2.0-2.0-1.12","gu0j5pwg7ppmoz3","practice_no_cue","5de960efa71cf402386bfe40","5f60e3c0a3b16e07647b2ff9","5f60ee9d27229101b8be7107","true","753","./Stimuli/ImagesPractice/LM143.jpg","83","","","","test","true","M + N","83","","LM","LM143.jpg","remember","old","13","1","start","left","","","",""
"html-keyboard-response","36","174192","0.0-2.0-2.0-0.13","gu0j5pwg7ppmoz3","practice_no_cue","5de960efa71cf402386bfe40","5f60e3c0a3b16e07647b2ff9","5f60ee9d27229101b8be7107","false","null","<span style=""color: black; font-size: 48px"">N + M</span>","null","","","","resp_prompt","","","","","","","","","","","","","","","",""
"categorize-image","37","176438","0.0-2.0-2.0-1.13","gu0j5pwg7ppmoz3","practice_no_cue","5de960efa71cf402386bfe40","5f60e3c0a3b16e07647b2ff9","5f60ee9d27229101b8be7107","true","1744","./Stimuli/ImagesPractice/SM62.jpg","76","","","","test","true","N + M","76","","SM","SM62.jpg","remember","old","14","1","start","right","","","",""
"html-keyboard-response","38","177140","0.0-2.0-2.0-0.14","gu0j5pwg7ppmoz3","practice_no_cue","5de960efa71cf402386bfe40","5f60e3c0a3b16e07647b2ff9","5f60ee9d27229101b8be7107","false","null","<span style=""color: black; font-size: 48px"">M + N</span>","null","","","","resp_prompt","","","","","","","","","","","","","","","",""
"categorize-image","39","178544","0.0-2.0-2.0-1.14","gu0j5pwg7ppmoz3","practice_no_cue","5de960efa71cf402386bfe40","5f60e3c0a3b16e07647b2ff9","5f60ee9d27229101b8be7107","true","901","./Stimuli/ImagesPractice/LM55.jpg","83","","","","test","true","M + N","83","","LM","LM55.jpg","remember","old","15","1","start","left","","","",""
"html-keyboard-response","40","179246","0.0-2.0-2.0-0.15","gu0j5pwg7ppmoz3","practice_no_cue","5de960efa71cf402386bfe40","5f60e3c0a3b16e07647b2ff9","5f60ee9d27229101b8be7107","false","null","<span style=""color: black; font-size: 48px"">N + M</span>","null","","","","resp_prompt","","","","","","","","","","","","","","","",""
"categorize-image","41","180530","0.0-2.0-2.0-1.15","gu0j5pwg7ppmoz3","practice_no_cue","5de960efa71cf402386bfe40","5f60e3c0a3b16e07647b2ff9","5f60ee9d27229101b8be7107","true","780.9999999999709","./Stimuli/ImagesPractice/SN222.jpg","83","","","","test","true","N + M","83","","SN","SN222.jpg","forget","old","16","1","start","left","","","",""
"html-keyboard-response","42","185773","0.0-2.0-3.0","gu0j5pwg7ppmoz3","break","5de960efa71cf402386bfe40","5f60e3c0a3b16e07647b2ff9","5f60ee9d27229101b8be7107","false","5240","<p style='font-size: 32px;'>Break</><br><br><br><br><br><p style='font-size: 24px;'>In the last block, you committed 2 errors and did not respond in time on 3 trials.
</p><p style='font-size: 24px;'>Try to respond as fast and accurately as possible in the next block as well! </p><p style='font-size: 24px;'>Press SPACE to continue.</p>","32","","","","","","","","","","","","","","","","","","","",""
"html-keyboard-response","43","189106","0.0-2.0-4.0","gu0j5pwg7ppmoz3","instructions","5de960efa71cf402386bfe40","5f60e3c0a3b16e07647b2ff9","5f60ee9d27229101b8be7107","false","3332","<div align=left> Great!<br><br>Are you ready to continue?<br><br>If you want to reread the instructions and redo the practice trials, <br>please press „Z“. <br><br>Press SPACE to CONTINUE with the experiment when you are ready. </div>","32","","","","","","","","","","","","","","","","","","","",""
"html-keyboard-response","44","216722","0.0-3.0-0.0","gu0j5pwg7ppmoz3","instructions","5de960efa71cf402386bfe40","5f60e3c0a3b16e07647b2ff9","5f60ee9d27229101b8be7107","false","27613","<div align=left>Great!<br> <strong>Attention</strong>! You will now receive a second, additional task! <br><br>To this point it was you <strong>first task</strong> to correctly <strong>classify objects</strong>. <br><br>As mentioned in the beginning, we aim to examine how well humans can remember previously learned information.<br>We would like to find out whether our memory improves if we only remember information that is relevant to us. <br><br>Therefore, your <strong>second task</strong> will be to <strong>remember</strong> the pictures you are to categorize. <br> After the learning phase, there will be a memory test phase, in which you will be asked to indicate whether you have seen a picture before or not. <br>Some, but not all pictures shown in the learning phase will appear in the memory test phase.<br>After classifying a picture, you will be told whether you should remember it for the memory test phase or not. <br>Thus, some pictures can be forgotten, whereas others have to be remembered. <br><br>Note: From now on, feedback will only be displayed if you responded incorrectly or not in time.<br><br>Press SPACE to continue.</div>","32","","","","","","","","","","","","","","","","","","","",""
"html-keyboard-response","45","225390","0.0-3.0-1.0","gu0j5pwg7ppmoz3","instructions","5de960efa71cf402386bfe40","5f60e3c0a3b16e07647b2ff9","5f60ee9d27229101b8be7107","false","8666","<div align=left>In the following part, you will thus have to remember only some pictures. <br>Immediately after seeing and classifying the picture, a symbol will be displayed, indicating whether you should remember or forget the previous picture. <br><br>A <span style='color: dodgerblue; font-size: 28px'>O</span> indicates REMEMBER. That means, you have to remember this picture, because it will be tested later. <br><br>A <span style='color: darkorange; font-size:28px'>Ø</span> indicates FORGET. You do not have to remember this picture. <br><br> As you will have to remember a lot of pictures, it will be hard for you to remember all of them. <br>It will put you at an advantage if you instantly forget the pictures you are not asked to remember. <br> This will make it easier for you to remember the pictures that will be tested afterwards. <br><br>Press SPACE to continue.</div>","32","","","","","","","","","","","","","","","","","","","",""
"html-keyboard-response","46","230092","0.0-3.0-2.0","gu0j5pwg7ppmoz3","instructions","5de960efa71cf402386bfe40","5f60e3c0a3b16e07647b2ff9","5f60ee9d27229101b8be7107","false","4700.999999999971","<div align=left> Now you have the chance to practice both tasks together.<br><br>Remember: <br> <br><li>Please place your index fingers on the <strong>'S'</strong> and <strong>'L'</strong> keys <br>to respond as fast and accurately as possible.</li><li>Every picture can be classified as either mechanical or non-mechanical.</li><li>If you do not respond in time or commit an error, you will receive a corresponding feedback. <br>Please try to respond as <strong> fast </strong> and as <strong> accurately as possible </strong>.</li><li> Please remember only the to-be-remembered <span style='color: dodgerblue; font-size: 28px'>O</span> pictures. <br></li><li> Please minimize distractions and stay focused. </li><br><br>Press SPACE to START</div>","32","","","","","","","","","","","","","","","","","","","",""
"html-keyboard-response","47","230795","0.0-3.0-3.0-0.0","gu0j5pwg7ppmoz3","practice_cue","5de960efa71cf402386bfe40","5f60e3c0a3b16e07647b2ff9","5f60ee9d27229101b8be7107","false","null","<span style=""color: black; font-size: 48px"">M + N</span>","null","","","","resp_prompt","","","","","","","","","","","","","","","",""
"categorize-image","48","231490","0.0-3.0-3.0-1.0","gu0j5pwg7ppmoz3","practice_cue","5de960efa71cf402386bfe40","5f60e3c0a3b16e07647b2ff9","5f60ee9d27229101b8be7107","true","689.9999999999709","./Stimuli/ImagesPractice/SM98.jpg","83","","","","test","true","M + N","83","","SM","SM98.jpg","forget","old","17","2","practice_forget","left","","","",""
"html-keyboard-response","49","233493","0.0-3.0-3.0-3.0","gu0j5pwg7ppmoz3","practice_cue","5de960efa71cf402386bfe40","5f60e3c0a3b16e07647b2ff9","5f60ee9d27229101b8be7107","false","null","<div style=""align-items: center; display: flex; color: darkorange; font-size: 90px""><b>ø</b></div>","null","","","","forget_cue","","","","","","","","","","","","","","","",""
"html-keyboard-response","50","234195","0.0-3.0-3.0-0.1","gu0j5pwg7ppmoz3","practice_cue","5de960efa71cf402386bfe40","5f60e3c0a3b16e07647b2ff9","5f60ee9d27229101b8be7107","false","null","<span style=""color: black; font-size: 48px"">N + M</span>","null","","","","resp_prompt","","","","","","","","","","","","","","","",""
"categorize-image","51","235386","0.0-3.0-3.0-1.1","gu0j5pwg7ppmoz3","practice_cue","5de960efa71cf402386bfe40","5f60e3c0a3b16e07647b2ff9","5f60ee9d27229101b8be7107","true","1189.000000000029","./Stimuli/ImagesPractice/SM35.jpg","76","","","","test","true","N + M","76","","SM","SM35.jpg","remember","old","18","2","practice_forget","right","","","",""
"html-keyboard-response","52","237388","0.0-3.0-3.0-3.1","gu0j5pwg7ppmoz3","practice_cue","5de960efa71cf402386bfe40","5f60e3c0a3b16e07647b2ff9","5f60ee9d27229101b8be7107","false","null","<div style=""align-items: center; display: flex; color: dodgerblue; font-size: 90px""><b>o</b></div>","null","","","","forget_cue","","","","","","","","","","","","","","","",""
"html-keyboard-response","53","238090","0.0-3.0-3.0-0.2","gu0j5pwg7ppmoz3","practice_cue","5de960efa71cf402386bfe40","5f60e3c0a3b16e07647b2ff9","5f60ee9d27229101b8be7107","false","null","<span style=""color: black; font-size: 48px"">M + N</span>","null","","","","resp_prompt","","","","","","","","","","","","","","","",""
"categorize-image","54","238711","0.0-3.0-3.0-1.2","gu0j5pwg7ppmoz3","practice_cue","5de960efa71cf402386bfe40","5f60e3c0a3b16e07647b2ff9","5f60ee9d27229101b8be7107","true","619","./Stimuli/ImagesPractice/LM224.jpg","83","","","","test","true","M + N","83","","LM","LM224.jpg","forget","old","19","2","practice_forget","left","","","",""
"html-keyboard-response","55","240713","0.0-3.0-3.0-3.2","gu0j5pwg7ppmoz3","practice_cue","5de960efa71cf402386bfe40","5f60e3c0a3b16e07647b2ff9","5f60ee9d27229101b8be7107","false","null","<div style=""align-items: center; display: flex; color: darkorange; font-size: 90px""><b>ø</b></div>","null","","","","forget_cue","","","","","","","","","","","","","","","",""
"html-keyboard-response","56","241416","0.0-3.0-3.0-0.3","gu0j5pwg7ppmoz3","practice_cue","5de960efa71cf402386bfe40","5f60e3c0a3b16e07647b2ff9","5f60ee9d27229101b8be7107","false","null","<span style=""color: black; font-size: 48px"">N + M</span>","null","","","","resp_prompt","","","","","","","","","","","","","","","",""
"categorize-image","57","242032","0.0-3.0-3.0-1.3","gu0j5pwg7ppmoz3","practice_cue","5de960efa71cf402386bfe40","5f60e3c0a3b16e07647b2ff9","5f60ee9d27229101b8be7107","true","614","./Stimuli/ImagesPractice/LN109.jpg","83","","","","test","true","N + M","83","","LN","LN109.jpg","remember","old","20","2","practice_forget","left","","","",""
"html-keyboard-response","58","244034","0.0-3.0-3.0-3.3","gu0j5pwg7ppmoz3","practice_cue","5de960efa71cf402386bfe40","5f60e3c0a3b16e07647b2ff9","5f60ee9d27229101b8be7107","false","null","<div style=""align-items: center; display: flex; color: dodgerblue; font-size: 90px""><b>o</b></div>","null","","","","forget_cue","","","","","","","","","","","","","","","",""
"html-keyboard-response","59","244736","0.0-3.0-3.0-0.4","gu0j5pwg7ppmoz3","practice_cue","5de960efa71cf402386bfe40","5f60e3c0a3b16e07647b2ff9","5f60ee9d27229101b8be7107","false","null","<span style=""color: black; font-size: 48px"">N + M</span>","null","","","","resp_prompt","","","","","","","","","","","","","","","",""
"categorize-image","60","245385","0.0-3.0-3.0-1.4","gu0j5pwg7ppmoz3","practice_cue","5de960efa71cf402386bfe40","5f60e3c0a3b16e07647b2ff9","5f60ee9d27229101b8be7107","true","646.9999999999709","./Stimuli/ImagesPractice/SN222.jpg","83","","","","test","true","N + M","83","","SN","SN222.jpg","forget","old","21","2","practice_forget","left","","","",""
"html-keyboard-response","61","247387","0.0-3.0-3.0-3.4","gu0j5pwg7ppmoz3","practice_cue","5de960efa71cf402386bfe40","5f60e3c0a3b16e07647b2ff9","5f60ee9d27229101b8be7107","false","null","<div style=""align-items: center; display: flex; color: darkorange; font-size: 90px""><b>ø</b></div>","null","","","","forget_cue","","","","","","","","","","","","","","","",""
"html-keyboard-response","62","248089","0.0-3.0-3.0-0.5","gu0j5pwg7ppmoz3","practice_cue","5de960efa71cf402386bfe40","5f60e3c0a3b16e07647b2ff9","5f60ee9d27229101b8be7107","false","null","<span style=""color: black; font-size: 48px"">N + M</span>","null","","","","resp_prompt","","","","","","","","","","","","","","","",""
"categorize-image","63","248778","0.0-3.0-3.0-1.5","gu0j5pwg7ppmoz3","practice_cue","5de960efa71cf402386bfe40","5f60e3c0a3b16e07647b2ff9","5f60ee9d27229101b8be7107","true","687","./Stimuli/ImagesPractice/SN220.jpg","83","","","","test","true","N + M","83","","SN","SN220.jpg","forget","old","22","2","practice_forget","left","","","",""
"html-keyboard-response","64","250780","0.0-3.0-3.0-3.5","gu0j5pwg7ppmoz3","practice_cue","5de960efa71cf402386bfe40","5f60e3c0a3b16e07647b2ff9","5f60ee9d27229101b8be7107","false","null","<div style=""align-items: center; display: flex; color: darkorange; font-size: 90px""><b>ø</b></div>","null","","","","forget_cue","","","","","","","","","","","","","","","",""
"html-keyboard-response","65","251483","0.0-3.0-3.0-0.6","gu0j5pwg7ppmoz3","practice_cue","5de960efa71cf402386bfe40","5f60e3c0a3b16e07647b2ff9","5f60ee9d27229101b8be7107","false","null","<span style=""color: black; font-size: 48px"">M + N</span>","null","","","","resp_prompt","","","","","","","","","","","","","","","",""
"categorize-image","66","252167","0.0-3.0-3.0-1.6","gu0j5pwg7ppmoz3","practice_cue","5de960efa71cf402386bfe40","5f60e3c0a3b16e07647b2ff9","5f60ee9d27229101b8be7107","true","681","./Stimuli/ImagesPractice/LM55.jpg","83","","","","test","true","M + N","83","","LM","LM55.jpg","remember","old","23","2","practice_forget","left","","","",""
"html-keyboard-response","67","254169","0.0-3.0-3.0-3.6","gu0j5pwg7ppmoz3","practice_cue","5de960efa71cf402386bfe40","5f60e3c0a3b16e07647b2ff9","5f60ee9d27229101b8be7107","false","null","<div style=""align-items: center; display: flex; color: dodgerblue; font-size: 90px""><b>o</b></div>","null","","","","forget_cue","","","","","","","","","","","","","","","",""
"html-keyboard-response","68","254871","0.0-3.0-3.0-0.7","gu0j5pwg7ppmoz3","practice_cue","5de960efa71cf402386bfe40","5f60e3c0a3b16e07647b2ff9","5f60ee9d27229101b8be7107","false","null","<span style=""color: black; font-size: 48px"">M + N</span>","null","","","","resp_prompt","","","","","","","","","","","","","","","",""
"categorize-image","69","255570","0.0-3.0-3.0-1.7","gu0j5pwg7ppmoz3","practice_cue","5de960efa71cf402386bfe40","5f60e3c0a3b16e07647b2ff9","5f60ee9d27229101b8be7107","true","697","./Stimuli/ImagesPractice/LM147.jpg","83","","","","test","true","M + N","83","","LM","LM147.jpg","forget","old","24","2","practice_forget","left","","","",""
"html-keyboard-response","70","257571","0.0-3.0-3.0-3.7","gu0j5pwg7ppmoz3","practice_cue","5de960efa71cf402386bfe40","5f60e3c0a3b16e07647b2ff9","5f60ee9d27229101b8be7107","false","null","<div style=""align-items: center; display: flex; color: darkorange; font-size: 90px""><b>ø</b></div>","null","","","","forget_cue","","","","","","","","","","","","","","","",""
"html-keyboard-response","71","258274","0.0-3.0-3.0-0.8","gu0j5pwg7ppmoz3","practice_cue","5de960efa71cf402386bfe40","5f60e3c0a3b16e07647b2ff9","5f60ee9d27229101b8be7107","false","null","<span style=""color: black; font-size: 48px"">N + M</span>","null","","","","resp_prompt","","","","","","","","","","","","","","","",""
"categorize-image","72","259728","0.0-3.0-3.0-1.8","gu0j5pwg7ppmoz3","practice_cue","5de960efa71cf402386bfe40","5f60e3c0a3b16e07647b2ff9","5f60ee9d27229101b8be7107","true","1452","./Stimuli/ImagesPractice/SM61.jpg","83","","","","test","false","N + M","76","","SM","SM61.jpg","forget","old","25","2","practice_forget","left","","","",""
"html-keyboard-response","73","260230","0.0-3.0-3.0-2.8-0.8","gu0j5pwg7ppmoz3","practice_cue","5de960efa71cf402386bfe40","5f60e3c0a3b16e07647b2ff9","5f60ee9d27229101b8be7107","false","null","<span style=""color: red; font-size: 48px"">Error!</span>","null","","","","feedback","","","","","","","","","","","","","","","",""
"html-keyboard-response","74","262233","0.0-3.0-3.0-3.8","gu0j5pwg7ppmoz3","practice_cue","5de960efa71cf402386bfe40","5f60e3c0a3b16e07647b2ff9","5f60ee9d27229101b8be7107","false","null","<div style=""align-items: center; display: flex; color: darkorange; font-size: 90px""><b>ø</b></div>","null","","","","forget_cue","","","","","","","","","","","","","","","",""
"html-keyboard-response","75","262935","0.0-3.0-3.0-0.9","gu0j5pwg7ppmoz3","practice_cue","5de960efa71cf402386bfe40","5f60e3c0a3b16e07647b2ff9","5f60ee9d27229101b8be7107","false","null","<span style=""color: black; font-size: 48px"">N + M</span>","null","","","","resp_prompt","","","","","","","","","","","","","","","",""
"categorize-image","76","263587","0.0-3.0-3.0-1.9","gu0j5pwg7ppmoz3","practice_cue","5de960efa71cf402386bfe40","5f60e3c0a3b16e07647b2ff9","5f60ee9d27229101b8be7107","true","650","./Stimuli/ImagesPractice/SM62.jpg","76","","","","test","true","N + M","76","","SM","SM62.jpg","remember","old","26","2","practice_forget","right","","","",""
"html-keyboard-response","77","265589","0.0-3.0-3.0-3.9","gu0j5pwg7ppmoz3","practice_cue","5de960efa71cf402386bfe40","5f60e3c0a3b16e07647b2ff9","5f60ee9d27229101b8be7107","false","null","<div style=""align-items: center; display: flex; color: dodgerblue; font-size: 90px""><b>o</b></div>","null","","","","forget_cue","","","","","","","","","","","","","","","",""
"html-keyboard-response","78","266292","0.0-3.0-3.0-0.10","gu0j5pwg7ppmoz3","practice_cue","5de960efa71cf402386bfe40","5f60e3c0a3b16e07647b2ff9","5f60ee9d27229101b8be7107","false","null","<span style=""color: black; font-size: 48px"">N + M</span>","null","","","","resp_prompt","","","","","","","","","","","","","","","",""
"categorize-image","79","267609","0.0-3.0-3.0-1.10","gu0j5pwg7ppmoz3","practice_cue","5de960efa71cf402386bfe40","5f60e3c0a3b16e07647b2ff9","5f60ee9d27229101b8be7107","true","1314.9999999999418","./Stimuli/ImagesPractice/LN72.jpg","83","","","","test","true","N + M","83","","LN","LN72.jpg","forget","old","27","2","practice_forget","left","","","",""
"html-keyboard-response","80","269611","0.0-3.0-3.0-3.10","gu0j5pwg7ppmoz3","practice_cue","5de960efa71cf402386bfe40","5f60e3c0a3b16e07647b2ff9","5f60ee9d27229101b8be7107","false","null","<div style=""align-items: center; display: flex; color: darkorange; font-size: 90px""><b>ø</b></div>","null","","","","forget_cue","","","","","","","","","","","","","","","",""
"html-keyboard-response","81","270314","0.0-3.0-3.0-0.11","gu0j5pwg7ppmoz3","practice_cue","5de960efa71cf402386bfe40","5f60e3c0a3b16e07647b2ff9","5f60ee9d27229101b8be7107","false","null","<span style=""color: black; font-size: 48px"">M + N</span>","null","","","","resp_prompt","","","","","","","","","","","","","","","",""
"categorize-image","82","270970","0.0-3.0-3.0-1.11","gu0j5pwg7ppmoz3","practice_cue","5de960efa71cf402386bfe40","5f60e3c0a3b16e07647b2ff9","5f60ee9d27229101b8be7107","true","654","./Stimuli/ImagesPractice/SN221.jpg","76","","","","test","true","M + N","76","","SN","SN221.jpg","forget","old","28","2","practice_forget","right","","","",""
"html-keyboard-response","83","272973","0.0-3.0-3.0-3.11","gu0j5pwg7ppmoz3","practice_cue","5de960efa71cf402386bfe40","5f60e3c0a3b16e07647b2ff9","5f60ee9d27229101b8be7107","false","null","<div style=""align-items: center; display: flex; color: darkorange; font-size: 90px""><b>ø</b></div>","null","","","","forget_cue","","","","","","","","","","","","","","","",""
"html-keyboard-response","84","273675","0.0-3.0-3.0-0.12","gu0j5pwg7ppmoz3","practice_cue","5de960efa71cf402386bfe40","5f60e3c0a3b16e07647b2ff9","5f60ee9d27229101b8be7107","false","null","<span style=""color: black; font-size: 48px"">M + N</span>","null","","","","resp_prompt","","","","","","","","","","","","","","","",""
"categorize-image","85","274221","0.0-3.0-3.0-1.12","gu0j5pwg7ppmoz3","practice_cue","5de960efa71cf402386bfe40","5f60e3c0a3b16e07647b2ff9","5f60ee9d27229101b8be7107","true","544","./Stimuli/ImagesPractice/SM97.jpg","83","","","","test","true","M + N","83","","SM","SM97.jpg","remember","old","29","2","practice_forget","left","","","",""
"html-keyboard-response","86","276224","0.0-3.0-3.0-3.12","gu0j5pwg7ppmoz3","practice_cue","5de960efa71cf402386bfe40","5f60e3c0a3b16e07647b2ff9","5f60ee9d27229101b8be7107","false","null","<div style=""align-items: center; display: flex; color: dodgerblue; font-size: 90px""><b>o</b></div>","null","","","","forget_cue","","","","","","","","","","","","","","","",""
"html-keyboard-response","87","276926","0.0-3.0-3.0-0.13","gu0j5pwg7ppmoz3","practice_cue","5de960efa71cf402386bfe40","5f60e3c0a3b16e07647b2ff9","5f60ee9d27229101b8be7107","false","null","<span style=""color: black; font-size: 48px"">M + N</span>","null","","","","resp_prompt","","","","","","","","","","","","","","","",""
"categorize-image","88","277551","0.0-3.0-3.0-1.13","gu0j5pwg7ppmoz3","practice_cue","5de960efa71cf402386bfe40","5f60e3c0a3b16e07647b2ff9","5f60ee9d27229101b8be7107","true","622","./Stimuli/ImagesPractice/LM143.jpg","83","","","","test","true","M + N","83","","LM","LM143.jpg","remember","old","30","2","practice_forget","left","","","",""
"html-keyboard-response","89","279553","0.0-3.0-3.0-3.13","gu0j5pwg7ppmoz3","practice_cue","5de960efa71cf402386bfe40","5f60e3c0a3b16e07647b2ff9","5f60ee9d27229101b8be7107","false","null","<div style=""align-items: center; display: flex; color: dodgerblue; font-size: 90px""><b>o</b></div>","null","","","","forget_cue","","","","","","","","","","","","","","","",""
"html-keyboard-response","90","280255","0.0-3.0-3.0-0.14","gu0j5pwg7ppmoz3","practice_cue","5de960efa71cf402386bfe40","5f60e3c0a3b16e07647b2ff9","5f60ee9d27229101b8be7107","false","null","<span style=""color: black; font-size: 48px"">M + N</span>","null","","","","resp_prompt","","","","","","","","","","","","","","","",""
"categorize-image","91","280891","0.0-3.0-3.0-1.14","gu0j5pwg7ppmoz3","practice_cue","5de960efa71cf402386bfe40","5f60e3c0a3b16e07647b2ff9","5f60ee9d27229101b8be7107","true","632.9999999999418","./Stimuli/ImagesPractice/LM230.jpg","83","","","","test","true","M + N","83","","LM","LM230.jpg","remember","old","31","2","practice_forget","left","","","",""
"html-keyboard-response","92","282893","0.0-3.0-3.0-3.14","gu0j5pwg7ppmoz3","practice_cue","5de960efa71cf402386bfe40","5f60e3c0a3b16e07647b2ff9","5f60ee9d27229101b8be7107","false","null","<div style=""align-items: center; display: flex; color: dodgerblue; font-size: 90px""><b>o</b></div>","null","","","","forget_cue","","","","","","","","","","","","","","","",""
"html-keyboard-response","93","283597","0.0-3.0-3.0-0.15","gu0j5pwg7ppmoz3","practice_cue","5de960efa71cf402386bfe40","5f60e3c0a3b16e07647b2ff9","5f60ee9d27229101b8be7107","false","null","<span style=""color: black; font-size: 48px"">N + M</span>","null","","","","resp_prompt","","","","","","","","","","","","","","","",""
"categorize-image","94","284734","0.0-3.0-3.0-1.15","gu0j5pwg7ppmoz3","practice_cue","5de960efa71cf402386bfe40","5f60e3c0a3b16e07647b2ff9","5f60ee9d27229101b8be7107","true","1134","./Stimuli/ImagesPractice/SM37.jpg","83","","","","test","false","N + M","76","","SM","SM37.jpg","remember","old","32","2","practice_forget","left","","","",""
"html-keyboard-response","95","285236","0.0-3.0-3.0-2.15-0.15","gu0j5pwg7ppmoz3","practice_cue","5de960efa71cf402386bfe40","5f60e3c0a3b16e07647b2ff9","5f60ee9d27229101b8be7107","false","null","<span style=""color: red; font-size: 48px"">Error!</span>","null","","","","feedback","","","","","","","","","","","","","","","",""
"html-keyboard-response","96","287238","0.0-3.0-3.0-3.15","gu0j5pwg7ppmoz3","practice_cue","5de960efa71cf402386bfe40","5f60e3c0a3b16e07647b2ff9","5f60ee9d27229101b8be7107","false","null","<div style=""align-items: center; display: flex; color: dodgerblue; font-size: 90px""><b>o</b></div>","null","","","","forget_cue","","","","","","","","","","","","","","","",""
"html-keyboard-response","97","289683","0.0-3.0-4.0","gu0j5pwg7ppmoz3","break","5de960efa71cf402386bfe40","5f60e3c0a3b16e07647b2ff9","5f60ee9d27229101b8be7107","false","2442.999999999942","<p style='font-size: 32px;'>Break</><br><br><br><br><br><p style='font-size: 24px;'>In the last block, you committed 2 errors and did not respond in time on 0 trials.
</p><p style='font-size: 24px;'>Try to respond as fast and accurately as possible in the next block as well! </p><p style='font-size: 24px;'>Press SPACE to continue.</p>","32","","","","","","","","","","","","","","","","","","","",""
"html-keyboard-response","98","290701","0.0-3.0-5.0","gu0j5pwg7ppmoz3","instructions","5de960efa71cf402386bfe40","5f60e3c0a3b16e07647b2ff9","5f60ee9d27229101b8be7107","false","1017","<div align=left> Now, to practice, we kindly ask you to remember as many of the to-be-remembered pictures<br>of the previous learning phase as possible.<br><br>The pictures you were instructed to remember were the pictures followed by a <span style='color: dodgerblue; font-size: 28px'>O</span>.<br><br>In this memory test phase, you will also see some new pictures.<br>It is your task to remember whether you were presented with this specific picture in this study so far or not.<br>If you recognize an object (you have already seen it in this study), it is an OLD object. <br>If you do not recognize an object (you have NOT seen it in this study), it is a NEW object. <br><strong> Attention</strong>: As already mentioned, <span style='color: darkorange; font-size:28px'>Ø</span>-pictures will <strong>never</strong> appear in this memory test (neither as new objects). <br><br>Press SPACE to continue. </div>","32","","","","","","","","","","","","","","","","","","","",""
"html-keyboard-response","99","326111","0.0-3.0-6.0","gu0j5pwg7ppmoz3","instructions","5de960efa71cf402386bfe40","5f60e3c0a3b16e07647b2ff9","5f60ee9d27229101b8be7107","false","35408","<div align=left> M and N no longer will appear on the left/right of the fixation cross. <br>Instead there will be a note at the bottom of the left or right side  <br>indicating which key you should press for an old or new object:  <br> <br>Press the <strong>right</strong> key to classify an object as <strong>old</strong> and press the <strong>left</strong>, to classify an object as <strong>new</strong>.<br>Please classify the objects as new/old by again placing your index finger on the 'S' and 'L' keys <br>and press them accordingly.<br><br><strong>Old:</strong> This object has been presented before. <br><strong>New:</strong> This object has <strong>not</strong> been presented.<br><br>Now please put your right and left index fingers on the 'S' and 'L' keys of your keyboard. <br>Please respond as fast and as accurately as possible!<br><br>Press SPACE to continue. </div>","32","","","","","","","","","","","","","","","","","","","",""
"categorize-image","100","328496","0.0-3.0-7.0-0.0","gu0j5pwg7ppmoz3","practice_recog","5de960efa71cf402386bfe40","5f60e3c0a3b16e07647b2ff9","5f60ee9d27229101b8be7107","true","1881","./Stimuli/ImagesPractice/SM97.jpg","76","","","","test","true","","76","","SM","SM97.jpg","","old","33","3","practice_recog","right","","","",""
"categorize-image","101","329828","0.0-3.0-7.0-0.1","gu0j5pwg7ppmoz3","practice_recog","5de960efa71cf402386bfe40","5f60e3c0a3b16e07647b2ff9","5f60ee9d27229101b8be7107","true","828","./Stimuli/ImagesPractice/SM37.jpg","76","","","","test","true","","76","","SM","SM37.jpg","","old","34","3","practice_recog","right","","","",""
"categorize-image","102","331127","0.0-3.0-7.0-0.2","gu0j5pwg7ppmoz3","practice_recog","5de960efa71cf402386bfe40","5f60e3c0a3b16e07647b2ff9","5f60ee9d27229101b8be7107","true","795","./Stimuli/ImagesPractice/LN2.jpg","83","","","","test","true","","83","","LN","LN2.jpg","","new","35","3","practice_recog","left","","","",""
"categorize-image","103","332246","0.0-3.0-7.0-0.3","gu0j5pwg7ppmoz3","practice_recog","5de960efa71cf402386bfe40","5f60e3c0a3b16e07647b2ff9","5f60ee9d27229101b8be7107","true","617","./Stimuli/ImagesPractice/LN15.jpg","83","","","","test","true","","83","","LN","LN15.jpg","","new","36","3","practice_recog","left","","","",""
"categorize-image","104","333434","0.0-3.0-7.0-0.4","gu0j5pwg7ppmoz3","practice_recog","5de960efa71cf402386bfe40","5f60e3c0a3b16e07647b2ff9","5f60ee9d27229101b8be7107","true","685","./Stimuli/ImagesPractice/SM62.jpg","76","","","","test","true","","76","","SM","SM62.jpg","","old","37","3","practice_recog","right","","","",""
"categorize-image","105","334611","0.0-3.0-7.0-0.5","gu0j5pwg7ppmoz3","practice_recog","5de960efa71cf402386bfe40","5f60e3c0a3b16e07647b2ff9","5f60ee9d27229101b8be7107","true","675","./Stimuli/ImagesPractice/SN205.jpg","83","","","","test","true","","83","","SN","SN205.jpg","","new","38","3","practice_recog","left","","","",""
"categorize-image","106","336057","0.0-3.0-7.0-0.6","gu0j5pwg7ppmoz3","practice_recog","5de960efa71cf402386bfe40","5f60e3c0a3b16e07647b2ff9","5f60ee9d27229101b8be7107","true","943","./Stimuli/ImagesPractice/LM230.jpg","76","","","","test","true","","76","","LM","LM230.jpg","","old","39","3","practice_recog","right","","","",""
"categorize-image","107","337285","0.0-3.0-7.0-0.7","gu0j5pwg7ppmoz3","practice_recog","5de960efa71cf402386bfe40","5f60e3c0a3b16e07647b2ff9","5f60ee9d27229101b8be7107","true","725","./Stimuli/ImagesPractice/LN109.jpg","76","","","","test","true","","76","","LN","LN109.jpg","","old","40","3","practice_recog","right","","","",""
"categorize-image","108","338314","0.0-3.0-7.0-0.8","gu0j5pwg7ppmoz3","practice_recog","5de960efa71cf402386bfe40","5f60e3c0a3b16e07647b2ff9","5f60ee9d27229101b8be7107","true","523","./Stimuli/ImagesPractice/SN75.jpg","83","","","","test","true","","83","","SN","SN75.jpg","","new","41","3","practice_recog","left","","","",""
"categorize-image","109","339431","0.0-3.0-7.0-0.9","gu0j5pwg7ppmoz3","practice_recog","5de960efa71cf402386bfe40","5f60e3c0a3b16e07647b2ff9","5f60ee9d27229101b8be7107","true","613","./Stimuli/ImagesPractice/LM143.jpg","76","","","","test","true","","76","","LM","LM143.jpg","","old","42","3","practice_recog","right","","","",""
"categorize-image","110","340681","0.0-3.0-7.0-0.10","gu0j5pwg7ppmoz3","practice_recog","5de960efa71cf402386bfe40","5f60e3c0a3b16e07647b2ff9","5f60ee9d27229101b8be7107","true","747","./Stimuli/ImagesPractice/LM239.jpg","83","","","","test","true","","83","","LM","LM239.jpg","","new","43","3","practice_recog","left","","","",""
"categorize-image","111","341849","0.0-3.0-7.0-0.11","gu0j5pwg7ppmoz3","practice_recog","5de960efa71cf402386bfe40","5f60e3c0a3b16e07647b2ff9","5f60ee9d27229101b8be7107","true","665","./Stimuli/ImagesPractice/LN4.jpg","83","","","","test","true","","83","","LN","LN4.jpg","","new","44","3","practice_recog","left","","","",""
"categorize-image","112","342914","0.0-3.0-7.0-0.12","gu0j5pwg7ppmoz3","practice_recog","5de960efa71cf402386bfe40","5f60e3c0a3b16e07647b2ff9","5f60ee9d27229101b8be7107","true","563.0000000000582","./Stimuli/ImagesPractice/LN17.jpg","83","","","","test","true","","83","","LN","LN17.jpg","","new","45","3","practice_recog","left","","","",""
"categorize-image","113","344295","0.0-3.0-7.0-0.13","gu0j5pwg7ppmoz3","practice_recog","5de960efa71cf402386bfe40","5f60e3c0a3b16e07647b2ff9","5f60ee9d27229101b8be7107","true","877.0000000000582","./Stimuli/ImagesPractice/SM35.jpg","76","","","","test","true","","76","","SM","SM35.jpg","","old","46","3","practice_recog","right","","","",""
"categorize-image","114","345434","0.0-3.0-7.0-0.14","gu0j5pwg7ppmoz3","practice_recog","5de960efa71cf402386bfe40","5f60e3c0a3b16e07647b2ff9","5f60ee9d27229101b8be7107","true","636","./Stimuli/ImagesPractice/SN76.jpg","83","","","","test","true","","83","","SN","SN76.jpg","","new","47","3","practice_recog","left","","","",""
"categorize-image","115","346715","0.0-3.0-7.0-0.15","gu0j5pwg7ppmoz3","practice_recog","5de960efa71cf402386bfe40","5f60e3c0a3b16e07647b2ff9","5f60ee9d27229101b8be7107","true","779","./Stimuli/ImagesPractice/LM55.jpg","76","","","","test","true","","76","","LM","LM55.jpg","","old","48","3","practice_recog","right","","","",""
"html-keyboard-response","116","351010","0.0-3.0-8.0","gu0j5pwg7ppmoz3","instructions","5de960efa71cf402386bfe40","5f60e3c0a3b16e07647b2ff9","5f60ee9d27229101b8be7107","false","4293","<div align=left> Great!<br><br>Are you ready to continue?<br>If you want to reread the instructions and redo the practice trials, please <br>press „Z“.<br><br>You can proceed when you are ready.<br><br>After the presentation of each object, you will receive an instruction whether to <br>remember or to forget the object.<br>We will test your memory of the following pictures only at the very end of <br>the experiment after all learning blocks are completed. <br><br>Press SPACE to CONTINUE when you are ready. </div>","32","","","","","","","","","","","","","","","","","","","",""
"html-keyboard-response","117","358118","0.0-4.0-0.0","gu0j5pwg7ppmoz3","instructions","5de960efa71cf402386bfe40","5f60e3c0a3b16e07647b2ff9","5f60ee9d27229101b8be7107","false","7106","<div align=left> The actual experiment is about to start.<br>The practice trials are over!<br><br>Please always respond both fast and accurately!<br><br>Remember: <br> <br><li> Please place your index fingers on the <strong>'S'</strong> and <strong>'L'</strong> keys <br>to respond as fast and accurately as possible.</li><li> Every picture can be classified as either mechanical or non-mechanical.</li><li> If you do not respond in time or commit an error, you will receive a corresponding feedback.<br> Please try to respond as <strong> fast </strong> and as <strong> accurately as possible </strong>.</li><li> Remember the <span style='color: dodgerblue; font-size: 28px'>O</span> pictures. <br></li><li> Please minimize distractions and stay focused. </li><br><br>Press SPACE to START.</div>","32","","","","","","","","","","","","","","","","","","","",""
"html-keyboard-response","118","358821","0.0-4.0-1.0-0.0","gu0j5pwg7ppmoz3","prime","5de960efa71cf402386bfe40","5f60e3c0a3b16e07647b2ff9","5f60ee9d27229101b8be7107","false","null","<span style=""color: black; font-size: 48px"">N + M</span>","null","","","","resp_prompt","","","","","","","","","","","","","","","",""
"categorize-image","119","360185","0.0-4.0-1.0-1.0","gu0j5pwg7ppmoz3","prime","5de960efa71cf402386bfe40","5f60e3c0a3b16e07647b2ff9","5f60ee9d27229101b8be7107","true","1361","./Stimuli/SelectedImages/SM/SM200.bmp","83","","","","test","false","N + M","76","switch","SM","SM200.bmp","forget","","49","3","prime1","left","","","",""
"html-keyboard-response","120","360687","0.0-4.0-1.0-2.0-0.0","gu0j5pwg7ppmoz3","prime","5de960efa71cf402386bfe40","5f60e3c0a3b16e07647b2ff9","5f60ee9d27229101b8be7107","false","null","<span style=""color: red; font-size: 48px"">Error!</span>","null","","","","feedback","","","","","","","","","","","","","","","",""
"html-keyboard-response","121","362689","0.0-4.0-1.0-3.0","gu0j5pwg7ppmoz3","prime","5de960efa71cf402386bfe40","5f60e3c0a3b16e07647b2ff9","5f60ee9d27229101b8be7107","false","null","<div style=""align-items: center; display: flex; color: darkorange; font-size: 90px""><b>ø</b></div>","null","","","","forget_cue","","","","","","","","","","","","","","","",""
"html-keyboard-response","122","363390","0.0-4.0-1.0-0.1","gu0j5pwg7ppmoz3","prime","5de960efa71cf402386bfe40","5f60e3c0a3b16e07647b2ff9","5f60ee9d27229101b8be7107","false","null","<span style=""color: black; font-size: 48px"">N + M</span>","null","","","","resp_prompt","","","","","","","","","","","","","","","",""
"categorize-image","123","364217","0.0-4.0-1.0-1.1","gu0j5pwg7ppmoz3","prime","5de960efa71cf402386bfe40","5f60e3c0a3b16e07647b2ff9","5f60ee9d27229101b8be7107","true","824.0000000000582","./Stimuli/SelectedImages/LN/LN92.bmp","83","","","","test","true","N + M","83","switch","LN","LN92.bmp","remember","","50","3","prime1","left","","","",""
"html-keyboard-response","124","366221","0.0-4.0-1.0-3.1","gu0j5pwg7ppmoz3","prime","5de960efa71cf402386bfe40","5f60e3c0a3b16e07647b2ff9","5f60ee9d27229101b8be7107","false","null","<div style=""align-items: center; display: flex; color: dodgerblue; font-size: 90px""><b>o</b></div>","null","","","","forget_cue","","","","","","","","","","","","","","","",""
"html-keyboard-response","125","366923","0.0-4.0-1.0-0.2","gu0j5pwg7ppmoz3","prime","5de960efa71cf402386bfe40","5f60e3c0a3b16e07647b2ff9","5f60ee9d27229101b8be7107","false","null","<span style=""color: black; font-size: 48px"">M + N</span>","null","","","","resp_prompt","","","","","","","","","","","","","","","",""
"categorize-image","126","367476","0.0-4.0-1.0-1.2","gu0j5pwg7ppmoz3","prime","5de960efa71cf402386bfe40","5f60e3c0a3b16e07647b2ff9","5f60ee9d27229101b8be7107","true","548.9999999999418","./Stimuli/SelectedImages/SM/SM76.bmp","83","","","","test","true","M + N","83","repetition","SM","SM76.bmp","forget","","51","3","prime1","left","","","",""
"html-keyboard-response","127","369478","0.0-4.0-1.0-3.2","gu0j5pwg7ppmoz3","prime","5de960efa71cf402386bfe40","5f60e3c0a3b16e07647b2ff9","5f60ee9d27229101b8be7107","false","null","<div style=""align-items: center; display: flex; color: darkorange; font-size: 90px""><b>ø</b></div>","null","","","","forget_cue","","","","","","","","","","","","","","","",""
"html-keyboard-response","128","370180","0.0-4.0-1.0-0.3","gu0j5pwg7ppmoz3","prime","5de960efa71cf402386bfe40","5f60e3c0a3b16e07647b2ff9","5f60ee9d27229101b8be7107","false","null","<span style=""color: black; font-size: 48px"">N + M</span>","null","","","","resp_prompt","","","","","","","","","","","","","","","",""
"categorize-image","129","371036","0.0-4.0-1.0-1.3","gu0j5pwg7ppmoz3","prime","5de960efa71cf402386bfe40","5f60e3c0a3b16e07647b2ff9","5f60ee9d27229101b8be7107","true","852","./Stimuli/SelectedImages/LM/LM48.bmp","76","","","","test","true","N + M","76","switch","LM","LM48.bmp","remember","","52","3","prime1","right","","","",""
"html-keyboard-response","130","373038","0.0-4.0-1.0-3.3","gu0j5pwg7ppmoz3","prime","5de960efa71cf402386bfe40","5f60e3c0a3b16e07647b2ff9","5f60ee9d27229101b8be7107","false","null","<div style=""align-items: center; display: flex; color: dodgerblue; font-size: 90px""><b>o</b></div>","null","","","","forget_cue","","","","","","","","","","","","","","","",""
"html-keyboard-response","131","373740","0.0-4.0-1.0-0.4","gu0j5pwg7ppmoz3","prime","5de960efa71cf402386bfe40","5f60e3c0a3b16e07647b2ff9","5f60ee9d27229101b8be7107","false","null","<span style=""color: black; font-size: 48px"">M + N</span>","null","","","","resp_prompt","","","","","","","","","","","","","","","",""
"categorize-image","132","374293","0.0-4.0-1.0-1.4","gu0j5pwg7ppmoz3","prime","5de960efa71cf402386bfe40","5f60e3c0a3b16e07647b2ff9","5f60ee9d27229101b8be7107","true","550","./Stimuli/SelectedImages/SM/SM78.bmp","83","","","","test","true","M + N","83","repetition","SM","SM78.bmp","remember","","53","3","prime1","left","","","",""
"html-keyboard-response","133","376295","0.0-4.0-1.0-3.4","gu0j5pwg7ppmoz3","prime","5de960efa71cf402386bfe40","5f60e3c0a3b16e07647b2ff9","5f60ee9d27229101b8be7107","false","null","<div style=""align-items: center; display: flex; color: dodgerblue; font-size: 90px""><b>o</b></div>","null","","","","forget_cue","","","","","","","","","","","","","","","",""
"html-keyboard-response","134","376997","0.0-4.0-1.0-0.5","gu0j5pwg7ppmoz3","prime","5de960efa71cf402386bfe40","5f60e3c0a3b16e07647b2ff9","5f60ee9d27229101b8be7107","false","null","<span style=""color: black; font-size: 48px"">M + N</span>","null","","","","resp_prompt","","","","","","","","","","","","","","","",""
"categorize-image","135","377608","0.0-4.0-1.0-1.5","gu0j5pwg7ppmoz3","prime","5de960efa71cf402386bfe40","5f60e3c0a3b16e07647b2ff9","5f60ee9d27229101b8be7107","true","609","./Stimuli/SelectedImages/LM/LM51.bmp","83","","","","test","true","M + N","83","switch","LM","LM51.bmp","forget","","54","3","prime1","left","","","",""
"html-keyboard-response","136","379611","0.0-4.0-1.0-3.5","gu0j5pwg7ppmoz3","prime","5de960efa71cf402386bfe40","5f60e3c0a3b16e07647b2ff9","5f60ee9d27229101b8be7107","false","null","<div style=""align-items: center; display: flex; color: darkorange; font-size: 90px""><b>ø</b></div>","null","","","","forget_cue","","","","","","","","","","","","","","","",""
"html-keyboard-response","137","380313","0.0-4.0-1.0-0.6","gu0j5pwg7ppmoz3","prime","5de960efa71cf402386bfe40","5f60e3c0a3b16e07647b2ff9","5f60ee9d27229101b8be7107","false","null","<span style=""color: black; font-size: 48px"">M + N</span>","null","","","","resp_prompt","","","","","","","","","","","","","","","",""
"categorize-image","138","381124","0.0-4.0-1.0-1.6","gu0j5pwg7ppmoz3","prime","5de960efa71cf402386bfe40","5f60e3c0a3b16e07647b2ff9","5f60ee9d27229101b8be7107","true","809","./Stimuli/SelectedImages/SM/SM213.bmp","83","","","","test","true","M + N","83","repetition","SM","SM213.bmp","remember","","55","3","prime1","left","","","",""
"html-keyboard-response","139","383126","0.0-4.0-1.0-3.6","gu0j5pwg7ppmoz3","prime","5de960efa71cf402386bfe40","5f60e3c0a3b16e07647b2ff9","5f60ee9d27229101b8be7107","false","null","<div style=""align-items: center; display: flex; color: dodgerblue; font-size: 90px""><b>o</b></div>","null","","","","forget_cue","","","","","","","","","","","","","","","",""
"html-keyboard-response","140","383830","0.0-4.0-1.0-0.7","gu0j5pwg7ppmoz3","prime","5de960efa71cf402386bfe40","5f60e3c0a3b16e07647b2ff9","5f60ee9d27229101b8be7107","false","null","<span style=""color: black; font-size: 48px"">M + N</span>","null","","","","resp_prompt","","","","","","","","","","","","","","","",""
"categorize-image","141","384456","0.0-4.0-1.0-1.7","gu0j5pwg7ppmoz3","prime","5de960efa71cf402386bfe40","5f60e3c0a3b16e07647b2ff9","5f60ee9d27229101b8be7107","true","624","./Stimuli/SelectedImages/SM/SM207.bmp","83","","","","test","true","M + N","83","repetition","SM","SM207.bmp","forget","","56","3","prime1","left","","","",""
"html-keyboard-response","142","386459","0.0-4.0-1.0-3.7","gu0j5pwg7ppmoz3","prime","5de960efa71cf402386bfe40","5f60e3c0a3b16e07647b2ff9","5f60ee9d27229101b8be7107","false","null","<div style=""align-items: center; display: flex; color: darkorange; font-size: 90px""><b>ø</b></div>","null","","","","forget_cue","","","","","","","","","","","","","","","",""
"html-keyboard-response","143","387161","0.0-4.0-1.0-0.8","gu0j5pwg7ppmoz3","prime","5de960efa71cf402386bfe40","5f60e3c0a3b16e07647b2ff9","5f60ee9d27229101b8be7107","false","null","<span style=""color: black; font-size: 48px"">N + M</span>","null","","","","resp_prompt","","","","","","","","","","","","","","","",""
"categorize-image","144","387906","0.0-4.0-1.0-1.8","gu0j5pwg7ppmoz3","prime","5de960efa71cf402386bfe40","5f60e3c0a3b16e07647b2ff9","5f60ee9d27229101b8be7107","true","742","./Stimuli/SelectedImages/SM/SM73.bmp","76","","","","test","true","N + M","76","switch","SM","SM73.bmp","remember","","57","3","prime1","right","","","",""
"html-keyboard-response","145","389908","0.0-4.0-1.0-3.8","gu0j5pwg7ppmoz3","prime","5de960efa71cf402386bfe40","5f60e3c0a3b16e07647b2ff9","5f60ee9d27229101b8be7107","false","null","<div style=""align-items: center; display: flex; color: dodgerblue; font-size: 90px""><b>o</b></div>","null","","","","forget_cue","","","","","","","","","","","","","","","",""
"html-keyboard-response","146","390610","0.0-4.0-1.0-0.9","gu0j5pwg7ppmoz3","prime","5de960efa71cf402386bfe40","5f60e3c0a3b16e07647b2ff9","5f60ee9d27229101b8be7107","false","null","<span style=""color: black; font-size: 48px"">M + N</span>","null","","","","resp_prompt","","","","","","","","","","","","","","","",""
"categorize-image","147","391762","0.0-4.0-1.0-1.9","gu0j5pwg7ppmoz3","prime","5de960efa71cf402386bfe40","5f60e3c0a3b16e07647b2ff9","5f60ee9d27229101b8be7107","true","1149","./Stimuli/SelectedImages/LN/LN150.bmp","76","","","","test","true","M + N","76","repetition","LN","LN150.bmp","forget","","58","3","prime1","right","","","",""
"html-keyboard-response","148","393764","0.0-4.0-1.0-3.9","gu0j5pwg7ppmoz3","prime","5de960efa71cf402386bfe40","5f60e3c0a3b16e07647b2ff9","5f60ee9d27229101b8be7107","false","null","<div style=""align-items: center; display: flex; color: darkorange; font-size: 90px""><b>ø</b></div>","null","","","","forget_cue","","","","","","","","","","","","","","","",""
"html-keyboard-response","149","394466","0.0-4.0-1.0-0.10","gu0j5pwg7ppmoz3","prime","5de960efa71cf402386bfe40","5f60e3c0a3b16e07647b2ff9","5f60ee9d27229101b8be7107","false","null","<span style=""color: black; font-size: 48px"">M + N</span>","null","","","","resp_prompt","","","","","","","","","","","","","","","",""
"categorize-image","150","395189","0.0-4.0-1.0-1.10","gu0j5pwg7ppmoz3","prime","5de960efa71cf402386bfe40","5f60e3c0a3b16e07647b2ff9","5f60ee9d27229101b8be7107","true","721","./Stimuli/SelectedImages/LM/LM58.bmp","83","","","","test","true","M + N","83","repetition","LM","LM58.bmp","forget","","59","3","prime1","left","","","",""
"html-keyboard-response","151","397192","0.0-4.0-1.0-3.10","gu0j5pwg7ppmoz3","prime","5de960efa71cf402386bfe40","5f60e3c0a3b16e07647b2ff9","5f60ee9d27229101b8be7107","false","null","<div style=""align-items: center; display: flex; color: darkorange; font-size: 90px""><b>ø</b></div>","null","","","","forget_cue","","","","","","","","","","","","","","","",""
"html-keyboard-response","152","397894","0.0-4.0-1.0-0.11","gu0j5pwg7ppmoz3","prime","5de960efa71cf402386bfe40","5f60e3c0a3b16e07647b2ff9","5f60ee9d27229101b8be7107","false","null","<span style=""color: black; font-size: 48px"">M + N</span>","null","","","","resp_prompt","","","","","","","","","","","","","","","",""
"categorize-image","153","398720","0.0-4.0-1.0-1.11","gu0j5pwg7ppmoz3","prime","5de960efa71cf402386bfe40","5f60e3c0a3b16e07647b2ff9","5f60ee9d27229101b8be7107","true","823","./Stimuli/SelectedImages/SM/SM74.bmp","83","","","","test","true","M + N","83","switch","SM","SM74.bmp","forget","","60","3","prime1","left","","","",""
"html-keyboard-response","154","400722","0.0-4.0-1.0-3.11","gu0j5pwg7ppmoz3","prime","5de960efa71cf402386bfe40","5f60e3c0a3b16e07647b2ff9","5f60ee9d27229101b8be7107","false","null","<div style=""align-items: center; display: flex; color: darkorange; font-size: 90px""><b>ø</b></div>","null","","","","forget_cue","","","","","","","","","","","","","","","",""
"html-keyboard-response","155","401424","0.0-4.0-1.0-0.12","gu0j5pwg7ppmoz3","prime","5de960efa71cf402386bfe40","5f60e3c0a3b16e07647b2ff9","5f60ee9d27229101b8be7107","false","null","<span style=""color: black; font-size: 48px"">M + N</span>","null","","","","resp_prompt","","","","","","","","","","","","","","","",""
"categorize-image","156","402209","0.0-4.0-1.0-1.12","gu0j5pwg7ppmoz3","prime","5de960efa71cf402386bfe40","5f60e3c0a3b16e07647b2ff9","5f60ee9d27229101b8be7107","true","781.9999999999418","./Stimuli/SelectedImages/SN/SN240.bmp","76","","","","test","true","M + N","76","switch","SN","SN240.bmp","remember","","61","3","prime1","right","","","",""
"html-keyboard-response","157","404211","0.0-4.0-1.0-3.12","gu0j5pwg7ppmoz3","prime","5de960efa71cf402386bfe40","5f60e3c0a3b16e07647b2ff9","5f60ee9d27229101b8be7107","false","null","<div style=""align-items: center; display: flex; color: dodgerblue; font-size: 90px""><b>o</b></div>","null","","","","forget_cue","","","","","","","","","","","","","","","",""
"html-keyboard-response","158","404915","0.0-4.0-1.0-0.13","gu0j5pwg7ppmoz3","prime","5de960efa71cf402386bfe40","5f60e3c0a3b16e07647b2ff9","5f60ee9d27229101b8be7107","false","null","<span style=""color: black; font-size: 48px"">N + M</span>","null","","","","resp_prompt","","","","","","","","","","","","","","","",""
"categorize-image","159","405763","0.0-4.0-1.0-1.13","gu0j5pwg7ppmoz3","prime","5de960efa71cf402386bfe40","5f60e3c0a3b16e07647b2ff9","5f60ee9d27229101b8be7107","true","846","./Stimuli/SelectedImages/SN/SN27.bmp","83","","","","test","true","N + M","83","repetition","SN","SN27.bmp","forget","","62","3","prime1","left","","","",""
"html-keyboard-response","160","407765","0.0-4.0-1.0-3.13","gu0j5pwg7ppmoz3","prime","5de960efa71cf402386bfe40","5f60e3c0a3b16e07647b2ff9","5f60ee9d27229101b8be7107","false","null","<div style=""align-items: center; display: flex; color: darkorange; font-size: 90px""><b>ø</b></div>","null","","","","forget_cue","","","","","","","","","","","","","","","",""
"html-keyboard-response","161","408468","0.0-4.0-1.0-0.14","gu0j5pwg7ppmoz3","prime","5de960efa71cf402386bfe40","5f60e3c0a3b16e07647b2ff9","5f60ee9d27229101b8be7107","false","null","<span style=""color: black; font-size: 48px"">M + N</span>","null","","","","resp_prompt","","","","","","","","","","","","","","","",""
"categorize-image","162","409231","0.0-4.0-1.0-1.14","gu0j5pwg7ppmoz3","prime","5de960efa71cf402386bfe40","5f60e3c0a3b16e07647b2ff9","5f60ee9d27229101b8be7107","true","761","./Stimuli/SelectedImages/SN/SN52.bmp","76","","","","test","true","M + N","76","switch","SN","SN52.bmp","remember","","63","3","prime1","right","","","",""
"html-keyboard-response","163","411233","0.0-4.0-1.0-3.14","gu0j5pwg7ppmoz3","prime","5de960efa71cf402386bfe40","5f60e3c0a3b16e07647b2ff9","5f60ee9d27229101b8be7107","false","null","<div style=""align-items: center; display: flex; color: dodgerblue; font-size: 90px""><b>o</b></div>","null","","","","forget_cue","","","","","","","","","","","","","","","",""
"html-keyboard-response","164","411935","0.0-4.0-1.0-0.15","gu0j5pwg7ppmoz3","prime","5de960efa71cf402386bfe40","5f60e3c0a3b16e07647b2ff9","5f60ee9d27229101b8be7107","false","null","<span style=""color: black; font-size: 48px"">N + M</span>","null","","","","resp_prompt","","","","","","","","","","","","","","","",""
"categorize-image","165","412688","0.0-4.0-1.0-1.15","gu0j5pwg7ppmoz3","prime","5de960efa71cf402386bfe40","5f60e3c0a3b16e07647b2ff9","5f60ee9d27229101b8be7107","true","751.0000000000582","./Stimuli/SelectedImages/LM/LM157.bmp","83","","","","test","false","N + M","76","repetition","LM","LM157.bmp","forget","","64","3","prime1","left","","","",""
"html-keyboard-response","166","413190","0.0-4.0-1.0-2.15-0.15","gu0j5pwg7ppmoz3","prime","5de960efa71cf402386bfe40","5f60e3c0a3b16e07647b2ff9","5f60ee9d27229101b8be7107","false","null","<span style=""color: red; font-size: 48px"">Error!</span>","null","","","","feedback","","","","","","","","","","","","","","","",""
"html-keyboard-response","167","415193","0.0-4.0-1.0-3.15","gu0j5pwg7ppmoz3","prime","5de960efa71cf402386bfe40","5f60e3c0a3b16e07647b2ff9","5f60ee9d27229101b8be7107","false","null","<div style=""align-items: center; display: flex; color: darkorange; font-size: 90px""><b>ø</b></div>","null","","","","forget_cue","","","","","","","","","","","","","","","",""
"html-keyboard-response","168","415894","0.0-4.0-1.0-0.16","gu0j5pwg7ppmoz3","prime","5de960efa71cf402386bfe40","5f60e3c0a3b16e07647b2ff9","5f60ee9d27229101b8be7107","false","null","<span style=""color: black; font-size: 48px"">N + M</span>","null","","","","resp_prompt","","","","","","","","","","","","","","","",""
"categorize-image","169","416597","0.0-4.0-1.0-1.16","gu0j5pwg7ppmoz3","prime","5de960efa71cf402386bfe40","5f60e3c0a3b16e07647b2ff9","5f60ee9d27229101b8be7107","true","700","./Stimuli/SelectedImages/LM/LM209.bmp","76","","","","test","true","N + M","76","switch","LM","LM209.bmp","forget","","65","3","prime1","right","","","",""
"html-keyboard-response","170","418599","0.0-4.0-1.0-3.16","gu0j5pwg7ppmoz3","prime","5de960efa71cf402386bfe40","5f60e3c0a3b16e07647b2ff9","5f60ee9d27229101b8be7107","false","null","<div style=""align-items: center; display: flex; color: darkorange; font-size: 90px""><b>ø</b></div>","null","","","","forget_cue","","","","","","","","","","","","","","","",""
"html-keyboard-response","171","419301","0.0-4.0-1.0-0.17","gu0j5pwg7ppmoz3","prime","5de960efa71cf402386bfe40","5f60e3c0a3b16e07647b2ff9","5f60ee9d27229101b8be7107","false","null","<span style=""color: black; font-size: 48px"">N + M</span>","null","","","","resp_prompt","","","","","","","","","","","","","","","",""
"categorize-image","172","419889","0.0-4.0-1.0-1.17","gu0j5pwg7ppmoz3","prime","5de960efa71cf402386bfe40","5f60e3c0a3b16e07647b2ff9","5f60ee9d27229101b8be7107","true","584","./Stimuli/SelectedImages/SN/SN128.bmp","83","","","","test","true","N + M","83","repetition","SN","SN128.bmp","forget","","66","3","prime1","left","","","",""
"html-keyboard-response","173","421891","0.0-4.0-1.0-3.17","gu0j5pwg7ppmoz3","prime","5de960efa71cf402386bfe40","5f60e3c0a3b16e07647b2ff9","5f60ee9d27229101b8be7107","false","null","<div style=""align-items: center; display: flex; color: darkorange; font-size: 90px""><b>ø</b></div>","null","","","","forget_cue","","","","","","","","","","","","","","","",""
"html-keyboard-response","174","422593","0.0-4.0-1.0-0.18","gu0j5pwg7ppmoz3","prime","5de960efa71cf402386bfe40","5f60e3c0a3b16e07647b2ff9","5f60ee9d27229101b8be7107","false","null","<span style=""color: black; font-size: 48px"">N + M</span>","null","","","","resp_prompt","","","","","","","","","","","","","","","",""
"categorize-image","175","423292","0.0-4.0-1.0-1.18","gu0j5pwg7ppmoz3","prime","5de960efa71cf402386bfe40","5f60e3c0a3b16e07647b2ff9","5f60ee9d27229101b8be7107","true","697","./Stimuli/SelectedImages/SN/SN187.bmp","83","","","","test","true","N + M","83","switch","SN","SN187.bmp","forget","","67","3","prime1","left","","","",""
"html-keyboard-response","176","425294","0.0-4.0-1.0-3.18","gu0j5pwg7ppmoz3","prime","5de960efa71cf402386bfe40","5f60e3c0a3b16e07647b2ff9","5f60ee9d27229101b8be7107","false","null","<div style=""align-items: center; display: flex; color: darkorange; font-size: 90px""><b>ø</b></div>","null","","","","forget_cue","","","","","","","","","","","","","","","",""
"html-keyboard-response","177","425996","0.0-4.0-1.0-0.19","gu0j5pwg7ppmoz3","prime","5de960efa71cf402386bfe40","5f60e3c0a3b16e07647b2ff9","5f60ee9d27229101b8be7107","false","null","<span style=""color: black; font-size: 48px"">N + M</span>","null","","","","resp_prompt","","","","","","","","","","","","","","","",""
"categorize-image","178","426776","0.0-4.0-1.0-1.19","gu0j5pwg7ppmoz3","prime","5de960efa71cf402386bfe40","5f60e3c0a3b16e07647b2ff9","5f60ee9d27229101b8be7107","true","775","./Stimuli/SelectedImages/LN/LN177.bmp","83","","","","test","true","N + M","83","repetition","LN","LN177.bmp","forget","","68","3","prime1","left","","","",""
"html-keyboard-response","179","428779","0.0-4.0-1.0-3.19","gu0j5pwg7ppmoz3","prime","5de960efa71cf402386bfe40","5f60e3c0a3b16e07647b2ff9","5f60ee9d27229101b8be7107","false","null","<div style=""align-items: center; display: flex; color: darkorange; font-size: 90px""><b>ø</b></div>","null","","","","forget_cue","","","","","","","","","","","","","","","",""
"html-keyboard-response","180","429481","0.0-4.0-1.0-0.20","gu0j5pwg7ppmoz3","prime","5de960efa71cf402386bfe40","5f60e3c0a3b16e07647b2ff9","5f60ee9d27229101b8be7107","false","null","<span style=""color: black; font-size: 48px"">M + N</span>","null","","","","resp_prompt","","","","","","","","","","","","","","","",""
"categorize-image","181","430513","0.0-4.0-1.0-1.20","gu0j5pwg7ppmoz3","prime","5de960efa71cf402386bfe40","5f60e3c0a3b16e07647b2ff9","5f60ee9d27229101b8be7107","true","1029","./Stimuli/SelectedImages/SM/SM128.bmp","83","","","","test","true","M + N","83","switch","SM","SM128.bmp","remember","","69","3","prime1","left","","","",""
"html-keyboard-response","182","432515","0.0-4.0-1.0-3.20","gu0j5pwg7ppmoz3","prime","5de960efa71cf402386bfe40","5f60e3c0a3b16e07647b2ff9","5f60ee9d27229101b8be7107","false","null","<div style=""align-items: center; display: flex; color: dodgerblue; font-size: 90px""><b>o</b></div>","null","","","","forget_cue","","","","","","","","","","","","","","","",""
"html-keyboard-response","183","433217","0.0-4.0-1.0-0.21","gu0j5pwg7ppmoz3","prime","5de960efa71cf402386bfe40","5f60e3c0a3b16e07647b2ff9","5f60ee9d27229101b8be7107","false","null","<span style=""color: black; font-size: 48px"">M + N</span>","null","","","","resp_prompt","","","","","","","","","","","","","","","",""
"categorize-image","184","433806","0.0-4.0-1.0-1.21","gu0j5pwg7ppmoz3","prime","5de960efa71cf402386bfe40","5f60e3c0a3b16e07647b2ff9","5f60ee9d27229101b8be7107","true","587.0000000000582","./Stimuli/SelectedImages/SN/SN179.bmp","76","","","","test","true","M + N","76","switch","SN","SN179.bmp","forget","","70","3","prime1","right","","","",""
"html-keyboard-response","185","435808","0.0-4.0-1.0-3.21","gu0j5pwg7ppmoz3","prime","5de960efa71cf402386bfe40","5f60e3c0a3b16e07647b2ff9","5f60ee9d27229101b8be7107","false","null","<div style=""align-items: center; display: flex; color: darkorange; font-size: 90px""><b>ø</b></div>","null","","","","forget_cue","","","","","","","","","","","","","","","",""
"html-keyboard-response","186","436510","0.0-4.0-1.0-0.22","gu0j5pwg7ppmoz3","prime","5de960efa71cf402386bfe40","5f60e3c0a3b16e07647b2ff9","5f60ee9d27229101b8be7107","false","null","<span style=""color: black; font-size: 48px"">N + M</span>","null","","","","resp_prompt","","","","","","","","","","","","","","","",""
"categorize-image","187","437359","0.0-4.0-1.0-1.22","gu0j5pwg7ppmoz3","prime","5de960efa71cf402386bfe40","5f60e3c0a3b16e07647b2ff9","5f60ee9d27229101b8be7107","true","846","./Stimuli/SelectedImages/LN/LN131.bmp","83","","","","test","true","N + M","83","switch","LN","LN131.bmp","forget","","71","3","prime1","left","","","",""
"html-keyboard-response","188","439361","0.0-4.0-1.0-3.22","gu0j5pwg7ppmoz3","prime","5de960efa71cf402386bfe40","5f60e3c0a3b16e07647b2ff9","5f60ee9d27229101b8be7107","false","null","<div style=""align-items: center; display: flex; color: darkorange; font-size: 90px""><b>ø</b></div>","null","","","","forget_cue","","","","","","","","","","","","","","","",""
"html-keyboard-response","189","440063","0.0-4.0-1.0-0.23","gu0j5pwg7ppmoz3","prime","5de960efa71cf402386bfe40","5f60e3c0a3b16e07647b2ff9","5f60ee9d27229101b8be7107","false","null","<span style=""color: black; font-size: 48px"">N + M</span>","null","","","","resp_prompt","","","","","","","","","","","","","","","",""
"categorize-image","190","440789","0.0-4.0-1.0-1.23","gu0j5pwg7ppmoz3","prime","5de960efa71cf402386bfe40","5f60e3c0a3b16e07647b2ff9","5f60ee9d27229101b8be7107","true","723","./Stimuli/SelectedImages/LM/LM216.bmp","76","","","","test","true","N + M","76","switch","LM","LM216.bmp","forget","","72","3","prime1","right","","","",""
"html-keyboard-response","191","442791","0.0-4.0-1.0-3.23","gu0j5pwg7ppmoz3","prime","5de960efa71cf402386bfe40","5f60e3c0a3b16e07647b2ff9","5f60ee9d27229101b8be7107","false","null","<div style=""align-items: center; display: flex; color: darkorange; font-size: 90px""><b>ø</b></div>","null","","","","forget_cue","","","","","","","","","","","","","","","",""
"html-keyboard-response","192","443493","0.0-4.0-1.0-0.24","gu0j5pwg7ppmoz3","prime","5de960efa71cf402386bfe40","5f60e3c0a3b16e07647b2ff9","5f60ee9d27229101b8be7107","false","null","<span style=""color: black; font-size: 48px"">M + N</span>","null","","","","resp_prompt","","","","","","","","","","","","","","","",""
"categorize-image","193","444087","0.0-4.0-1.0-1.24","gu0j5pwg7ppmoz3","prime","5de960efa71cf402386bfe40","5f60e3c0a3b16e07647b2ff9","5f60ee9d27229101b8be7107","true","591","./Stimuli/SelectedImages/SN/SN60.bmp","76","","","","test","true","M + N","76","repetition","SN","SN60.bmp","forget","","73","3","prime1","right","","","",""
"html-keyboard-response","194","446089","0.0-4.0-1.0-3.24","gu0j5pwg7ppmoz3","prime","5de960efa71cf402386bfe40","5f60e3c0a3b16e07647b2ff9","5f60ee9d27229101b8be7107","false","null","<div style=""align-items: center; display: flex; color: darkorange; font-size: 90px""><b>ø</b></div>","null","","","","forget_cue","","","","","","","","","","","","","","","",""
"html-keyboard-response","195","446791","0.0-4.0-1.0-0.25","gu0j5pwg7ppmoz3","prime","5de960efa71cf402386bfe40","5f60e3c0a3b16e07647b2ff9","5f60ee9d27229101b8be7107","false","null","<span style=""color: black; font-size: 48px"">M + N</span>","null","","","","resp_prompt","","","","","","","","","","","","","","","",""
"categorize-image","196","447672","0.0-4.0-1.0-1.25","gu0j5pwg7ppmoz3","prime","5de960efa71cf402386bfe40","5f60e3c0a3b16e07647b2ff9","5f60ee9d27229101b8be7107","true","878","./Stimuli/SelectedImages/LN/LN59.bmp","76","","","","test","true","M + N","76","repetition","LN","LN59.bmp","forget","","74","3","prime1","right","","","",""
"html-keyboard-response","197","449676","0.0-4.0-1.0-3.25","gu0j5pwg7ppmoz3","prime","5de960efa71cf402386bfe40","5f60e3c0a3b16e07647b2ff9","5f60ee9d27229101b8be7107","false","null","<div style=""align-items: center; display: flex; color: darkorange; font-size: 90px""><b>ø</b></div>","null","","","","forget_cue","","","","","","","","","","","","","","","",""
"html-keyboard-response","198","450378","0.0-4.0-1.0-0.26","gu0j5pwg7ppmoz3","prime","5de960efa71cf402386bfe40","5f60e3c0a3b16e07647b2ff9","5f60ee9d27229101b8be7107","false","null","<span style=""color: black; font-size: 48px"">M + N</span>","null","","","","resp_prompt","","","","","","","","","","","","","","","",""
"categorize-image","199","450948","0.0-4.0-1.0-1.26","gu0j5pwg7ppmoz3","prime","5de960efa71cf402386bfe40","5f60e3c0a3b16e07647b2ff9","5f60ee9d27229101b8be7107","true","568","./Stimuli/SelectedImages/LM/LM103.bmp","83","","","","test","true","M + N","83","repetition","LM","LM103.bmp","remember","","75","3","prime1","left","","","",""
"html-keyboard-response","200","452950","0.0-4.0-1.0-3.26","gu0j5pwg7ppmoz3","prime","5de960efa71cf402386bfe40","5f60e3c0a3b16e07647b2ff9","5f60ee9d27229101b8be7107","false","null","<div style=""align-items: center; display: flex; color: dodgerblue; font-size: 90px""><b>o</b></div>","null","","","","forget_cue","","","","","","","","","","","","","","","",""
"html-keyboard-response","201","453653","0.0-4.0-1.0-0.27","gu0j5pwg7ppmoz3","prime","5de960efa71cf402386bfe40","5f60e3c0a3b16e07647b2ff9","5f60ee9d27229101b8be7107","false","null","<span style=""color: black; font-size: 48px"">M + N</span>","null","","","","resp_prompt","","","","","","","","","","","","","","","",""
"categorize-image","202","454126","0.0-4.0-1.0-1.27","gu0j5pwg7ppmoz3","prime","5de960efa71cf402386bfe40","5f60e3c0a3b16e07647b2ff9","5f60ee9d27229101b8be7107","true","471","./Stimuli/SelectedImages/LM/LM235.bmp","83","","","","test","true","M + N","83","switch","LM","LM235.bmp","remember","","76","3","prime1","left","","","",""
"html-keyboard-response","203","456127","0.0-4.0-1.0-3.27","gu0j5pwg7ppmoz3","prime","5de960efa71cf402386bfe40","5f60e3c0a3b16e07647b2ff9","5f60ee9d27229101b8be7107","false","null","<div style=""align-items: center; display: flex; color: dodgerblue; font-size: 90px""><b>o</b></div>","null","","","","forget_cue","","","","","","","","","","","","","","","",""
"html-keyboard-response","204","456830","0.0-4.0-1.0-0.28","gu0j5pwg7ppmoz3","prime","5de960efa71cf402386bfe40","5f60e3c0a3b16e07647b2ff9","5f60ee9d27229101b8be7107","false","null","<span style=""color: black; font-size: 48px"">M + N</span>","null","","","","resp_prompt","","","","","","","","","","","","","","","",""
"categorize-image","205","457423","0.0-4.0-1.0-1.28","gu0j5pwg7ppmoz3","prime","5de960efa71cf402386bfe40","5f60e3c0a3b16e07647b2ff9","5f60ee9d27229101b8be7107","true","590","./Stimuli/SelectedImages/LM/LM100.bmp","83","","","","test","true","M + N","83","repetition","LM","LM100.bmp","forget","","77","3","prime1","left","","","",""
"html-keyboard-response","206","459425","0.0-4.0-1.0-3.28","gu0j5pwg7ppmoz3","prime","5de960efa71cf402386bfe40","5f60e3c0a3b16e07647b2ff9","5f60ee9d27229101b8be7107","false","null","<div style=""align-items: center; display: flex; color: darkorange; font-size: 90px""><b>ø</b></div>","null","","","","forget_cue","","","","","","","","","","","","","","","",""
"html-keyboard-response","207","460128","0.0-4.0-1.0-0.29","gu0j5pwg7ppmoz3","prime","5de960efa71cf402386bfe40","5f60e3c0a3b16e07647b2ff9","5f60ee9d27229101b8be7107","false","null","<span style=""color: black; font-size: 48px"">M + N</span>","null","","","","resp_prompt","","","","","","","","","","","","","","","",""
"categorize-image","208","460978","0.0-4.0-1.0-1.29","gu0j5pwg7ppmoz3","prime","5de960efa71cf402386bfe40","5f60e3c0a3b16e07647b2ff9","5f60ee9d27229101b8be7107","true","846","./Stimuli/SelectedImages/SM/SM108.bmp","83","","","","test","true","M + N","83","switch","SM","SM108.bmp","forget","","78","3","prime1","left","","","",""
"html-keyboard-response","209","462980","0.0-4.0-1.0-3.29","gu0j5pwg7ppmoz3","prime","5de960efa71cf402386bfe40","5f60e3c0a3b16e07647b2ff9","5f60ee9d27229101b8be7107","false","null","<div style=""align-items: center; display: flex; color: darkorange; font-size: 90px""><b>ø</b></div>","null","","","","forget_cue","","","","","","","","","","","","","","","",""
"html-keyboard-response","210","463682","0.0-4.0-1.0-0.30","gu0j5pwg7ppmoz3","prime","5de960efa71cf402386bfe40","5f60e3c0a3b16e07647b2ff9","5f60ee9d27229101b8be7107","false","null","<span style=""color: black; font-size: 48px"">M + N</span>","null","","","","resp_prompt","","","","","","","","","","","","","","","",""
"categorize-image","211","464219","0.0-4.0-1.0-1.30","gu0j5pwg7ppmoz3","prime","5de960efa71cf402386bfe40","5f60e3c0a3b16e07647b2ff9","5f60ee9d27229101b8be7107","true","533","./Stimuli/SelectedImages/LM/LM150.bmp","83","","","","test","true","M + N","83","switch","LM","LM150.bmp","remember","","79","3","prime1","left","","","",""
"html-keyboard-response","212","466221","0.0-4.0-1.0-3.30","gu0j5pwg7ppmoz3","prime","5de960efa71cf402386bfe40","5f60e3c0a3b16e07647b2ff9","5f60ee9d27229101b8be7107","false","null","<div style=""align-items: center; display: flex; color: dodgerblue; font-size: 90px""><b>o</b></div>","null","","","","forget_cue","","","","","","","","","","","","","","","",""
"html-keyboard-response","213","466923","0.0-4.0-1.0-0.31","gu0j5pwg7ppmoz3","prime","5de960efa71cf402386bfe40","5f60e3c0a3b16e07647b2ff9","5f60ee9d27229101b8be7107","false","null","<span style=""color: black; font-size: 48px"">N + M</span>","null","","","","resp_prompt","","","","","","","","","","","","","","","",""
"categorize-image","214","467427","0.0-4.0-1.0-1.31","gu0j5pwg7ppmoz3","prime","5de960efa71cf402386bfe40","5f60e3c0a3b16e07647b2ff9","5f60ee9d27229101b8be7107","true","502","./Stimuli/SelectedImages/LM/LM167.bmp","76","","","","test","true","N + M","76","repetition","LM","LM167.bmp","remember","","80","3","prime1","right","","","",""
"html-keyboard-response","215","469429","0.0-4.0-1.0-3.31","gu0j5pwg7ppmoz3","prime","5de960efa71cf402386bfe40","5f60e3c0a3b16e07647b2ff9","5f60ee9d27229101b8be7107","false","null","<div style=""align-items: center; display: flex; color: dodgerblue; font-size: 90px""><b>o</b></div>","null","","","","forget_cue","","","","","","","","","","","","","","","",""
"html-keyboard-response","216","470131","0.0-4.0-1.0-0.32","gu0j5pwg7ppmoz3","prime","5de960efa71cf402386bfe40","5f60e3c0a3b16e07647b2ff9","5f60ee9d27229101b8be7107","false","null","<span style=""color: black; font-size: 48px"">M + N</span>","null","","","","resp_prompt","","","","","","","","","","","","","","","",""
"categorize-image","217","470557","0.0-4.0-1.0-1.32","gu0j5pwg7ppmoz3","prime","5de960efa71cf402386bfe40","5f60e3c0a3b16e07647b2ff9","5f60ee9d27229101b8be7107","true","423.9999999999418","./Stimuli/SelectedImages/LM/LM59.bmp","83","","","","test","true","M + N","83","switch","LM","LM59.bmp","forget","","81","3","prime1","left","","","",""
"html-keyboard-response","218","472559","0.0-4.0-1.0-3.32","gu0j5pwg7ppmoz3","prime","5de960efa71cf402386bfe40","5f60e3c0a3b16e07647b2ff9","5f60ee9d27229101b8be7107","false","null","<div style=""align-items: center; display: flex; color: darkorange; font-size: 90px""><b>ø</b></div>","null","","","","forget_cue","","","","","","","","","","","","","","","",""
"html-keyboard-response","219","473261","0.0-4.0-1.0-0.33","gu0j5pwg7ppmoz3","prime","5de960efa71cf402386bfe40","5f60e3c0a3b16e07647b2ff9","5f60ee9d27229101b8be7107","false","null","<span style=""color: black; font-size: 48px"">M + N</span>","null","","","","resp_prompt","","","","","","","","","","","","","","","",""
"categorize-image","220","473915","0.0-4.0-1.0-1.33","gu0j5pwg7ppmoz3","prime","5de960efa71cf402386bfe40","5f60e3c0a3b16e07647b2ff9","5f60ee9d27229101b8be7107","true","651.0000000000582","./Stimuli/SelectedImages/LN/LN149.bmp","76","","","","test","true","M + N","76","repetition","LN","LN149.bmp","remember","","82","3","prime1","right","","","",""
"html-keyboard-response","221","475917","0.0-4.0-1.0-3.33","gu0j5pwg7ppmoz3","prime","5de960efa71cf402386bfe40","5f60e3c0a3b16e07647b2ff9","5f60ee9d27229101b8be7107","false","null","<div style=""align-items: center; display: flex; color: dodgerblue; font-size: 90px""><b>o</b></div>","null","","","","forget_cue","","","","","","","","","","","","","","","",""
"html-keyboard-response","222","476618","0.0-4.0-1.0-0.34","gu0j5pwg7ppmoz3","prime","5de960efa71cf402386bfe40","5f60e3c0a3b16e07647b2ff9","5f60ee9d27229101b8be7107","false","null","<span style=""color: black; font-size: 48px"">N + M</span>","null","","","","resp_prompt","","","","","","","","","","","","","","","",""
"categorize-image","223","477331","0.0-4.0-1.0-1.34","gu0j5pwg7ppmoz3","prime","5de960efa71cf402386bfe40","5f60e3c0a3b16e07647b2ff9","5f60ee9d27229101b8be7107","true","708.0000000000582","./Stimuli/SelectedImages/LN/LN128.bmp","83","","","","test","true","N + M","83","switch","LN","LN128.bmp","forget","","83","3","prime1","left","","","",""
"html-keyboard-response","224","479333","0.0-4.0-1.0-3.34","gu0j5pwg7ppmoz3","prime","5de960efa71cf402386bfe40","5f60e3c0a3b16e07647b2ff9","5f60ee9d27229101b8be7107","false","null","<div style=""align-items: center; display: flex; color: darkorange; font-size: 90px""><b>ø</b></div>","null","","","","forget_cue","","","","","","","","","","","","","","","",""
"html-keyboard-response","225","480035","0.0-4.0-1.0-0.35","gu0j5pwg7ppmoz3","prime","5de960efa71cf402386bfe40","5f60e3c0a3b16e07647b2ff9","5f60ee9d27229101b8be7107","false","null","<span style=""color: black; font-size: 48px"">N + M</span>","null","","","","resp_prompt","","","","","","","","","","","","","","","",""
"categorize-image","226","480567","0.0-4.0-1.0-1.35","gu0j5pwg7ppmoz3","prime","5de960efa71cf402386bfe40","5f60e3c0a3b16e07647b2ff9","5f60ee9d27229101b8be7107","true","529","./Stimuli/SelectedImages/LM/LM129.bmp","76","","","","test","true","N + M","76","repetition","LM","LM129.bmp","forget","","84","3","prime1","right","","","",""
"html-keyboard-response","227","482569","0.0-4.0-1.0-3.35","gu0j5pwg7ppmoz3","prime","5de960efa71cf402386bfe40","5f60e3c0a3b16e07647b2ff9","5f60ee9d27229101b8be7107","false","null","<div style=""align-items: center; display: flex; color: darkorange; font-size: 90px""><b>ø</b></div>","null","","","","forget_cue","","","","","","","","","","","","","","","",""
"html-keyboard-response","228","483271","0.0-4.0-1.0-0.36","gu0j5pwg7ppmoz3","prime","5de960efa71cf402386bfe40","5f60e3c0a3b16e07647b2ff9","5f60ee9d27229101b8be7107","false","null","<span style=""color: black; font-size: 48px"">M + N</span>","null","","","","resp_prompt","","","","","","","","","","","","","","","",""
"categorize-image","229","483817","0.0-4.0-1.0-1.36","gu0j5pwg7ppmoz3","prime","5de960efa71cf402386bfe40","5f60e3c0a3b16e07647b2ff9","5f60ee9d27229101b8be7107","true","543","./Stimuli/SelectedImages/SN/SN155.bmp","76","","","","test","true","M + N","76","repetition","SN","SN155.bmp","remember","","85","3","prime1","right","","","",""
"html-keyboard-response","230","485819","0.0-4.0-1.0-3.36","gu0j5pwg7ppmoz3","prime","5de960efa71cf402386bfe40","5f60e3c0a3b16e07647b2ff9","5f60ee9d27229101b8be7107","false","null","<div style=""align-items: center; display: flex; color: dodgerblue; font-size: 90px""><b>o</b></div>","null","","","","forget_cue","","","","","","","","","","","","","","","",""
"html-keyboard-response","231","486521","0.0-4.0-1.0-0.37","gu0j5pwg7ppmoz3","prime","5de960efa71cf402386bfe40","5f60e3c0a3b16e07647b2ff9","5f60ee9d27229101b8be7107","false","null","<span style=""color: black; font-size: 48px"">N + M</span>","null","","","","resp_prompt","","","","","","","","","","","","","","","",""
"categorize-image","232","487146","0.0-4.0-1.0-1.37","gu0j5pwg7ppmoz3","prime","5de960efa71cf402386bfe40","5f60e3c0a3b16e07647b2ff9","5f60ee9d27229101b8be7107","true","623","./Stimuli/SelectedImages/LN/LN82.bmp","83","","","","test","true","N + M","83","repetition","LN","LN82.bmp","remember","","86","3","prime1","left","","","",""
"html-keyboard-response","233","489148","0.0-4.0-1.0-3.37","gu0j5pwg7ppmoz3","prime","5de960efa71cf402386bfe40","5f60e3c0a3b16e07647b2ff9","5f60ee9d27229101b8be7107","false","null","<div style=""align-items: center; display: flex; color: dodgerblue; font-size: 90px""><b>o</b></div>","null","","","","forget_cue","","","","","","","","","","","","","","","",""
"html-keyboard-response","234","489851","0.0-4.0-1.0-0.38","gu0j5pwg7ppmoz3","prime","5de960efa71cf402386bfe40","5f60e3c0a3b16e07647b2ff9","5f60ee9d27229101b8be7107","false","null","<span style=""color: black; font-size: 48px"">M + N</span>","null","","","","resp_prompt","","","","","","","","","","","","","","","",""
"categorize-image","235","490470","0.0-4.0-1.0-1.38","gu0j5pwg7ppmoz3","prime","5de960efa71cf402386bfe40","5f60e3c0a3b16e07647b2ff9","5f60ee9d27229101b8be7107","true","615","./Stimuli/SelectedImages/SN/SN140.bmp","76","","","","test","true","M + N","76","repetition","SN","SN140.bmp","forget","","87","3","prime1","right","","","",""
"html-keyboard-response","236","492473","0.0-4.0-1.0-3.38","gu0j5pwg7ppmoz3","prime","5de960efa71cf402386bfe40","5f60e3c0a3b16e07647b2ff9","5f60ee9d27229101b8be7107","false","null","<div style=""align-items: center; display: flex; color: darkorange; font-size: 90px""><b>ø</b></div>","null","","","","forget_cue","","","","","","","","","","","","","","","",""
"html-keyboard-response","237","493175","0.0-4.0-1.0-0.39","gu0j5pwg7ppmoz3","prime","5de960efa71cf402386bfe40","5f60e3c0a3b16e07647b2ff9","5f60ee9d27229101b8be7107","false","null","<span style=""color: black; font-size: 48px"">M + N</span>","null","","","","resp_prompt","","","","","","","","","","","","","","","",""
"categorize-image","238","493739","0.0-4.0-1.0-1.39","gu0j5pwg7ppmoz3","prime","5de960efa71cf402386bfe40","5f60e3c0a3b16e07647b2ff9","5f60ee9d27229101b8be7107","true","562","./Stimuli/SelectedImages/LN/LN12.bmp","76","","","","test","true","M + N","76","switch","LN","LN12.bmp","forget","","88","3","prime1","right","","","",""
"html-keyboard-response","239","495741","0.0-4.0-1.0-3.39","gu0j5pwg7ppmoz3","prime","5de960efa71cf402386bfe40","5f60e3c0a3b16e07647b2ff9","5f60ee9d27229101b8be7107","false","null","<div style=""align-items: center; display: flex; color: darkorange; font-size: 90px""><b>ø</b></div>","null","","","","forget_cue","","","","","","","","","","","","","","","",""
"html-keyboard-response","240","496443","0.0-4.0-1.0-0.40","gu0j5pwg7ppmoz3","prime","5de960efa71cf402386bfe40","5f60e3c0a3b16e07647b2ff9","5f60ee9d27229101b8be7107","false","null","<span style=""color: black; font-size: 48px"">N + M</span>","null","","","","resp_prompt","","","","","","","","","","","","","","","",""
"categorize-image","241","497071","0.0-4.0-1.0-1.40","gu0j5pwg7ppmoz3","prime","5de960efa71cf402386bfe40","5f60e3c0a3b16e07647b2ff9","5f60ee9d27229101b8be7107","true","624","./Stimuli/SelectedImages/SM/SM148.bmp","76","","","","test","true","N + M","76","repetition","SM","SM148.bmp","forget","","89","3","prime1","right","","","",""
"html-keyboard-response","242","499073","0.0-4.0-1.0-3.40","gu0j5pwg7ppmoz3","prime","5de960efa71cf402386bfe40","5f60e3c0a3b16e07647b2ff9","5f60ee9d27229101b8be7107","false","null","<div style=""align-items: center; display: flex; color: darkorange; font-size: 90px""><b>ø</b></div>","null","","","","forget_cue","","","","","","","","","","","","","","","",""
"html-keyboard-response","243","499777","0.0-4.0-1.0-0.41","gu0j5pwg7ppmoz3","prime","5de960efa71cf402386bfe40","5f60e3c0a3b16e07647b2ff9","5f60ee9d27229101b8be7107","false","null","<span style=""color: black; font-size: 48px"">N + M</span>","null","","","","resp_prompt","","","","","","","","","","","","","","","",""
"categorize-image","244","500424","0.0-4.0-1.0-1.41","gu0j5pwg7ppmoz3","prime","5de960efa71cf402386bfe40","5f60e3c0a3b16e07647b2ff9","5f60ee9d27229101b8be7107","true","644","./Stimuli/SelectedImages/SM/SM195.bmp","76","","","","test","true","N + M","76","repetition","SM","SM195.bmp","remember","","90","3","prime1","right","","","",""
"html-keyboard-response","245","502426","0.0-4.0-1.0-3.41","gu0j5pwg7ppmoz3","prime","5de960efa71cf402386bfe40","5f60e3c0a3b16e07647b2ff9","5f60ee9d27229101b8be7107","false","null","<div style=""align-items: center; display: flex; color: dodgerblue; font-size: 90px""><b>o</b></div>","null","","","","forget_cue","","","","","","","","","","","","","","","",""
"html-keyboard-response","246","503128","0.0-4.0-1.0-0.42","gu0j5pwg7ppmoz3","prime","5de960efa71cf402386bfe40","5f60e3c0a3b16e07647b2ff9","5f60ee9d27229101b8be7107","false","null","<span style=""color: black; font-size: 48px"">M + N</span>","null","","","","resp_prompt","","","","","","","","","","","","","","","",""
"categorize-image","247","503791","0.0-4.0-1.0-1.42","gu0j5pwg7ppmoz3","prime","5de960efa71cf402386bfe40","5f60e3c0a3b16e07647b2ff9","5f60ee9d27229101b8be7107","true","660.9999999999418","./Stimuli/SelectedImages/SN/SN93.bmp","76","","","","test","true","M + N","76","repetition","SN","SN93.bmp","remember","","91","3","prime1","right","","","",""
"html-keyboard-response","248","505792","0.0-4.0-1.0-3.42","gu0j5pwg7ppmoz3","prime","5de960efa71cf402386bfe40","5f60e3c0a3b16e07647b2ff9","5f60ee9d27229101b8be7107","false","null","<div style=""align-items: center; display: flex; color: dodgerblue; font-size: 90px""><b>o</b></div>","null","","","","forget_cue","","","","","","","","","","","","","","","",""
"html-keyboard-response","249","506495","0.0-4.0-1.0-0.43","gu0j5pwg7ppmoz3","prime","5de960efa71cf402386bfe40","5f60e3c0a3b16e07647b2ff9","5f60ee9d27229101b8be7107","false","null","<span style=""color: black; font-size: 48px"">M + N</span>","null","","","","resp_prompt","","","","","","","","","","","","","","","",""
"categorize-image","250","507094","0.0-4.0-1.0-1.43","gu0j5pwg7ppmoz3","prime","5de960efa71cf402386bfe40","5f60e3c0a3b16e07647b2ff9","5f60ee9d27229101b8be7107","true","596","./Stimuli/SelectedImages/SM/SM205.bmp","83","","","","test","true","M + N","83","switch","SM","SM205.bmp","remember","","92","3","prime1","left","","","",""
"html-keyboard-response","251","509096","0.0-4.0-1.0-3.43","gu0j5pwg7ppmoz3","prime","5de960efa71cf402386bfe40","5f60e3c0a3b16e07647b2ff9","5f60ee9d27229101b8be7107","false","null","<div style=""align-items: center; display: flex; color: dodgerblue; font-size: 90px""><b>o</b></div>","null","","","","forget_cue","","","","","","","","","","","","","","","",""
"html-keyboard-response","252","509798","0.0-4.0-1.0-0.44","gu0j5pwg7ppmoz3","prime","5de960efa71cf402386bfe40","5f60e3c0a3b16e07647b2ff9","5f60ee9d27229101b8be7107","false","null","<span style=""color: black; font-size: 48px"">N + M</span>","null","","","","resp_prompt","","","","","","","","","","","","","","","",""
"categorize-image","253","510351","0.0-4.0-1.0-1.44","gu0j5pwg7ppmoz3","prime","5de960efa71cf402386bfe40","5f60e3c0a3b16e07647b2ff9","5f60ee9d27229101b8be7107","true","549.9999999999418","./Stimuli/SelectedImages/SN/SN182.bmp","83","","","","test","true","N + M","83","switch","SN","SN182.bmp","remember","","93","3","prime1","left","","","",""
"html-keyboard-response","254","512353","0.0-4.0-1.0-3.44","gu0j5pwg7ppmoz3","prime","5de960efa71cf402386bfe40","5f60e3c0a3b16e07647b2ff9","5f60ee9d27229101b8be7107","false","null","<div style=""align-items: center; display: flex; color: dodgerblue; font-size: 90px""><b>o</b></div>","null","","","","forget_cue","","","","","","","","","","","","","","","",""
"html-keyboard-response","255","513055","0.0-4.0-1.0-0.45","gu0j5pwg7ppmoz3","prime","5de960efa71cf402386bfe40","5f60e3c0a3b16e07647b2ff9","5f60ee9d27229101b8be7107","false","null","<span style=""color: black; font-size: 48px"">N + M</span>","null","","","","resp_prompt","","","","","","","","","","","","","","","",""
"categorize-image","256","513702","0.0-4.0-1.0-1.45","gu0j5pwg7ppmoz3","prime","5de960efa71cf402386bfe40","5f60e3c0a3b16e07647b2ff9","5f60ee9d27229101b8be7107","true","643.9999999998836","./Stimuli/SelectedImages/LN/LN13.bmp","83","","","","test","true","N + M","83","repetition","LN","LN13.bmp","forget","","94","3","prime1","left","","","",""
