"trial_type","trial_index","time_elapsed","internal_node_id","subject","exp_part","prolific_PID","study_ID","session_ID","use","rt","stimulus","key_press","button_pressed","responses","question_order","trial_part","correct","resp_map","correct_resp","probe_condition","category","image","forget_condition","list","trial_num","block_num","block","response","test_part","n_span","sequence","num_spaces"
"pavlovia","0","12","0.0-0.0","6s74qrz1nyty36k","","5ddb0012270f44a553f0d024","5f60e3c0a3b16e07647b2ff9","5f63803269623f0749209909","false","","","","","","","","","","","","","","","","","","","","","","",""
"html-keyboard-response","1","13196","0.0-1.0-0.0-0.0","6s74qrz1nyty36k","welcome","5ddb0012270f44a553f0d024","5f60e3c0a3b16e07647b2ff9","5f63803269623f0749209909","false","13179.4100003317","<div align=left>Dear participant, <br> thank you for participating in an online study of the Cognition, Action, and Sustainability Unit of the University of Freiburg! <br> <br>The aim of this study is to examine our ability to remember previously learned information. <br>Our goal is to find out, whether our memory improves, when we only remember information that is relevant to us. <br>The experiment will take about 35 minutes to complete. <br> <br>Please, note that you can only participate in this study if you are using a device with a keyboard (PC, Laptop etc.) <br>and not if you are using a mobile device such as a tablet or smartphone.<br> <br>Press 'SPACE' to proceed to the experiment. </div>","32","","","","","","","","","","","","","","","","","","","",""
"html-keyboard-response","2","24987","0.0-1.0-0.0-1.0","6s74qrz1nyty36k","welcome","5ddb0012270f44a553f0d024","5f60e3c0a3b16e07647b2ff9","5f63803269623f0749209909","false","11787.080000154674","<div align=left><strong> Time Course of this experiment: </strong> <br><br> <strong> 1.</strong>  First, please fill in some information regarding your demographic data. <br><br> <strong> 2.</strong>  Next, your task will be to classify everyday objects. <br>In addition, you will be asked to remember certain objects and recall them later. <br>Working on these tasks requires your undivided attention and concentration.<br>It is therefore essential that you eliminate any sources of distraction in your  <br>environment and ensure that you will not be disturbed. <br><br><strong> 3.</strong>  At the end of the experiment, you will be asked to answer a few additional questions. <br> <br><strong> Important:</strong> After finishing the experiment, only close the browser window <br> by clicking on the 'end the experiment'-button when you are asked to do so. <br>Closing the browser window prematurely will make the allocation of your participation credit impossible. <br><br> Press 'SPACE' to start the experiment. </div>","32","","","","","","","","","","","","","","","","","","","",""
"html-button-response","3","31109","0.0-1.0-0.0-2.0","6s74qrz1nyty36k","welcome","5ddb0012270f44a553f0d024","5f60e3c0a3b16e07647b2ff9","5f63803269623f0749209909","true","6117.475000210106","<div align=left><strong> Informed consent </strong>  <br>The aim of our research is to better understand human behavior and mental processes. <br>In the following study your behavior (e.g. choices, reaction times) will be studied. <br> <br><strong> Voluntariness and Anonymity </strong> <br>Your participation in this study is  <strong> voluntary</strong>.<br>You may withdraw your consent to participate at any time without providing a reason for doing so and without fear of prejudice. <br><br>As no personal data will be collected, <strong>your data and your person cannot be connected after data collection</strong> – the data-set is anonymous. <br>Respectively, deletion of your data will not be possible after data collection has been completed, as we cannot retrace your data-set.<br>The results and anonymized data collected in this study will be published as a scientific publication. <br>This will happen in an <strong>anonymized format</strong>, so that no data can be traced back to a specific person. <br> <br>The anonymized data of this study will be made available to other researchers and/or in a data archive on the Internet as a means of transparency and to enable subsequent re-use. By doing so, this study follows the recommendations of the Deutsche Forschungsgemeinschaft (DFG, German Research Foundation) and Deutsche Gesellschaft für Psychologie (DGPS, German Psychological Society) regarding quality assurance in research.<br>If you have any questions now or after the experiment, please contact our team (experiments@cs.uni-freiburg.de).<br><br><br>I hereby declare, that I understand the above described conditions of participation and I agree to participate under these conditions. <br><br> </div>","","0","","","","","","","","","","","","","","","","","","",""
"html-keyboard-response","4","57500","0.0-1.0-0.0-3.0","6s74qrz1nyty36k","welcome","5ddb0012270f44a553f0d024","5f60e3c0a3b16e07647b2ff9","5f63803269623f0749209909","false","26387.570000253618","<div align=left><strong> General information concerning the experiment </strong>  <br> <br>Please follow the instructions:<ol> <li><strong> Do not leave this tab (your browser window) during the experiment and do not reload this tab! </strong>  <br>If you do switch tabs/windows during the experiment (to check your mail or visit another website, for example), <br>the experiment will end automatically and you will <strong>not receive credit</strong> for your participation. <br>Repeated participation or resumption of the experiment is impossible.</li> <br><li>Please close all other programs for the duration of your participation. </li> <br><li>Please mute or turn off your phone and put it out of your reach. </li> <br><li>Please also take off any disturbing accessories (such as wristwatches, bracelets, etc.). </li> <br><li>If you have music playing in the background, please turn it off now. </li> <br></ol>Thank you! <br>Press 'SPACE' to continue. </div>","32","","","","","","","","","","","","","","","","","","","",""
"survey-text","5","60718","0.0-1.0-1.0-0.0","6s74qrz1nyty36k","demographics","5ddb0012270f44a553f0d024","5f60e3c0a3b16e07647b2ff9","5f63803269623f0749209909","true","3210.7400000095367","","","","{""age"":""28""}","","","","","","","","","","","","","","","","","",""
"survey-multi-choice","6","68646","0.0-1.0-1.0-1.0","6s74qrz1nyty36k","demographics","5ddb0012270f44a553f0d024","5f60e3c0a3b16e07647b2ff9","5f63803269623f0749209909","true","7923.475000075996","","","","{""gender"":""female"",""school"":""high school"",""education"":""High school graduate, diploma or equivalent""}","[0,1,2]","","","","","","","","","","","","","","","","",""
"html-keyboard-response","7","89805","0.0-1.0-2.0","6s74qrz1nyty36k","instructions","5ddb0012270f44a553f0d024","5f60e3c0a3b16e07647b2ff9","5f63803269623f0749209909","false","21155.61000071466","<div align=left> The experiment is now about to start: <br> <br>In the following part, you will be presented pictures of everyday objects. <br>Your first task is to <strong>classify these objects. </strong> <br> <br> You will classify them either as mechanical or non-mechanical objects. <br> <br>Objects that include any kind of technical mechanism (for example, wheels, switches, levers, <br> electronic components) fall under the category of <strong>mechanical</strong> objects. <br>Only objects without any kind of technical mechanism should be classified as <strong>non-mechanical</strong>. <br><br>Press 'SPACE' to continue. </div>","32","","","","","","","","","","","","","","","","","","","",""
"html-keyboard-response","8","229078","0.0-2.0-0.0","6s74qrz1nyty36k","instructions","5ddb0012270f44a553f0d024","5f60e3c0a3b16e07647b2ff9","5f63803269623f0749209909","false","139269.5199996233","<div align=justify>You will classify the objects using the <strong>'S'</strong> and the <strong>'L'</strong> keys on your keyboard.<br>For doing so, please place your <strong>left index finger</strong> on the <strong>'S'</strong> key and place your <strong>right index finger</strong> on the <strong>'L'</strong> key. <br><br> Each trial starts with an instruction, indicating which key ('S'/'L') you need to press to classify <br>the object as mechanical (letter M) or non-mechanical (letter N).<br>The instruction <strong>M + N</strong> indicates that, in the current trial, by pressing the left key ('S') you classify the displayed object as mechanical (M) <br> and by pressing the right key ('L') you classify the object as non-mechanical (N). <br>The instruction <strong>N + M</strong> on the other hand indicates that by pressing the left key ('S') you classify the displayed object as non-mechanical (N) <br> and by pressing the right key ('L') you classify the object as mechanical (M). <br><br>Please press the key corresponding to the correct classification as fast as possible as soon as the object is displayed and try to avoid making mistakes.<br>If you do not respond within a 2 second window, a corresponding feedback will be displayed and the next trial will start.<br> The experiment is divided into multiple blocks to give you the opportunity to take a break after each block. <br>First, you can now practice this task. <br><br>Please place your <strong>LEFT INDEX FINGER</strong> on the 'S' key and your <strong>RIGHT INDEX FINGER</strong> on the 'L' key now. <br><br>Press SPACE to continue.</div>","32","","","","","","","","","","","","","","","","","","","",""
"html-keyboard-response","9","244492","0.0-2.0-1.0","6s74qrz1nyty36k","instructions","5ddb0012270f44a553f0d024","5f60e3c0a3b16e07647b2ff9","5f63803269623f0749209909","false","15409.740000031888","<div align=left> You will now have time to practice this task.<br><br>Remember: <br> <br><li>Please place your index fingers on the <strong>'S'</strong> and <strong>'L'</strong> keys <br>to respond as fast and accurately as possible.</li><li>Every picture can be classified as either mechanical or non-mechanical.</li><li>If you do not respond in time or commit an error, you will receive a corresponding feedback. </li><li> Please try to respond as <strong> fast </strong> and as <strong> accurately as possible </strong> .<br><li>To ensure optimal results, please minimize distractions and stay focused. </li><br><br>Press SPACE to continue.</div>","32","","","","","","","","","","","","","","","","","","","",""
"html-keyboard-response","10","245198","0.0-2.0-2.0-0.0","6s74qrz1nyty36k","practice_no_cue","5ddb0012270f44a553f0d024","5f60e3c0a3b16e07647b2ff9","5f63803269623f0749209909","false","null","<span style=""color: black; font-size: 48px"">N + M</span>","null","","","","resp_prompt","","","","","","","","","","","","","","","",""
"categorize-image","11","247070","0.0-2.0-2.0-1.0","6s74qrz1nyty36k","practice_no_cue","5ddb0012270f44a553f0d024","5f60e3c0a3b16e07647b2ff9","5f63803269623f0749209909","true","1364.1449995338917","./Stimuli/ImagesPractice/LM147.jpg","76","","","","test","true","N + M","76","","LM","LM147.jpg","forget","old","1","1","start","right","","","",""
"html-keyboard-response","12","247774","0.0-2.0-2.0-0.1","6s74qrz1nyty36k","practice_no_cue","5ddb0012270f44a553f0d024","5f60e3c0a3b16e07647b2ff9","5f63803269623f0749209909","false","null","<span style=""color: black; font-size: 48px"">N + M</span>","null","","","","resp_prompt","","","","","","","","","","","","","","","",""
"categorize-image","13","249786","0.0-2.0-2.0-1.1","6s74qrz1nyty36k","practice_no_cue","5ddb0012270f44a553f0d024","5f60e3c0a3b16e07647b2ff9","5f63803269623f0749209909","true","1506.3300002366304","./Stimuli/ImagesPractice/SM35.jpg","76","","","","test","true","N + M","76","","SM","SM35.jpg","remember","old","2","1","start","right","","","",""
"html-keyboard-response","14","250493","0.0-2.0-2.0-0.2","6s74qrz1nyty36k","practice_no_cue","5ddb0012270f44a553f0d024","5f60e3c0a3b16e07647b2ff9","5f63803269623f0749209909","false","null","<span style=""color: black; font-size: 48px"">M + N</span>","null","","","","resp_prompt","","","","","","","","","","","","","","","",""
"categorize-image","15","251767","0.0-2.0-2.0-1.2","6s74qrz1nyty36k","practice_no_cue","5ddb0012270f44a553f0d024","5f60e3c0a3b16e07647b2ff9","5f63803269623f0749209909","true","757.93999992311","./Stimuli/ImagesPractice/LM224.jpg","83","","","","test","true","M + N","83","","LM","LM224.jpg","remember","old","3","1","start","left","","","",""
"html-keyboard-response","16","252470","0.0-2.0-2.0-0.3","6s74qrz1nyty36k","practice_no_cue","5ddb0012270f44a553f0d024","5f60e3c0a3b16e07647b2ff9","5f63803269623f0749209909","false","null","<span style=""color: black; font-size: 48px"">N + M</span>","null","","","","resp_prompt","","","","","","","","","","","","","","","",""
"categorize-image","17","253941","0.0-2.0-2.0-1.3","6s74qrz1nyty36k","practice_no_cue","5ddb0012270f44a553f0d024","5f60e3c0a3b16e07647b2ff9","5f63803269623f0749209909","true","966.4650000631809","./Stimuli/ImagesPractice/LM143.jpg","76","","","","test","true","N + M","76","","LM","LM143.jpg","remember","old","4","1","start","right","","","",""
"html-keyboard-response","18","254644","0.0-2.0-2.0-0.4","6s74qrz1nyty36k","practice_no_cue","5ddb0012270f44a553f0d024","5f60e3c0a3b16e07647b2ff9","5f63803269623f0749209909","false","null","<span style=""color: black; font-size: 48px"">N + M</span>","null","","","","resp_prompt","","","","","","","","","","","","","","","",""
"categorize-image","19","255974","0.0-2.0-2.0-1.4","6s74qrz1nyty36k","practice_no_cue","5ddb0012270f44a553f0d024","5f60e3c0a3b16e07647b2ff9","5f63803269623f0749209909","true","809.5949999988079","./Stimuli/ImagesPractice/LN109.jpg","83","","","","test","true","N + M","83","","LN","LN109.jpg","forget","old","5","1","start","left","","","",""
"html-keyboard-response","20","256686","0.0-2.0-2.0-0.5","6s74qrz1nyty36k","practice_no_cue","5ddb0012270f44a553f0d024","5f60e3c0a3b16e07647b2ff9","5f63803269623f0749209909","false","null","<span style=""color: black; font-size: 48px"">M + N</span>","null","","","","resp_prompt","","","","","","","","","","","","","","","",""
"categorize-image","21","258298","0.0-2.0-2.0-1.5","6s74qrz1nyty36k","practice_no_cue","5ddb0012270f44a553f0d024","5f60e3c0a3b16e07647b2ff9","5f63803269623f0749209909","true","1108.35500061512","./Stimuli/ImagesPractice/SN222.jpg","76","","","","test","true","M + N","76","","SN","SN222.jpg","remember","old","6","1","start","right","","","",""
"html-keyboard-response","22","259001","0.0-2.0-2.0-0.6","6s74qrz1nyty36k","practice_no_cue","5ddb0012270f44a553f0d024","5f60e3c0a3b16e07647b2ff9","5f63803269623f0749209909","false","null","<span style=""color: black; font-size: 48px"">N + M</span>","null","","","","resp_prompt","","","","","","","","","","","","","","","",""
"categorize-image","23","260429","0.0-2.0-2.0-1.6","6s74qrz1nyty36k","practice_no_cue","5ddb0012270f44a553f0d024","5f60e3c0a3b16e07647b2ff9","5f63803269623f0749209909","true","917.8550001233816","./Stimuli/ImagesPractice/SM61.jpg","83","","","","test","false","N + M","76","","SM","SM61.jpg","remember","old","7","1","start","left","","","",""
"html-keyboard-response","24","261133","0.0-2.0-2.0-0.7","6s74qrz1nyty36k","practice_no_cue","5ddb0012270f44a553f0d024","5f60e3c0a3b16e07647b2ff9","5f63803269623f0749209909","false","null","<span style=""color: black; font-size: 48px"">M + N</span>","null","","","","resp_prompt","","","","","","","","","","","","","","","",""
"categorize-image","25","262566","0.0-2.0-2.0-1.7","6s74qrz1nyty36k","practice_no_cue","5ddb0012270f44a553f0d024","5f60e3c0a3b16e07647b2ff9","5f63803269623f0749209909","true","929.279999807477","./Stimuli/ImagesPractice/SN220.jpg","76","","","","test","true","M + N","76","","SN","SN220.jpg","forget","old","8","1","start","right","","","",""
"html-keyboard-response","26","263271","0.0-2.0-2.0-0.8","6s74qrz1nyty36k","practice_no_cue","5ddb0012270f44a553f0d024","5f60e3c0a3b16e07647b2ff9","5f63803269623f0749209909","false","null","<span style=""color: black; font-size: 48px"">M + N</span>","null","","","","resp_prompt","","","","","","","","","","","","","","","",""
"categorize-image","27","264572","0.0-2.0-2.0-1.8","6s74qrz1nyty36k","practice_no_cue","5ddb0012270f44a553f0d024","5f60e3c0a3b16e07647b2ff9","5f63803269623f0749209909","true","796.1149998009205","./Stimuli/ImagesPractice/SN221.jpg","76","","","","test","true","M + N","76","","SN","SN221.jpg","forget","old","9","1","start","right","","","",""
"html-keyboard-response","28","265285","0.0-2.0-2.0-0.9","6s74qrz1nyty36k","practice_no_cue","5ddb0012270f44a553f0d024","5f60e3c0a3b16e07647b2ff9","5f63803269623f0749209909","false","null","<span style=""color: black; font-size: 48px"">N + M</span>","null","","","","resp_prompt","","","","","","","","","","","","","","","",""
"categorize-image","29","266459","0.0-2.0-2.0-1.9","6s74qrz1nyty36k","practice_no_cue","5ddb0012270f44a553f0d024","5f60e3c0a3b16e07647b2ff9","5f63803269623f0749209909","true","663.6150004342198","./Stimuli/ImagesPractice/LN2.jpg","83","","","","test","true","N + M","83","","LN","LN2.jpg","forget","old","10","1","start","left","","","",""
"html-keyboard-response","30","267169","0.0-2.0-2.0-0.10","6s74qrz1nyty36k","practice_no_cue","5ddb0012270f44a553f0d024","5f60e3c0a3b16e07647b2ff9","5f63803269623f0749209909","false","null","<span style=""color: black; font-size: 48px"">M + N</span>","null","","","","resp_prompt","","","","","","","","","","","","","","","",""
"categorize-image","31","268800","0.0-2.0-2.0-1.10","6s74qrz1nyty36k","practice_no_cue","5ddb0012270f44a553f0d024","5f60e3c0a3b16e07647b2ff9","5f63803269623f0749209909","true","1126.5599997714162","./Stimuli/ImagesPractice/SM62.jpg","83","","","","test","true","M + N","83","","SM","SM62.jpg","remember","old","11","1","start","left","","","",""
"html-keyboard-response","32","269507","0.0-2.0-2.0-0.11","6s74qrz1nyty36k","practice_no_cue","5ddb0012270f44a553f0d024","5f60e3c0a3b16e07647b2ff9","5f63803269623f0749209909","false","null","<span style=""color: black; font-size: 48px"">N + M</span>","null","","","","resp_prompt","","","","","","","","","","","","","","","",""
"categorize-image","33","270916","0.0-2.0-2.0-1.11","6s74qrz1nyty36k","practice_no_cue","5ddb0012270f44a553f0d024","5f60e3c0a3b16e07647b2ff9","5f63803269623f0749209909","true","905.2849998697639","./Stimuli/ImagesPractice/SM97.jpg","76","","","","test","true","N + M","76","","SM","SM97.jpg","remember","old","12","1","start","right","","","",""
"html-keyboard-response","34","271633","0.0-2.0-2.0-0.12","6s74qrz1nyty36k","practice_no_cue","5ddb0012270f44a553f0d024","5f60e3c0a3b16e07647b2ff9","5f63803269623f0749209909","false","null","<span style=""color: black; font-size: 48px"">N + M</span>","null","","","","resp_prompt","","","","","","","","","","","","","","","",""
"categorize-image","35","273002","0.0-2.0-2.0-1.12","6s74qrz1nyty36k","practice_no_cue","5ddb0012270f44a553f0d024","5f60e3c0a3b16e07647b2ff9","5f63803269623f0749209909","true","865.7149998471141","./Stimuli/ImagesPractice/LN4.jpg","83","","","","test","true","N + M","83","","LN","LN4.jpg","forget","old","13","1","start","left","","","",""
"html-keyboard-response","36","273705","0.0-2.0-2.0-0.13","6s74qrz1nyty36k","practice_no_cue","5ddb0012270f44a553f0d024","5f60e3c0a3b16e07647b2ff9","5f63803269623f0749209909","false","null","<span style=""color: black; font-size: 48px"">M + N</span>","null","","","","resp_prompt","","","","","","","","","","","","","","","",""
"categorize-image","37","275094","0.0-2.0-2.0-1.13","6s74qrz1nyty36k","practice_no_cue","5ddb0012270f44a553f0d024","5f60e3c0a3b16e07647b2ff9","5f63803269623f0749209909","true","885.5600003153086","./Stimuli/ImagesPractice/LM230.jpg","83","","","","test","true","M + N","83","","LM","LM230.jpg","forget","old","14","1","start","left","","","",""
"html-keyboard-response","38","275801","0.0-2.0-2.0-0.14","6s74qrz1nyty36k","practice_no_cue","5ddb0012270f44a553f0d024","5f60e3c0a3b16e07647b2ff9","5f63803269623f0749209909","false","null","<span style=""color: black; font-size: 48px"">M + N</span>","null","","","","resp_prompt","","","","","","","","","","","","","","","",""
"categorize-image","39","276994","0.0-2.0-2.0-1.14","6s74qrz1nyty36k","practice_no_cue","5ddb0012270f44a553f0d024","5f60e3c0a3b16e07647b2ff9","5f63803269623f0749209909","true","680.715000256896","./Stimuli/ImagesPractice/SN76.jpg","76","","","","test","true","M + N","76","","SN","SN76.jpg","forget","old","15","1","start","right","","","",""
"html-keyboard-response","40","277700","0.0-2.0-2.0-0.15","6s74qrz1nyty36k","practice_no_cue","5ddb0012270f44a553f0d024","5f60e3c0a3b16e07647b2ff9","5f63803269623f0749209909","false","null","<span style=""color: black; font-size: 48px"">M + N</span>","null","","","","resp_prompt","","","","","","","","","","","","","","","",""
"categorize-image","41","278881","0.0-2.0-2.0-1.15","6s74qrz1nyty36k","practice_no_cue","5ddb0012270f44a553f0d024","5f60e3c0a3b16e07647b2ff9","5f63803269623f0749209909","true","676.1349998414516","./Stimuli/ImagesPractice/LM239.jpg","76","","","","test","false","M + N","83","","LM","LM239.jpg","remember","old","16","1","start","right","","","",""
"html-keyboard-response","42","301612","0.0-2.0-3.0","6s74qrz1nyty36k","break","5ddb0012270f44a553f0d024","5f60e3c0a3b16e07647b2ff9","5f63803269623f0749209909","false","22728.740000166","<p style='font-size: 32px;'>Break</><br><br><br><br><br><p style='font-size: 24px;'>In the last block, you committed 2 errors and did not respond in time on 0 trials.
</p><p style='font-size: 24px;'>Try to respond as fast and accurately as possible in the next block as well! </p><p style='font-size: 24px;'>Press SPACE to continue.</p>","32","","","","","","","","","","","","","","","","","","","",""
"html-keyboard-response","43","305859","0.0-2.0-4.0","6s74qrz1nyty36k","instructions","5ddb0012270f44a553f0d024","5f60e3c0a3b16e07647b2ff9","5f63803269623f0749209909","false","4244.315000250936","<div align=left> Great!<br><br>Are you ready to continue?<br><br>If you want to reread the instructions and redo the practice trials, <br>please press „Z“. <br><br>Press SPACE to CONTINUE with the experiment when you are ready. </div>","32","","","","","","","","","","","","","","","","","","","",""
"html-keyboard-response","44","336158","0.0-3.0-0.0","6s74qrz1nyty36k","instructions","5ddb0012270f44a553f0d024","5f60e3c0a3b16e07647b2ff9","5f63803269623f0749209909","false","30294.580000452697","<div align=left>Great!<br> <strong>Attention</strong>! You will now receive a second, additional task! <br><br>To this point it was you <strong>first task</strong> to correctly <strong>classify objects</strong>. <br><br>As mentioned in the beginning, we aim to examine how well humans can remember previously learned information.<br>We would like to find out whether our memory improves if we only remember information that is relevant to us. <br><br>Therefore, your <strong>second task</strong> will be to <strong>remember</strong> the pictures you are to categorize. <br> After the learning phase, there will be a memory test phase, in which you will be asked to indicate whether you have seen a picture before or not. <br>Some, but not all pictures shown in the learning phase will appear in the memory test phase.<br>After classifying a picture, you will be told whether you should remember it for the memory test phase or not. <br>Thus, some pictures can be forgotten, whereas others have to be remembered. <br><br>Note: From now on, feedback will only be displayed if you responded incorrectly or not in time.<br><br>Press SPACE to continue.</div>","32","","","","","","","","","","","","","","","","","","","",""
"html-keyboard-response","45","364417","0.0-3.0-1.0","6s74qrz1nyty36k","instructions","5ddb0012270f44a553f0d024","5f60e3c0a3b16e07647b2ff9","5f63803269623f0749209909","false","28252.785000018775","<div align=left>In the following part, you will thus have to remember only some pictures. <br>Immediately after seeing and classifying the picture, a symbol will be displayed, indicating whether you should remember or forget the previous picture. <br><br>A <span style='color: dodgerblue; font-size: 28px'>O</span> indicates REMEMBER. That means, you have to remember this picture, because it will be tested later. <br><br>A <span style='color: darkorange; font-size:28px'>Ø</span> indicates FORGET. You do not have to remember this picture. <br><br> As you will have to remember a lot of pictures, it will be hard for you to remember all of them. <br>It will put you at an advantage if you instantly forget the pictures you are not asked to remember. <br> This will make it easier for you to remember the pictures that will be tested afterwards. <br><br>Press SPACE to continue.</div>","32","","","","","","","","","","","","","","","","","","","",""
"html-keyboard-response","46","370230","0.0-3.0-2.0","6s74qrz1nyty36k","instructions","5ddb0012270f44a553f0d024","5f60e3c0a3b16e07647b2ff9","5f63803269623f0749209909","false","5810.340000316501","<div align=left> Now you have the chance to practice both tasks together.<br><br>Remember: <br> <br><li>Please place your index fingers on the <strong>'S'</strong> and <strong>'L'</strong> keys <br>to respond as fast and accurately as possible.</li><li>Every picture can be classified as either mechanical or non-mechanical.</li><li>If you do not respond in time or commit an error, you will receive a corresponding feedback. <br>Please try to respond as <strong> fast </strong> and as <strong> accurately as possible </strong>.</li><li> Please remember only the to-be-remembered <span style='color: dodgerblue; font-size: 28px'>O</span> pictures. <br></li><li> Please minimize distractions and stay focused. </li><br><br>Press SPACE to START</div>","32","","","","","","","","","","","","","","","","","","","",""
"html-keyboard-response","47","370934","0.0-3.0-3.0-0.0","6s74qrz1nyty36k","practice_cue","5ddb0012270f44a553f0d024","5f60e3c0a3b16e07647b2ff9","5f63803269623f0749209909","false","null","<span style=""color: black; font-size: 48px"">N + M</span>","null","","","","resp_prompt","","","","","","","","","","","","","","","",""
"categorize-image","48","371867","0.0-3.0-3.0-1.0","6s74qrz1nyty36k","practice_cue","5ddb0012270f44a553f0d024","5f60e3c0a3b16e07647b2ff9","5f63803269623f0749209909","true","923.7550003454089","./Stimuli/ImagesPractice/SM35.jpg","76","","","","test","true","N + M","76","","SM","SM35.jpg","remember","old","17","2","practice_forget","right","","","",""
"html-keyboard-response","49","373876","0.0-3.0-3.0-3.0","6s74qrz1nyty36k","practice_cue","5ddb0012270f44a553f0d024","5f60e3c0a3b16e07647b2ff9","5f63803269623f0749209909","false","null","<div style=""align-items: center; display: flex; color: dodgerblue; font-size: 90px""><b>o</b></div>","null","","","","forget_cue","","","","","","","","","","","","","","","",""
"html-keyboard-response","50","374592","0.0-3.0-3.0-0.1","6s74qrz1nyty36k","practice_cue","5ddb0012270f44a553f0d024","5f60e3c0a3b16e07647b2ff9","5f63803269623f0749209909","false","null","<span style=""color: black; font-size: 48px"">M + N</span>","null","","","","resp_prompt","","","","","","","","","","","","","","","",""
"categorize-image","51","375363","0.0-3.0-3.0-1.1","6s74qrz1nyty36k","practice_cue","5ddb0012270f44a553f0d024","5f60e3c0a3b16e07647b2ff9","5f63803269623f0749209909","true","764.3550001084805","./Stimuli/ImagesPractice/SN222.jpg","76","","","","test","true","M + N","76","","SN","SN222.jpg","remember","old","18","2","practice_forget","right","","","",""
"html-keyboard-response","52","377372","0.0-3.0-3.0-3.1","6s74qrz1nyty36k","practice_cue","5ddb0012270f44a553f0d024","5f60e3c0a3b16e07647b2ff9","5f63803269623f0749209909","false","null","<div style=""align-items: center; display: flex; color: dodgerblue; font-size: 90px""><b>o</b></div>","null","","","","forget_cue","","","","","","","","","","","","","","","",""
"html-keyboard-response","53","378090","0.0-3.0-3.0-0.2","6s74qrz1nyty36k","practice_cue","5ddb0012270f44a553f0d024","5f60e3c0a3b16e07647b2ff9","5f63803269623f0749209909","false","null","<span style=""color: black; font-size: 48px"">N + M</span>","null","","","","resp_prompt","","","","","","","","","","","","","","","",""
"categorize-image","54","378854","0.0-3.0-3.0-1.2","6s74qrz1nyty36k","practice_cue","5ddb0012270f44a553f0d024","5f60e3c0a3b16e07647b2ff9","5f63803269623f0749209909","true","757.6450007036328","./Stimuli/ImagesPractice/SM97.jpg","76","","","","test","true","N + M","76","","SM","SM97.jpg","remember","old","19","2","practice_forget","right","","","",""
"html-keyboard-response","55","380864","0.0-3.0-3.0-3.2","6s74qrz1nyty36k","practice_cue","5ddb0012270f44a553f0d024","5f60e3c0a3b16e07647b2ff9","5f63803269623f0749209909","false","null","<div style=""align-items: center; display: flex; color: dodgerblue; font-size: 90px""><b>o</b></div>","null","","","","forget_cue","","","","","","","","","","","","","","","",""
"html-keyboard-response","56","381573","0.0-3.0-3.0-0.3","6s74qrz1nyty36k","practice_cue","5ddb0012270f44a553f0d024","5f60e3c0a3b16e07647b2ff9","5f63803269623f0749209909","false","null","<span style=""color: black; font-size: 48px"">M + N</span>","null","","","","resp_prompt","","","","","","","","","","","","","","","",""
"categorize-image","57","382301","0.0-3.0-3.0-1.3","6s74qrz1nyty36k","practice_cue","5ddb0012270f44a553f0d024","5f60e3c0a3b16e07647b2ff9","5f63803269623f0749209909","true","720.440000295639","./Stimuli/ImagesPractice/LM224.jpg","83","","","","test","true","M + N","83","","LM","LM224.jpg","remember","old","20","2","practice_forget","left","","","",""
"html-keyboard-response","58","384304","0.0-3.0-3.0-3.3","6s74qrz1nyty36k","practice_cue","5ddb0012270f44a553f0d024","5f60e3c0a3b16e07647b2ff9","5f63803269623f0749209909","false","null","<div style=""align-items: center; display: flex; color: dodgerblue; font-size: 90px""><b>o</b></div>","null","","","","forget_cue","","","","","","","","","","","","","","","",""
"html-keyboard-response","59","385006","0.0-3.0-3.0-0.4","6s74qrz1nyty36k","practice_cue","5ddb0012270f44a553f0d024","5f60e3c0a3b16e07647b2ff9","5f63803269623f0749209909","false","null","<span style=""color: black; font-size: 48px"">N + M</span>","null","","","","resp_prompt","","","","","","","","","","","","","","","",""
"categorize-image","60","385637","0.0-3.0-3.0-1.4","6s74qrz1nyty36k","practice_cue","5ddb0012270f44a553f0d024","5f60e3c0a3b16e07647b2ff9","5f63803269623f0749209909","true","624.1300003603101","./Stimuli/ImagesPractice/LN4.jpg","83","","","","test","true","N + M","83","","LN","LN4.jpg","forget","old","21","2","practice_forget","left","","","",""
"html-keyboard-response","61","387649","0.0-3.0-3.0-3.4","6s74qrz1nyty36k","practice_cue","5ddb0012270f44a553f0d024","5f60e3c0a3b16e07647b2ff9","5f63803269623f0749209909","false","null","<div style=""align-items: center; display: flex; color: darkorange; font-size: 90px""><b>ø</b></div>","null","","","","forget_cue","","","","","","","","","","","","","","","",""
"html-keyboard-response","62","388351","0.0-3.0-3.0-0.5","6s74qrz1nyty36k","practice_cue","5ddb0012270f44a553f0d024","5f60e3c0a3b16e07647b2ff9","5f63803269623f0749209909","false","null","<span style=""color: black; font-size: 48px"">N + M</span>","null","","","","resp_prompt","","","","","","","","","","","","","","","",""
"categorize-image","63","388992","0.0-3.0-3.0-1.5","6s74qrz1nyty36k","practice_cue","5ddb0012270f44a553f0d024","5f60e3c0a3b16e07647b2ff9","5f63803269623f0749209909","true","634.4050001353025","./Stimuli/ImagesPractice/LN2.jpg","83","","","","test","true","N + M","83","","LN","LN2.jpg","forget","old","22","2","practice_forget","left","","","",""
"html-keyboard-response","64","390995","0.0-3.0-3.0-3.5","6s74qrz1nyty36k","practice_cue","5ddb0012270f44a553f0d024","5f60e3c0a3b16e07647b2ff9","5f63803269623f0749209909","false","null","<div style=""align-items: center; display: flex; color: darkorange; font-size: 90px""><b>ø</b></div>","null","","","","forget_cue","","","","","","","","","","","","","","","",""
"html-keyboard-response","65","391697","0.0-3.0-3.0-0.6","6s74qrz1nyty36k","practice_cue","5ddb0012270f44a553f0d024","5f60e3c0a3b16e07647b2ff9","5f63803269623f0749209909","false","null","<span style=""color: black; font-size: 48px"">M + N</span>","null","","","","resp_prompt","","","","","","","","","","","","","","","",""
"categorize-image","66","392196","0.0-3.0-3.0-1.6","6s74qrz1nyty36k","practice_cue","5ddb0012270f44a553f0d024","5f60e3c0a3b16e07647b2ff9","5f63803269623f0749209909","true","493.4799997135997","./Stimuli/ImagesPractice/LM230.jpg","83","","","","test","true","M + N","83","","LM","LM230.jpg","forget","old","23","2","practice_forget","left","","","",""
"html-keyboard-response","67","394210","0.0-3.0-3.0-3.6","6s74qrz1nyty36k","practice_cue","5ddb0012270f44a553f0d024","5f60e3c0a3b16e07647b2ff9","5f63803269623f0749209909","false","null","<div style=""align-items: center; display: flex; color: darkorange; font-size: 90px""><b>ø</b></div>","null","","","","forget_cue","","","","","","","","","","","","","","","",""
"html-keyboard-response","68","394913","0.0-3.0-3.0-0.7","6s74qrz1nyty36k","practice_cue","5ddb0012270f44a553f0d024","5f60e3c0a3b16e07647b2ff9","5f63803269623f0749209909","false","null","<span style=""color: black; font-size: 48px"">N + M</span>","null","","","","resp_prompt","","","","","","","","","","","","","","","",""
"categorize-image","69","395537","0.0-3.0-3.0-1.7","6s74qrz1nyty36k","practice_cue","5ddb0012270f44a553f0d024","5f60e3c0a3b16e07647b2ff9","5f63803269623f0749209909","true","616.89000017941","./Stimuli/ImagesPractice/SM61.jpg","76","","","","test","true","N + M","76","","SM","SM61.jpg","remember","old","24","2","practice_forget","right","","","",""
"html-keyboard-response","70","397551","0.0-3.0-3.0-3.7","6s74qrz1nyty36k","practice_cue","5ddb0012270f44a553f0d024","5f60e3c0a3b16e07647b2ff9","5f63803269623f0749209909","false","null","<div style=""align-items: center; display: flex; color: dodgerblue; font-size: 90px""><b>o</b></div>","null","","","","forget_cue","","","","","","","","","","","","","","","",""
"html-keyboard-response","71","398254","0.0-3.0-3.0-0.8","6s74qrz1nyty36k","practice_cue","5ddb0012270f44a553f0d024","5f60e3c0a3b16e07647b2ff9","5f63803269623f0749209909","false","null","<span style=""color: black; font-size: 48px"">N + M</span>","null","","","","resp_prompt","","","","","","","","","","","","","","","",""
"categorize-image","72","398893","0.0-3.0-3.0-1.8","6s74qrz1nyty36k","practice_cue","5ddb0012270f44a553f0d024","5f60e3c0a3b16e07647b2ff9","5f63803269623f0749209909","true","632.7299997210503","./Stimuli/ImagesPractice/LM143.jpg","76","","","","test","true","N + M","76","","LM","LM143.jpg","remember","old","25","2","practice_forget","right","","","",""
"html-keyboard-response","73","400895","0.0-3.0-3.0-3.8","6s74qrz1nyty36k","practice_cue","5ddb0012270f44a553f0d024","5f60e3c0a3b16e07647b2ff9","5f63803269623f0749209909","false","null","<div style=""align-items: center; display: flex; color: dodgerblue; font-size: 90px""><b>o</b></div>","null","","","","forget_cue","","","","","","","","","","","","","","","",""
"html-keyboard-response","74","401599","0.0-3.0-3.0-0.9","6s74qrz1nyty36k","practice_cue","5ddb0012270f44a553f0d024","5f60e3c0a3b16e07647b2ff9","5f63803269623f0749209909","false","null","<span style=""color: black; font-size: 48px"">N + M</span>","null","","","","resp_prompt","","","","","","","","","","","","","","","",""
"categorize-image","75","402246","0.0-3.0-3.0-1.9","6s74qrz1nyty36k","practice_cue","5ddb0012270f44a553f0d024","5f60e3c0a3b16e07647b2ff9","5f63803269623f0749209909","true","639.809999614954","./Stimuli/ImagesPractice/LN109.jpg","83","","","","test","true","N + M","83","","LN","LN109.jpg","forget","old","26","2","practice_forget","left","","","",""
"html-keyboard-response","76","404250","0.0-3.0-3.0-3.9","6s74qrz1nyty36k","practice_cue","5ddb0012270f44a553f0d024","5f60e3c0a3b16e07647b2ff9","5f63803269623f0749209909","false","null","<div style=""align-items: center; display: flex; color: darkorange; font-size: 90px""><b>ø</b></div>","null","","","","forget_cue","","","","","","","","","","","","","","","",""
"html-keyboard-response","77","404951","0.0-3.0-3.0-0.10","6s74qrz1nyty36k","practice_cue","5ddb0012270f44a553f0d024","5f60e3c0a3b16e07647b2ff9","5f63803269623f0749209909","false","null","<span style=""color: black; font-size: 48px"">M + N</span>","null","","","","resp_prompt","","","","","","","","","","","","","","","",""
"categorize-image","78","405572","0.0-3.0-3.0-1.10","6s74qrz1nyty36k","practice_cue","5ddb0012270f44a553f0d024","5f60e3c0a3b16e07647b2ff9","5f63803269623f0749209909","true","608.9050006121397","./Stimuli/ImagesPractice/SN221.jpg","76","","","","test","true","M + N","76","","SN","SN221.jpg","forget","old","27","2","practice_forget","right","","","",""
"html-keyboard-response","79","407580","0.0-3.0-3.0-3.10","6s74qrz1nyty36k","practice_cue","5ddb0012270f44a553f0d024","5f60e3c0a3b16e07647b2ff9","5f63803269623f0749209909","false","null","<div style=""align-items: center; display: flex; color: darkorange; font-size: 90px""><b>ø</b></div>","null","","","","forget_cue","","","","","","","","","","","","","","","",""
"html-keyboard-response","80","408282","0.0-3.0-3.0-0.11","6s74qrz1nyty36k","practice_cue","5ddb0012270f44a553f0d024","5f60e3c0a3b16e07647b2ff9","5f63803269623f0749209909","false","null","<span style=""color: black; font-size: 48px"">M + N</span>","null","","","","resp_prompt","","","","","","","","","","","","","","","",""
"categorize-image","81","408863","0.0-3.0-3.0-1.11","6s74qrz1nyty36k","practice_cue","5ddb0012270f44a553f0d024","5f60e3c0a3b16e07647b2ff9","5f63803269623f0749209909","true","573.9449998363853","./Stimuli/ImagesPractice/SN220.jpg","76","","","","test","true","M + N","76","","SN","SN220.jpg","forget","old","28","2","practice_forget","right","","","",""
"html-keyboard-response","82","410870","0.0-3.0-3.0-3.11","6s74qrz1nyty36k","practice_cue","5ddb0012270f44a553f0d024","5f60e3c0a3b16e07647b2ff9","5f63803269623f0749209909","false","null","<div style=""align-items: center; display: flex; color: darkorange; font-size: 90px""><b>ø</b></div>","null","","","","forget_cue","","","","","","","","","","","","","","","",""
"html-keyboard-response","83","411573","0.0-3.0-3.0-0.12","6s74qrz1nyty36k","practice_cue","5ddb0012270f44a553f0d024","5f60e3c0a3b16e07647b2ff9","5f63803269623f0749209909","false","null","<span style=""color: black; font-size: 48px"">M + N</span>","null","","","","resp_prompt","","","","","","","","","","","","","","","",""
"categorize-image","84","412234","0.0-3.0-3.0-1.12","6s74qrz1nyty36k","practice_cue","5ddb0012270f44a553f0d024","5f60e3c0a3b16e07647b2ff9","5f63803269623f0749209909","true","654.2249992489815","./Stimuli/ImagesPractice/LM239.jpg","83","","","","test","true","M + N","83","","LM","LM239.jpg","remember","old","29","2","practice_forget","left","","","",""
"html-keyboard-response","85","414237","0.0-3.0-3.0-3.12","6s74qrz1nyty36k","practice_cue","5ddb0012270f44a553f0d024","5f60e3c0a3b16e07647b2ff9","5f63803269623f0749209909","false","null","<div style=""align-items: center; display: flex; color: dodgerblue; font-size: 90px""><b>o</b></div>","null","","","","forget_cue","","","","","","","","","","","","","","","",""
"html-keyboard-response","86","414939","0.0-3.0-3.0-0.13","6s74qrz1nyty36k","practice_cue","5ddb0012270f44a553f0d024","5f60e3c0a3b16e07647b2ff9","5f63803269623f0749209909","false","null","<span style=""color: black; font-size: 48px"">M + N</span>","null","","","","resp_prompt","","","","","","","","","","","","","","","",""
"categorize-image","87","415604","0.0-3.0-3.0-1.13","6s74qrz1nyty36k","practice_cue","5ddb0012270f44a553f0d024","5f60e3c0a3b16e07647b2ff9","5f63803269623f0749209909","true","657.1900006383657","./Stimuli/ImagesPractice/SN76.jpg","76","","","","test","true","M + N","76","","SN","SN76.jpg","forget","old","30","2","practice_forget","right","","","",""
"html-keyboard-response","88","417606","0.0-3.0-3.0-3.13","6s74qrz1nyty36k","practice_cue","5ddb0012270f44a553f0d024","5f60e3c0a3b16e07647b2ff9","5f63803269623f0749209909","false","null","<div style=""align-items: center; display: flex; color: darkorange; font-size: 90px""><b>ø</b></div>","null","","","","forget_cue","","","","","","","","","","","","","","","",""
"html-keyboard-response","89","418310","0.0-3.0-3.0-0.14","6s74qrz1nyty36k","practice_cue","5ddb0012270f44a553f0d024","5f60e3c0a3b16e07647b2ff9","5f63803269623f0749209909","false","null","<span style=""color: black; font-size: 48px"">N + M</span>","null","","","","resp_prompt","","","","","","","","","","","","","","","",""
"categorize-image","90","418915","0.0-3.0-3.0-1.14","6s74qrz1nyty36k","practice_cue","5ddb0012270f44a553f0d024","5f60e3c0a3b16e07647b2ff9","5f63803269623f0749209909","true","599.9400001019239","./Stimuli/ImagesPractice/LM147.jpg","76","","","","test","true","N + M","76","","LM","LM147.jpg","forget","old","31","2","practice_forget","right","","","",""
"html-keyboard-response","91","420917","0.0-3.0-3.0-3.14","6s74qrz1nyty36k","practice_cue","5ddb0012270f44a553f0d024","5f60e3c0a3b16e07647b2ff9","5f63803269623f0749209909","false","null","<div style=""align-items: center; display: flex; color: darkorange; font-size: 90px""><b>ø</b></div>","null","","","","forget_cue","","","","","","","","","","","","","","","",""
"html-keyboard-response","92","421618","0.0-3.0-3.0-0.15","6s74qrz1nyty36k","practice_cue","5ddb0012270f44a553f0d024","5f60e3c0a3b16e07647b2ff9","5f63803269623f0749209909","false","null","<span style=""color: black; font-size: 48px"">M + N</span>","null","","","","resp_prompt","","","","","","","","","","","","","","","",""
"categorize-image","93","422206","0.0-3.0-3.0-1.15","6s74qrz1nyty36k","practice_cue","5ddb0012270f44a553f0d024","5f60e3c0a3b16e07647b2ff9","5f63803269623f0749209909","true","580.6600004434586","./Stimuli/ImagesPractice/SM62.jpg","83","","","","test","true","M + N","83","","SM","SM62.jpg","remember","old","32","2","practice_forget","left","","","",""
"html-keyboard-response","94","424209","0.0-3.0-3.0-3.15","6s74qrz1nyty36k","practice_cue","5ddb0012270f44a553f0d024","5f60e3c0a3b16e07647b2ff9","5f63803269623f0749209909","false","null","<div style=""align-items: center; display: flex; color: dodgerblue; font-size: 90px""><b>o</b></div>","null","","","","forget_cue","","","","","","","","","","","","","","","",""
"html-keyboard-response","95","426601","0.0-3.0-4.0","6s74qrz1nyty36k","break","5ddb0012270f44a553f0d024","5f60e3c0a3b16e07647b2ff9","5f63803269623f0749209909","false","2398.9200005307794","<p style='font-size: 32px;'>Break</><br><br><br><br><br><p style='font-size: 24px;'>In the last block, you committed 0 errors and did not respond in time on 0 trials.
</p><p style='font-size: 24px;'>Try to respond as fast and accurately as possible in the next block as well! </p><p style='font-size: 24px;'>Press SPACE to continue.</p>","32","","","","","","","","","","","","","","","","","","","",""
"html-keyboard-response","96","437146","0.0-3.0-5.0","6s74qrz1nyty36k","instructions","5ddb0012270f44a553f0d024","5f60e3c0a3b16e07647b2ff9","5f63803269623f0749209909","false","10540.375000797212","<div align=left> Now, to practice, we kindly ask you to remember as many of the to-be-remembered pictures<br>of the previous learning phase as possible.<br><br>The pictures you were instructed to remember were the pictures followed by a <span style='color: dodgerblue; font-size: 28px'>O</span>.<br><br>In this memory test phase, you will also see some new pictures.<br>It is your task to remember whether you were presented with this specific picture in this study so far or not.<br>If you recognize an object (you have already seen it in this study), it is an OLD object. <br>If you do not recognize an object (you have NOT seen it in this study), it is a NEW object. <br><strong> Attention</strong>: As already mentioned, <span style='color: darkorange; font-size:28px'>Ø</span>-pictures will <strong>never</strong> appear in this memory test (neither as new objects). <br><br>Press SPACE to continue. </div>","32","","","","","","","","","","","","","","","","","","","",""
"html-keyboard-response","97","468913","0.0-3.0-6.0","6s74qrz1nyty36k","instructions","5ddb0012270f44a553f0d024","5f60e3c0a3b16e07647b2ff9","5f63803269623f0749209909","false","31763.730000704527","<div align=left> M and N no longer will appear on the left/right of the fixation cross. <br>Instead there will be a note at the bottom of the left or right side  <br>indicating which key you should press for an old or new object:  <br> <br>Press the <strong>right</strong> key to classify an object as <strong>old</strong> and press the <strong>left</strong>, to classify an object as <strong>new</strong>.<br>Please classify the objects as new/old by again placing your index finger on the 'S' and 'L' keys <br>and press them accordingly.<br><br><strong>Old:</strong> This object has been presented before. <br><strong>New:</strong> This object has <strong>not</strong> been presented.<br><br>Now please put your right and left index fingers on the 'S' and 'L' keys of your keyboard. <br>Please respond as fast and as accurately as possible!<br><br>Press SPACE to continue. </div>","32","","","","","","","","","","","","","","","","","","","",""
"categorize-image","98","470918","0.0-3.0-7.0-0.0","6s74qrz1nyty36k","practice_recog","5ddb0012270f44a553f0d024","5f60e3c0a3b16e07647b2ff9","5f63803269623f0749209909","true","1498.0750000104308","./Stimuli/ImagesPractice/SN75.jpg","76","","","","test","true","","76","","SN","SN75.jpg","","new","33","3","practice_recog","right","","","",""
"categorize-image","99","472216","0.0-3.0-7.0-0.1","6s74qrz1nyty36k","practice_recog","5ddb0012270f44a553f0d024","5f60e3c0a3b16e07647b2ff9","5f63803269623f0749209909","true","792.6250007003546","./Stimuli/ImagesPractice/LM224.jpg","83","","","","test","true","","83","","LM","LM224.jpg","","old","34","3","practice_recog","left","","","",""
"categorize-image","100","473655","0.0-3.0-7.0-0.2","6s74qrz1nyty36k","practice_recog","5ddb0012270f44a553f0d024","5f60e3c0a3b16e07647b2ff9","5f63803269623f0749209909","true","918.6899997293949","./Stimuli/ImagesPractice/SM97.jpg","83","","","","test","true","","83","","SM","SM97.jpg","","old","35","3","practice_recog","left","","","",""
"categorize-image","101","474899","0.0-3.0-7.0-0.3","6s74qrz1nyty36k","practice_recog","5ddb0012270f44a553f0d024","5f60e3c0a3b16e07647b2ff9","5f63803269623f0749209909","true","739.3749998882413","./Stimuli/ImagesPractice/SM35.jpg","83","","","","test","true","","83","","SM","SM35.jpg","","old","36","3","practice_recog","left","","","",""
"categorize-image","102","476102","0.0-3.0-7.0-0.4","6s74qrz1nyty36k","practice_recog","5ddb0012270f44a553f0d024","5f60e3c0a3b16e07647b2ff9","5f63803269623f0749209909","true","697.8749996051192","./Stimuli/ImagesPractice/SM37.jpg","76","","","","test","true","","76","","SM","SM37.jpg","","new","37","3","practice_recog","right","","","",""
"categorize-image","103","477514","0.0-3.0-7.0-0.5","6s74qrz1nyty36k","practice_recog","5ddb0012270f44a553f0d024","5f60e3c0a3b16e07647b2ff9","5f63803269623f0749209909","true","904.0349991992116","./Stimuli/ImagesPractice/SN222.jpg","83","","","","test","true","","83","","SN","SN222.jpg","","old","38","3","practice_recog","left","","","",""
"categorize-image","104","478971","0.0-3.0-7.0-0.6","6s74qrz1nyty36k","practice_recog","5ddb0012270f44a553f0d024","5f60e3c0a3b16e07647b2ff9","5f63803269623f0749209909","true","954.8350004479289","./Stimuli/ImagesPractice/LN17.jpg","76","","","","test","true","","76","","LN","LN17.jpg","","new","39","3","practice_recog","right","","","",""
"categorize-image","105","480055","0.0-3.0-7.0-0.7","6s74qrz1nyty36k","practice_recog","5ddb0012270f44a553f0d024","5f60e3c0a3b16e07647b2ff9","5f63803269623f0749209909","true","579.5849999412894","./Stimuli/ImagesPractice/SN205.jpg","76","","","","test","true","","76","","SN","SN205.jpg","","new","40","3","practice_recog","right","","","",""
"categorize-image","106","481416","0.0-3.0-7.0-0.8","6s74qrz1nyty36k","practice_recog","5ddb0012270f44a553f0d024","5f60e3c0a3b16e07647b2ff9","5f63803269623f0749209909","true","843.6199994757771","./Stimuli/ImagesPractice/SM61.jpg","83","","","","test","true","","83","","SM","SM61.jpg","","old","41","3","practice_recog","left","","","",""
"categorize-image","107","482789","0.0-3.0-7.0-0.9","6s74qrz1nyty36k","practice_recog","5ddb0012270f44a553f0d024","5f60e3c0a3b16e07647b2ff9","5f63803269623f0749209909","true","868.0549999698997","./Stimuli/ImagesPractice/LM55.jpg","76","","","","test","true","","76","","LM","LM55.jpg","","new","42","3","practice_recog","right","","","",""
"categorize-image","108","484092","0.0-3.0-7.0-0.10","6s74qrz1nyty36k","practice_recog","5ddb0012270f44a553f0d024","5f60e3c0a3b16e07647b2ff9","5f63803269623f0749209909","true","798.5899997875094","./Stimuli/ImagesPractice/SM62.jpg","83","","","","test","true","","83","","SM","SM62.jpg","","old","43","3","practice_recog","left","","","",""
"categorize-image","109","485307","0.0-3.0-7.0-0.11","6s74qrz1nyty36k","practice_recog","5ddb0012270f44a553f0d024","5f60e3c0a3b16e07647b2ff9","5f63803269623f0749209909","true","698.7650003284216","./Stimuli/ImagesPractice/LM239.jpg","83","","","","test","true","","83","","LM","LM239.jpg","","old","44","3","practice_recog","left","","","",""
"categorize-image","110","486524","0.0-3.0-7.0-0.12","6s74qrz1nyty36k","practice_recog","5ddb0012270f44a553f0d024","5f60e3c0a3b16e07647b2ff9","5f63803269623f0749209909","true","706.6249996423721","./Stimuli/ImagesPractice/LN15.jpg","76","","","","test","true","","76","","LN","LN15.jpg","","new","45","3","practice_recog","right","","","",""
"categorize-image","111","487740","0.0-3.0-7.0-0.13","6s74qrz1nyty36k","practice_recog","5ddb0012270f44a553f0d024","5f60e3c0a3b16e07647b2ff9","5f63803269623f0749209909","true","700.8299995213747","./Stimuli/ImagesPractice/LN72.jpg","76","","","","test","true","","76","","LN","LN72.jpg","","new","46","3","practice_recog","right","","","",""
"categorize-image","112","488841","0.0-3.0-7.0-0.14","6s74qrz1nyty36k","practice_recog","5ddb0012270f44a553f0d024","5f60e3c0a3b16e07647b2ff9","5f63803269623f0749209909","true","595.2300000935793","./Stimuli/ImagesPractice/SM98.jpg","76","","","","test","true","","76","","SM","SM98.jpg","","new","47","3","practice_recog","right","","","",""
"categorize-image","113","490073","0.0-3.0-7.0-0.15","6s74qrz1nyty36k","practice_recog","5ddb0012270f44a553f0d024","5f60e3c0a3b16e07647b2ff9","5f63803269623f0749209909","true","719.4499997422099","./Stimuli/ImagesPractice/LM143.jpg","83","","","","test","true","","83","","LM","LM143.jpg","","old","48","3","practice_recog","left","","","",""
"html-keyboard-response","114","520579","0.0-3.0-8.0","6s74qrz1nyty36k","instructions","5ddb0012270f44a553f0d024","5f60e3c0a3b16e07647b2ff9","5f63803269623f0749209909","false","30503.034999594092","<div align=left> Great!<br><br>Are you ready to continue?<br>If you want to reread the instructions and redo the practice trials, please <br>press „Z“.<br><br>You can proceed when you are ready.<br><br>After the presentation of each object, you will receive an instruction whether to <br>remember or to forget the object.<br>We will test your memory of the following pictures only at the very end of <br>the experiment after all learning blocks are completed. <br><br>Press SPACE to CONTINUE when you are ready. </div>","32","","","","","","","","","","","","","","","","","","","",""
"html-keyboard-response","115","525950","0.0-4.0-0.0","6s74qrz1nyty36k","instructions","5ddb0012270f44a553f0d024","5f60e3c0a3b16e07647b2ff9","5f63803269623f0749209909","false","5367.389999330044","<div align=left> The actual experiment is about to start.<br>The practice trials are over!<br><br>Please always respond both fast and accurately!<br><br>Remember: <br> <br><li> Please place your index fingers on the <strong>'S'</strong> and <strong>'L'</strong> keys <br>to respond as fast and accurately as possible.</li><li> Every picture can be classified as either mechanical or non-mechanical.</li><li> If you do not respond in time or commit an error, you will receive a corresponding feedback.<br> Please try to respond as <strong> fast </strong> and as <strong> accurately as possible </strong>.</li><li> Remember the <span style='color: dodgerblue; font-size: 28px'>O</span> pictures. <br></li><li> Please minimize distractions and stay focused. </li><br><br>Press SPACE to START.</div>","32","","","","","","","","","","","","","","","","","","","",""
"html-keyboard-response","116","526653","0.0-4.0-1.0-0.0","6s74qrz1nyty36k","prime","5ddb0012270f44a553f0d024","5f60e3c0a3b16e07647b2ff9","5f63803269623f0749209909","false","null","<span style=""color: black; font-size: 48px"">N + M</span>","null","","","","resp_prompt","","","","","","","","","","","","","","","",""
"categorize-image","117","527799","0.0-4.0-1.0-1.0","6s74qrz1nyty36k","prime","5ddb0012270f44a553f0d024","5f60e3c0a3b16e07647b2ff9","5f63803269623f0749209909","true","1137.5950006768107","./Stimuli/SelectedImages/LM/LM209.bmp","76","","","","test","true","N + M","76","switch","LM","LM209.bmp","remember","","49","3","prime1","right","","","",""
"html-keyboard-response","118","529803","0.0-4.0-1.0-3.0","6s74qrz1nyty36k","prime","5ddb0012270f44a553f0d024","5f60e3c0a3b16e07647b2ff9","5f63803269623f0749209909","false","null","<div style=""align-items: center; display: flex; color: dodgerblue; font-size: 90px""><b>o</b></div>","null","","","","forget_cue","","","","","","","","","","","","","","","",""
"html-keyboard-response","119","530505","0.0-4.0-1.0-0.1","6s74qrz1nyty36k","prime","5ddb0012270f44a553f0d024","5f60e3c0a3b16e07647b2ff9","5f63803269623f0749209909","false","null","<span style=""color: black; font-size: 48px"">M + N</span>","null","","","","resp_prompt","","","","","","","","","","","","","","","",""
"categorize-image","120","531284","0.0-4.0-1.0-1.1","6s74qrz1nyty36k","prime","5ddb0012270f44a553f0d024","5f60e3c0a3b16e07647b2ff9","5f63803269623f0749209909","true","772.2299993038177","./Stimuli/SelectedImages/SN/SN240.bmp","76","","","","test","true","M + N","76","switch","SN","SN240.bmp","remember","","50","3","prime1","right","","","",""
"html-keyboard-response","121","533301","0.0-4.0-1.0-3.1","6s74qrz1nyty36k","prime","5ddb0012270f44a553f0d024","5f60e3c0a3b16e07647b2ff9","5f63803269623f0749209909","false","null","<div style=""align-items: center; display: flex; color: dodgerblue; font-size: 90px""><b>o</b></div>","null","","","","forget_cue","","","","","","","","","","","","","","","",""
"html-keyboard-response","122","534003","0.0-4.0-1.0-0.2","6s74qrz1nyty36k","prime","5ddb0012270f44a553f0d024","5f60e3c0a3b16e07647b2ff9","5f63803269623f0749209909","false","null","<span style=""color: black; font-size: 48px"">N + M</span>","null","","","","resp_prompt","","","","","","","","","","","","","","","",""
"categorize-image","123","534750","0.0-4.0-1.0-1.2","6s74qrz1nyty36k","prime","5ddb0012270f44a553f0d024","5f60e3c0a3b16e07647b2ff9","5f63803269623f0749209909","true","739.1250003129244","./Stimuli/SelectedImages/SM/SM17.bmp","76","","","","test","true","N + M","76","repetition","SM","SM17.bmp","remember","","51","3","prime1","right","","","",""
"html-keyboard-response","124","536764","0.0-4.0-1.0-3.2","6s74qrz1nyty36k","prime","5ddb0012270f44a553f0d024","5f60e3c0a3b16e07647b2ff9","5f63803269623f0749209909","false","null","<div style=""align-items: center; display: flex; color: dodgerblue; font-size: 90px""><b>o</b></div>","null","","","","forget_cue","","","","","","","","","","","","","","","",""
"html-keyboard-response","125","537466","0.0-4.0-1.0-0.3","6s74qrz1nyty36k","prime","5ddb0012270f44a553f0d024","5f60e3c0a3b16e07647b2ff9","5f63803269623f0749209909","false","null","<span style=""color: black; font-size: 48px"">N + M</span>","null","","","","resp_prompt","","","","","","","","","","","","","","","",""
"categorize-image","126","538329","0.0-4.0-1.0-1.3","6s74qrz1nyty36k","prime","5ddb0012270f44a553f0d024","5f60e3c0a3b16e07647b2ff9","5f63803269623f0749209909","true","857.0149997249246","./Stimuli/SelectedImages/SN/SN128.bmp","83","","","","test","true","N + M","83","repetition","SN","SN128.bmp","forget","","52","3","prime1","left","","","",""
"html-keyboard-response","127","540332","0.0-4.0-1.0-3.3","6s74qrz1nyty36k","prime","5ddb0012270f44a553f0d024","5f60e3c0a3b16e07647b2ff9","5f63803269623f0749209909","false","null","<div style=""align-items: center; display: flex; color: darkorange; font-size: 90px""><b>ø</b></div>","null","","","","forget_cue","","","","","","","","","","","","","","","",""
"html-keyboard-response","128","541035","0.0-4.0-1.0-0.4","6s74qrz1nyty36k","prime","5ddb0012270f44a553f0d024","5f60e3c0a3b16e07647b2ff9","5f63803269623f0749209909","false","null","<span style=""color: black; font-size: 48px"">M + N</span>","null","","","","resp_prompt","","","","","","","","","","","","","","","",""
"categorize-image","129","541621","0.0-4.0-1.0-1.4","6s74qrz1nyty36k","prime","5ddb0012270f44a553f0d024","5f60e3c0a3b16e07647b2ff9","5f63803269623f0749209909","true","578.9799997583032","./Stimuli/SelectedImages/SN/SN181.bmp","76","","","","test","true","M + N","76","repetition","SN","SN181.bmp","forget","","53","3","prime1","right","","","",""
"html-keyboard-response","130","543630","0.0-4.0-1.0-3.4","6s74qrz1nyty36k","prime","5ddb0012270f44a553f0d024","5f60e3c0a3b16e07647b2ff9","5f63803269623f0749209909","false","null","<div style=""align-items: center; display: flex; color: darkorange; font-size: 90px""><b>ø</b></div>","null","","","","forget_cue","","","","","","","","","","","","","","","",""
"html-keyboard-response","131","544333","0.0-4.0-1.0-0.5","6s74qrz1nyty36k","prime","5ddb0012270f44a553f0d024","5f60e3c0a3b16e07647b2ff9","5f63803269623f0749209909","false","null","<span style=""color: black; font-size: 48px"">N + M</span>","null","","","","resp_prompt","","","","","","","","","","","","","","","",""
"categorize-image","132","544927","0.0-4.0-1.0-1.5","6s74qrz1nyty36k","prime","5ddb0012270f44a553f0d024","5f60e3c0a3b16e07647b2ff9","5f63803269623f0749209909","true","586.4249998703599","./Stimuli/SelectedImages/LM/LM150.bmp","76","","","","test","true","N + M","76","switch","LM","LM150.bmp","forget","","54","3","prime1","right","","","",""
"html-keyboard-response","133","546932","0.0-4.0-1.0-3.5","6s74qrz1nyty36k","prime","5ddb0012270f44a553f0d024","5f60e3c0a3b16e07647b2ff9","5f63803269623f0749209909","false","null","<div style=""align-items: center; display: flex; color: darkorange; font-size: 90px""><b>ø</b></div>","null","","","","forget_cue","","","","","","","","","","","","","","","",""
"html-keyboard-response","134","547634","0.0-4.0-1.0-0.6","6s74qrz1nyty36k","prime","5ddb0012270f44a553f0d024","5f60e3c0a3b16e07647b2ff9","5f63803269623f0749209909","false","null","<span style=""color: black; font-size: 48px"">M + N</span>","null","","","","resp_prompt","","","","","","","","","","","","","","","",""
"categorize-image","135","548322","0.0-4.0-1.0-1.6","6s74qrz1nyty36k","prime","5ddb0012270f44a553f0d024","5f60e3c0a3b16e07647b2ff9","5f63803269623f0749209909","true","681.6899999976158","./Stimuli/SelectedImages/SN/SN64.bmp","76","","","","test","true","M + N","76","repetition","SN","SN64.bmp","remember","","55","3","prime1","right","","","",""
"html-keyboard-response","136","550337","0.0-4.0-1.0-3.6","6s74qrz1nyty36k","prime","5ddb0012270f44a553f0d024","5f60e3c0a3b16e07647b2ff9","5f63803269623f0749209909","false","null","<div style=""align-items: center; display: flex; color: dodgerblue; font-size: 90px""><b>o</b></div>","null","","","","forget_cue","","","","","","","","","","","","","","","",""
"html-keyboard-response","137","551039","0.0-4.0-1.0-0.7","6s74qrz1nyty36k","prime","5ddb0012270f44a553f0d024","5f60e3c0a3b16e07647b2ff9","5f63803269623f0749209909","false","null","<span style=""color: black; font-size: 48px"">N + M</span>","null","","","","resp_prompt","","","","","","","","","","","","","","","",""
"categorize-image","138","551594","0.0-4.0-1.0-1.7","6s74qrz1nyty36k","prime","5ddb0012270f44a553f0d024","5f60e3c0a3b16e07647b2ff9","5f63803269623f0749209909","true","547.4500004202127","./Stimuli/SelectedImages/SM/SM24.bmp","76","","","","test","true","N + M","76","repetition","SM","SM24.bmp","forget","","56","3","prime1","right","","","",""
"html-keyboard-response","139","553603","0.0-4.0-1.0-3.7","6s74qrz1nyty36k","prime","5ddb0012270f44a553f0d024","5f60e3c0a3b16e07647b2ff9","5f63803269623f0749209909","false","null","<div style=""align-items: center; display: flex; color: darkorange; font-size: 90px""><b>ø</b></div>","null","","","","forget_cue","","","","","","","","","","","","","","","",""
"html-keyboard-response","140","554319","0.0-4.0-1.0-0.8","6s74qrz1nyty36k","prime","5ddb0012270f44a553f0d024","5f60e3c0a3b16e07647b2ff9","5f63803269623f0749209909","false","null","<span style=""color: black; font-size: 48px"">M + N</span>","null","","","","resp_prompt","","","","","","","","","","","","","","","",""
"categorize-image","141","554944","0.0-4.0-1.0-1.8","6s74qrz1nyty36k","prime","5ddb0012270f44a553f0d024","5f60e3c0a3b16e07647b2ff9","5f63803269623f0749209909","true","617.3100005835295","./Stimuli/SelectedImages/LM/LM57.bmp","83","","","","test","true","M + N","83","repetition","LM","LM57.bmp","forget","","57","3","prime1","left","","","",""
"html-keyboard-response","142","556947","0.0-4.0-1.0-3.8","6s74qrz1nyty36k","prime","5ddb0012270f44a553f0d024","5f60e3c0a3b16e07647b2ff9","5f63803269623f0749209909","false","null","<div style=""align-items: center; display: flex; color: darkorange; font-size: 90px""><b>ø</b></div>","null","","","","forget_cue","","","","","","","","","","","","","","","",""
"html-keyboard-response","143","557651","0.0-4.0-1.0-0.9","6s74qrz1nyty36k","prime","5ddb0012270f44a553f0d024","5f60e3c0a3b16e07647b2ff9","5f63803269623f0749209909","false","null","<span style=""color: black; font-size: 48px"">M + N</span>","null","","","","resp_prompt","","","","","","","","","","","","","","","",""
"categorize-image","144","558153","0.0-4.0-1.0-1.9","6s74qrz1nyty36k","prime","5ddb0012270f44a553f0d024","5f60e3c0a3b16e07647b2ff9","5f63803269623f0749209909","true","495.3349996358156","./Stimuli/SelectedImages/SM/SM200.bmp","83","","","","test","true","M + N","83","repetition","SM","SM200.bmp","forget","","58","3","prime1","left","","","",""
"html-keyboard-response","145","560155","0.0-4.0-1.0-3.9","6s74qrz1nyty36k","prime","5ddb0012270f44a553f0d024","5f60e3c0a3b16e07647b2ff9","5f63803269623f0749209909","false","null","<div style=""align-items: center; display: flex; color: darkorange; font-size: 90px""><b>ø</b></div>","null","","","","forget_cue","","","","","","","","","","","","","","","",""
"html-keyboard-response","146","560858","0.0-4.0-1.0-0.10","6s74qrz1nyty36k","prime","5ddb0012270f44a553f0d024","5f60e3c0a3b16e07647b2ff9","5f63803269623f0749209909","false","null","<span style=""color: black; font-size: 48px"">N + M</span>","null","","","","resp_prompt","","","","","","","","","","","","","","","",""
"categorize-image","147","561488","0.0-4.0-1.0-1.10","6s74qrz1nyty36k","prime","5ddb0012270f44a553f0d024","5f60e3c0a3b16e07647b2ff9","5f63803269623f0749209909","true","622.8849999606609","./Stimuli/SelectedImages/LN/LN92.bmp","83","","","","test","true","N + M","83","repetition","LN","LN92.bmp","remember","","59","3","prime1","left","","","",""
"html-keyboard-response","148","563496","0.0-4.0-1.0-3.10","6s74qrz1nyty36k","prime","5ddb0012270f44a553f0d024","5f60e3c0a3b16e07647b2ff9","5f63803269623f0749209909","false","null","<div style=""align-items: center; display: flex; color: dodgerblue; font-size: 90px""><b>o</b></div>","null","","","","forget_cue","","","","","","","","","","","","","","","",""
"html-keyboard-response","149","564198","0.0-4.0-1.0-0.11","6s74qrz1nyty36k","prime","5ddb0012270f44a553f0d024","5f60e3c0a3b16e07647b2ff9","5f63803269623f0749209909","false","null","<span style=""color: black; font-size: 48px"">M + N</span>","null","","","","resp_prompt","","","","","","","","","","","","","","","",""
"categorize-image","150","565146","0.0-4.0-1.0-1.11","6s74qrz1nyty36k","prime","5ddb0012270f44a553f0d024","5f60e3c0a3b16e07647b2ff9","5f63803269623f0749209909","true","940.8149998635054","./Stimuli/SelectedImages/LN/LN111.bmp","76","","","","test","true","M + N","76","switch","LN","LN111.bmp","remember","","60","3","prime1","right","","","",""
"html-keyboard-response","151","567149","0.0-4.0-1.0-3.11","6s74qrz1nyty36k","prime","5ddb0012270f44a553f0d024","5f60e3c0a3b16e07647b2ff9","5f63803269623f0749209909","false","null","<div style=""align-items: center; display: flex; color: dodgerblue; font-size: 90px""><b>o</b></div>","null","","","","forget_cue","","","","","","","","","","","","","","","",""
"html-keyboard-response","152","567851","0.0-4.0-1.0-0.12","6s74qrz1nyty36k","prime","5ddb0012270f44a553f0d024","5f60e3c0a3b16e07647b2ff9","5f63803269623f0749209909","false","null","<span style=""color: black; font-size: 48px"">N + M</span>","null","","","","resp_prompt","","","","","","","","","","","","","","","",""
"categorize-image","153","568510","0.0-4.0-1.0-1.12","6s74qrz1nyty36k","prime","5ddb0012270f44a553f0d024","5f60e3c0a3b16e07647b2ff9","5f63803269623f0749209909","true","653.1849997118115","./Stimuli/SelectedImages/LM/LM59.bmp","76","","","","test","true","N + M","76","repetition","LM","LM59.bmp","remember","","61","3","prime1","right","","","",""
"html-keyboard-response","154","570523","0.0-4.0-1.0-3.12","6s74qrz1nyty36k","prime","5ddb0012270f44a553f0d024","5f60e3c0a3b16e07647b2ff9","5f63803269623f0749209909","false","null","<div style=""align-items: center; display: flex; color: dodgerblue; font-size: 90px""><b>o</b></div>","null","","","","forget_cue","","","","","","","","","","","","","","","",""
"html-keyboard-response","155","571229","0.0-4.0-1.0-0.13","6s74qrz1nyty36k","prime","5ddb0012270f44a553f0d024","5f60e3c0a3b16e07647b2ff9","5f63803269623f0749209909","false","null","<span style=""color: black; font-size: 48px"">M + N</span>","null","","","","resp_prompt","","","","","","","","","","","","","","","",""
"categorize-image","156","572136","0.0-4.0-1.0-1.13","6s74qrz1nyty36k","prime","5ddb0012270f44a553f0d024","5f60e3c0a3b16e07647b2ff9","5f63803269623f0749209909","true","899.5749996975064","./Stimuli/SelectedImages/SN/SN111.bmp","76","","","","test","true","M + N","76","repetition","SN","SN111.bmp","remember","","62","3","prime1","right","","","",""
"html-keyboard-response","157","574154","0.0-4.0-1.0-3.13","6s74qrz1nyty36k","prime","5ddb0012270f44a553f0d024","5f60e3c0a3b16e07647b2ff9","5f63803269623f0749209909","false","null","<div style=""align-items: center; display: flex; color: dodgerblue; font-size: 90px""><b>o</b></div>","null","","","","forget_cue","","","","","","","","","","","","","","","",""
"html-keyboard-response","158","574861","0.0-4.0-1.0-0.14","6s74qrz1nyty36k","prime","5ddb0012270f44a553f0d024","5f60e3c0a3b16e07647b2ff9","5f63803269623f0749209909","false","null","<span style=""color: black; font-size: 48px"">M + N</span>","null","","","","resp_prompt","","","","","","","","","","","","","","","",""
"categorize-image","159","575540","0.0-4.0-1.0-1.14","6s74qrz1nyty36k","prime","5ddb0012270f44a553f0d024","5f60e3c0a3b16e07647b2ff9","5f63803269623f0749209909","true","671.5449998155236","./Stimuli/SelectedImages/SM/SM195.bmp","83","","","","test","true","M + N","83","switch","SM","SM195.bmp","forget","","63","3","prime1","left","","","",""
"html-keyboard-response","160","577543","0.0-4.0-1.0-3.14","6s74qrz1nyty36k","prime","5ddb0012270f44a553f0d024","5f60e3c0a3b16e07647b2ff9","5f63803269623f0749209909","false","null","<div style=""align-items: center; display: flex; color: darkorange; font-size: 90px""><b>ø</b></div>","null","","","","forget_cue","","","","","","","","","","","","","","","",""
"html-keyboard-response","161","578246","0.0-4.0-1.0-0.15","6s74qrz1nyty36k","prime","5ddb0012270f44a553f0d024","5f60e3c0a3b16e07647b2ff9","5f63803269623f0749209909","false","null","<span style=""color: black; font-size: 48px"">N + M</span>","null","","","","resp_prompt","","","","","","","","","","","","","","","",""
"categorize-image","162","579038","0.0-4.0-1.0-1.15","6s74qrz1nyty36k","prime","5ddb0012270f44a553f0d024","5f60e3c0a3b16e07647b2ff9","5f63803269623f0749209909","true","784.8050007596612","./Stimuli/SelectedImages/SN/SN155.bmp","83","","","","test","true","N + M","83","switch","SN","SN155.bmp","remember","","64","3","prime1","left","","","",""
"html-keyboard-response","163","581041","0.0-4.0-1.0-3.15","6s74qrz1nyty36k","prime","5ddb0012270f44a553f0d024","5f60e3c0a3b16e07647b2ff9","5f63803269623f0749209909","false","null","<div style=""align-items: center; display: flex; color: dodgerblue; font-size: 90px""><b>o</b></div>","null","","","","forget_cue","","","","","","","","","","","","","","","",""
"html-keyboard-response","164","581744","0.0-4.0-1.0-0.16","6s74qrz1nyty36k","prime","5ddb0012270f44a553f0d024","5f60e3c0a3b16e07647b2ff9","5f63803269623f0749209909","false","null","<span style=""color: black; font-size: 48px"">M + N</span>","null","","","","resp_prompt","","","","","","","","","","","","","","","",""
"categorize-image","165","582432","0.0-4.0-1.0-1.16","6s74qrz1nyty36k","prime","5ddb0012270f44a553f0d024","5f60e3c0a3b16e07647b2ff9","5f63803269623f0749209909","true","679.2999999597669","./Stimuli/SelectedImages/LN/LN12.bmp","76","","","","test","true","M + N","76","repetition","LN","LN12.bmp","forget","","65","3","prime1","right","","","",""
"html-keyboard-response","166","584437","0.0-4.0-1.0-3.16","6s74qrz1nyty36k","prime","5ddb0012270f44a553f0d024","5f60e3c0a3b16e07647b2ff9","5f63803269623f0749209909","false","null","<div style=""align-items: center; display: flex; color: darkorange; font-size: 90px""><b>ø</b></div>","null","","","","forget_cue","","","","","","","","","","","","","","","",""
"html-keyboard-response","167","585143","0.0-4.0-1.0-0.17","6s74qrz1nyty36k","prime","5ddb0012270f44a553f0d024","5f60e3c0a3b16e07647b2ff9","5f63803269623f0749209909","false","null","<span style=""color: black; font-size: 48px"">N + M</span>","null","","","","resp_prompt","","","","","","","","","","","","","","","",""
"categorize-image","168","585791","0.0-4.0-1.0-1.17","6s74qrz1nyty36k","prime","5ddb0012270f44a553f0d024","5f60e3c0a3b16e07647b2ff9","5f63803269623f0749209909","true","639.1949998214841","./Stimuli/SelectedImages/LN/LN131.bmp","83","","","","test","true","N + M","83","switch","LN","LN131.bmp","forget","","66","3","prime1","left","","","",""
"html-keyboard-response","169","587803","0.0-4.0-1.0-3.17","6s74qrz1nyty36k","prime","5ddb0012270f44a553f0d024","5f60e3c0a3b16e07647b2ff9","5f63803269623f0749209909","false","null","<div style=""align-items: center; display: flex; color: darkorange; font-size: 90px""><b>ø</b></div>","null","","","","forget_cue","","","","","","","","","","","","","","","",""
"html-keyboard-response","170","588505","0.0-4.0-1.0-0.18","6s74qrz1nyty36k","prime","5ddb0012270f44a553f0d024","5f60e3c0a3b16e07647b2ff9","5f63803269623f0749209909","false","null","<span style=""color: black; font-size: 48px"">N + M</span>","null","","","","resp_prompt","","","","","","","","","","","","","","","",""
"categorize-image","171","589171","0.0-4.0-1.0-1.18","6s74qrz1nyty36k","prime","5ddb0012270f44a553f0d024","5f60e3c0a3b16e07647b2ff9","5f63803269623f0749209909","true","658.7100001052022","./Stimuli/SelectedImages/LN/LN101.bmp","83","","","","test","true","N + M","83","switch","LN","LN101.bmp","remember","","67","3","prime1","left","","","",""
"html-keyboard-response","172","591177","0.0-4.0-1.0-3.18","6s74qrz1nyty36k","prime","5ddb0012270f44a553f0d024","5f60e3c0a3b16e07647b2ff9","5f63803269623f0749209909","false","null","<div style=""align-items: center; display: flex; color: dodgerblue; font-size: 90px""><b>o</b></div>","null","","","","forget_cue","","","","","","","","","","","","","","","",""
"html-keyboard-response","173","591879","0.0-4.0-1.0-0.19","6s74qrz1nyty36k","prime","5ddb0012270f44a553f0d024","5f60e3c0a3b16e07647b2ff9","5f63803269623f0749209909","false","null","<span style=""color: black; font-size: 48px"">M + N</span>","null","","","","resp_prompt","","","","","","","","","","","","","","","",""
"categorize-image","174","592615","0.0-4.0-1.0-1.19","6s74qrz1nyty36k","prime","5ddb0012270f44a553f0d024","5f60e3c0a3b16e07647b2ff9","5f63803269623f0749209909","true","729.9750000238419","./Stimuli/SelectedImages/LN/LN13.bmp","76","","","","test","true","M + N","76","switch","LN","LN13.bmp","forget","","68","3","prime1","right","","","",""
"html-keyboard-response","175","594620","0.0-4.0-1.0-3.19","6s74qrz1nyty36k","prime","5ddb0012270f44a553f0d024","5f60e3c0a3b16e07647b2ff9","5f63803269623f0749209909","false","null","<div style=""align-items: center; display: flex; color: darkorange; font-size: 90px""><b>ø</b></div>","null","","","","forget_cue","","","","","","","","","","","","","","","",""
"html-keyboard-response","176","595322","0.0-4.0-1.0-0.20","6s74qrz1nyty36k","prime","5ddb0012270f44a553f0d024","5f60e3c0a3b16e07647b2ff9","5f63803269623f0749209909","false","null","<span style=""color: black; font-size: 48px"">M + N</span>","null","","","","resp_prompt","","","","","","","","","","","","","","","",""
"categorize-image","177","596094","0.0-4.0-1.0-1.20","6s74qrz1nyty36k","prime","5ddb0012270f44a553f0d024","5f60e3c0a3b16e07647b2ff9","5f63803269623f0749209909","true","764.045000076294","./Stimuli/SelectedImages/SM/SM106.bmp","83","","","","test","true","M + N","83","switch","SM","SM106.bmp","forget","","69","3","prime1","left","","","",""
"html-keyboard-response","178","598096","0.0-4.0-1.0-3.20","6s74qrz1nyty36k","prime","5ddb0012270f44a553f0d024","5f60e3c0a3b16e07647b2ff9","5f63803269623f0749209909","false","null","<div style=""align-items: center; display: flex; color: darkorange; font-size: 90px""><b>ø</b></div>","null","","","","forget_cue","","","","","","","","","","","","","","","",""
"html-keyboard-response","179","598799","0.0-4.0-1.0-0.21","6s74qrz1nyty36k","prime","5ddb0012270f44a553f0d024","5f60e3c0a3b16e07647b2ff9","5f63803269623f0749209909","false","null","<span style=""color: black; font-size: 48px"">N + M</span>","null","","","","resp_prompt","","","","","","","","","","","","","","","",""
"categorize-image","180","599784","0.0-4.0-1.0-1.21","6s74qrz1nyty36k","prime","5ddb0012270f44a553f0d024","5f60e3c0a3b16e07647b2ff9","5f63803269623f0749209909","true","977.5000000372529","./Stimuli/SelectedImages/LN/LN59.bmp","83","","","","test","true","N + M","83","switch","LN","LN59.bmp","forget","","70","3","prime1","left","","","",""
"html-keyboard-response","181","601800","0.0-4.0-1.0-3.21","6s74qrz1nyty36k","prime","5ddb0012270f44a553f0d024","5f60e3c0a3b16e07647b2ff9","5f63803269623f0749209909","false","null","<div style=""align-items: center; display: flex; color: darkorange; font-size: 90px""><b>ø</b></div>","null","","","","forget_cue","","","","","","","","","","","","","","","",""
"html-keyboard-response","182","602511","0.0-4.0-1.0-0.22","6s74qrz1nyty36k","prime","5ddb0012270f44a553f0d024","5f60e3c0a3b16e07647b2ff9","5f63803269623f0749209909","false","null","<span style=""color: black; font-size: 48px"">M + N</span>","null","","","","resp_prompt","","","","","","","","","","","","","","","",""
"categorize-image","183","603264","0.0-4.0-1.0-1.22","6s74qrz1nyty36k","prime","5ddb0012270f44a553f0d024","5f60e3c0a3b16e07647b2ff9","5f63803269623f0749209909","true","744.424999691546","./Stimuli/SelectedImages/SM/SM148.bmp","83","","","","test","true","M + N","83","switch","SM","SM148.bmp","remember","","71","3","prime1","left","","","",""
"html-keyboard-response","184","605279","0.0-4.0-1.0-3.22","6s74qrz1nyty36k","prime","5ddb0012270f44a553f0d024","5f60e3c0a3b16e07647b2ff9","5f63803269623f0749209909","false","null","<div style=""align-items: center; display: flex; color: dodgerblue; font-size: 90px""><b>o</b></div>","null","","","","forget_cue","","","","","","","","","","","","","","","",""
"html-keyboard-response","185","605982","0.0-4.0-1.0-0.23","6s74qrz1nyty36k","prime","5ddb0012270f44a553f0d024","5f60e3c0a3b16e07647b2ff9","5f63803269623f0749209909","false","null","<span style=""color: black; font-size: 48px"">N + M</span>","null","","","","resp_prompt","","","","","","","","","","","","","","","",""
"categorize-image","186","606741","0.0-4.0-1.0-1.23","6s74qrz1nyty36k","prime","5ddb0012270f44a553f0d024","5f60e3c0a3b16e07647b2ff9","5f63803269623f0749209909","true","753.4999996423721","./Stimuli/SelectedImages/LN/LN128.bmp","83","","","","test","true","N + M","83","switch","LN","LN128.bmp","remember","","72","3","prime1","left","","","",""
"html-keyboard-response","187","608754","0.0-4.0-1.0-3.23","6s74qrz1nyty36k","prime","5ddb0012270f44a553f0d024","5f60e3c0a3b16e07647b2ff9","5f63803269623f0749209909","false","null","<div style=""align-items: center; display: flex; color: dodgerblue; font-size: 90px""><b>o</b></div>","null","","","","forget_cue","","","","","","","","","","","","","","","",""
"html-keyboard-response","188","609456","0.0-4.0-1.0-0.24","6s74qrz1nyty36k","prime","5ddb0012270f44a553f0d024","5f60e3c0a3b16e07647b2ff9","5f63803269623f0749209909","false","null","<span style=""color: black; font-size: 48px"">N + M</span>","null","","","","resp_prompt","","","","","","","","","","","","","","","",""
"categorize-image","189","610153","0.0-4.0-1.0-1.24","6s74qrz1nyty36k","prime","5ddb0012270f44a553f0d024","5f60e3c0a3b16e07647b2ff9","5f63803269623f0749209909","true","689.4150003790855","./Stimuli/SelectedImages/LM/LM216.bmp","76","","","","test","true","N + M","76","switch","LM","LM216.bmp","forget","","73","3","prime1","right","","","",""
"html-keyboard-response","190","612156","0.0-4.0-1.0-3.24","6s74qrz1nyty36k","prime","5ddb0012270f44a553f0d024","5f60e3c0a3b16e07647b2ff9","5f63803269623f0749209909","false","null","<div style=""align-items: center; display: flex; color: darkorange; font-size: 90px""><b>ø</b></div>","null","","","","forget_cue","","","","","","","","","","","","","","","",""
"html-keyboard-response","191","612859","0.0-4.0-1.0-0.25","6s74qrz1nyty36k","prime","5ddb0012270f44a553f0d024","5f60e3c0a3b16e07647b2ff9","5f63803269623f0749209909","false","null","<span style=""color: black; font-size: 48px"">N + M</span>","null","","","","resp_prompt","","","","","","","","","","","","","","","",""
"categorize-image","192","613479","0.0-4.0-1.0-1.25","6s74qrz1nyty36k","prime","5ddb0012270f44a553f0d024","5f60e3c0a3b16e07647b2ff9","5f63803269623f0749209909","true","611.600000411272","./Stimuli/SelectedImages/SN/SN60.bmp","83","","","","test","true","N + M","83","repetition","SN","SN60.bmp","remember","","74","3","prime1","left","","","",""
"html-keyboard-response","193","615490","0.0-4.0-1.0-3.25","6s74qrz1nyty36k","prime","5ddb0012270f44a553f0d024","5f60e3c0a3b16e07647b2ff9","5f63803269623f0749209909","false","null","<div style=""align-items: center; display: flex; color: dodgerblue; font-size: 90px""><b>o</b></div>","null","","","","forget_cue","","","","","","","","","","","","","","","",""
"html-keyboard-response","194","616192","0.0-4.0-1.0-0.26","6s74qrz1nyty36k","prime","5ddb0012270f44a553f0d024","5f60e3c0a3b16e07647b2ff9","5f63803269623f0749209909","false","null","<span style=""color: black; font-size: 48px"">M + N</span>","null","","","","resp_prompt","","","","","","","","","","","","","","","",""
"categorize-image","195","616963","0.0-4.0-1.0-1.26","6s74qrz1nyty36k","prime","5ddb0012270f44a553f0d024","5f60e3c0a3b16e07647b2ff9","5f63803269623f0749209909","true","763.7700000777841","./Stimuli/SelectedImages/LN/LN149.bmp","76","","","","test","true","M + N","76","repetition","LN","LN149.bmp","forget","","75","3","prime1","right","","","",""
"html-keyboard-response","196","618964","0.0-4.0-1.0-3.26","6s74qrz1nyty36k","prime","5ddb0012270f44a553f0d024","5f60e3c0a3b16e07647b2ff9","5f63803269623f0749209909","false","null","<div style=""align-items: center; display: flex; color: darkorange; font-size: 90px""><b>ø</b></div>","null","","","","forget_cue","","","","","","","","","","","","","","","",""
"html-keyboard-response","197","619675","0.0-4.0-1.0-0.27","6s74qrz1nyty36k","prime","5ddb0012270f44a553f0d024","5f60e3c0a3b16e07647b2ff9","5f63803269623f0749209909","false","null","<span style=""color: black; font-size: 48px"">M + N</span>","null","","","","resp_prompt","","","","","","","","","","","","","","","",""
"categorize-image","198","620564","0.0-4.0-1.0-1.27","6s74qrz1nyty36k","prime","5ddb0012270f44a553f0d024","5f60e3c0a3b16e07647b2ff9","5f63803269623f0749209909","true","882.2400001809001","./Stimuli/SelectedImages/LM/LM129.bmp","83","","","","test","true","M + N","83","switch","LM","LM129.bmp","forget","","76","3","prime1","left","","","",""
"html-keyboard-response","199","622566","0.0-4.0-1.0-3.27","6s74qrz1nyty36k","prime","5ddb0012270f44a553f0d024","5f60e3c0a3b16e07647b2ff9","5f63803269623f0749209909","false","null","<div style=""align-items: center; display: flex; color: darkorange; font-size: 90px""><b>ø</b></div>","null","","","","forget_cue","","","","","","","","","","","","","","","",""
"html-keyboard-response","200","623271","0.0-4.0-1.0-0.28","6s74qrz1nyty36k","prime","5ddb0012270f44a553f0d024","5f60e3c0a3b16e07647b2ff9","5f63803269623f0749209909","false","null","<span style=""color: black; font-size: 48px"">N + M</span>","null","","","","resp_prompt","","","","","","","","","","","","","","","",""
"categorize-image","201","624091","0.0-4.0-1.0-1.28","6s74qrz1nyty36k","prime","5ddb0012270f44a553f0d024","5f60e3c0a3b16e07647b2ff9","5f63803269623f0749209909","true","813.0599996075034","./Stimuli/SelectedImages/SN/SN18.bmp","83","","","","test","true","N + M","83","repetition","SN","SN18.bmp","remember","","77","3","prime1","left","","","",""
"html-keyboard-response","202","626095","0.0-4.0-1.0-3.28","6s74qrz1nyty36k","prime","5ddb0012270f44a553f0d024","5f60e3c0a3b16e07647b2ff9","5f63803269623f0749209909","false","null","<div style=""align-items: center; display: flex; color: dodgerblue; font-size: 90px""><b>o</b></div>","null","","","","forget_cue","","","","","","","","","","","","","","","",""
"html-keyboard-response","203","626797","0.0-4.0-1.0-0.29","6s74qrz1nyty36k","prime","5ddb0012270f44a553f0d024","5f60e3c0a3b16e07647b2ff9","5f63803269623f0749209909","false","null","<span style=""color: black; font-size: 48px"">N + M</span>","null","","","","resp_prompt","","","","","","","","","","","","","","","",""
"categorize-image","204","627530","0.0-4.0-1.0-1.29","6s74qrz1nyty36k","prime","5ddb0012270f44a553f0d024","5f60e3c0a3b16e07647b2ff9","5f63803269623f0749209909","true","725.8600005879998","./Stimuli/SelectedImages/SM/SM128.bmp","76","","","","test","true","N + M","76","switch","SM","SM128.bmp","remember","","78","3","prime1","right","","","",""
"html-keyboard-response","205","629535","0.0-4.0-1.0-3.29","6s74qrz1nyty36k","prime","5ddb0012270f44a553f0d024","5f60e3c0a3b16e07647b2ff9","5f63803269623f0749209909","false","null","<div style=""align-items: center; display: flex; color: dodgerblue; font-size: 90px""><b>o</b></div>","null","","","","forget_cue","","","","","","","","","","","","","","","",""
"html-keyboard-response","206","630237","0.0-4.0-1.0-0.30","6s74qrz1nyty36k","prime","5ddb0012270f44a553f0d024","5f60e3c0a3b16e07647b2ff9","5f63803269623f0749209909","false","null","<span style=""color: black; font-size: 48px"">M + N</span>","null","","","","resp_prompt","","","","","","","","","","","","","","","",""
"categorize-image","207","630877","0.0-4.0-1.0-1.30","6s74qrz1nyty36k","prime","5ddb0012270f44a553f0d024","5f60e3c0a3b16e07647b2ff9","5f63803269623f0749209909","true","631.7199999466538","./Stimuli/SelectedImages/SM/SM184.bmp","83","","","","test","true","M + N","83","repetition","SM","SM184.bmp","remember","","79","3","prime1","left","","","",""
"html-keyboard-response","208","632887","0.0-4.0-1.0-3.30","6s74qrz1nyty36k","prime","5ddb0012270f44a553f0d024","5f60e3c0a3b16e07647b2ff9","5f63803269623f0749209909","false","null","<div style=""align-items: center; display: flex; color: dodgerblue; font-size: 90px""><b>o</b></div>","null","","","","forget_cue","","","","","","","","","","","","","","","",""
"html-keyboard-response","209","633596","0.0-4.0-1.0-0.31","6s74qrz1nyty36k","prime","5ddb0012270f44a553f0d024","5f60e3c0a3b16e07647b2ff9","5f63803269623f0749209909","false","null","<span style=""color: black; font-size: 48px"">N + M</span>","null","","","","resp_prompt","","","","","","","","","","","","","","","",""
"categorize-image","210","634226","0.0-4.0-1.0-1.31","6s74qrz1nyty36k","prime","5ddb0012270f44a553f0d024","5f60e3c0a3b16e07647b2ff9","5f63803269623f0749209909","true","622.9649996384978","./Stimuli/SelectedImages/LN/LN9.bmp","83","","","","test","true","N + M","83","repetition","LN","LN9.bmp","forget","","80","3","prime1","left","","","",""
"html-keyboard-response","211","636228","0.0-4.0-1.0-3.31","6s74qrz1nyty36k","prime","5ddb0012270f44a553f0d024","5f60e3c0a3b16e07647b2ff9","5f63803269623f0749209909","false","null","<div style=""align-items: center; display: flex; color: darkorange; font-size: 90px""><b>ø</b></div>","null","","","","forget_cue","","","","","","","","","","","","","","","",""
"html-keyboard-response","212","636930","0.0-4.0-1.0-0.32","6s74qrz1nyty36k","prime","5ddb0012270f44a553f0d024","5f60e3c0a3b16e07647b2ff9","5f63803269623f0749209909","false","null","<span style=""color: black; font-size: 48px"">N + M</span>","null","","","","resp_prompt","","","","","","","","","","","","","","","",""
"categorize-image","213","637536","0.0-4.0-1.0-1.32","6s74qrz1nyty36k","prime","5ddb0012270f44a553f0d024","5f60e3c0a3b16e07647b2ff9","5f63803269623f0749209909","true","598.7150007858872","./Stimuli/SelectedImages/LN/LN28.bmp","83","","","","test","true","N + M","83","repetition","LN","LN28.bmp","remember","","81","3","prime1","left","","","",""
"html-keyboard-response","214","639551","0.0-4.0-1.0-3.32","6s74qrz1nyty36k","prime","5ddb0012270f44a553f0d024","5f60e3c0a3b16e07647b2ff9","5f63803269623f0749209909","false","null","<div style=""align-items: center; display: flex; color: dodgerblue; font-size: 90px""><b>o</b></div>","null","","","","forget_cue","","","","","","","","","","","","","","","",""
"html-keyboard-response","215","640268","0.0-4.0-1.0-0.33","6s74qrz1nyty36k","prime","5ddb0012270f44a553f0d024","5f60e3c0a3b16e07647b2ff9","5f63803269623f0749209909","false","null","<span style=""color: black; font-size: 48px"">M + N</span>","null","","","","resp_prompt","","","","","","","","","","","","","","","",""
"categorize-image","216","641060","0.0-4.0-1.0-1.33","6s74qrz1nyty36k","prime","5ddb0012270f44a553f0d024","5f60e3c0a3b16e07647b2ff9","5f63803269623f0749209909","true","785.5799999088049","./Stimuli/SelectedImages/SM/SM73.bmp","83","","","","test","true","M + N","83","switch","SM","SM73.bmp","remember","","82","3","prime1","left","","","",""
"html-keyboard-response","217","643063","0.0-4.0-1.0-3.33","6s74qrz1nyty36k","prime","5ddb0012270f44a553f0d024","5f60e3c0a3b16e07647b2ff9","5f63803269623f0749209909","false","null","<div style=""align-items: center; display: flex; color: dodgerblue; font-size: 90px""><b>o</b></div>","null","","","","forget_cue","","","","","","","","","","","","","","","",""
"html-keyboard-response","218","643765","0.0-4.0-1.0-0.34","6s74qrz1nyty36k","prime","5ddb0012270f44a553f0d024","5f60e3c0a3b16e07647b2ff9","5f63803269623f0749209909","false","null","<span style=""color: black; font-size: 48px"">M + N</span>","null","","","","resp_prompt","","","","","","","","","","","","","","","",""
"categorize-image","219","644376","0.0-4.0-1.0-1.34","6s74qrz1nyty36k","prime","5ddb0012270f44a553f0d024","5f60e3c0a3b16e07647b2ff9","5f63803269623f0749209909","true","604.7949995845556","./Stimuli/SelectedImages/LM/LM51.bmp","83","","","","test","true","M + N","83","switch","LM","LM51.bmp","remember","","83","3","prime1","left","","","",""
"html-keyboard-response","220","646380","0.0-4.0-1.0-3.34","6s74qrz1nyty36k","prime","5ddb0012270f44a553f0d024","5f60e3c0a3b16e07647b2ff9","5f63803269623f0749209909","false","null","<div style=""align-items: center; display: flex; color: dodgerblue; font-size: 90px""><b>o</b></div>","null","","","","forget_cue","","","","","","","","","","","","","","","",""
"html-keyboard-response","221","647083","0.0-4.0-1.0-0.35","6s74qrz1nyty36k","prime","5ddb0012270f44a553f0d024","5f60e3c0a3b16e07647b2ff9","5f63803269623f0749209909","false","null","<span style=""color: black; font-size: 48px"">N + M</span>","null","","","","resp_prompt","","","","","","","","","","","","","","","",""
"categorize-image","222","647710","0.0-4.0-1.0-1.35","6s74qrz1nyty36k","prime","5ddb0012270f44a553f0d024","5f60e3c0a3b16e07647b2ff9","5f63803269623f0749209909","true","619.5399994030595","./Stimuli/SelectedImages/SN/SN140.bmp","83","","","","test","true","N + M","83","switch","SN","SN140.bmp","remember","","84","3","prime1","left","","","",""
"html-keyboard-response","223","649727","0.0-4.0-1.0-3.35","6s74qrz1nyty36k","prime","5ddb0012270f44a553f0d024","5f60e3c0a3b16e07647b2ff9","5f63803269623f0749209909","false","null","<div style=""align-items: center; display: flex; color: dodgerblue; font-size: 90px""><b>o</b></div>","null","","","","forget_cue","","","","","","","","","","","","","","","",""
"html-keyboard-response","224","650430","0.0-4.0-1.0-0.36","6s74qrz1nyty36k","prime","5ddb0012270f44a553f0d024","5f60e3c0a3b16e07647b2ff9","5f63803269623f0749209909","false","null","<span style=""color: black; font-size: 48px"">M + N</span>","null","","","","resp_prompt","","","","","","","","","","","","","","","",""
"categorize-image","225","650963","0.0-4.0-1.0-1.36","6s74qrz1nyty36k","prime","5ddb0012270f44a553f0d024","5f60e3c0a3b16e07647b2ff9","5f63803269623f0749209909","true","525.6599998101592","./Stimuli/SelectedImages/LM/LM167.bmp","83","","","","test","true","M + N","83","repetition","LM","LM167.bmp","remember","","85","3","prime1","left","","","",""
"html-keyboard-response","226","652965","0.0-4.0-1.0-3.36","6s74qrz1nyty36k","prime","5ddb0012270f44a553f0d024","5f60e3c0a3b16e07647b2ff9","5f63803269623f0749209909","false","null","<div style=""align-items: center; display: flex; color: dodgerblue; font-size: 90px""><b>o</b></div>","null","","","","forget_cue","","","","","","","","","","","","","","","",""
"html-keyboard-response","227","653669","0.0-4.0-1.0-0.37","6s74qrz1nyty36k","prime","5ddb0012270f44a553f0d024","5f60e3c0a3b16e07647b2ff9","5f63803269623f0749209909","false","null","<span style=""color: black; font-size: 48px"">M + N</span>","null","","","","resp_prompt","","","","","","","","","","","","","","","",""
"categorize-image","228","654529","0.0-4.0-1.0-1.37","6s74qrz1nyty36k","prime","5ddb0012270f44a553f0d024","5f60e3c0a3b16e07647b2ff9","5f63803269623f0749209909","true","853.7300005555153","./Stimuli/SelectedImages/SM/SM205.bmp","83","","","","test","true","M + N","83","repetition","SM","SM205.bmp","remember","","86","3","prime1","left","","","",""
"html-keyboard-response","229","656543","0.0-4.0-1.0-3.37","6s74qrz1nyty36k","prime","5ddb0012270f44a553f0d024","5f60e3c0a3b16e07647b2ff9","5f63803269623f0749209909","false","null","<div style=""align-items: center; display: flex; color: dodgerblue; font-size: 90px""><b>o</b></div>","null","","","","forget_cue","","","","","","","","","","","","","","","",""
"html-keyboard-response","230","657246","0.0-4.0-1.0-0.38","6s74qrz1nyty36k","prime","5ddb0012270f44a553f0d024","5f60e3c0a3b16e07647b2ff9","5f63803269623f0749209909","false","null","<span style=""color: black; font-size: 48px"">N + M</span>","null","","","","resp_prompt","","","","","","","","","","","","","","","",""
"categorize-image","231","657859","0.0-4.0-1.0-1.38","6s74qrz1nyty36k","prime","5ddb0012270f44a553f0d024","5f60e3c0a3b16e07647b2ff9","5f63803269623f0749209909","true","606.5899999812245","./Stimuli/SelectedImages/LM/LM58.bmp","76","","","","test","true","N + M","76","repetition","LM","LM58.bmp","forget","","87","3","prime1","right","","","",""
"html-keyboard-response","232","659862","0.0-4.0-1.0-3.38","6s74qrz1nyty36k","prime","5ddb0012270f44a553f0d024","5f60e3c0a3b16e07647b2ff9","5f63803269623f0749209909","false","null","<div style=""align-items: center; display: flex; color: darkorange; font-size: 90px""><b>ø</b></div>","null","","","","forget_cue","","","","","","","","","","","","","","","",""
"html-keyboard-response","233","660570","0.0-4.0-1.0-0.39","6s74qrz1nyty36k","prime","5ddb0012270f44a553f0d024","5f60e3c0a3b16e07647b2ff9","5f63803269623f0749209909","false","null","<span style=""color: black; font-size: 48px"">M + N</span>","null","","","","resp_prompt","","","","","","","","","","","","","","","",""
"categorize-image","234","661235","0.0-4.0-1.0-1.39","6s74qrz1nyty36k","prime","5ddb0012270f44a553f0d024","5f60e3c0a3b16e07647b2ff9","5f63803269623f0749209909","true","657.5500005856156","./Stimuli/SelectedImages/LM/LM179.bmp","83","","","","test","true","M + N","83","switch","LM","LM179.bmp","forget","","88","3","prime1","left","","","",""
"html-keyboard-response","235","663239","0.0-4.0-1.0-3.39","6s74qrz1nyty36k","prime","5ddb0012270f44a553f0d024","5f60e3c0a3b16e07647b2ff9","5f63803269623f0749209909","false","null","<div style=""align-items: center; display: flex; color: darkorange; font-size: 90px""><b>ø</b></div>","null","","","","forget_cue","","","","","","","","","","","","","","","",""
"html-keyboard-response","236","663942","0.0-4.0-1.0-0.40","6s74qrz1nyty36k","prime","5ddb0012270f44a553f0d024","5f60e3c0a3b16e07647b2ff9","5f63803269623f0749209909","false","null","<span style=""color: black; font-size: 48px"">N + M</span>","null","","","","resp_prompt","","","","","","","","","","","","","","","",""
"categorize-image","237","664822","0.0-4.0-1.0-1.40","6s74qrz1nyty36k","prime","5ddb0012270f44a553f0d024","5f60e3c0a3b16e07647b2ff9","5f63803269623f0749209909","true","873.1599999591708","./Stimuli/SelectedImages/LM/LM157.bmp","76","","","","test","true","N + M","76","repetition","LM","LM157.bmp","forget","","89","3","prime1","right","","","",""
"html-keyboard-response","238","666842","0.0-4.0-1.0-3.40","6s74qrz1nyty36k","prime","5ddb0012270f44a553f0d024","5f60e3c0a3b16e07647b2ff9","5f63803269623f0749209909","false","null","<div style=""align-items: center; display: flex; color: darkorange; font-size: 90px""><b>ø</b></div>","null","","","","forget_cue","","","","","","","","","","","","","","","",""
"html-keyboard-response","239","667558","0.0-4.0-1.0-0.41","6s74qrz1nyty36k","prime","5ddb0012270f44a553f0d024","5f60e3c0a3b16e07647b2ff9","5f63803269623f0749209909","false","null","<span style=""color: black; font-size: 48px"">M + N</span>","null","","","","resp_prompt","","","","","","","","","","","","","","","",""
"categorize-image","240","668603","0.0-4.0-1.0-1.41","6s74qrz1nyty36k","prime","5ddb0012270f44a553f0d024","5f60e3c0a3b16e07647b2ff9","5f63803269623f0749209909","true","1037.1049996465445","./Stimuli/SelectedImages/SN/SN49.bmp","76","","","","test","true","M + N","76","repetition","SN","SN49.bmp","forget","","90","3","prime1","right","","","",""
"html-keyboard-response","241","670608","0.0-4.0-1.0-3.41","6s74qrz1nyty36k","prime","5ddb0012270f44a553f0d024","5f60e3c0a3b16e07647b2ff9","5f63803269623f0749209909","false","null","<div style=""align-items: center; display: flex; color: darkorange; font-size: 90px""><b>ø</b></div>","null","","","","forget_cue","","","","","","","","","","","","","","","",""
"html-keyboard-response","242","671320","0.0-4.0-1.0-0.42","6s74qrz1nyty36k","prime","5ddb0012270f44a553f0d024","5f60e3c0a3b16e07647b2ff9","5f63803269623f0749209909","false","null","<span style=""color: black; font-size: 48px"">N + M</span>","null","","","","resp_prompt","","","","","","","","","","","","","","","",""
"categorize-image","243","671928","0.0-4.0-1.0-1.42","6s74qrz1nyty36k","prime","5ddb0012270f44a553f0d024","5f60e3c0a3b16e07647b2ff9","5f63803269623f0749209909","true","600.8899994194508","./Stimuli/SelectedImages/SM/SM108.bmp","76","","","","test","true","N + M","76","switch","SM","SM108.bmp","forget","","91","3","prime1","right","","","",""
"html-keyboard-response","244","673931","0.0-4.0-1.0-3.42","6s74qrz1nyty36k","prime","5ddb0012270f44a553f0d024","5f60e3c0a3b16e07647b2ff9","5f63803269623f0749209909","false","null","<div style=""align-items: center; display: flex; color: darkorange; font-size: 90px""><b>ø</b></div>","null","","","","forget_cue","","","","","","","","","","","","","","","",""
"html-keyboard-response","245","674634","0.0-4.0-1.0-0.43","6s74qrz1nyty36k","prime","5ddb0012270f44a553f0d024","5f60e3c0a3b16e07647b2ff9","5f63803269623f0749209909","false","null","<span style=""color: black; font-size: 48px"">N + M</span>","null","","","","resp_prompt","","","","","","","","","","","","","","","",""
"categorize-image","246","675378","0.0-4.0-1.0-1.43","6s74qrz1nyty36k","prime","5ddb0012270f44a553f0d024","5f60e3c0a3b16e07647b2ff9","5f63803269623f0749209909","true","737.2900005429983","./Stimuli/SelectedImages/SN/SN182.bmp","83","","","","test","true","N + M","83","switch","SN","SN182.bmp","forget","","92","3","prime1","left","","","",""
"html-keyboard-response","247","677382","0.0-4.0-1.0-3.43","6s74qrz1nyty36k","prime","5ddb0012270f44a553f0d024","5f60e3c0a3b16e07647b2ff9","5f63803269623f0749209909","false","null","<div style=""align-items: center; display: flex; color: darkorange; font-size: 90px""><b>ø</b></div>","null","","","","forget_cue","","","","","","","","","","","","","","","",""
"html-keyboard-response","248","678084","0.0-4.0-1.0-0.44","6s74qrz1nyty36k","prime","5ddb0012270f44a553f0d024","5f60e3c0a3b16e07647b2ff9","5f63803269623f0749209909","false","null","<span style=""color: black; font-size: 48px"">N + M</span>","null","","","","resp_prompt","","","","","","","","","","","","","","","",""
"categorize-image","249","679010","0.0-4.0-1.0-1.44","6s74qrz1nyty36k","prime","5ddb0012270f44a553f0d024","5f60e3c0a3b16e07647b2ff9","5f63803269623f0749209909","true","919.1100001335144","./Stimuli/SelectedImages/LM/LM103.bmp","76","","","","test","true","N + M","76","switch","LM","LM103.bmp","remember","","93","3","prime1","right","","","",""
"html-keyboard-response","250","681028","0.0-4.0-1.0-3.44","6s74qrz1nyty36k","prime","5ddb0012270f44a553f0d024","5f60e3c0a3b16e07647b2ff9","5f63803269623f0749209909","false","null","<div style=""align-items: center; display: flex; color: dodgerblue; font-size: 90px""><b>o</b></div>","null","","","","forget_cue","","","","","","","","","","","","","","","",""
"html-keyboard-response","251","681736","0.0-4.0-1.0-0.45","6s74qrz1nyty36k","prime","5ddb0012270f44a553f0d024","5f60e3c0a3b16e07647b2ff9","5f63803269623f0749209909","false","null","<span style=""color: black; font-size: 48px"">N + M</span>","null","","","","resp_prompt","","","","","","","","","","","","","","","",""
"categorize-image","252","682549","0.0-4.0-1.0-1.45","6s74qrz1nyty36k","prime","5ddb0012270f44a553f0d024","5f60e3c0a3b16e07647b2ff9","5f63803269623f0749209909","true","806.6549999639392","./Stimuli/SelectedImages/SM/SM74.bmp","76","","","","test","true","N + M","76","switch","SM","SM74.bmp","forget","","94","3","prime1","right","","","",""
