"trial_type","trial_index","time_elapsed","internal_node_id","subject","exp_part","prolific_PID","study_ID","session_ID","use","rt","stimulus","key_press","button_pressed","responses","question_order","trial_part","correct","resp_map","correct_resp","probe_condition","category","image","forget_condition","list","trial_num","block_num","block","response","test_part","n_span","sequence","num_spaces"
"pavlovia","0","3","0.0-0.0","bbtc2kgx5w5hhg2","","5f5878c94814133e402c8ea2","5f60e3c0a3b16e07647b2ff9","5f61dc04c71cbc0578f5f97c","false","","","","","","","","","","","","","","","","","","","","","","",""
"html-keyboard-response","1","10200","0.0-1.0-0.0-0.0","bbtc2kgx5w5hhg2","welcome","5f5878c94814133e402c8ea2","5f60e3c0a3b16e07647b2ff9","5f61dc04c71cbc0578f5f97c","false","10196.014999994077","<div align=left>Dear participant, <br> thank you for participating in an online study of the Cognition, Action, and Sustainability Unit of the University of Freiburg! <br> <br>The aim of this study is to examine our ability to remember previously learned information. <br>Our goal is to find out, whether our memory improves, when we only remember information that is relevant to us. <br>The experiment will take about 35 minutes to complete. <br> <br>Please, note that you can only participate in this study if you are using a device with a keyboard (PC, Laptop etc.) <br>and not if you are using a mobile device such as a tablet or smartphone.<br> <br>Press 'SPACE' to proceed to the experiment. </div>","32","","","","","","","","","","","","","","","","","","","",""
"html-keyboard-response","2","38043","0.0-1.0-0.0-1.0","bbtc2kgx5w5hhg2","welcome","5f5878c94814133e402c8ea2","5f60e3c0a3b16e07647b2ff9","5f61dc04c71cbc0578f5f97c","false","27842.01000002213","<div align=left><strong> Time Course of this experiment: </strong> <br><br> <strong> 1.</strong>  First, please fill in some information regarding your demographic data. <br><br> <strong> 2.</strong>  Next, your task will be to classify everyday objects. <br>In addition, you will be asked to remember certain objects and recall them later. <br>Working on these tasks requires your undivided attention and concentration.<br>It is therefore essential that you eliminate any sources of distraction in your  <br>environment and ensure that you will not be disturbed. <br><br><strong> 3.</strong>  At the end of the experiment, you will be asked to answer a few additional questions. <br> <br><strong> Important:</strong> After finishing the experiment, only close the browser window <br> by clicking on the 'end the experiment'-button when you are asked to do so. <br>Closing the browser window prematurely will make the allocation of your participation credit impossible. <br><br> Press 'SPACE' to start the experiment. </div>","32","","","","","","","","","","","","","","","","","","","",""
"html-button-response","3","57766","0.0-1.0-0.0-2.0","bbtc2kgx5w5hhg2","welcome","5f5878c94814133e402c8ea2","5f60e3c0a3b16e07647b2ff9","5f61dc04c71cbc0578f5f97c","true","19722.380000021076","<div align=left><strong> Informed consent </strong>  <br>The aim of our research is to better understand human behavior and mental processes. <br>In the following study your behavior (e.g. choices, reaction times) will be studied. <br> <br><strong> Voluntariness and Anonymity </strong> <br>Your participation in this study is  <strong> voluntary</strong>.<br>You may withdraw your consent to participate at any time without providing a reason for doing so and without fear of prejudice. <br><br>As no personal data will be collected, <strong>your data and your person cannot be connected after data collection</strong> – the data-set is anonymous. <br>Respectively, deletion of your data will not be possible after data collection has been completed, as we cannot retrace your data-set.<br>The results and anonymized data collected in this study will be published as a scientific publication. <br>This will happen in an <strong>anonymized format</strong>, so that no data can be traced back to a specific person. <br> <br>The anonymized data of this study will be made available to other researchers and/or in a data archive on the Internet as a means of transparency and to enable subsequent re-use. By doing so, this study follows the recommendations of the Deutsche Forschungsgemeinschaft (DFG, German Research Foundation) and Deutsche Gesellschaft für Psychologie (DGPS, German Psychological Society) regarding quality assurance in research.<br>If you have any questions now or after the experiment, please contact our team (experiments@cs.uni-freiburg.de).<br><br><br>I hereby declare, that I understand the above described conditions of participation and I agree to participate under these conditions. <br><br> </div>","","0","","","","","","","","","","","","","","","","","","",""
"html-keyboard-response","4","73252","0.0-1.0-0.0-3.0","bbtc2kgx5w5hhg2","welcome","5f5878c94814133e402c8ea2","5f60e3c0a3b16e07647b2ff9","5f61dc04c71cbc0578f5f97c","false","15485.140000004321","<div align=left><strong> General information concerning the experiment </strong>  <br> <br>Please follow the instructions:<ol> <li><strong> Do not leave this tab (your browser window) during the experiment and do not reload this tab! </strong>  <br>If you do switch tabs/windows during the experiment (to check your mail or visit another website, for example), <br>the experiment will end automatically and you will <strong>not receive credit</strong> for your participation. <br>Repeated participation or resumption of the experiment is impossible.</li> <br><li>Please close all other programs for the duration of your participation. </li> <br><li>Please mute or turn off your phone and put it out of your reach. </li> <br><li>Please also take off any disturbing accessories (such as wristwatches, bracelets, etc.). </li> <br><li>If you have music playing in the background, please turn it off now. </li> <br></ol>Thank you! <br>Press 'SPACE' to continue. </div>","32","","","","","","","","","","","","","","","","","","","",""
"survey-text","5","76695","0.0-1.0-1.0-0.0","bbtc2kgx5w5hhg2","demographics","5f5878c94814133e402c8ea2","5f60e3c0a3b16e07647b2ff9","5f61dc04c71cbc0578f5f97c","true","3439.6899999992456","","","","{""age"":""31""}","","","","","","","","","","","","","","","","","",""
"survey-multi-choice","6","112211","0.0-1.0-1.0-1.0","bbtc2kgx5w5hhg2","demographics","5f5878c94814133e402c8ea2","5f60e3c0a3b16e07647b2ff9","5f61dc04c71cbc0578f5f97c","true","35514.39999998547","","","","{""gender"":""male"",""school"":""others"",""education"":""Completed university degree or equivalent""}","[0,1,2]","","","","","","","","","","","","","","","","",""
"html-keyboard-response","7","128948","0.0-1.0-2.0","bbtc2kgx5w5hhg2","instructions","5f5878c94814133e402c8ea2","5f60e3c0a3b16e07647b2ff9","5f61dc04c71cbc0578f5f97c","false","16736.529999994673","<div align=left> The experiment is now about to start: <br> <br>In the following part, you will be presented pictures of everyday objects. <br>Your first task is to <strong>classify these objects. </strong> <br> <br> You will classify them either as mechanical or non-mechanical objects. <br> <br>Objects that include any kind of technical mechanism (for example, wheels, switches, levers, <br> electronic components) fall under the category of <strong>mechanical</strong> objects. <br>Only objects without any kind of technical mechanism should be classified as <strong>non-mechanical</strong>. <br><br>Press 'SPACE' to continue. </div>","32","","","","","","","","","","","","","","","","","","","",""
"html-keyboard-response","8","204014","0.0-2.0-0.0","bbtc2kgx5w5hhg2","instructions","5f5878c94814133e402c8ea2","5f60e3c0a3b16e07647b2ff9","5f61dc04c71cbc0578f5f97c","false","75067.99500001944","<div align=justify>You will classify the objects using the <strong>'S'</strong> and the <strong>'L'</strong> keys on your keyboard.<br>For doing so, please place your <strong>left index finger</strong> on the <strong>'S'</strong> key and place your <strong>right index finger</strong> on the <strong>'L'</strong> key. <br><br> Each trial starts with an instruction, indicating which key ('S'/'L') you need to press to classify <br>the object as mechanical (letter M) or non-mechanical (letter N).<br>The instruction <strong>M + N</strong> indicates that, in the current trial, by pressing the left key ('S') you classify the displayed object as mechanical (M) <br> and by pressing the right key ('L') you classify the object as non-mechanical (N). <br>The instruction <strong>N + M</strong> on the other hand indicates that by pressing the left key ('S') you classify the displayed object as non-mechanical (N) <br> and by pressing the right key ('L') you classify the object as mechanical (M). <br><br>Please press the key corresponding to the correct classification as fast as possible as soon as the object is displayed and try to avoid making mistakes.<br>If you do not respond within a 2 second window, a corresponding feedback will be displayed and the next trial will start.<br> The experiment is divided into multiple blocks to give you the opportunity to take a break after each block. <br>First, you can now practice this task. <br><br>Please place your <strong>LEFT INDEX FINGER</strong> on the 'S' key and your <strong>RIGHT INDEX FINGER</strong> on the 'L' key now. <br><br>Press SPACE to continue.</div>","32","","","","","","","","","","","","","","","","","","","",""
"html-keyboard-response","9","211302","0.0-2.0-1.0","bbtc2kgx5w5hhg2","instructions","5f5878c94814133e402c8ea2","5f60e3c0a3b16e07647b2ff9","5f61dc04c71cbc0578f5f97c","false","7286.294999998063","<div align=left> You will now have time to practice this task.<br><br>Remember: <br> <br><li>Please place your index fingers on the <strong>'S'</strong> and <strong>'L'</strong> keys <br>to respond as fast and accurately as possible.</li><li>Every picture can be classified as either mechanical or non-mechanical.</li><li>If you do not respond in time or commit an error, you will receive a corresponding feedback. </li><li> Please try to respond as <strong> fast </strong> and as <strong> accurately as possible </strong> .<br><li>To ensure optimal results, please minimize distractions and stay focused. </li><br><br>Press SPACE to continue.</div>","32","","","","","","","","","","","","","","","","","","","",""
"html-keyboard-response","10","212004","0.0-2.0-2.0-0.0","bbtc2kgx5w5hhg2","practice_no_cue","5f5878c94814133e402c8ea2","5f60e3c0a3b16e07647b2ff9","5f61dc04c71cbc0578f5f97c","false","null","<span style=""color: black; font-size: 48px"">M + N</span>","null","","","","resp_prompt","","","","","","","","","","","","","","","",""
"categorize-image","11","213547","0.0-2.0-2.0-1.0","bbtc2kgx5w5hhg2","practice_no_cue","5f5878c94814133e402c8ea2","5f60e3c0a3b16e07647b2ff9","5f61dc04c71cbc0578f5f97c","true","1039.3249999906402","./Stimuli/ImagesPractice/SN221.jpg","76","","","","test","true","M + N","76","","SN","SN221.jpg","forget","old","1","1","start","right","","","",""
"html-keyboard-response","12","214250","0.0-2.0-2.0-0.1","bbtc2kgx5w5hhg2","practice_no_cue","5f5878c94814133e402c8ea2","5f60e3c0a3b16e07647b2ff9","5f61dc04c71cbc0578f5f97c","false","null","<span style=""color: black; font-size: 48px"">M + N</span>","null","","","","resp_prompt","","","","","","","","","","","","","","","",""
"categorize-image","13","215926","0.0-2.0-2.0-1.1","bbtc2kgx5w5hhg2","practice_no_cue","5f5878c94814133e402c8ea2","5f60e3c0a3b16e07647b2ff9","5f61dc04c71cbc0578f5f97c","true","1171.005000011064","./Stimuli/ImagesPractice/SN220.jpg","76","","","","test","true","M + N","76","","SN","SN220.jpg","forget","old","2","1","start","right","","","",""
"html-keyboard-response","14","216630","0.0-2.0-2.0-0.2","bbtc2kgx5w5hhg2","practice_no_cue","5f5878c94814133e402c8ea2","5f60e3c0a3b16e07647b2ff9","5f61dc04c71cbc0578f5f97c","false","null","<span style=""color: black; font-size: 48px"">M + N</span>","null","","","","resp_prompt","","","","","","","","","","","","","","","",""
"categorize-image","15","218156","0.0-2.0-2.0-1.2","bbtc2kgx5w5hhg2","practice_no_cue","5f5878c94814133e402c8ea2","5f60e3c0a3b16e07647b2ff9","5f61dc04c71cbc0578f5f97c","true","1022.0550000085495","./Stimuli/ImagesPractice/LN109.jpg","76","","","","test","true","M + N","76","","LN","LN109.jpg","remember","old","3","1","start","right","","","",""
"html-keyboard-response","16","218859","0.0-2.0-2.0-0.3","bbtc2kgx5w5hhg2","practice_no_cue","5f5878c94814133e402c8ea2","5f60e3c0a3b16e07647b2ff9","5f61dc04c71cbc0578f5f97c","false","null","<span style=""color: black; font-size: 48px"">N + M</span>","null","","","","resp_prompt","","","","","","","","","","","","","","","",""
"categorize-image","17","220612","0.0-2.0-2.0-1.3","bbtc2kgx5w5hhg2","practice_no_cue","5f5878c94814133e402c8ea2","5f60e3c0a3b16e07647b2ff9","5f61dc04c71cbc0578f5f97c","true","1249.0349999861792","./Stimuli/ImagesPractice/LM230.jpg","83","","","","test","false","N + M","76","","LM","LM230.jpg","forget","old","4","1","start","left","","","",""
"html-keyboard-response","18","221314","0.0-2.0-2.0-0.4","bbtc2kgx5w5hhg2","practice_no_cue","5f5878c94814133e402c8ea2","5f60e3c0a3b16e07647b2ff9","5f61dc04c71cbc0578f5f97c","false","null","<span style=""color: black; font-size: 48px"">M + N</span>","null","","","","resp_prompt","","","","","","","","","","","","","","","",""
"categorize-image","19","223044","0.0-2.0-2.0-1.4","bbtc2kgx5w5hhg2","practice_no_cue","5f5878c94814133e402c8ea2","5f60e3c0a3b16e07647b2ff9","5f61dc04c71cbc0578f5f97c","true","1225.5200000072364","./Stimuli/ImagesPractice/LN2.jpg","76","","","","test","true","M + N","76","","LN","LN2.jpg","remember","old","5","1","start","right","","","",""
"html-keyboard-response","20","223746","0.0-2.0-2.0-0.5","bbtc2kgx5w5hhg2","practice_no_cue","5f5878c94814133e402c8ea2","5f60e3c0a3b16e07647b2ff9","5f61dc04c71cbc0578f5f97c","false","null","<span style=""color: black; font-size: 48px"">M + N</span>","null","","","","resp_prompt","","","","","","","","","","","","","","","",""
"categorize-image","21","225389","0.0-2.0-2.0-1.5","bbtc2kgx5w5hhg2","practice_no_cue","5f5878c94814133e402c8ea2","5f60e3c0a3b16e07647b2ff9","5f61dc04c71cbc0578f5f97c","true","1137.5200000184122","./Stimuli/ImagesPractice/LN4.jpg","76","","","","test","true","M + N","76","","LN","LN4.jpg","forget","old","6","1","start","right","","","",""
"html-keyboard-response","22","226091","0.0-2.0-2.0-0.6","bbtc2kgx5w5hhg2","practice_no_cue","5f5878c94814133e402c8ea2","5f60e3c0a3b16e07647b2ff9","5f61dc04c71cbc0578f5f97c","false","null","<span style=""color: black; font-size: 48px"">M + N</span>","null","","","","resp_prompt","","","","","","","","","","","","","","","",""
"categorize-image","23","227571","0.0-2.0-2.0-1.6","bbtc2kgx5w5hhg2","practice_no_cue","5f5878c94814133e402c8ea2","5f60e3c0a3b16e07647b2ff9","5f61dc04c71cbc0578f5f97c","true","976.600000023609","./Stimuli/ImagesPractice/SM35.jpg","83","","","","test","true","M + N","83","","SM","SM35.jpg","forget","old","7","1","start","left","","","",""
"html-keyboard-response","24","228274","0.0-2.0-2.0-0.7","bbtc2kgx5w5hhg2","practice_no_cue","5f5878c94814133e402c8ea2","5f60e3c0a3b16e07647b2ff9","5f61dc04c71cbc0578f5f97c","false","null","<span style=""color: black; font-size: 48px"">N + M</span>","null","","","","resp_prompt","","","","","","","","","","","","","","","",""
"categorize-image","25","229940","0.0-2.0-2.0-1.7","bbtc2kgx5w5hhg2","practice_no_cue","5f5878c94814133e402c8ea2","5f60e3c0a3b16e07647b2ff9","5f61dc04c71cbc0578f5f97c","true","1161.2199999799486","./Stimuli/ImagesPractice/SM37.jpg","76","","","","test","true","N + M","76","","SM","SM37.jpg","remember","old","8","1","start","right","","","",""
"html-keyboard-response","26","230642","0.0-2.0-2.0-0.8","bbtc2kgx5w5hhg2","practice_no_cue","5f5878c94814133e402c8ea2","5f60e3c0a3b16e07647b2ff9","5f61dc04c71cbc0578f5f97c","false","null","<span style=""color: black; font-size: 48px"">N + M</span>","null","","","","resp_prompt","","","","","","","","","","","","","","","",""
"categorize-image","27","232256","0.0-2.0-2.0-1.8","bbtc2kgx5w5hhg2","practice_no_cue","5f5878c94814133e402c8ea2","5f60e3c0a3b16e07647b2ff9","5f61dc04c71cbc0578f5f97c","true","1112.6100000110455","./Stimuli/ImagesPractice/SM61.jpg","76","","","","test","true","N + M","76","","SM","SM61.jpg","remember","old","9","1","start","right","","","",""
"html-keyboard-response","28","232958","0.0-2.0-2.0-0.9","bbtc2kgx5w5hhg2","practice_no_cue","5f5878c94814133e402c8ea2","5f60e3c0a3b16e07647b2ff9","5f61dc04c71cbc0578f5f97c","false","null","<span style=""color: black; font-size: 48px"">N + M</span>","null","","","","resp_prompt","","","","","","","","","","","","","","","",""
"categorize-image","29","234386","0.0-2.0-2.0-1.9","bbtc2kgx5w5hhg2","practice_no_cue","5f5878c94814133e402c8ea2","5f60e3c0a3b16e07647b2ff9","5f61dc04c71cbc0578f5f97c","true","924.7949999989942","./Stimuli/ImagesPractice/SM98.jpg","76","","","","test","true","N + M","76","","SM","SM98.jpg","forget","old","10","1","start","right","","","",""
"html-keyboard-response","30","235089","0.0-2.0-2.0-0.10","bbtc2kgx5w5hhg2","practice_no_cue","5f5878c94814133e402c8ea2","5f60e3c0a3b16e07647b2ff9","5f61dc04c71cbc0578f5f97c","false","null","<span style=""color: black; font-size: 48px"">M + N</span>","null","","","","resp_prompt","","","","","","","","","","","","","","","",""
"categorize-image","31","236650","0.0-2.0-2.0-1.10","bbtc2kgx5w5hhg2","practice_no_cue","5f5878c94814133e402c8ea2","5f60e3c0a3b16e07647b2ff9","5f61dc04c71cbc0578f5f97c","true","1058.229999995092","./Stimuli/ImagesPractice/SN222.jpg","76","","","","test","true","M + N","76","","SN","SN222.jpg","remember","old","11","1","start","right","","","",""
"html-keyboard-response","32","237353","0.0-2.0-2.0-0.11","bbtc2kgx5w5hhg2","practice_no_cue","5f5878c94814133e402c8ea2","5f60e3c0a3b16e07647b2ff9","5f61dc04c71cbc0578f5f97c","false","null","<span style=""color: black; font-size: 48px"">M + N</span>","null","","","","resp_prompt","","","","","","","","","","","","","","","",""
"categorize-image","33","238682","0.0-2.0-2.0-1.11","bbtc2kgx5w5hhg2","practice_no_cue","5f5878c94814133e402c8ea2","5f60e3c0a3b16e07647b2ff9","5f61dc04c71cbc0578f5f97c","true","827.2899999865331","./Stimuli/ImagesPractice/LN15.jpg","76","","","","test","true","M + N","76","","LN","LN15.jpg","remember","old","12","1","start","right","","","",""
"html-keyboard-response","34","239384","0.0-2.0-2.0-0.12","bbtc2kgx5w5hhg2","practice_no_cue","5f5878c94814133e402c8ea2","5f60e3c0a3b16e07647b2ff9","5f61dc04c71cbc0578f5f97c","false","null","<span style=""color: black; font-size: 48px"">N + M</span>","null","","","","resp_prompt","","","","","","","","","","","","","","","",""
"categorize-image","35","240800","0.0-2.0-2.0-1.12","bbtc2kgx5w5hhg2","practice_no_cue","5f5878c94814133e402c8ea2","5f60e3c0a3b16e07647b2ff9","5f61dc04c71cbc0578f5f97c","true","913.3650000148918","./Stimuli/ImagesPractice/LM147.jpg","83","","","","test","false","N + M","76","","LM","LM147.jpg","forget","old","13","1","start","left","","","",""
"html-keyboard-response","36","241503","0.0-2.0-2.0-0.13","bbtc2kgx5w5hhg2","practice_no_cue","5f5878c94814133e402c8ea2","5f60e3c0a3b16e07647b2ff9","5f61dc04c71cbc0578f5f97c","false","null","<span style=""color: black; font-size: 48px"">N + M</span>","null","","","","resp_prompt","","","","","","","","","","","","","","","",""
"categorize-image","37","243000","0.0-2.0-2.0-1.13","bbtc2kgx5w5hhg2","practice_no_cue","5f5878c94814133e402c8ea2","5f60e3c0a3b16e07647b2ff9","5f61dc04c71cbc0578f5f97c","true","995.4199999920093","./Stimuli/ImagesPractice/LM224.jpg","76","","","","test","true","N + M","76","","LM","LM224.jpg","forget","old","14","1","start","right","","","",""
"html-keyboard-response","38","243707","0.0-2.0-2.0-0.14","bbtc2kgx5w5hhg2","practice_no_cue","5f5878c94814133e402c8ea2","5f60e3c0a3b16e07647b2ff9","5f61dc04c71cbc0578f5f97c","false","null","<span style=""color: black; font-size: 48px"">N + M</span>","null","","","","resp_prompt","","","","","","","","","","","","","","","",""
"categorize-image","39","245067","0.0-2.0-2.0-1.14","bbtc2kgx5w5hhg2","practice_no_cue","5f5878c94814133e402c8ea2","5f60e3c0a3b16e07647b2ff9","5f61dc04c71cbc0578f5f97c","true","855.6150000076741","./Stimuli/ImagesPractice/SN76.jpg","83","","","","test","true","N + M","83","","SN","SN76.jpg","remember","old","15","1","start","left","","","",""
"html-keyboard-response","40","245771","0.0-2.0-2.0-0.15","bbtc2kgx5w5hhg2","practice_no_cue","5f5878c94814133e402c8ea2","5f60e3c0a3b16e07647b2ff9","5f61dc04c71cbc0578f5f97c","false","null","<span style=""color: black; font-size: 48px"">N + M</span>","null","","","","resp_prompt","","","","","","","","","","","","","","","",""
"categorize-image","41","247493","0.0-2.0-2.0-1.15","bbtc2kgx5w5hhg2","practice_no_cue","5f5878c94814133e402c8ea2","5f60e3c0a3b16e07647b2ff9","5f61dc04c71cbc0578f5f97c","true","1215.5749999801628","./Stimuli/ImagesPractice/LM143.jpg","76","","","","test","true","N + M","76","","LM","LM143.jpg","remember","old","16","1","start","right","","","",""
"html-keyboard-response","42","252600","0.0-2.0-3.0","bbtc2kgx5w5hhg2","break","5f5878c94814133e402c8ea2","5f60e3c0a3b16e07647b2ff9","5f61dc04c71cbc0578f5f97c","false","5105.454999982612","<p style='font-size: 32px;'>Break</><br><br><br><br><br><p style='font-size: 24px;'>In the last block, you committed 2 errors and did not respond in time on 0 trials.
</p><p style='font-size: 24px;'>Try to respond as fast and accurately as possible in the next block as well! </p><p style='font-size: 24px;'>Press SPACE to continue.</p>","32","","","","","","","","","","","","","","","","","","","",""
"html-keyboard-response","43","255623","0.0-2.0-4.0","bbtc2kgx5w5hhg2","instructions","5f5878c94814133e402c8ea2","5f60e3c0a3b16e07647b2ff9","5f61dc04c71cbc0578f5f97c","false","3021.9250000081956","<div align=left> Great!<br><br>Are you ready to continue?<br><br>If you want to reread the instructions and redo the practice trials, <br>please press „Z“. <br><br>Press SPACE to CONTINUE with the experiment when you are ready. </div>","32","","","","","","","","","","","","","","","","","","","",""
"html-keyboard-response","44","286055","0.0-3.0-0.0","bbtc2kgx5w5hhg2","instructions","5f5878c94814133e402c8ea2","5f60e3c0a3b16e07647b2ff9","5f61dc04c71cbc0578f5f97c","false","30431.84000000474","<div align=left>Great!<br> <strong>Attention</strong>! You will now receive a second, additional task! <br><br>To this point it was you <strong>first task</strong> to correctly <strong>classify objects</strong>. <br><br>As mentioned in the beginning, we aim to examine how well humans can remember previously learned information.<br>We would like to find out whether our memory improves if we only remember information that is relevant to us. <br><br>Therefore, your <strong>second task</strong> will be to <strong>remember</strong> the pictures you are to categorize. <br> After the learning phase, there will be a memory test phase, in which you will be asked to indicate whether you have seen a picture before or not. <br>Some, but not all pictures shown in the learning phase will appear in the memory test phase.<br>After classifying a picture, you will be told whether you should remember it for the memory test phase or not. <br>Thus, some pictures can be forgotten, whereas others have to be remembered. <br><br>Note: From now on, feedback will only be displayed if you responded incorrectly or not in time.<br><br>Press SPACE to continue.</div>","32","","","","","","","","","","","","","","","","","","","",""
"html-keyboard-response","45","309448","0.0-3.0-1.0","bbtc2kgx5w5hhg2","instructions","5f5878c94814133e402c8ea2","5f60e3c0a3b16e07647b2ff9","5f61dc04c71cbc0578f5f97c","false","23393.210000009276","<div align=left>In the following part, you will thus have to remember only some pictures. <br>Immediately after seeing and classifying the picture, a symbol will be displayed, indicating whether you should remember or forget the previous picture. <br><br>A <span style='color: dodgerblue; font-size: 28px'>O</span> indicates REMEMBER. That means, you have to remember this picture, because it will be tested later. <br><br>A <span style='color: darkorange; font-size:28px'>Ø</span> indicates FORGET. You do not have to remember this picture. <br><br> As you will have to remember a lot of pictures, it will be hard for you to remember all of them. <br>It will put you at an advantage if you instantly forget the pictures you are not asked to remember. <br> This will make it easier for you to remember the pictures that will be tested afterwards. <br><br>Press SPACE to continue.</div>","32","","","","","","","","","","","","","","","","","","","",""
"html-keyboard-response","46","316983","0.0-3.0-2.0","bbtc2kgx5w5hhg2","instructions","5f5878c94814133e402c8ea2","5f60e3c0a3b16e07647b2ff9","5f61dc04c71cbc0578f5f97c","false","7534.404999983963","<div align=left> Now you have the chance to practice both tasks together.<br><br>Remember: <br> <br><li>Please place your index fingers on the <strong>'S'</strong> and <strong>'L'</strong> keys <br>to respond as fast and accurately as possible.</li><li>Every picture can be classified as either mechanical or non-mechanical.</li><li>If you do not respond in time or commit an error, you will receive a corresponding feedback. <br>Please try to respond as <strong> fast </strong> and as <strong> accurately as possible </strong>.</li><li> Please remember only the to-be-remembered <span style='color: dodgerblue; font-size: 28px'>O</span> pictures. <br></li><li> Please minimize distractions and stay focused. </li><br><br>Press SPACE to START</div>","32","","","","","","","","","","","","","","","","","","","",""
"html-keyboard-response","47","317685","0.0-3.0-3.0-0.0","bbtc2kgx5w5hhg2","practice_cue","5f5878c94814133e402c8ea2","5f60e3c0a3b16e07647b2ff9","5f61dc04c71cbc0578f5f97c","false","null","<span style=""color: black; font-size: 48px"">M + N</span>","null","","","","resp_prompt","","","","","","","","","","","","","","","",""
"categorize-image","48","318560","0.0-3.0-3.0-1.0","bbtc2kgx5w5hhg2","practice_cue","5f5878c94814133e402c8ea2","5f60e3c0a3b16e07647b2ff9","5f61dc04c71cbc0578f5f97c","true","872.2149999812245","./Stimuli/ImagesPractice/LN109.jpg","76","","","","test","true","M + N","76","","LN","LN109.jpg","remember","old","17","2","practice_forget","right","","","",""
"html-keyboard-response","49","320563","0.0-3.0-3.0-3.0","bbtc2kgx5w5hhg2","practice_cue","5f5878c94814133e402c8ea2","5f60e3c0a3b16e07647b2ff9","5f61dc04c71cbc0578f5f97c","false","null","<div style=""align-items: center; display: flex; color: dodgerblue; font-size: 90px""><b>o</b></div>","null","","","","forget_cue","","","","","","","","","","","","","","","",""
"html-keyboard-response","50","321269","0.0-3.0-3.0-0.1","bbtc2kgx5w5hhg2","practice_cue","5f5878c94814133e402c8ea2","5f60e3c0a3b16e07647b2ff9","5f61dc04c71cbc0578f5f97c","false","null","<span style=""color: black; font-size: 48px"">M + N</span>","null","","","","resp_prompt","","","","","","","","","","","","","","","",""
"categorize-image","51","322196","0.0-3.0-3.0-1.1","bbtc2kgx5w5hhg2","practice_cue","5f5878c94814133e402c8ea2","5f60e3c0a3b16e07647b2ff9","5f61dc04c71cbc0578f5f97c","true","924.7350000077859","./Stimuli/ImagesPractice/SN222.jpg","76","","","","test","true","M + N","76","","SN","SN222.jpg","remember","old","18","2","practice_forget","right","","","",""
"html-keyboard-response","52","324197","0.0-3.0-3.0-3.1","bbtc2kgx5w5hhg2","practice_cue","5f5878c94814133e402c8ea2","5f60e3c0a3b16e07647b2ff9","5f61dc04c71cbc0578f5f97c","false","null","<div style=""align-items: center; display: flex; color: dodgerblue; font-size: 90px""><b>o</b></div>","null","","","","forget_cue","","","","","","","","","","","","","","","",""
"html-keyboard-response","53","324900","0.0-3.0-3.0-0.2","bbtc2kgx5w5hhg2","practice_cue","5f5878c94814133e402c8ea2","5f60e3c0a3b16e07647b2ff9","5f61dc04c71cbc0578f5f97c","false","null","<span style=""color: black; font-size: 48px"">M + N</span>","null","","","","resp_prompt","","","","","","","","","","","","","","","",""
"categorize-image","54","325877","0.0-3.0-3.0-1.2","bbtc2kgx5w5hhg2","practice_cue","5f5878c94814133e402c8ea2","5f60e3c0a3b16e07647b2ff9","5f61dc04c71cbc0578f5f97c","true","975.1049999904353","./Stimuli/ImagesPractice/SN221.jpg","76","","","","test","true","M + N","76","","SN","SN221.jpg","forget","old","19","2","practice_forget","right","","","",""
"html-keyboard-response","55","327881","0.0-3.0-3.0-3.2","bbtc2kgx5w5hhg2","practice_cue","5f5878c94814133e402c8ea2","5f60e3c0a3b16e07647b2ff9","5f61dc04c71cbc0578f5f97c","false","null","<div style=""align-items: center; display: flex; color: darkorange; font-size: 90px""><b>ø</b></div>","null","","","","forget_cue","","","","","","","","","","","","","","","",""
"html-keyboard-response","56","328587","0.0-3.0-3.0-0.3","bbtc2kgx5w5hhg2","practice_cue","5f5878c94814133e402c8ea2","5f60e3c0a3b16e07647b2ff9","5f61dc04c71cbc0578f5f97c","false","null","<span style=""color: black; font-size: 48px"">N + M</span>","null","","","","resp_prompt","","","","","","","","","","","","","","","",""
"categorize-image","57","329532","0.0-3.0-3.0-1.3","bbtc2kgx5w5hhg2","practice_cue","5f5878c94814133e402c8ea2","5f60e3c0a3b16e07647b2ff9","5f61dc04c71cbc0578f5f97c","true","941.3900000217836","./Stimuli/ImagesPractice/SM37.jpg","76","","","","test","true","N + M","76","","SM","SM37.jpg","remember","old","20","2","practice_forget","right","","","",""
"html-keyboard-response","58","331535","0.0-3.0-3.0-3.3","bbtc2kgx5w5hhg2","practice_cue","5f5878c94814133e402c8ea2","5f60e3c0a3b16e07647b2ff9","5f61dc04c71cbc0578f5f97c","false","null","<div style=""align-items: center; display: flex; color: dodgerblue; font-size: 90px""><b>o</b></div>","null","","","","forget_cue","","","","","","","","","","","","","","","",""
"html-keyboard-response","59","332237","0.0-3.0-3.0-0.4","bbtc2kgx5w5hhg2","practice_cue","5f5878c94814133e402c8ea2","5f60e3c0a3b16e07647b2ff9","5f61dc04c71cbc0578f5f97c","false","null","<span style=""color: black; font-size: 48px"">N + M</span>","null","","","","resp_prompt","","","","","","","","","","","","","","","",""
"categorize-image","60","333180","0.0-3.0-3.0-1.4","bbtc2kgx5w5hhg2","practice_cue","5f5878c94814133e402c8ea2","5f60e3c0a3b16e07647b2ff9","5f61dc04c71cbc0578f5f97c","true","939.8050000017975","./Stimuli/ImagesPractice/LM143.jpg","76","","","","test","true","N + M","76","","LM","LM143.jpg","remember","old","21","2","practice_forget","right","","","",""
"html-keyboard-response","61","335181","0.0-3.0-3.0-3.4","bbtc2kgx5w5hhg2","practice_cue","5f5878c94814133e402c8ea2","5f60e3c0a3b16e07647b2ff9","5f61dc04c71cbc0578f5f97c","false","null","<div style=""align-items: center; display: flex; color: dodgerblue; font-size: 90px""><b>o</b></div>","null","","","","forget_cue","","","","","","","","","","","","","","","",""
"html-keyboard-response","62","335882","0.0-3.0-3.0-0.5","bbtc2kgx5w5hhg2","practice_cue","5f5878c94814133e402c8ea2","5f60e3c0a3b16e07647b2ff9","5f61dc04c71cbc0578f5f97c","false","null","<span style=""color: black; font-size: 48px"">M + N</span>","null","","","","resp_prompt","","","","","","","","","","","","","","","",""
"categorize-image","63","337442","0.0-3.0-3.0-1.5","bbtc2kgx5w5hhg2","practice_cue","5f5878c94814133e402c8ea2","5f60e3c0a3b16e07647b2ff9","5f61dc04c71cbc0578f5f97c","true","1556.5200000128243","./Stimuli/ImagesPractice/LN4.jpg","76","","","","test","true","M + N","76","","LN","LN4.jpg","forget","old","22","2","practice_forget","right","","","",""
"html-keyboard-response","64","339447","0.0-3.0-3.0-3.5","bbtc2kgx5w5hhg2","practice_cue","5f5878c94814133e402c8ea2","5f60e3c0a3b16e07647b2ff9","5f61dc04c71cbc0578f5f97c","false","null","<div style=""align-items: center; display: flex; color: darkorange; font-size: 90px""><b>ø</b></div>","null","","","","forget_cue","","","","","","","","","","","","","","","",""
"html-keyboard-response","65","340149","0.0-3.0-3.0-0.6","bbtc2kgx5w5hhg2","practice_cue","5f5878c94814133e402c8ea2","5f60e3c0a3b16e07647b2ff9","5f61dc04c71cbc0578f5f97c","false","null","<span style=""color: black; font-size: 48px"">M + N</span>","null","","","","resp_prompt","","","","","","","","","","","","","","","",""
"categorize-image","66","340905","0.0-3.0-3.0-1.6","bbtc2kgx5w5hhg2","practice_cue","5f5878c94814133e402c8ea2","5f60e3c0a3b16e07647b2ff9","5f61dc04c71cbc0578f5f97c","true","752.6499999803491","./Stimuli/ImagesPractice/SM35.jpg","83","","","","test","true","M + N","83","","SM","SM35.jpg","forget","old","23","2","practice_forget","left","","","",""
"html-keyboard-response","67","342906","0.0-3.0-3.0-3.6","bbtc2kgx5w5hhg2","practice_cue","5f5878c94814133e402c8ea2","5f60e3c0a3b16e07647b2ff9","5f61dc04c71cbc0578f5f97c","false","null","<div style=""align-items: center; display: flex; color: darkorange; font-size: 90px""><b>ø</b></div>","null","","","","forget_cue","","","","","","","","","","","","","","","",""
"html-keyboard-response","68","343610","0.0-3.0-3.0-0.7","bbtc2kgx5w5hhg2","practice_cue","5f5878c94814133e402c8ea2","5f60e3c0a3b16e07647b2ff9","5f61dc04c71cbc0578f5f97c","false","null","<span style=""color: black; font-size: 48px"">N + M</span>","null","","","","resp_prompt","","","","","","","","","","","","","","","",""
"categorize-image","69","344588","0.0-3.0-3.0-1.7","bbtc2kgx5w5hhg2","practice_cue","5f5878c94814133e402c8ea2","5f60e3c0a3b16e07647b2ff9","5f61dc04c71cbc0578f5f97c","true","974.8149999941234","./Stimuli/ImagesPractice/SM61.jpg","76","","","","test","true","N + M","76","","SM","SM61.jpg","remember","old","24","2","practice_forget","right","","","",""
"html-keyboard-response","70","346592","0.0-3.0-3.0-3.7","bbtc2kgx5w5hhg2","practice_cue","5f5878c94814133e402c8ea2","5f60e3c0a3b16e07647b2ff9","5f61dc04c71cbc0578f5f97c","false","null","<div style=""align-items: center; display: flex; color: dodgerblue; font-size: 90px""><b>o</b></div>","null","","","","forget_cue","","","","","","","","","","","","","","","",""
"html-keyboard-response","71","347295","0.0-3.0-3.0-0.8","bbtc2kgx5w5hhg2","practice_cue","5f5878c94814133e402c8ea2","5f60e3c0a3b16e07647b2ff9","5f61dc04c71cbc0578f5f97c","false","null","<span style=""color: black; font-size: 48px"">N + M</span>","null","","","","resp_prompt","","","","","","","","","","","","","","","",""
"categorize-image","72","348259","0.0-3.0-3.0-1.8","bbtc2kgx5w5hhg2","practice_cue","5f5878c94814133e402c8ea2","5f60e3c0a3b16e07647b2ff9","5f61dc04c71cbc0578f5f97c","true","961.5000000048894","./Stimuli/ImagesPractice/SN76.jpg","83","","","","test","true","N + M","83","","SN","SN76.jpg","remember","old","25","2","practice_forget","left","","","",""
"html-keyboard-response","73","350261","0.0-3.0-3.0-3.8","bbtc2kgx5w5hhg2","practice_cue","5f5878c94814133e402c8ea2","5f60e3c0a3b16e07647b2ff9","5f61dc04c71cbc0578f5f97c","false","null","<div style=""align-items: center; display: flex; color: dodgerblue; font-size: 90px""><b>o</b></div>","null","","","","forget_cue","","","","","","","","","","","","","","","",""
"html-keyboard-response","74","350963","0.0-3.0-3.0-0.9","bbtc2kgx5w5hhg2","practice_cue","5f5878c94814133e402c8ea2","5f60e3c0a3b16e07647b2ff9","5f61dc04c71cbc0578f5f97c","false","null","<span style=""color: black; font-size: 48px"">N + M</span>","null","","","","resp_prompt","","","","","","","","","","","","","","","",""
"categorize-image","75","351725","0.0-3.0-3.0-1.9","bbtc2kgx5w5hhg2","practice_cue","5f5878c94814133e402c8ea2","5f60e3c0a3b16e07647b2ff9","5f61dc04c71cbc0578f5f97c","true","758.9849999931175","./Stimuli/ImagesPractice/LM224.jpg","76","","","","test","true","N + M","76","","LM","LM224.jpg","forget","old","26","2","practice_forget","right","","","",""
"html-keyboard-response","76","353729","0.0-3.0-3.0-3.9","bbtc2kgx5w5hhg2","practice_cue","5f5878c94814133e402c8ea2","5f60e3c0a3b16e07647b2ff9","5f61dc04c71cbc0578f5f97c","false","null","<div style=""align-items: center; display: flex; color: darkorange; font-size: 90px""><b>ø</b></div>","null","","","","forget_cue","","","","","","","","","","","","","","","",""
"html-keyboard-response","77","354435","0.0-3.0-3.0-0.10","bbtc2kgx5w5hhg2","practice_cue","5f5878c94814133e402c8ea2","5f60e3c0a3b16e07647b2ff9","5f61dc04c71cbc0578f5f97c","false","null","<span style=""color: black; font-size: 48px"">N + M</span>","null","","","","resp_prompt","","","","","","","","","","","","","","","",""
"categorize-image","78","355298","0.0-3.0-3.0-1.10","bbtc2kgx5w5hhg2","practice_cue","5f5878c94814133e402c8ea2","5f60e3c0a3b16e07647b2ff9","5f61dc04c71cbc0578f5f97c","true","858.5250000178348","./Stimuli/ImagesPractice/LM147.jpg","76","","","","test","true","N + M","76","","LM","LM147.jpg","forget","old","27","2","practice_forget","right","","","",""
"html-keyboard-response","79","357300","0.0-3.0-3.0-3.10","bbtc2kgx5w5hhg2","practice_cue","5f5878c94814133e402c8ea2","5f60e3c0a3b16e07647b2ff9","5f61dc04c71cbc0578f5f97c","false","null","<div style=""align-items: center; display: flex; color: darkorange; font-size: 90px""><b>ø</b></div>","null","","","","forget_cue","","","","","","","","","","","","","","","",""
"html-keyboard-response","80","358004","0.0-3.0-3.0-0.11","bbtc2kgx5w5hhg2","practice_cue","5f5878c94814133e402c8ea2","5f60e3c0a3b16e07647b2ff9","5f61dc04c71cbc0578f5f97c","false","null","<span style=""color: black; font-size: 48px"">M + N</span>","null","","","","resp_prompt","","","","","","","","","","","","","","","",""
"categorize-image","81","358944","0.0-3.0-3.0-1.11","bbtc2kgx5w5hhg2","practice_cue","5f5878c94814133e402c8ea2","5f60e3c0a3b16e07647b2ff9","5f61dc04c71cbc0578f5f97c","true","936.3249999878462","./Stimuli/ImagesPractice/LN2.jpg","76","","","","test","true","M + N","76","","LN","LN2.jpg","remember","old","28","2","practice_forget","right","","","",""
"html-keyboard-response","82","360947","0.0-3.0-3.0-3.11","bbtc2kgx5w5hhg2","practice_cue","5f5878c94814133e402c8ea2","5f60e3c0a3b16e07647b2ff9","5f61dc04c71cbc0578f5f97c","false","null","<div style=""align-items: center; display: flex; color: dodgerblue; font-size: 90px""><b>o</b></div>","null","","","","forget_cue","","","","","","","","","","","","","","","",""
"html-keyboard-response","83","361650","0.0-3.0-3.0-0.12","bbtc2kgx5w5hhg2","practice_cue","5f5878c94814133e402c8ea2","5f60e3c0a3b16e07647b2ff9","5f61dc04c71cbc0578f5f97c","false","null","<span style=""color: black; font-size: 48px"">N + M</span>","null","","","","resp_prompt","","","","","","","","","","","","","","","",""
"categorize-image","84","362481","0.0-3.0-3.0-1.12","bbtc2kgx5w5hhg2","practice_cue","5f5878c94814133e402c8ea2","5f60e3c0a3b16e07647b2ff9","5f61dc04c71cbc0578f5f97c","true","827.4300000048243","./Stimuli/ImagesPractice/LM230.jpg","76","","","","test","true","N + M","76","","LM","LM230.jpg","forget","old","29","2","practice_forget","right","","","",""
"html-keyboard-response","85","364482","0.0-3.0-3.0-3.12","bbtc2kgx5w5hhg2","practice_cue","5f5878c94814133e402c8ea2","5f60e3c0a3b16e07647b2ff9","5f61dc04c71cbc0578f5f97c","false","null","<div style=""align-items: center; display: flex; color: darkorange; font-size: 90px""><b>ø</b></div>","null","","","","forget_cue","","","","","","","","","","","","","","","",""
"html-keyboard-response","86","365185","0.0-3.0-3.0-0.13","bbtc2kgx5w5hhg2","practice_cue","5f5878c94814133e402c8ea2","5f60e3c0a3b16e07647b2ff9","5f61dc04c71cbc0578f5f97c","false","null","<span style=""color: black; font-size: 48px"">N + M</span>","null","","","","resp_prompt","","","","","","","","","","","","","","","",""
"categorize-image","87","366025","0.0-3.0-3.0-1.13","bbtc2kgx5w5hhg2","practice_cue","5f5878c94814133e402c8ea2","5f60e3c0a3b16e07647b2ff9","5f61dc04c71cbc0578f5f97c","true","836.7599999764934","./Stimuli/ImagesPractice/SM98.jpg","76","","","","test","true","N + M","76","","SM","SM98.jpg","forget","old","30","2","practice_forget","right","","","",""
"html-keyboard-response","88","368029","0.0-3.0-3.0-3.13","bbtc2kgx5w5hhg2","practice_cue","5f5878c94814133e402c8ea2","5f60e3c0a3b16e07647b2ff9","5f61dc04c71cbc0578f5f97c","false","null","<div style=""align-items: center; display: flex; color: darkorange; font-size: 90px""><b>ø</b></div>","null","","","","forget_cue","","","","","","","","","","","","","","","",""
"html-keyboard-response","89","368734","0.0-3.0-3.0-0.14","bbtc2kgx5w5hhg2","practice_cue","5f5878c94814133e402c8ea2","5f60e3c0a3b16e07647b2ff9","5f61dc04c71cbc0578f5f97c","false","null","<span style=""color: black; font-size: 48px"">M + N</span>","null","","","","resp_prompt","","","","","","","","","","","","","","","",""
"categorize-image","90","369696","0.0-3.0-3.0-1.14","bbtc2kgx5w5hhg2","practice_cue","5f5878c94814133e402c8ea2","5f60e3c0a3b16e07647b2ff9","5f61dc04c71cbc0578f5f97c","true","958.5599999991246","./Stimuli/ImagesPractice/LN15.jpg","76","","","","test","true","M + N","76","","LN","LN15.jpg","remember","old","31","2","practice_forget","right","","","",""
"html-keyboard-response","91","371701","0.0-3.0-3.0-3.14","bbtc2kgx5w5hhg2","practice_cue","5f5878c94814133e402c8ea2","5f60e3c0a3b16e07647b2ff9","5f61dc04c71cbc0578f5f97c","false","null","<div style=""align-items: center; display: flex; color: dodgerblue; font-size: 90px""><b>o</b></div>","null","","","","forget_cue","","","","","","","","","","","","","","","",""
"html-keyboard-response","92","372406","0.0-3.0-3.0-0.15","bbtc2kgx5w5hhg2","practice_cue","5f5878c94814133e402c8ea2","5f60e3c0a3b16e07647b2ff9","5f61dc04c71cbc0578f5f97c","false","null","<span style=""color: black; font-size: 48px"">M + N</span>","null","","","","resp_prompt","","","","","","","","","","","","","","","",""
"categorize-image","93","373459","0.0-3.0-3.0-1.15","bbtc2kgx5w5hhg2","practice_cue","5f5878c94814133e402c8ea2","5f60e3c0a3b16e07647b2ff9","5f61dc04c71cbc0578f5f97c","true","1049.5750000118278","./Stimuli/ImagesPractice/SN220.jpg","76","","","","test","true","M + N","76","","SN","SN220.jpg","forget","old","32","2","practice_forget","right","","","",""
"html-keyboard-response","94","375465","0.0-3.0-3.0-3.15","bbtc2kgx5w5hhg2","practice_cue","5f5878c94814133e402c8ea2","5f60e3c0a3b16e07647b2ff9","5f61dc04c71cbc0578f5f97c","false","null","<div style=""align-items: center; display: flex; color: darkorange; font-size: 90px""><b>ø</b></div>","null","","","","forget_cue","","","","","","","","","","","","","","","",""
"html-keyboard-response","95","378580","0.0-3.0-4.0","bbtc2kgx5w5hhg2","break","5f5878c94814133e402c8ea2","5f60e3c0a3b16e07647b2ff9","5f61dc04c71cbc0578f5f97c","false","3113.9799999946263","<p style='font-size: 32px;'>Break</><br><br><br><br><br><p style='font-size: 24px;'>In the last block, you committed 0 errors and did not respond in time on 0 trials.
</p><p style='font-size: 24px;'>Try to respond as fast and accurately as possible in the next block as well! </p><p style='font-size: 24px;'>Press SPACE to continue.</p>","32","","","","","","","","","","","","","","","","","","","",""
"html-keyboard-response","96","399356","0.0-3.0-5.0","bbtc2kgx5w5hhg2","instructions","5f5878c94814133e402c8ea2","5f60e3c0a3b16e07647b2ff9","5f61dc04c71cbc0578f5f97c","false","20775.78500000527","<div align=left> Now, to practice, we kindly ask you to remember as many of the to-be-remembered pictures<br>of the previous learning phase as possible.<br><br>The pictures you were instructed to remember were the pictures followed by a <span style='color: dodgerblue; font-size: 28px'>O</span>.<br><br>In this memory test phase, you will also see some new pictures.<br>It is your task to remember whether you were presented with this specific picture in this study so far or not.<br>If you recognize an object (you have already seen it in this study), it is an OLD object. <br>If you do not recognize an object (you have NOT seen it in this study), it is a NEW object. <br><strong> Attention</strong>: As already mentioned, <span style='color: darkorange; font-size:28px'>Ø</span>-pictures will <strong>never</strong> appear in this memory test (neither as new objects). <br><br>Press SPACE to continue. </div>","32","","","","","","","","","","","","","","","","","","","",""
"html-keyboard-response","97","427189","0.0-3.0-6.0","bbtc2kgx5w5hhg2","instructions","5f5878c94814133e402c8ea2","5f60e3c0a3b16e07647b2ff9","5f61dc04c71cbc0578f5f97c","false","27832.145000022138","<div align=left> M and N no longer will appear on the left/right of the fixation cross. <br>Instead there will be a note at the bottom of the left or right side  <br>indicating which key you should press for an old or new object:  <br> <br>Press the <strong>right</strong> key to classify an object as <strong>old</strong> and press the <strong>left</strong>, to classify an object as <strong>new</strong>.<br>Please classify the objects as new/old by again placing your index finger on the 'S' and 'L' keys <br>and press them accordingly.<br><br><strong>Old:</strong> This object has been presented before. <br><strong>New:</strong> This object has <strong>not</strong> been presented.<br><br>Now please put your right and left index fingers on the 'S' and 'L' keys of your keyboard. <br>Please respond as fast and as accurately as possible!<br><br>Press SPACE to continue. </div>","32","","","","","","","","","","","","","","","","","","","",""
"categorize-image","98","430113","0.0-3.0-7.0-0.0","bbtc2kgx5w5hhg2","practice_recog","5f5878c94814133e402c8ea2","5f60e3c0a3b16e07647b2ff9","5f61dc04c71cbc0578f5f97c","true","2420.5150000052527","./Stimuli/ImagesPractice/SN205.jpg","83","","","","test","true","","83","","SN","SN205.jpg","","new","33","3","practice_recog","left","","","",""
"categorize-image","99","431876","0.0-3.0-7.0-0.1","bbtc2kgx5w5hhg2","practice_recog","5f5878c94814133e402c8ea2","5f60e3c0a3b16e07647b2ff9","5f61dc04c71cbc0578f5f97c","true","1256.5749999776017","./Stimuli/ImagesPractice/SM97.jpg","83","","","","test","true","","83","","SM","SM97.jpg","","new","34","3","practice_recog","left","","","",""
"categorize-image","100","433367","0.0-3.0-7.0-0.2","bbtc2kgx5w5hhg2","practice_recog","5f5878c94814133e402c8ea2","5f60e3c0a3b16e07647b2ff9","5f61dc04c71cbc0578f5f97c","true","989.7599999967497","./Stimuli/ImagesPractice/SM37.jpg","76","","","","test","true","","76","","SM","SM37.jpg","","old","35","3","practice_recog","right","","","",""
"categorize-image","101","434819","0.0-3.0-7.0-0.3","bbtc2kgx5w5hhg2","practice_recog","5f5878c94814133e402c8ea2","5f60e3c0a3b16e07647b2ff9","5f61dc04c71cbc0578f5f97c","true","945.9750000096392","./Stimuli/ImagesPractice/LN72.jpg","83","","","","test","true","","83","","LN","LN72.jpg","","new","36","3","practice_recog","left","","","",""
"categorize-image","102","436328","0.0-3.0-7.0-0.4","bbtc2kgx5w5hhg2","practice_recog","5f5878c94814133e402c8ea2","5f60e3c0a3b16e07647b2ff9","5f61dc04c71cbc0578f5f97c","true","1006.6850000002887","./Stimuli/ImagesPractice/LM55.jpg","83","","","","test","true","","83","","LM","LM55.jpg","","new","37","3","practice_recog","left","","","",""
"categorize-image","103","437576","0.0-3.0-7.0-0.5","bbtc2kgx5w5hhg2","practice_recog","5f5878c94814133e402c8ea2","5f60e3c0a3b16e07647b2ff9","5f61dc04c71cbc0578f5f97c","true","745.5299999855924","./Stimuli/ImagesPractice/LN109.jpg","76","","","","test","true","","76","","LN","LN109.jpg","","old","38","3","practice_recog","right","","","",""
"categorize-image","104","438905","0.0-3.0-7.0-0.6","bbtc2kgx5w5hhg2","practice_recog","5f5878c94814133e402c8ea2","5f60e3c0a3b16e07647b2ff9","5f61dc04c71cbc0578f5f97c","true","826.2249999970663","./Stimuli/ImagesPractice/SN76.jpg","76","","","","test","true","","76","","SN","SN76.jpg","","old","39","3","practice_recog","right","","","",""
"categorize-image","105","440200","0.0-3.0-7.0-0.7","bbtc2kgx5w5hhg2","practice_recog","5f5878c94814133e402c8ea2","5f60e3c0a3b16e07647b2ff9","5f61dc04c71cbc0578f5f97c","true","791.9350000156555","./Stimuli/ImagesPractice/SN75.jpg","83","","","","test","true","","83","","SN","SN75.jpg","","new","40","3","practice_recog","left","","","",""
"categorize-image","106","442066","0.0-3.0-7.0-0.8","bbtc2kgx5w5hhg2","practice_recog","5f5878c94814133e402c8ea2","5f60e3c0a3b16e07647b2ff9","5f61dc04c71cbc0578f5f97c","true","1361.3750000076834","./Stimuli/ImagesPractice/SM62.jpg","83","","","","test","true","","83","","SM","SM62.jpg","","new","41","3","practice_recog","left","","","",""
"categorize-image","107","443305","0.0-3.0-7.0-0.9","bbtc2kgx5w5hhg2","practice_recog","5f5878c94814133e402c8ea2","5f60e3c0a3b16e07647b2ff9","5f61dc04c71cbc0578f5f97c","true","735.6900000013411","./Stimuli/ImagesPractice/LN17.jpg","76","","","","test","false","","83","","LN","LN17.jpg","","new","42","3","practice_recog","right","","","",""
"categorize-image","108","445145","0.0-3.0-7.0-0.10","bbtc2kgx5w5hhg2","practice_recog","5f5878c94814133e402c8ea2","5f60e3c0a3b16e07647b2ff9","5f61dc04c71cbc0578f5f97c","true","1336.4650000003166","./Stimuli/ImagesPractice/SN222.jpg","76","","","","test","true","","76","","SN","SN222.jpg","","old","43","3","practice_recog","right","","","",""
"categorize-image","109","446688","0.0-3.0-7.0-0.11","bbtc2kgx5w5hhg2","practice_recog","5f5878c94814133e402c8ea2","5f60e3c0a3b16e07647b2ff9","5f61dc04c71cbc0578f5f97c","true","1039.4349999842234","./Stimuli/ImagesPractice/LM143.jpg","76","","","","test","true","","76","","LM","LM143.jpg","","old","44","3","practice_recog","right","","","",""
"categorize-image","110","447961","0.0-3.0-7.0-0.12","bbtc2kgx5w5hhg2","practice_recog","5f5878c94814133e402c8ea2","5f60e3c0a3b16e07647b2ff9","5f61dc04c71cbc0578f5f97c","true","768.355000007432","./Stimuli/ImagesPractice/SM61.jpg","76","","","","test","true","","76","","SM","SM61.jpg","","old","45","3","practice_recog","right","","","",""
"categorize-image","111","449202","0.0-3.0-7.0-0.13","bbtc2kgx5w5hhg2","practice_recog","5f5878c94814133e402c8ea2","5f60e3c0a3b16e07647b2ff9","5f61dc04c71cbc0578f5f97c","true","736.5500000014435","./Stimuli/ImagesPractice/LN15.jpg","76","","","","test","true","","76","","LN","LN15.jpg","","old","46","3","practice_recog","right","","","",""
"categorize-image","112","450544","0.0-3.0-7.0-0.14","bbtc2kgx5w5hhg2","practice_recog","5f5878c94814133e402c8ea2","5f60e3c0a3b16e07647b2ff9","5f61dc04c71cbc0578f5f97c","true","838.0699999979697","./Stimuli/ImagesPractice/LM239.jpg","83","","","","test","true","","83","","LM","LM239.jpg","","new","47","3","practice_recog","left","","","",""
"categorize-image","113","451859","0.0-3.0-7.0-0.15","bbtc2kgx5w5hhg2","practice_recog","5f5878c94814133e402c8ea2","5f60e3c0a3b16e07647b2ff9","5f61dc04c71cbc0578f5f97c","true","808.8649999990594","./Stimuli/ImagesPractice/LN2.jpg","76","","","","test","true","","76","","LN","LN2.jpg","","old","48","3","practice_recog","right","","","",""
"html-keyboard-response","114","455027","0.0-3.0-8.0","bbtc2kgx5w5hhg2","instructions","5f5878c94814133e402c8ea2","5f60e3c0a3b16e07647b2ff9","5f61dc04c71cbc0578f5f97c","false","3166.6950000217184","<div align=left> Great!<br><br>Are you ready to continue?<br>If you want to reread the instructions and redo the practice trials, please <br>press „Z“.<br><br>You can proceed when you are ready.<br><br>After the presentation of each object, you will receive an instruction whether to <br>remember or to forget the object.<br>We will test your memory of the following pictures only at the very end of <br>the experiment after all learning blocks are completed. <br><br>Press SPACE to CONTINUE when you are ready. </div>","32","","","","","","","","","","","","","","","","","","","",""
"html-keyboard-response","115","461714","0.0-4.0-0.0","bbtc2kgx5w5hhg2","instructions","5f5878c94814133e402c8ea2","5f60e3c0a3b16e07647b2ff9","5f61dc04c71cbc0578f5f97c","false","6686.664999986533","<div align=left> The actual experiment is about to start.<br>The practice trials are over!<br><br>Please always respond both fast and accurately!<br><br>Remember: <br> <br><li> Please place your index fingers on the <strong>'S'</strong> and <strong>'L'</strong> keys <br>to respond as fast and accurately as possible.</li><li> Every picture can be classified as either mechanical or non-mechanical.</li><li> If you do not respond in time or commit an error, you will receive a corresponding feedback.<br> Please try to respond as <strong> fast </strong> and as <strong> accurately as possible </strong>.</li><li> Remember the <span style='color: dodgerblue; font-size: 28px'>O</span> pictures. <br></li><li> Please minimize distractions and stay focused. </li><br><br>Press SPACE to START.</div>","32","","","","","","","","","","","","","","","","","","","",""
"html-keyboard-response","116","462420","0.0-4.0-1.0-0.0","bbtc2kgx5w5hhg2","prime","5f5878c94814133e402c8ea2","5f60e3c0a3b16e07647b2ff9","5f61dc04c71cbc0578f5f97c","false","null","<span style=""color: black; font-size: 48px"">N + M</span>","null","","","","resp_prompt","","","","","","","","","","","","","","","",""
"categorize-image","117","463251","0.0-4.0-1.0-1.0","bbtc2kgx5w5hhg2","prime","5f5878c94814133e402c8ea2","5f60e3c0a3b16e07647b2ff9","5f61dc04c71cbc0578f5f97c","true","827.5849999918137","./Stimuli/SelectedImages/SM/SM205.bmp","76","","","","test","true","N + M","76","switch","SM","SM205.bmp","forget","","49","3","prime1","right","","","",""
"html-keyboard-response","118","465256","0.0-4.0-1.0-3.0","bbtc2kgx5w5hhg2","prime","5f5878c94814133e402c8ea2","5f60e3c0a3b16e07647b2ff9","5f61dc04c71cbc0578f5f97c","false","null","<div style=""align-items: center; display: flex; color: darkorange; font-size: 90px""><b>ø</b></div>","null","","","","forget_cue","","","","","","","","","","","","","","","",""
"html-keyboard-response","119","465961","0.0-4.0-1.0-0.1","bbtc2kgx5w5hhg2","prime","5f5878c94814133e402c8ea2","5f60e3c0a3b16e07647b2ff9","5f61dc04c71cbc0578f5f97c","false","null","<span style=""color: black; font-size: 48px"">M + N</span>","null","","","","resp_prompt","","","","","","","","","","","","","","","",""
"categorize-image","120","467096","0.0-4.0-1.0-1.1","bbtc2kgx5w5hhg2","prime","5f5878c94814133e402c8ea2","5f60e3c0a3b16e07647b2ff9","5f61dc04c71cbc0578f5f97c","true","1131.5100000065286","./Stimuli/SelectedImages/SN/SN155.bmp","76","","","","test","true","M + N","76","repetition","SN","SN155.bmp","forget","","50","3","prime1","right","","","",""
"html-keyboard-response","121","469100","0.0-4.0-1.0-3.1","bbtc2kgx5w5hhg2","prime","5f5878c94814133e402c8ea2","5f60e3c0a3b16e07647b2ff9","5f61dc04c71cbc0578f5f97c","false","null","<div style=""align-items: center; display: flex; color: darkorange; font-size: 90px""><b>ø</b></div>","null","","","","forget_cue","","","","","","","","","","","","","","","",""
"html-keyboard-response","122","469801","0.0-4.0-1.0-0.2","bbtc2kgx5w5hhg2","prime","5f5878c94814133e402c8ea2","5f60e3c0a3b16e07647b2ff9","5f61dc04c71cbc0578f5f97c","false","null","<span style=""color: black; font-size: 48px"">M + N</span>","null","","","","resp_prompt","","","","","","","","","","","","","","","",""
"categorize-image","123","470949","0.0-4.0-1.0-1.2","bbtc2kgx5w5hhg2","prime","5f5878c94814133e402c8ea2","5f60e3c0a3b16e07647b2ff9","5f61dc04c71cbc0578f5f97c","true","1144.8399999935646","./Stimuli/SelectedImages/SM/SM128.bmp","83","","","","test","true","M + N","83","repetition","SM","SM128.bmp","remember","","51","3","prime1","left","","","",""
"html-keyboard-response","124","472952","0.0-4.0-1.0-3.2","bbtc2kgx5w5hhg2","prime","5f5878c94814133e402c8ea2","5f60e3c0a3b16e07647b2ff9","5f61dc04c71cbc0578f5f97c","false","null","<div style=""align-items: center; display: flex; color: dodgerblue; font-size: 90px""><b>o</b></div>","null","","","","forget_cue","","","","","","","","","","","","","","","",""
"html-keyboard-response","125","473658","0.0-4.0-1.0-0.3","bbtc2kgx5w5hhg2","prime","5f5878c94814133e402c8ea2","5f60e3c0a3b16e07647b2ff9","5f61dc04c71cbc0578f5f97c","false","null","<span style=""color: black; font-size: 48px"">N + M</span>","null","","","","resp_prompt","","","","","","","","","","","","","","","",""
"categorize-image","126","475057","0.0-4.0-1.0-1.3","bbtc2kgx5w5hhg2","prime","5f5878c94814133e402c8ea2","5f60e3c0a3b16e07647b2ff9","5f61dc04c71cbc0578f5f97c","true","1395.9049999830313","./Stimuli/SelectedImages/LN/LN9.bmp","83","","","","test","true","N + M","83","switch","LN","LN9.bmp","forget","","52","3","prime1","left","","","",""
"html-keyboard-response","127","477058","0.0-4.0-1.0-3.3","bbtc2kgx5w5hhg2","prime","5f5878c94814133e402c8ea2","5f60e3c0a3b16e07647b2ff9","5f61dc04c71cbc0578f5f97c","false","null","<div style=""align-items: center; display: flex; color: darkorange; font-size: 90px""><b>ø</b></div>","null","","","","forget_cue","","","","","","","","","","","","","","","",""
"html-keyboard-response","128","477762","0.0-4.0-1.0-0.4","bbtc2kgx5w5hhg2","prime","5f5878c94814133e402c8ea2","5f60e3c0a3b16e07647b2ff9","5f61dc04c71cbc0578f5f97c","false","null","<span style=""color: black; font-size: 48px"">N + M</span>","null","","","","resp_prompt","","","","","","","","","","","","","","","",""
"categorize-image","129","478557","0.0-4.0-1.0-1.4","bbtc2kgx5w5hhg2","prime","5f5878c94814133e402c8ea2","5f60e3c0a3b16e07647b2ff9","5f61dc04c71cbc0578f5f97c","true","791.3800000096671","./Stimuli/SelectedImages/SN/SN140.bmp","83","","","","test","true","N + M","83","repetition","SN","SN140.bmp","remember","","53","3","prime1","left","","","",""
"html-keyboard-response","130","480562","0.0-4.0-1.0-3.4","bbtc2kgx5w5hhg2","prime","5f5878c94814133e402c8ea2","5f60e3c0a3b16e07647b2ff9","5f61dc04c71cbc0578f5f97c","false","null","<div style=""align-items: center; display: flex; color: dodgerblue; font-size: 90px""><b>o</b></div>","null","","","","forget_cue","","","","","","","","","","","","","","","",""
"html-keyboard-response","131","481263","0.0-4.0-1.0-0.5","bbtc2kgx5w5hhg2","prime","5f5878c94814133e402c8ea2","5f60e3c0a3b16e07647b2ff9","5f61dc04c71cbc0578f5f97c","false","null","<span style=""color: black; font-size: 48px"">M + N</span>","null","","","","resp_prompt","","","","","","","","","","","","","","","",""
"categorize-image","132","482274","0.0-4.0-1.0-1.5","bbtc2kgx5w5hhg2","prime","5f5878c94814133e402c8ea2","5f60e3c0a3b16e07647b2ff9","5f61dc04c71cbc0578f5f97c","true","1008.7500000081491","./Stimuli/SelectedImages/LN/LN177.bmp","76","","","","test","true","M + N","76","repetition","LN","LN177.bmp","forget","","54","3","prime1","right","","","",""
"html-keyboard-response","133","484280","0.0-4.0-1.0-3.5","bbtc2kgx5w5hhg2","prime","5f5878c94814133e402c8ea2","5f60e3c0a3b16e07647b2ff9","5f61dc04c71cbc0578f5f97c","false","null","<div style=""align-items: center; display: flex; color: darkorange; font-size: 90px""><b>ø</b></div>","null","","","","forget_cue","","","","","","","","","","","","","","","",""
"html-keyboard-response","134","484984","0.0-4.0-1.0-0.6","bbtc2kgx5w5hhg2","prime","5f5878c94814133e402c8ea2","5f60e3c0a3b16e07647b2ff9","5f61dc04c71cbc0578f5f97c","false","null","<span style=""color: black; font-size: 48px"">N + M</span>","null","","","","resp_prompt","","","","","","","","","","","","","","","",""
"categorize-image","135","486090","0.0-4.0-1.0-1.6","bbtc2kgx5w5hhg2","prime","5f5878c94814133e402c8ea2","5f60e3c0a3b16e07647b2ff9","5f61dc04c71cbc0578f5f97c","true","1103.239999996731","./Stimuli/SelectedImages/SN/SN64.bmp","83","","","","test","true","N + M","83","switch","SN","SN64.bmp","remember","","55","3","prime1","left","","","",""
"html-keyboard-response","136","488095","0.0-4.0-1.0-3.6","bbtc2kgx5w5hhg2","prime","5f5878c94814133e402c8ea2","5f60e3c0a3b16e07647b2ff9","5f61dc04c71cbc0578f5f97c","false","null","<div style=""align-items: center; display: flex; color: dodgerblue; font-size: 90px""><b>o</b></div>","null","","","","forget_cue","","","","","","","","","","","","","","","",""
"html-keyboard-response","137","488797","0.0-4.0-1.0-0.7","bbtc2kgx5w5hhg2","prime","5f5878c94814133e402c8ea2","5f60e3c0a3b16e07647b2ff9","5f61dc04c71cbc0578f5f97c","false","null","<span style=""color: black; font-size: 48px"">M + N</span>","null","","","","resp_prompt","","","","","","","","","","","","","","","",""
"categorize-image","138","489879","0.0-4.0-1.0-1.7","bbtc2kgx5w5hhg2","prime","5f5878c94814133e402c8ea2","5f60e3c0a3b16e07647b2ff9","5f61dc04c71cbc0578f5f97c","true","1079.0599999891128","./Stimuli/SelectedImages/SN/SN60.bmp","76","","","","test","true","M + N","76","switch","SN","SN60.bmp","forget","","56","3","prime1","right","","","",""
"html-keyboard-response","139","491883","0.0-4.0-1.0-3.7","bbtc2kgx5w5hhg2","prime","5f5878c94814133e402c8ea2","5f60e3c0a3b16e07647b2ff9","5f61dc04c71cbc0578f5f97c","false","null","<div style=""align-items: center; display: flex; color: darkorange; font-size: 90px""><b>ø</b></div>","null","","","","forget_cue","","","","","","","","","","","","","","","",""
"html-keyboard-response","140","492588","0.0-4.0-1.0-0.8","bbtc2kgx5w5hhg2","prime","5f5878c94814133e402c8ea2","5f60e3c0a3b16e07647b2ff9","5f61dc04c71cbc0578f5f97c","false","null","<span style=""color: black; font-size: 48px"">N + M</span>","null","","","","resp_prompt","","","","","","","","","","","","","","","",""
"categorize-image","141","493327","0.0-4.0-1.0-1.8","bbtc2kgx5w5hhg2","prime","5f5878c94814133e402c8ea2","5f60e3c0a3b16e07647b2ff9","5f61dc04c71cbc0578f5f97c","true","736.2650000141002","./Stimuli/SelectedImages/LM/LM51.bmp","76","","","","test","true","N + M","76","switch","LM","LM51.bmp","forget","","57","3","prime1","right","","","",""
"html-keyboard-response","142","495331","0.0-4.0-1.0-3.8","bbtc2kgx5w5hhg2","prime","5f5878c94814133e402c8ea2","5f60e3c0a3b16e07647b2ff9","5f61dc04c71cbc0578f5f97c","false","null","<div style=""align-items: center; display: flex; color: darkorange; font-size: 90px""><b>ø</b></div>","null","","","","forget_cue","","","","","","","","","","","","","","","",""
"html-keyboard-response","143","496036","0.0-4.0-1.0-0.9","bbtc2kgx5w5hhg2","prime","5f5878c94814133e402c8ea2","5f60e3c0a3b16e07647b2ff9","5f61dc04c71cbc0578f5f97c","false","null","<span style=""color: black; font-size: 48px"">N + M</span>","null","","","","resp_prompt","","","","","","","","","","","","","","","",""
"categorize-image","144","496720","0.0-4.0-1.0-1.9","bbtc2kgx5w5hhg2","prime","5f5878c94814133e402c8ea2","5f60e3c0a3b16e07647b2ff9","5f61dc04c71cbc0578f5f97c","true","681.0999999870546","./Stimuli/SelectedImages/SN/SN49.bmp","83","","","","test","true","N + M","83","switch","SN","SN49.bmp","forget","","58","3","prime1","left","","","",""
"html-keyboard-response","145","498725","0.0-4.0-1.0-3.9","bbtc2kgx5w5hhg2","prime","5f5878c94814133e402c8ea2","5f60e3c0a3b16e07647b2ff9","5f61dc04c71cbc0578f5f97c","false","null","<div style=""align-items: center; display: flex; color: darkorange; font-size: 90px""><b>ø</b></div>","null","","","","forget_cue","","","","","","","","","","","","","","","",""
"html-keyboard-response","146","499426","0.0-4.0-1.0-0.10","bbtc2kgx5w5hhg2","prime","5f5878c94814133e402c8ea2","5f60e3c0a3b16e07647b2ff9","5f61dc04c71cbc0578f5f97c","false","null","<span style=""color: black; font-size: 48px"">M + N</span>","null","","","","resp_prompt","","","","","","","","","","","","","","","",""
"categorize-image","147","500738","0.0-4.0-1.0-1.10","bbtc2kgx5w5hhg2","prime","5f5878c94814133e402c8ea2","5f60e3c0a3b16e07647b2ff9","5f61dc04c71cbc0578f5f97c","true","1309.7499999857973","./Stimuli/SelectedImages/LN/LN150.bmp","76","","","","test","true","M + N","76","switch","LN","LN150.bmp","remember","","59","3","prime1","right","","","",""
"html-keyboard-response","148","502739","0.0-4.0-1.0-3.10","bbtc2kgx5w5hhg2","prime","5f5878c94814133e402c8ea2","5f60e3c0a3b16e07647b2ff9","5f61dc04c71cbc0578f5f97c","false","null","<div style=""align-items: center; display: flex; color: dodgerblue; font-size: 90px""><b>o</b></div>","null","","","","forget_cue","","","","","","","","","","","","","","","",""
"html-keyboard-response","149","503442","0.0-4.0-1.0-0.11","bbtc2kgx5w5hhg2","prime","5f5878c94814133e402c8ea2","5f60e3c0a3b16e07647b2ff9","5f61dc04c71cbc0578f5f97c","false","null","<span style=""color: black; font-size: 48px"">N + M</span>","null","","","","resp_prompt","","","","","","","","","","","","","","","",""
"categorize-image","150","504390","0.0-4.0-1.0-1.11","bbtc2kgx5w5hhg2","prime","5f5878c94814133e402c8ea2","5f60e3c0a3b16e07647b2ff9","5f61dc04c71cbc0578f5f97c","true","944.2899999849033","./Stimuli/SelectedImages/SN/SN182.bmp","83","","","","test","true","N + M","83","repetition","SN","SN182.bmp","remember","","60","3","prime1","left","","","",""
"html-keyboard-response","151","506391","0.0-4.0-1.0-3.11","bbtc2kgx5w5hhg2","prime","5f5878c94814133e402c8ea2","5f60e3c0a3b16e07647b2ff9","5f61dc04c71cbc0578f5f97c","false","null","<div style=""align-items: center; display: flex; color: dodgerblue; font-size: 90px""><b>o</b></div>","null","","","","forget_cue","","","","","","","","","","","","","","","",""
"html-keyboard-response","152","507095","0.0-4.0-1.0-0.12","bbtc2kgx5w5hhg2","prime","5f5878c94814133e402c8ea2","5f60e3c0a3b16e07647b2ff9","5f61dc04c71cbc0578f5f97c","false","null","<span style=""color: black; font-size: 48px"">N + M</span>","null","","","","resp_prompt","","","","","","","","","","","","","","","",""
"categorize-image","153","507986","0.0-4.0-1.0-1.12","bbtc2kgx5w5hhg2","prime","5f5878c94814133e402c8ea2","5f60e3c0a3b16e07647b2ff9","5f61dc04c71cbc0578f5f97c","true","888.2999999914318","./Stimuli/SelectedImages/SM/SM207.bmp","76","","","","test","true","N + M","76","repetition","SM","SM207.bmp","remember","","61","3","prime1","right","","","",""
"html-keyboard-response","154","509988","0.0-4.0-1.0-3.12","bbtc2kgx5w5hhg2","prime","5f5878c94814133e402c8ea2","5f60e3c0a3b16e07647b2ff9","5f61dc04c71cbc0578f5f97c","false","null","<div style=""align-items: center; display: flex; color: dodgerblue; font-size: 90px""><b>o</b></div>","null","","","","forget_cue","","","","","","","","","","","","","","","",""
"html-keyboard-response","155","510693","0.0-4.0-1.0-0.13","bbtc2kgx5w5hhg2","prime","5f5878c94814133e402c8ea2","5f60e3c0a3b16e07647b2ff9","5f61dc04c71cbc0578f5f97c","false","null","<span style=""color: black; font-size: 48px"">N + M</span>","null","","","","resp_prompt","","","","","","","","","","","","","","","",""
"categorize-image","156","511577","0.0-4.0-1.0-1.13","bbtc2kgx5w5hhg2","prime","5f5878c94814133e402c8ea2","5f60e3c0a3b16e07647b2ff9","5f61dc04c71cbc0578f5f97c","true","880.7099999976344","./Stimuli/SelectedImages/LN/LN82.bmp","83","","","","test","true","N + M","83","switch","LN","LN82.bmp","remember","","62","3","prime1","left","","","",""
"html-keyboard-response","157","513578","0.0-4.0-1.0-3.13","bbtc2kgx5w5hhg2","prime","5f5878c94814133e402c8ea2","5f60e3c0a3b16e07647b2ff9","5f61dc04c71cbc0578f5f97c","false","null","<div style=""align-items: center; display: flex; color: dodgerblue; font-size: 90px""><b>o</b></div>","null","","","","forget_cue","","","","","","","","","","","","","","","",""
"html-keyboard-response","158","514280","0.0-4.0-1.0-0.14","bbtc2kgx5w5hhg2","prime","5f5878c94814133e402c8ea2","5f60e3c0a3b16e07647b2ff9","5f61dc04c71cbc0578f5f97c","false","null","<span style=""color: black; font-size: 48px"">N + M</span>","null","","","","resp_prompt","","","","","","","","","","","","","","","",""
"categorize-image","159","515096","0.0-4.0-1.0-1.14","bbtc2kgx5w5hhg2","prime","5f5878c94814133e402c8ea2","5f60e3c0a3b16e07647b2ff9","5f61dc04c71cbc0578f5f97c","true","812.6550000160933","./Stimuli/SelectedImages/LM/LM216.bmp","76","","","","test","true","N + M","76","switch","LM","LM216.bmp","remember","","63","3","prime1","right","","","",""
"html-keyboard-response","160","517101","0.0-4.0-1.0-3.14","bbtc2kgx5w5hhg2","prime","5f5878c94814133e402c8ea2","5f60e3c0a3b16e07647b2ff9","5f61dc04c71cbc0578f5f97c","false","null","<div style=""align-items: center; display: flex; color: dodgerblue; font-size: 90px""><b>o</b></div>","null","","","","forget_cue","","","","","","","","","","","","","","","",""
"html-keyboard-response","161","517803","0.0-4.0-1.0-0.15","bbtc2kgx5w5hhg2","prime","5f5878c94814133e402c8ea2","5f60e3c0a3b16e07647b2ff9","5f61dc04c71cbc0578f5f97c","false","null","<span style=""color: black; font-size: 48px"">N + M</span>","null","","","","resp_prompt","","","","","","","","","","","","","","","",""
"categorize-image","162","518736","0.0-4.0-1.0-1.15","bbtc2kgx5w5hhg2","prime","5f5878c94814133e402c8ea2","5f60e3c0a3b16e07647b2ff9","5f61dc04c71cbc0578f5f97c","true","929.3450000113808","./Stimuli/SelectedImages/LM/LM150.bmp","76","","","","test","true","N + M","76","switch","LM","LM150.bmp","remember","","64","3","prime1","right","","","",""
"html-keyboard-response","163","520740","0.0-4.0-1.0-3.15","bbtc2kgx5w5hhg2","prime","5f5878c94814133e402c8ea2","5f60e3c0a3b16e07647b2ff9","5f61dc04c71cbc0578f5f97c","false","null","<div style=""align-items: center; display: flex; color: dodgerblue; font-size: 90px""><b>o</b></div>","null","","","","forget_cue","","","","","","","","","","","","","","","",""
"html-keyboard-response","164","521445","0.0-4.0-1.0-0.16","bbtc2kgx5w5hhg2","prime","5f5878c94814133e402c8ea2","5f60e3c0a3b16e07647b2ff9","5f61dc04c71cbc0578f5f97c","false","null","<span style=""color: black; font-size: 48px"">M + N</span>","null","","","","resp_prompt","","","","","","","","","","","","","","","",""
"categorize-image","165","522756","0.0-4.0-1.0-1.16","bbtc2kgx5w5hhg2","prime","5f5878c94814133e402c8ea2","5f60e3c0a3b16e07647b2ff9","5f61dc04c71cbc0578f5f97c","true","1307.6050000090618","./Stimuli/SelectedImages/SM/SM213.bmp","83","","","","test","true","M + N","83","repetition","SM","SM213.bmp","forget","","65","3","prime1","left","","","",""
"html-keyboard-response","166","524757","0.0-4.0-1.0-3.16","bbtc2kgx5w5hhg2","prime","5f5878c94814133e402c8ea2","5f60e3c0a3b16e07647b2ff9","5f61dc04c71cbc0578f5f97c","false","null","<div style=""align-items: center; display: flex; color: darkorange; font-size: 90px""><b>ø</b></div>","null","","","","forget_cue","","","","","","","","","","","","","","","",""
"html-keyboard-response","167","525460","0.0-4.0-1.0-0.17","bbtc2kgx5w5hhg2","prime","5f5878c94814133e402c8ea2","5f60e3c0a3b16e07647b2ff9","5f61dc04c71cbc0578f5f97c","false","null","<span style=""color: black; font-size: 48px"">M + N</span>","null","","","","resp_prompt","","","","","","","","","","","","","","","",""
"categorize-image","168","526340","0.0-4.0-1.0-1.17","bbtc2kgx5w5hhg2","prime","5f5878c94814133e402c8ea2","5f60e3c0a3b16e07647b2ff9","5f61dc04c71cbc0578f5f97c","true","876.7749999824446","./Stimuli/SelectedImages/LN/LN92.bmp","76","","","","test","true","M + N","76","repetition","LN","LN92.bmp","remember","","66","3","prime1","right","","","",""
"html-keyboard-response","169","528345","0.0-4.0-1.0-3.17","bbtc2kgx5w5hhg2","prime","5f5878c94814133e402c8ea2","5f60e3c0a3b16e07647b2ff9","5f61dc04c71cbc0578f5f97c","false","null","<div style=""align-items: center; display: flex; color: dodgerblue; font-size: 90px""><b>o</b></div>","null","","","","forget_cue","","","","","","","","","","","","","","","",""
"html-keyboard-response","170","529047","0.0-4.0-1.0-0.18","bbtc2kgx5w5hhg2","prime","5f5878c94814133e402c8ea2","5f60e3c0a3b16e07647b2ff9","5f61dc04c71cbc0578f5f97c","false","null","<span style=""color: black; font-size: 48px"">M + N</span>","null","","","","resp_prompt","","","","","","","","","","","","","","","",""
"categorize-image","171","530070","0.0-4.0-1.0-1.18","bbtc2kgx5w5hhg2","prime","5f5878c94814133e402c8ea2","5f60e3c0a3b16e07647b2ff9","5f61dc04c71cbc0578f5f97c","true","1020.0000000186265","./Stimuli/SelectedImages/LM/LM59.bmp","83","","","","test","true","M + N","83","repetition","LM","LM59.bmp","forget","","67","3","prime1","left","","","",""
"html-keyboard-response","172","532071","0.0-4.0-1.0-3.18","bbtc2kgx5w5hhg2","prime","5f5878c94814133e402c8ea2","5f60e3c0a3b16e07647b2ff9","5f61dc04c71cbc0578f5f97c","false","null","<div style=""align-items: center; display: flex; color: darkorange; font-size: 90px""><b>ø</b></div>","null","","","","forget_cue","","","","","","","","","","","","","","","",""
"html-keyboard-response","173","532774","0.0-4.0-1.0-0.19","bbtc2kgx5w5hhg2","prime","5f5878c94814133e402c8ea2","5f60e3c0a3b16e07647b2ff9","5f61dc04c71cbc0578f5f97c","false","null","<span style=""color: black; font-size: 48px"">N + M</span>","null","","","","resp_prompt","","","","","","","","","","","","","","","",""
"categorize-image","174","533742","0.0-4.0-1.0-1.19","bbtc2kgx5w5hhg2","prime","5f5878c94814133e402c8ea2","5f60e3c0a3b16e07647b2ff9","5f61dc04c71cbc0578f5f97c","true","965.6400000094436","./Stimuli/SelectedImages/SM/SM148.bmp","76","","","","test","true","N + M","76","switch","SM","SM148.bmp","forget","","68","3","prime1","right","","","",""
"html-keyboard-response","175","535746","0.0-4.0-1.0-3.19","bbtc2kgx5w5hhg2","prime","5f5878c94814133e402c8ea2","5f60e3c0a3b16e07647b2ff9","5f61dc04c71cbc0578f5f97c","false","null","<div style=""align-items: center; display: flex; color: darkorange; font-size: 90px""><b>ø</b></div>","null","","","","forget_cue","","","","","","","","","","","","","","","",""
"html-keyboard-response","176","536448","0.0-4.0-1.0-0.20","bbtc2kgx5w5hhg2","prime","5f5878c94814133e402c8ea2","5f60e3c0a3b16e07647b2ff9","5f61dc04c71cbc0578f5f97c","false","null","<span style=""color: black; font-size: 48px"">N + M</span>","null","","","","resp_prompt","","","","","","","","","","","","","","","",""
"categorize-image","177","537319","0.0-4.0-1.0-1.20","bbtc2kgx5w5hhg2","prime","5f5878c94814133e402c8ea2","5f60e3c0a3b16e07647b2ff9","5f61dc04c71cbc0578f5f97c","true","867.1050000120886","./Stimuli/SelectedImages/LN/LN28.bmp","83","","","","test","true","N + M","83","switch","LN","LN28.bmp","remember","","69","3","prime1","left","","","",""
"html-keyboard-response","178","539321","0.0-4.0-1.0-3.20","bbtc2kgx5w5hhg2","prime","5f5878c94814133e402c8ea2","5f60e3c0a3b16e07647b2ff9","5f61dc04c71cbc0578f5f97c","false","null","<div style=""align-items: center; display: flex; color: dodgerblue; font-size: 90px""><b>o</b></div>","null","","","","forget_cue","","","","","","","","","","","","","","","",""
"html-keyboard-response","179","540022","0.0-4.0-1.0-0.21","bbtc2kgx5w5hhg2","prime","5f5878c94814133e402c8ea2","5f60e3c0a3b16e07647b2ff9","5f61dc04c71cbc0578f5f97c","false","null","<span style=""color: black; font-size: 48px"">M + N</span>","null","","","","resp_prompt","","","","","","","","","","","","","","","",""
"categorize-image","180","541047","0.0-4.0-1.0-1.21","bbtc2kgx5w5hhg2","prime","5f5878c94814133e402c8ea2","5f60e3c0a3b16e07647b2ff9","5f61dc04c71cbc0578f5f97c","true","1022.4350000207778","./Stimuli/SelectedImages/SM/SM24.bmp","83","","","","test","true","M + N","83","repetition","SM","SM24.bmp","forget","","70","3","prime1","left","","","",""
"html-keyboard-response","181","543048","0.0-4.0-1.0-3.21","bbtc2kgx5w5hhg2","prime","5f5878c94814133e402c8ea2","5f60e3c0a3b16e07647b2ff9","5f61dc04c71cbc0578f5f97c","false","null","<div style=""align-items: center; display: flex; color: darkorange; font-size: 90px""><b>ø</b></div>","null","","","","forget_cue","","","","","","","","","","","","","","","",""
"html-keyboard-response","182","543750","0.0-4.0-1.0-0.22","bbtc2kgx5w5hhg2","prime","5f5878c94814133e402c8ea2","5f60e3c0a3b16e07647b2ff9","5f61dc04c71cbc0578f5f97c","false","null","<span style=""color: black; font-size: 48px"">M + N</span>","null","","","","resp_prompt","","","","","","","","","","","","","","","",""
"categorize-image","183","544636","0.0-4.0-1.0-1.22","bbtc2kgx5w5hhg2","prime","5f5878c94814133e402c8ea2","5f60e3c0a3b16e07647b2ff9","5f61dc04c71cbc0578f5f97c","true","883.254999993369","./Stimuli/SelectedImages/SM/SM200.bmp","83","","","","test","true","M + N","83","switch","SM","SM200.bmp","forget","","71","3","prime1","left","","","",""
"html-keyboard-response","184","546641","0.0-4.0-1.0-3.22","bbtc2kgx5w5hhg2","prime","5f5878c94814133e402c8ea2","5f60e3c0a3b16e07647b2ff9","5f61dc04c71cbc0578f5f97c","false","null","<div style=""align-items: center; display: flex; color: darkorange; font-size: 90px""><b>ø</b></div>","null","","","","forget_cue","","","","","","","","","","","","","","","",""
"html-keyboard-response","185","547344","0.0-4.0-1.0-0.23","bbtc2kgx5w5hhg2","prime","5f5878c94814133e402c8ea2","5f60e3c0a3b16e07647b2ff9","5f61dc04c71cbc0578f5f97c","false","null","<span style=""color: black; font-size: 48px"">M + N</span>","null","","","","resp_prompt","","","","","","","","","","","","","","","",""
"categorize-image","186","548144","0.0-4.0-1.0-1.23","bbtc2kgx5w5hhg2","prime","5f5878c94814133e402c8ea2","5f60e3c0a3b16e07647b2ff9","5f61dc04c71cbc0578f5f97c","true","796.6349999769591","./Stimuli/SelectedImages/LN/LN42.bmp","76","","","","test","true","M + N","76","switch","LN","LN42.bmp","forget","","72","3","prime1","right","","","",""
"html-keyboard-response","187","550147","0.0-4.0-1.0-3.23","bbtc2kgx5w5hhg2","prime","5f5878c94814133e402c8ea2","5f60e3c0a3b16e07647b2ff9","5f61dc04c71cbc0578f5f97c","false","null","<div style=""align-items: center; display: flex; color: darkorange; font-size: 90px""><b>ø</b></div>","null","","","","forget_cue","","","","","","","","","","","","","","","",""
"html-keyboard-response","188","550850","0.0-4.0-1.0-0.24","bbtc2kgx5w5hhg2","prime","5f5878c94814133e402c8ea2","5f60e3c0a3b16e07647b2ff9","5f61dc04c71cbc0578f5f97c","false","null","<span style=""color: black; font-size: 48px"">N + M</span>","null","","","","resp_prompt","","","","","","","","","","","","","","","",""
"categorize-image","189","551448","0.0-4.0-1.0-1.24","bbtc2kgx5w5hhg2","prime","5f5878c94814133e402c8ea2","5f60e3c0a3b16e07647b2ff9","5f61dc04c71cbc0578f5f97c","true","595.274999999674","./Stimuli/SelectedImages/SN/SN187.bmp","83","","","","test","true","N + M","83","switch","SN","SN187.bmp","forget","","73","3","prime1","left","","","",""
"html-keyboard-response","190","553450","0.0-4.0-1.0-3.24","bbtc2kgx5w5hhg2","prime","5f5878c94814133e402c8ea2","5f60e3c0a3b16e07647b2ff9","5f61dc04c71cbc0578f5f97c","false","null","<div style=""align-items: center; display: flex; color: darkorange; font-size: 90px""><b>ø</b></div>","null","","","","forget_cue","","","","","","","","","","","","","","","",""
"html-keyboard-response","191","554153","0.0-4.0-1.0-0.25","bbtc2kgx5w5hhg2","prime","5f5878c94814133e402c8ea2","5f60e3c0a3b16e07647b2ff9","5f61dc04c71cbc0578f5f97c","false","null","<span style=""color: black; font-size: 48px"">M + N</span>","null","","","","resp_prompt","","","","","","","","","","","","","","","",""
"categorize-image","192","555123","0.0-4.0-1.0-1.25","bbtc2kgx5w5hhg2","prime","5f5878c94814133e402c8ea2","5f60e3c0a3b16e07647b2ff9","5f61dc04c71cbc0578f5f97c","true","966.6000000142958","./Stimuli/SelectedImages/SN/SN179.bmp","76","","","","test","true","M + N","76","switch","SN","SN179.bmp","remember","","74","3","prime1","right","","","",""
"html-keyboard-response","193","557124","0.0-4.0-1.0-3.25","bbtc2kgx5w5hhg2","prime","5f5878c94814133e402c8ea2","5f60e3c0a3b16e07647b2ff9","5f61dc04c71cbc0578f5f97c","false","null","<div style=""align-items: center; display: flex; color: dodgerblue; font-size: 90px""><b>o</b></div>","null","","","","forget_cue","","","","","","","","","","","","","","","",""
"html-keyboard-response","194","557830","0.0-4.0-1.0-0.26","bbtc2kgx5w5hhg2","prime","5f5878c94814133e402c8ea2","5f60e3c0a3b16e07647b2ff9","5f61dc04c71cbc0578f5f97c","false","null","<span style=""color: black; font-size: 48px"">N + M</span>","null","","","","resp_prompt","","","","","","","","","","","","","","","",""
"categorize-image","195","558491","0.0-4.0-1.0-1.26","bbtc2kgx5w5hhg2","prime","5f5878c94814133e402c8ea2","5f60e3c0a3b16e07647b2ff9","5f61dc04c71cbc0578f5f97c","true","657.3849999986123","./Stimuli/SelectedImages/LN/LN166.bmp","83","","","","test","true","N + M","83","repetition","LN","LN166.bmp","remember","","75","3","prime1","left","","","",""
"html-keyboard-response","196","560492","0.0-4.0-1.0-3.26","bbtc2kgx5w5hhg2","prime","5f5878c94814133e402c8ea2","5f60e3c0a3b16e07647b2ff9","5f61dc04c71cbc0578f5f97c","false","null","<div style=""align-items: center; display: flex; color: dodgerblue; font-size: 90px""><b>o</b></div>","null","","","","forget_cue","","","","","","","","","","","","","","","",""
"html-keyboard-response","197","561194","0.0-4.0-1.0-0.27","bbtc2kgx5w5hhg2","prime","5f5878c94814133e402c8ea2","5f60e3c0a3b16e07647b2ff9","5f61dc04c71cbc0578f5f97c","false","null","<span style=""color: black; font-size: 48px"">N + M</span>","null","","","","resp_prompt","","","","","","","","","","","","","","","",""
"categorize-image","198","562664","0.0-4.0-1.0-1.27","bbtc2kgx5w5hhg2","prime","5f5878c94814133e402c8ea2","5f60e3c0a3b16e07647b2ff9","5f61dc04c71cbc0578f5f97c","true","1466.9100000173785","./Stimuli/SelectedImages/LM/LM209.bmp","76","","","","test","true","N + M","76","repetition","LM","LM209.bmp","forget","","76","3","prime1","right","","","",""
"html-keyboard-response","199","564668","0.0-4.0-1.0-3.27","bbtc2kgx5w5hhg2","prime","5f5878c94814133e402c8ea2","5f60e3c0a3b16e07647b2ff9","5f61dc04c71cbc0578f5f97c","false","null","<div style=""align-items: center; display: flex; color: darkorange; font-size: 90px""><b>ø</b></div>","null","","","","forget_cue","","","","","","","","","","","","","","","",""
"html-keyboard-response","200","565373","0.0-4.0-1.0-0.28","bbtc2kgx5w5hhg2","prime","5f5878c94814133e402c8ea2","5f60e3c0a3b16e07647b2ff9","5f61dc04c71cbc0578f5f97c","false","null","<span style=""color: black; font-size: 48px"">N + M</span>","null","","","","resp_prompt","","","","","","","","","","","","","","","",""
"categorize-image","201","566149","0.0-4.0-1.0-1.28","bbtc2kgx5w5hhg2","prime","5f5878c94814133e402c8ea2","5f60e3c0a3b16e07647b2ff9","5f61dc04c71cbc0578f5f97c","true","772.0799999951851","./Stimuli/SelectedImages/SN/SN128.bmp","83","","","","test","true","N + M","83","repetition","SN","SN128.bmp","forget","","77","3","prime1","left","","","",""
"html-keyboard-response","202","568154","0.0-4.0-1.0-3.28","bbtc2kgx5w5hhg2","prime","5f5878c94814133e402c8ea2","5f60e3c0a3b16e07647b2ff9","5f61dc04c71cbc0578f5f97c","false","null","<div style=""align-items: center; display: flex; color: darkorange; font-size: 90px""><b>ø</b></div>","null","","","","forget_cue","","","","","","","","","","","","","","","",""
"html-keyboard-response","203","568859","0.0-4.0-1.0-0.29","bbtc2kgx5w5hhg2","prime","5f5878c94814133e402c8ea2","5f60e3c0a3b16e07647b2ff9","5f61dc04c71cbc0578f5f97c","false","null","<span style=""color: black; font-size: 48px"">M + N</span>","null","","","","resp_prompt","","","","","","","","","","","","","","","",""
"categorize-image","204","570126","0.0-4.0-1.0-1.29","bbtc2kgx5w5hhg2","prime","5f5878c94814133e402c8ea2","5f60e3c0a3b16e07647b2ff9","5f61dc04c71cbc0578f5f97c","true","1264.2249999917112","./Stimuli/SelectedImages/LM/LM129.bmp","83","","","","test","true","M + N","83","switch","LM","LM129.bmp","forget","","78","3","prime1","left","","","",""
"html-keyboard-response","205","572130","0.0-4.0-1.0-3.29","bbtc2kgx5w5hhg2","prime","5f5878c94814133e402c8ea2","5f60e3c0a3b16e07647b2ff9","5f61dc04c71cbc0578f5f97c","false","null","<div style=""align-items: center; display: flex; color: darkorange; font-size: 90px""><b>ø</b></div>","null","","","","forget_cue","","","","","","","","","","","","","","","",""
"html-keyboard-response","206","572832","0.0-4.0-1.0-0.30","bbtc2kgx5w5hhg2","prime","5f5878c94814133e402c8ea2","5f60e3c0a3b16e07647b2ff9","5f61dc04c71cbc0578f5f97c","false","null","<span style=""color: black; font-size: 48px"">M + N</span>","null","","","","resp_prompt","","","","","","","","","","","","","","","",""
"categorize-image","207","573607","0.0-4.0-1.0-1.30","bbtc2kgx5w5hhg2","prime","5f5878c94814133e402c8ea2","5f60e3c0a3b16e07647b2ff9","5f61dc04c71cbc0578f5f97c","true","771.7100000008941","./Stimuli/SelectedImages/LM/LM58.bmp","83","","","","test","true","M + N","83","repetition","LM","LM58.bmp","remember","","79","3","prime1","left","","","",""
"html-keyboard-response","208","575612","0.0-4.0-1.0-3.30","bbtc2kgx5w5hhg2","prime","5f5878c94814133e402c8ea2","5f60e3c0a3b16e07647b2ff9","5f61dc04c71cbc0578f5f97c","false","null","<div style=""align-items: center; display: flex; color: dodgerblue; font-size: 90px""><b>o</b></div>","null","","","","forget_cue","","","","","","","","","","","","","","","",""
"html-keyboard-response","209","576315","0.0-4.0-1.0-0.31","bbtc2kgx5w5hhg2","prime","5f5878c94814133e402c8ea2","5f60e3c0a3b16e07647b2ff9","5f61dc04c71cbc0578f5f97c","false","null","<span style=""color: black; font-size: 48px"">M + N</span>","null","","","","resp_prompt","","","","","","","","","","","","","","","",""
"categorize-image","210","577410","0.0-4.0-1.0-1.31","bbtc2kgx5w5hhg2","prime","5f5878c94814133e402c8ea2","5f60e3c0a3b16e07647b2ff9","5f61dc04c71cbc0578f5f97c","true","1092.03499997966","./Stimuli/SelectedImages/SM/SM195.bmp","83","","","","test","true","M + N","83","repetition","SM","SM195.bmp","remember","","80","3","prime1","left","","","",""
"html-keyboard-response","211","579415","0.0-4.0-1.0-3.31","bbtc2kgx5w5hhg2","prime","5f5878c94814133e402c8ea2","5f60e3c0a3b16e07647b2ff9","5f61dc04c71cbc0578f5f97c","false","null","<div style=""align-items: center; display: flex; color: dodgerblue; font-size: 90px""><b>o</b></div>","null","","","","forget_cue","","","","","","","","","","","","","","","",""
"html-keyboard-response","212","580120","0.0-4.0-1.0-0.32","bbtc2kgx5w5hhg2","prime","5f5878c94814133e402c8ea2","5f60e3c0a3b16e07647b2ff9","5f61dc04c71cbc0578f5f97c","false","null","<span style=""color: black; font-size: 48px"">N + M</span>","null","","","","resp_prompt","","","","","","","","","","","","","","","",""
"categorize-image","213","581111","0.0-4.0-1.0-1.32","bbtc2kgx5w5hhg2","prime","5f5878c94814133e402c8ea2","5f60e3c0a3b16e07647b2ff9","5f61dc04c71cbc0578f5f97c","true","987.8450000251178","./Stimuli/SelectedImages/LM/LM48.bmp","83","","","","test","false","N + M","76","repetition","LM","LM48.bmp","remember","","81","3","prime1","left","","","",""
"html-keyboard-response","214","581612","0.0-4.0-1.0-2.32-0.32","bbtc2kgx5w5hhg2","prime","5f5878c94814133e402c8ea2","5f60e3c0a3b16e07647b2ff9","5f61dc04c71cbc0578f5f97c","false","null","<span style=""color: red; font-size: 48px"">Error!</span>","null","","","","feedback","","","","","","","","","","","","","","","",""
"html-keyboard-response","215","583618","0.0-4.0-1.0-3.32","bbtc2kgx5w5hhg2","prime","5f5878c94814133e402c8ea2","5f60e3c0a3b16e07647b2ff9","5f61dc04c71cbc0578f5f97c","false","null","<div style=""align-items: center; display: flex; color: dodgerblue; font-size: 90px""><b>o</b></div>","null","","","","forget_cue","","","","","","","","","","","","","","","",""
"html-keyboard-response","216","584320","0.0-4.0-1.0-0.33","bbtc2kgx5w5hhg2","prime","5f5878c94814133e402c8ea2","5f60e3c0a3b16e07647b2ff9","5f61dc04c71cbc0578f5f97c","false","null","<span style=""color: black; font-size: 48px"">N + M</span>","null","","","","resp_prompt","","","","","","","","","","","","","","","",""
"categorize-image","217","585363","0.0-4.0-1.0-1.33","bbtc2kgx5w5hhg2","prime","5f5878c94814133e402c8ea2","5f60e3c0a3b16e07647b2ff9","5f61dc04c71cbc0578f5f97c","true","1039.92000001017","./Stimuli/SelectedImages/LM/LM167.bmp","83","","","","test","false","N + M","76","repetition","LM","LM167.bmp","forget","","82","3","prime1","left","","","",""
"html-keyboard-response","218","585864","0.0-4.0-1.0-2.33-0.33","bbtc2kgx5w5hhg2","prime","5f5878c94814133e402c8ea2","5f60e3c0a3b16e07647b2ff9","5f61dc04c71cbc0578f5f97c","false","null","<span style=""color: red; font-size: 48px"">Error!</span>","null","","","","feedback","","","","","","","","","","","","","","","",""
"html-keyboard-response","219","587868","0.0-4.0-1.0-3.33","bbtc2kgx5w5hhg2","prime","5f5878c94814133e402c8ea2","5f60e3c0a3b16e07647b2ff9","5f61dc04c71cbc0578f5f97c","false","null","<div style=""align-items: center; display: flex; color: darkorange; font-size: 90px""><b>ø</b></div>","null","","","","forget_cue","","","","","","","","","","","","","","","",""
"html-keyboard-response","220","588569","0.0-4.0-1.0-0.34","bbtc2kgx5w5hhg2","prime","5f5878c94814133e402c8ea2","5f60e3c0a3b16e07647b2ff9","5f61dc04c71cbc0578f5f97c","false","null","<span style=""color: black; font-size: 48px"">N + M</span>","null","","","","resp_prompt","","","","","","","","","","","","","","","",""
"categorize-image","221","589587","0.0-4.0-1.0-1.34","bbtc2kgx5w5hhg2","prime","5f5878c94814133e402c8ea2","5f60e3c0a3b16e07647b2ff9","5f61dc04c71cbc0578f5f97c","true","1013.9349999953993","./Stimuli/SelectedImages/SN/SN181.bmp","83","","","","test","true","N + M","83","repetition","SN","SN181.bmp","forget","","83","3","prime1","left","","","",""
"html-keyboard-response","222","591588","0.0-4.0-1.0-3.34","bbtc2kgx5w5hhg2","prime","5f5878c94814133e402c8ea2","5f60e3c0a3b16e07647b2ff9","5f61dc04c71cbc0578f5f97c","false","null","<div style=""align-items: center; display: flex; color: darkorange; font-size: 90px""><b>ø</b></div>","null","","","","forget_cue","","","","","","","","","","","","","","","",""
"html-keyboard-response","223","592289","0.0-4.0-1.0-0.35","bbtc2kgx5w5hhg2","prime","5f5878c94814133e402c8ea2","5f60e3c0a3b16e07647b2ff9","5f61dc04c71cbc0578f5f97c","false","null","<span style=""color: black; font-size: 48px"">N + M</span>","null","","","","resp_prompt","","","","","","","","","","","","","","","",""
"categorize-image","224","593114","0.0-4.0-1.0-1.35","bbtc2kgx5w5hhg2","prime","5f5878c94814133e402c8ea2","5f60e3c0a3b16e07647b2ff9","5f61dc04c71cbc0578f5f97c","true","821.2200000125449","./Stimuli/SelectedImages/LN/LN149.bmp","83","","","","test","true","N + M","83","repetition","LN","LN149.bmp","forget","","84","3","prime1","left","","","",""
"html-keyboard-response","225","595117","0.0-4.0-1.0-3.35","bbtc2kgx5w5hhg2","prime","5f5878c94814133e402c8ea2","5f60e3c0a3b16e07647b2ff9","5f61dc04c71cbc0578f5f97c","false","null","<div style=""align-items: center; display: flex; color: darkorange; font-size: 90px""><b>ø</b></div>","null","","","","forget_cue","","","","","","","","","","","","","","","",""
"html-keyboard-response","226","595819","0.0-4.0-1.0-0.36","bbtc2kgx5w5hhg2","prime","5f5878c94814133e402c8ea2","5f60e3c0a3b16e07647b2ff9","5f61dc04c71cbc0578f5f97c","false","null","<span style=""color: black; font-size: 48px"">M + N</span>","null","","","","resp_prompt","","","","","","","","","","","","","","","",""
"categorize-image","227","596701","0.0-4.0-1.0-1.36","bbtc2kgx5w5hhg2","prime","5f5878c94814133e402c8ea2","5f60e3c0a3b16e07647b2ff9","5f61dc04c71cbc0578f5f97c","true","879.1350000246894","./Stimuli/SelectedImages/SM/SM78.bmp","83","","","","test","true","M + N","83","switch","SM","SM78.bmp","remember","","85","3","prime1","left","","","",""
"html-keyboard-response","228","598703","0.0-4.0-1.0-3.36","bbtc2kgx5w5hhg2","prime","5f5878c94814133e402c8ea2","5f60e3c0a3b16e07647b2ff9","5f61dc04c71cbc0578f5f97c","false","null","<div style=""align-items: center; display: flex; color: dodgerblue; font-size: 90px""><b>o</b></div>","null","","","","forget_cue","","","","","","","","","","","","","","","",""
"html-keyboard-response","229","599409","0.0-4.0-1.0-0.37","bbtc2kgx5w5hhg2","prime","5f5878c94814133e402c8ea2","5f60e3c0a3b16e07647b2ff9","5f61dc04c71cbc0578f5f97c","false","null","<span style=""color: black; font-size: 48px"">M + N</span>","null","","","","resp_prompt","","","","","","","","","","","","","","","",""
"categorize-image","230","600417","0.0-4.0-1.0-1.37","bbtc2kgx5w5hhg2","prime","5f5878c94814133e402c8ea2","5f60e3c0a3b16e07647b2ff9","5f61dc04c71cbc0578f5f97c","true","1003.9600000018254","./Stimuli/SelectedImages/SM/SM74.bmp","83","","","","test","true","M + N","83","switch","SM","SM74.bmp","remember","","86","3","prime1","left","","","",""
"html-keyboard-response","231","602418","0.0-4.0-1.0-3.37","bbtc2kgx5w5hhg2","prime","5f5878c94814133e402c8ea2","5f60e3c0a3b16e07647b2ff9","5f61dc04c71cbc0578f5f97c","false","null","<div style=""align-items: center; display: flex; color: dodgerblue; font-size: 90px""><b>o</b></div>","null","","","","forget_cue","","","","","","","","","","","","","","","",""
"html-keyboard-response","232","603122","0.0-4.0-1.0-0.38","bbtc2kgx5w5hhg2","prime","5f5878c94814133e402c8ea2","5f60e3c0a3b16e07647b2ff9","5f61dc04c71cbc0578f5f97c","false","null","<span style=""color: black; font-size: 48px"">N + M</span>","null","","","","resp_prompt","","","","","","","","","","","","","","","",""
"categorize-image","233","604051","0.0-4.0-1.0-1.38","bbtc2kgx5w5hhg2","prime","5f5878c94814133e402c8ea2","5f60e3c0a3b16e07647b2ff9","5f61dc04c71cbc0578f5f97c","true","926.1500000138767","./Stimuli/SelectedImages/SM/SM106.bmp","76","","","","test","true","N + M","76","repetition","SM","SM106.bmp","remember","","87","3","prime1","right","","","",""
"html-keyboard-response","234","606056","0.0-4.0-1.0-3.38","bbtc2kgx5w5hhg2","prime","5f5878c94814133e402c8ea2","5f60e3c0a3b16e07647b2ff9","5f61dc04c71cbc0578f5f97c","false","null","<div style=""align-items: center; display: flex; color: dodgerblue; font-size: 90px""><b>o</b></div>","null","","","","forget_cue","","","","","","","","","","","","","","","",""
"html-keyboard-response","235","606761","0.0-4.0-1.0-0.39","bbtc2kgx5w5hhg2","prime","5f5878c94814133e402c8ea2","5f60e3c0a3b16e07647b2ff9","5f61dc04c71cbc0578f5f97c","false","null","<span style=""color: black; font-size: 48px"">M + N</span>","null","","","","resp_prompt","","","","","","","","","","","","","","","",""
"categorize-image","236","607698","0.0-4.0-1.0-1.39","bbtc2kgx5w5hhg2","prime","5f5878c94814133e402c8ea2","5f60e3c0a3b16e07647b2ff9","5f61dc04c71cbc0578f5f97c","true","933.2850000064354","./Stimuli/SelectedImages/LN/LN101.bmp","76","","","","test","true","M + N","76","switch","LN","LN101.bmp","remember","","88","3","prime1","right","","","",""
"html-keyboard-response","237","609701","0.0-4.0-1.0-3.39","bbtc2kgx5w5hhg2","prime","5f5878c94814133e402c8ea2","5f60e3c0a3b16e07647b2ff9","5f61dc04c71cbc0578f5f97c","false","null","<div style=""align-items: center; display: flex; color: dodgerblue; font-size: 90px""><b>o</b></div>","null","","","","forget_cue","","","","","","","","","","","","","","","",""
"html-keyboard-response","238","610407","0.0-4.0-1.0-0.40","bbtc2kgx5w5hhg2","prime","5f5878c94814133e402c8ea2","5f60e3c0a3b16e07647b2ff9","5f61dc04c71cbc0578f5f97c","false","null","<span style=""color: black; font-size: 48px"">N + M</span>","null","","","","resp_prompt","","","","","","","","","","","","","","","",""
"categorize-image","239","611145","0.0-4.0-1.0-1.40","bbtc2kgx5w5hhg2","prime","5f5878c94814133e402c8ea2","5f60e3c0a3b16e07647b2ff9","5f61dc04c71cbc0578f5f97c","true","734.6550000074785","./Stimuli/SelectedImages/SM/SM108.bmp","76","","","","test","true","N + M","76","switch","SM","SM108.bmp","remember","","89","3","prime1","right","","","",""
"html-keyboard-response","240","613147","0.0-4.0-1.0-3.40","bbtc2kgx5w5hhg2","prime","5f5878c94814133e402c8ea2","5f60e3c0a3b16e07647b2ff9","5f61dc04c71cbc0578f5f97c","false","null","<div style=""align-items: center; display: flex; color: dodgerblue; font-size: 90px""><b>o</b></div>","null","","","","forget_cue","","","","","","","","","","","","","","","",""
"html-keyboard-response","241","613849","0.0-4.0-1.0-0.41","bbtc2kgx5w5hhg2","prime","5f5878c94814133e402c8ea2","5f60e3c0a3b16e07647b2ff9","5f61dc04c71cbc0578f5f97c","false","null","<span style=""color: black; font-size: 48px"">M + N</span>","null","","","","resp_prompt","","","","","","","","","","","","","","","",""
"categorize-image","242","614665","0.0-4.0-1.0-1.41","bbtc2kgx5w5hhg2","prime","5f5878c94814133e402c8ea2","5f60e3c0a3b16e07647b2ff9","5f61dc04c71cbc0578f5f97c","true","812.8199999919161","./Stimuli/SelectedImages/LM/LM179.bmp","83","","","","test","true","M + N","83","switch","LM","LM179.bmp","remember","","90","3","prime1","left","","","",""
"html-keyboard-response","243","616666","0.0-4.0-1.0-3.41","bbtc2kgx5w5hhg2","prime","5f5878c94814133e402c8ea2","5f60e3c0a3b16e07647b2ff9","5f61dc04c71cbc0578f5f97c","false","null","<div style=""align-items: center; display: flex; color: dodgerblue; font-size: 90px""><b>o</b></div>","null","","","","forget_cue","","","","","","","","","","","","","","","",""
"html-keyboard-response","244","617367","0.0-4.0-1.0-0.42","bbtc2kgx5w5hhg2","prime","5f5878c94814133e402c8ea2","5f60e3c0a3b16e07647b2ff9","5f61dc04c71cbc0578f5f97c","false","null","<span style=""color: black; font-size: 48px"">M + N</span>","null","","","","resp_prompt","","","","","","","","","","","","","","","",""
"categorize-image","245","618144","0.0-4.0-1.0-1.42","bbtc2kgx5w5hhg2","prime","5f5878c94814133e402c8ea2","5f60e3c0a3b16e07647b2ff9","5f61dc04c71cbc0578f5f97c","true","773.700000019744","./Stimuli/SelectedImages/LN/LN128.bmp","76","","","","test","true","M + N","76","repetition","LN","LN128.bmp","remember","","91","3","prime1","right","","","",""
"html-keyboard-response","246","620147","0.0-4.0-1.0-3.42","bbtc2kgx5w5hhg2","prime","5f5878c94814133e402c8ea2","5f60e3c0a3b16e07647b2ff9","5f61dc04c71cbc0578f5f97c","false","null","<div style=""align-items: center; display: flex; color: dodgerblue; font-size: 90px""><b>o</b></div>","null","","","","forget_cue","","","","","","","","","","","","","","","",""
"html-keyboard-response","247","620849","0.0-4.0-1.0-0.43","bbtc2kgx5w5hhg2","prime","5f5878c94814133e402c8ea2","5f60e3c0a3b16e07647b2ff9","5f61dc04c71cbc0578f5f97c","false","null","<span style=""color: black; font-size: 48px"">M + N</span>","null","","","","resp_prompt","","","","","","","","","","","","","","","",""
"categorize-image","248","621599","0.0-4.0-1.0-1.43","bbtc2kgx5w5hhg2","prime","5f5878c94814133e402c8ea2","5f60e3c0a3b16e07647b2ff9","5f61dc04c71cbc0578f5f97c","true","745.969999989029","./Stimuli/SelectedImages/LM/LM103.bmp","83","","","","test","true","M + N","83","repetition","LM","LM103.bmp","remember","","92","3","prime1","left","","","",""
"html-keyboard-response","249","623604","0.0-4.0-1.0-3.43","bbtc2kgx5w5hhg2","prime","5f5878c94814133e402c8ea2","5f60e3c0a3b16e07647b2ff9","5f61dc04c71cbc0578f5f97c","false","null","<div style=""align-items: center; display: flex; color: dodgerblue; font-size: 90px""><b>o</b></div>","null","","","","forget_cue","","","","","","","","","","","","","","","",""
"html-keyboard-response","250","624309","0.0-4.0-1.0-0.44","bbtc2kgx5w5hhg2","prime","5f5878c94814133e402c8ea2","5f60e3c0a3b16e07647b2ff9","5f61dc04c71cbc0578f5f97c","false","null","<span style=""color: black; font-size: 48px"">M + N</span>","null","","","","resp_prompt","","","","","","","","","","","","","","","",""
"categorize-image","251","625154","0.0-4.0-1.0-1.44","bbtc2kgx5w5hhg2","prime","5f5878c94814133e402c8ea2","5f60e3c0a3b16e07647b2ff9","5f61dc04c71cbc0578f5f97c","true","842.4799999920651","./Stimuli/SelectedImages/SN/SN27.bmp","76","","","","test","true","M + N","76","repetition","SN","SN27.bmp","forget","","93","3","prime1","right","","","",""
"html-keyboard-response","252","627159","0.0-4.0-1.0-3.44","bbtc2kgx5w5hhg2","prime","5f5878c94814133e402c8ea2","5f60e3c0a3b16e07647b2ff9","5f61dc04c71cbc0578f5f97c","false","null","<div style=""align-items: center; display: flex; color: darkorange; font-size: 90px""><b>ø</b></div>","null","","","","forget_cue","","","","","","","","","","","","","","","",""
