"trial_type","trial_index","time_elapsed","internal_node_id","subject","exp_part","prolific_PID","study_ID","session_ID","use","rt","stimulus","key_press","button_pressed","responses","question_order","trial_part","correct","resp_map","correct_resp","probe_condition","category","image","forget_condition","list","trial_num","block_num","block","response","test_part","n_span","sequence","num_spaces"
"pavlovia","0","4","0.0-0.0","wm78p7q59g0yszh","","5f1d3667ed2efa62bbcfe896","5f60e3c0a3b16e07647b2ff9","5f638068afd08b063baa2d69","false","","","","","","","","","","","","","","","","","","","","","","",""
"html-keyboard-response","1","52318","0.0-1.0-0.0-0.0","wm78p7q59g0yszh","welcome","5f1d3667ed2efa62bbcfe896","5f60e3c0a3b16e07647b2ff9","5f638068afd08b063baa2d69","false","52311.124999999265","<div align=left>Dear participant, <br> thank you for participating in an online study of the Cognition, Action, and Sustainability Unit of the University of Freiburg! <br> <br>The aim of this study is to examine our ability to remember previously learned information. <br>Our goal is to find out, whether our memory improves, when we only remember information that is relevant to us. <br>The experiment will take about 35 minutes to complete. <br> <br>Please, note that you can only participate in this study if you are using a device with a keyboard (PC, Laptop etc.) <br>and not if you are using a mobile device such as a tablet or smartphone.<br> <br>Press 'SPACE' to proceed to the experiment. </div>","32","","","","","","","","","","","","","","","","","","","",""
"html-keyboard-response","2","98534","0.0-1.0-0.0-1.0","wm78p7q59g0yszh","welcome","5f1d3667ed2efa62bbcfe896","5f60e3c0a3b16e07647b2ff9","5f638068afd08b063baa2d69","false","46214.005000000725","<div align=left><strong> Time Course of this experiment: </strong> <br><br> <strong> 1.</strong>  First, please fill in some information regarding your demographic data. <br><br> <strong> 2.</strong>  Next, your task will be to classify everyday objects. <br>In addition, you will be asked to remember certain objects and recall them later. <br>Working on these tasks requires your undivided attention and concentration.<br>It is therefore essential that you eliminate any sources of distraction in your  <br>environment and ensure that you will not be disturbed. <br><br><strong> 3.</strong>  At the end of the experiment, you will be asked to answer a few additional questions. <br> <br><strong> Important:</strong> After finishing the experiment, only close the browser window <br> by clicking on the 'end the experiment'-button when you are asked to do so. <br>Closing the browser window prematurely will make the allocation of your participation credit impossible. <br><br> Press 'SPACE' to start the experiment. </div>","32","","","","","","","","","","","","","","","","","","","",""
"html-button-response","3","132239","0.0-1.0-0.0-2.0","wm78p7q59g0yszh","welcome","5f1d3667ed2efa62bbcfe896","5f60e3c0a3b16e07647b2ff9","5f638068afd08b063baa2d69","true","33701.36499999989","<div align=left><strong> Informed consent </strong>  <br>The aim of our research is to better understand human behavior and mental processes. <br>In the following study your behavior (e.g. choices, reaction times) will be studied. <br> <br><strong> Voluntariness and Anonymity </strong> <br>Your participation in this study is  <strong> voluntary</strong>.<br>You may withdraw your consent to participate at any time without providing a reason for doing so and without fear of prejudice. <br><br>As no personal data will be collected, <strong>your data and your person cannot be connected after data collection</strong> – the data-set is anonymous. <br>Respectively, deletion of your data will not be possible after data collection has been completed, as we cannot retrace your data-set.<br>The results and anonymized data collected in this study will be published as a scientific publication. <br>This will happen in an <strong>anonymized format</strong>, so that no data can be traced back to a specific person. <br> <br>The anonymized data of this study will be made available to other researchers and/or in a data archive on the Internet as a means of transparency and to enable subsequent re-use. By doing so, this study follows the recommendations of the Deutsche Forschungsgemeinschaft (DFG, German Research Foundation) and Deutsche Gesellschaft für Psychologie (DGPS, German Psychological Society) regarding quality assurance in research.<br>If you have any questions now or after the experiment, please contact our team (experiments@cs.uni-freiburg.de).<br><br><br>I hereby declare, that I understand the above described conditions of participation and I agree to participate under these conditions. <br><br> </div>","","0","","","","","","","","","","","","","","","","","","",""
"html-keyboard-response","4","199554","0.0-1.0-0.0-3.0","wm78p7q59g0yszh","welcome","5f1d3667ed2efa62bbcfe896","5f60e3c0a3b16e07647b2ff9","5f638068afd08b063baa2d69","false","67313.7999999999","<div align=left><strong> General information concerning the experiment </strong>  <br> <br>Please follow the instructions:<ol> <li><strong> Do not leave this tab (your browser window) during the experiment and do not reload this tab! </strong>  <br>If you do switch tabs/windows during the experiment (to check your mail or visit another website, for example), <br>the experiment will end automatically and you will <strong>not receive credit</strong> for your participation. <br>Repeated participation or resumption of the experiment is impossible.</li> <br><li>Please close all other programs for the duration of your participation. </li> <br><li>Please mute or turn off your phone and put it out of your reach. </li> <br><li>Please also take off any disturbing accessories (such as wristwatches, bracelets, etc.). </li> <br><li>If you have music playing in the background, please turn it off now. </li> <br></ol>Thank you! <br>Press 'SPACE' to continue. </div>","32","","","","","","","","","","","","","","","","","","","",""
"survey-text","5","205124","0.0-1.0-1.0-0.0","wm78p7q59g0yszh","demographics","5f1d3667ed2efa62bbcfe896","5f60e3c0a3b16e07647b2ff9","5f638068afd08b063baa2d69","true","5559.3799999996845","","","","{""age"":""30""}","","","","","","","","","","","","","","","","","",""
"survey-multi-choice","6","250154","0.0-1.0-1.0-1.0","wm78p7q59g0yszh","demographics","5f1d3667ed2efa62bbcfe896","5f60e3c0a3b16e07647b2ff9","5f638068afd08b063baa2d69","true","45026.56500000012","","","","{""gender"":""diverse"",""school"":""high school"",""education"":""High school graduate, diploma or equivalent""}","[0,1,2]","","","","","","","","","","","","","","","","",""
"html-keyboard-response","7","297904","0.0-1.0-2.0","wm78p7q59g0yszh","instructions","5f1d3667ed2efa62bbcfe896","5f60e3c0a3b16e07647b2ff9","5f638068afd08b063baa2d69","false","47746.3600000001","<div align=left> The experiment is now about to start: <br> <br>In the following part, you will be presented pictures of everyday objects. <br>Your first task is to <strong>classify these objects. </strong> <br> <br> You will classify them either as mechanical or non-mechanical objects. <br> <br>Objects that include any kind of technical mechanism (for example, wheels, switches, levers, <br> electronic components) fall under the category of <strong>mechanical</strong> objects. <br>Only objects without any kind of technical mechanism should be classified as <strong>non-mechanical</strong>. <br><br>Press 'SPACE' to continue. </div>","32","","","","","","","","","","","","","","","","","","","",""
"html-keyboard-response","8","432362","0.0-2.0-0.0","wm78p7q59g0yszh","instructions","5f1d3667ed2efa62bbcfe896","5f60e3c0a3b16e07647b2ff9","5f638068afd08b063baa2d69","false","134455.1899999997","<div align=justify>You will classify the objects using the <strong>'S'</strong> and the <strong>'L'</strong> keys on your keyboard.<br>For doing so, please place your <strong>left index finger</strong> on the <strong>'S'</strong> key and place your <strong>right index finger</strong> on the <strong>'L'</strong> key. <br><br> Each trial starts with an instruction, indicating which key ('S'/'L') you need to press to classify <br>the object as mechanical (letter M) or non-mechanical (letter N).<br>The instruction <strong>M + N</strong> indicates that, in the current trial, by pressing the left key ('S') you classify the displayed object as mechanical (M) <br> and by pressing the right key ('L') you classify the object as non-mechanical (N). <br>The instruction <strong>N + M</strong> on the other hand indicates that by pressing the left key ('S') you classify the displayed object as non-mechanical (N) <br> and by pressing the right key ('L') you classify the object as mechanical (M). <br><br>Please press the key corresponding to the correct classification as fast as possible as soon as the object is displayed and try to avoid making mistakes.<br>If you do not respond within a 2 second window, a corresponding feedback will be displayed and the next trial will start.<br> The experiment is divided into multiple blocks to give you the opportunity to take a break after each block. <br>First, you can now practice this task. <br><br>Please place your <strong>LEFT INDEX FINGER</strong> on the 'S' key and your <strong>RIGHT INDEX FINGER</strong> on the 'L' key now. <br><br>Press SPACE to continue.</div>","32","","","","","","","","","","","","","","","","","","","",""
"html-keyboard-response","9","453080","0.0-2.0-1.0","wm78p7q59g0yszh","instructions","5f1d3667ed2efa62bbcfe896","5f60e3c0a3b16e07647b2ff9","5f638068afd08b063baa2d69","false","20714.989999999467","<div align=left> You will now have time to practice this task.<br><br>Remember: <br> <br><li>Please place your index fingers on the <strong>'S'</strong> and <strong>'L'</strong> keys <br>to respond as fast and accurately as possible.</li><li>Every picture can be classified as either mechanical or non-mechanical.</li><li>If you do not respond in time or commit an error, you will receive a corresponding feedback. </li><li> Please try to respond as <strong> fast </strong> and as <strong> accurately as possible </strong> .<br><li>To ensure optimal results, please minimize distractions and stay focused. </li><br><br>Press SPACE to continue.</div>","32","","","","","","","","","","","","","","","","","","","",""
"html-keyboard-response","10","453785","0.0-2.0-2.0-0.0","wm78p7q59g0yszh","practice_no_cue","5f1d3667ed2efa62bbcfe896","5f60e3c0a3b16e07647b2ff9","5f638068afd08b063baa2d69","false","null","<span style=""color: black; font-size: 48px"">N + M</span>","null","","","","resp_prompt","","","","","","","","","","","","","","","",""
"categorize-image","11","455885","0.0-2.0-2.0-1.0","wm78p7q59g0yszh","practice_no_cue","5f1d3667ed2efa62bbcfe896","5f60e3c0a3b16e07647b2ff9","5f638068afd08b063baa2d69","true","1595.4650000003166","./Stimuli/ImagesPractice/LN109.jpg","83","","","","test","true","N + M","83","","LN","LN109.jpg","forget","old","1","1","start","left","","","",""
"html-keyboard-response","12","456588","0.0-2.0-2.0-0.1","wm78p7q59g0yszh","practice_no_cue","5f1d3667ed2efa62bbcfe896","5f60e3c0a3b16e07647b2ff9","5f638068afd08b063baa2d69","false","null","<span style=""color: black; font-size: 48px"">M + N</span>","null","","","","resp_prompt","","","","","","","","","","","","","","","",""
"categorize-image","13","459094","0.0-2.0-2.0-1.1","wm78p7q59g0yszh","practice_no_cue","5f1d3667ed2efa62bbcfe896","5f60e3c0a3b16e07647b2ff9","5f638068afd08b063baa2d69","true","null","./Stimuli/ImagesPractice/SM61.jpg","null","","","","test","false","M + N","83","","SM","SM61.jpg","remember","old","2","1","start","too_slow","","","",""
"html-keyboard-response","14","459798","0.0-2.0-2.0-0.2","wm78p7q59g0yszh","practice_no_cue","5f1d3667ed2efa62bbcfe896","5f60e3c0a3b16e07647b2ff9","5f638068afd08b063baa2d69","false","null","<span style=""color: black; font-size: 48px"">N + M</span>","null","","","","resp_prompt","","","","","","","","","","","","","","","",""
"categorize-image","15","461167","0.0-2.0-2.0-1.2","wm78p7q59g0yszh","practice_no_cue","5f1d3667ed2efa62bbcfe896","5f60e3c0a3b16e07647b2ff9","5f638068afd08b063baa2d69","true","864.7100000007194","./Stimuli/ImagesPractice/LM224.jpg","76","","","","test","true","N + M","76","","LM","LM224.jpg","remember","old","3","1","start","right","","","",""
"html-keyboard-response","16","461870","0.0-2.0-2.0-0.3","wm78p7q59g0yszh","practice_no_cue","5f1d3667ed2efa62bbcfe896","5f60e3c0a3b16e07647b2ff9","5f638068afd08b063baa2d69","false","null","<span style=""color: black; font-size: 48px"">N + M</span>","null","","","","resp_prompt","","","","","","","","","","","","","","","",""
"categorize-image","17","463532","0.0-2.0-2.0-1.3","wm78p7q59g0yszh","practice_no_cue","5f1d3667ed2efa62bbcfe896","5f60e3c0a3b16e07647b2ff9","5f638068afd08b063baa2d69","true","1157.9550000005984","./Stimuli/ImagesPractice/SM97.jpg","76","","","","test","true","N + M","76","","SM","SM97.jpg","forget","old","4","1","start","right","","","",""
"html-keyboard-response","18","464234","0.0-2.0-2.0-0.4","wm78p7q59g0yszh","practice_no_cue","5f1d3667ed2efa62bbcfe896","5f60e3c0a3b16e07647b2ff9","5f638068afd08b063baa2d69","false","null","<span style=""color: black; font-size: 48px"">M + N</span>","null","","","","resp_prompt","","","","","","","","","","","","","","","",""
"categorize-image","19","465699","0.0-2.0-2.0-1.4","wm78p7q59g0yszh","practice_no_cue","5f1d3667ed2efa62bbcfe896","5f60e3c0a3b16e07647b2ff9","5f638068afd08b063baa2d69","true","962.3500000007334","./Stimuli/ImagesPractice/LN4.jpg","76","","","","test","true","M + N","76","","LN","LN4.jpg","remember","old","5","1","start","right","","","",""
"html-keyboard-response","20","466402","0.0-2.0-2.0-0.5","wm78p7q59g0yszh","practice_no_cue","5f1d3667ed2efa62bbcfe896","5f60e3c0a3b16e07647b2ff9","5f638068afd08b063baa2d69","false","null","<span style=""color: black; font-size: 48px"">M + N</span>","null","","","","resp_prompt","","","","","","","","","","","","","","","",""
"categorize-image","21","467994","0.0-2.0-2.0-1.5","wm78p7q59g0yszh","practice_no_cue","5f1d3667ed2efa62bbcfe896","5f60e3c0a3b16e07647b2ff9","5f638068afd08b063baa2d69","true","1089.0300000000861","./Stimuli/ImagesPractice/SN75.jpg","76","","","","test","true","M + N","76","","SN","SN75.jpg","forget","old","6","1","start","right","","","",""
"html-keyboard-response","22","468696","0.0-2.0-2.0-0.6","wm78p7q59g0yszh","practice_no_cue","5f1d3667ed2efa62bbcfe896","5f60e3c0a3b16e07647b2ff9","5f638068afd08b063baa2d69","false","null","<span style=""color: black; font-size: 48px"">M + N</span>","null","","","","resp_prompt","","","","","","","","","","","","","","","",""
"categorize-image","23","469982","0.0-2.0-2.0-1.6","wm78p7q59g0yszh","practice_no_cue","5f1d3667ed2efa62bbcfe896","5f60e3c0a3b16e07647b2ff9","5f638068afd08b063baa2d69","true","784.0949999999721","./Stimuli/ImagesPractice/LN15.jpg","76","","","","test","true","M + N","76","","LN","LN15.jpg","remember","old","7","1","start","right","","","",""
"html-keyboard-response","24","470683","0.0-2.0-2.0-0.7","wm78p7q59g0yszh","practice_no_cue","5f1d3667ed2efa62bbcfe896","5f60e3c0a3b16e07647b2ff9","5f638068afd08b063baa2d69","false","null","<span style=""color: black; font-size: 48px"">M + N</span>","null","","","","resp_prompt","","","","","","","","","","","","","","","",""
"categorize-image","25","472141","0.0-2.0-2.0-1.7","wm78p7q59g0yszh","practice_no_cue","5f1d3667ed2efa62bbcfe896","5f60e3c0a3b16e07647b2ff9","5f638068afd08b063baa2d69","true","954.8749999994761","./Stimuli/ImagesPractice/LN72.jpg","76","","","","test","true","M + N","76","","LN","LN72.jpg","forget","old","8","1","start","right","","","",""
"html-keyboard-response","26","472843","0.0-2.0-2.0-0.8","wm78p7q59g0yszh","practice_no_cue","5f1d3667ed2efa62bbcfe896","5f60e3c0a3b16e07647b2ff9","5f638068afd08b063baa2d69","false","null","<span style=""color: black; font-size: 48px"">N + M</span>","null","","","","resp_prompt","","","","","","","","","","","","","","","",""
"categorize-image","27","474359","0.0-2.0-2.0-1.8","wm78p7q59g0yszh","practice_no_cue","5f1d3667ed2efa62bbcfe896","5f60e3c0a3b16e07647b2ff9","5f638068afd08b063baa2d69","true","1011.6900000002934","./Stimuli/ImagesPractice/LM239.jpg","76","","","","test","true","N + M","76","","LM","LM239.jpg","remember","old","9","1","start","right","","","",""
"html-keyboard-response","28","475061","0.0-2.0-2.0-0.9","wm78p7q59g0yszh","practice_no_cue","5f1d3667ed2efa62bbcfe896","5f60e3c0a3b16e07647b2ff9","5f638068afd08b063baa2d69","false","null","<span style=""color: black; font-size: 48px"">N + M</span>","null","","","","resp_prompt","","","","","","","","","","","","","","","",""
"categorize-image","29","476379","0.0-2.0-2.0-1.9","wm78p7q59g0yszh","practice_no_cue","5f1d3667ed2efa62bbcfe896","5f60e3c0a3b16e07647b2ff9","5f638068afd08b063baa2d69","true","813.5400000001537","./Stimuli/ImagesPractice/LN17.jpg","76","","","","test","false","N + M","83","","LN","LN17.jpg","remember","old","10","1","start","right","","","",""
"html-keyboard-response","30","477081","0.0-2.0-2.0-0.10","wm78p7q59g0yszh","practice_no_cue","5f1d3667ed2efa62bbcfe896","5f60e3c0a3b16e07647b2ff9","5f638068afd08b063baa2d69","false","null","<span style=""color: black; font-size: 48px"">N + M</span>","null","","","","resp_prompt","","","","","","","","","","","","","","","",""
"categorize-image","31","478833","0.0-2.0-2.0-1.10","wm78p7q59g0yszh","practice_no_cue","5f1d3667ed2efa62bbcfe896","5f60e3c0a3b16e07647b2ff9","5f638068afd08b063baa2d69","true","1248.409999999276","./Stimuli/ImagesPractice/SN205.jpg","83","","","","test","true","N + M","83","","SN","SN205.jpg","forget","old","11","1","start","left","","","",""
"html-keyboard-response","32","479535","0.0-2.0-2.0-0.11","wm78p7q59g0yszh","practice_no_cue","5f1d3667ed2efa62bbcfe896","5f60e3c0a3b16e07647b2ff9","5f638068afd08b063baa2d69","false","null","<span style=""color: black; font-size: 48px"">M + N</span>","null","","","","resp_prompt","","","","","","","","","","","","","","","",""
"categorize-image","33","481140","0.0-2.0-2.0-1.11","wm78p7q59g0yszh","practice_no_cue","5f1d3667ed2efa62bbcfe896","5f60e3c0a3b16e07647b2ff9","5f638068afd08b063baa2d69","true","1100.7000000008848","./Stimuli/ImagesPractice/SM37.jpg","83","","","","test","true","M + N","83","","SM","SM37.jpg","forget","old","12","1","start","left","","","",""
"html-keyboard-response","34","481843","0.0-2.0-2.0-0.12","wm78p7q59g0yszh","practice_no_cue","5f1d3667ed2efa62bbcfe896","5f60e3c0a3b16e07647b2ff9","5f638068afd08b063baa2d69","false","null","<span style=""color: black; font-size: 48px"">M + N</span>","null","","","","resp_prompt","","","","","","","","","","","","","","","",""
"categorize-image","35","483149","0.0-2.0-2.0-1.12","wm78p7q59g0yszh","practice_no_cue","5f1d3667ed2efa62bbcfe896","5f60e3c0a3b16e07647b2ff9","5f638068afd08b063baa2d69","true","802.3299999995506","./Stimuli/ImagesPractice/LN2.jpg","76","","","","test","true","M + N","76","","LN","LN2.jpg","forget","old","13","1","start","right","","","",""
"html-keyboard-response","36","483851","0.0-2.0-2.0-0.13","wm78p7q59g0yszh","practice_no_cue","5f1d3667ed2efa62bbcfe896","5f60e3c0a3b16e07647b2ff9","5f638068afd08b063baa2d69","false","null","<span style=""color: black; font-size: 48px"">N + M</span>","null","","","","resp_prompt","","","","","","","","","","","","","","","",""
"categorize-image","37","485283","0.0-2.0-2.0-1.13","wm78p7q59g0yszh","practice_no_cue","5f1d3667ed2efa62bbcfe896","5f60e3c0a3b16e07647b2ff9","5f638068afd08b063baa2d69","true","927.4099999993341","./Stimuli/ImagesPractice/LM230.jpg","76","","","","test","true","N + M","76","","LM","LM230.jpg","forget","old","14","1","start","right","","","",""
"html-keyboard-response","38","485986","0.0-2.0-2.0-0.14","wm78p7q59g0yszh","practice_no_cue","5f1d3667ed2efa62bbcfe896","5f60e3c0a3b16e07647b2ff9","5f638068afd08b063baa2d69","false","null","<span style=""color: black; font-size: 48px"">N + M</span>","null","","","","resp_prompt","","","","","","","","","","","","","","","",""
"categorize-image","39","487412","0.0-2.0-2.0-1.14","wm78p7q59g0yszh","practice_no_cue","5f1d3667ed2efa62bbcfe896","5f60e3c0a3b16e07647b2ff9","5f638068afd08b063baa2d69","true","922.5899999992107","./Stimuli/ImagesPractice/SM35.jpg","76","","","","test","true","N + M","76","","SM","SM35.jpg","remember","old","15","1","start","right","","","",""
"html-keyboard-response","40","488114","0.0-2.0-2.0-0.15","wm78p7q59g0yszh","practice_no_cue","5f1d3667ed2efa62bbcfe896","5f60e3c0a3b16e07647b2ff9","5f638068afd08b063baa2d69","false","null","<span style=""color: black; font-size: 48px"">M + N</span>","null","","","","resp_prompt","","","","","","","","","","","","","","","",""
"categorize-image","41","489277","0.0-2.0-2.0-1.15","wm78p7q59g0yszh","practice_no_cue","5f1d3667ed2efa62bbcfe896","5f60e3c0a3b16e07647b2ff9","5f638068afd08b063baa2d69","true","659.1050000006217","./Stimuli/ImagesPractice/SN222.jpg","76","","","","test","true","M + N","76","","SN","SN222.jpg","remember","old","16","1","start","right","","","",""
"html-keyboard-response","42","495781","0.0-2.0-3.0","wm78p7q59g0yszh","break","5f1d3667ed2efa62bbcfe896","5f60e3c0a3b16e07647b2ff9","5f638068afd08b063baa2d69","false","6500.305000000459","<p style='font-size: 32px;'>Break</><br><br><br><br><br><p style='font-size: 24px;'>In the last block, you committed 1 errors and did not respond in time on 1 trials.
</p><p style='font-size: 24px;'>Try to respond as fast and accurately as possible in the next block as well! </p><p style='font-size: 24px;'>Press SPACE to continue.</p>","32","","","","","","","","","","","","","","","","","","","",""
"html-keyboard-response","43","507031","0.0-2.0-4.0","wm78p7q59g0yszh","instructions","5f1d3667ed2efa62bbcfe896","5f60e3c0a3b16e07647b2ff9","5f638068afd08b063baa2d69","false","11247.040000000212","<div align=left> Great!<br><br>Are you ready to continue?<br><br>If you want to reread the instructions and redo the practice trials, <br>please press „Z“. <br><br>Press SPACE to CONTINUE with the experiment when you are ready. </div>","32","","","","","","","","","","","","","","","","","","","",""
"html-keyboard-response","44","564745","0.0-3.0-0.0","wm78p7q59g0yszh","instructions","5f1d3667ed2efa62bbcfe896","5f60e3c0a3b16e07647b2ff9","5f638068afd08b063baa2d69","false","57710.29499999981","<div align=left>Great!<br> <strong>Attention</strong>! You will now receive a second, additional task! <br><br>To this point it was you <strong>first task</strong> to correctly <strong>classify objects</strong>. <br><br>As mentioned in the beginning, we aim to examine how well humans can remember previously learned information.<br>We would like to find out whether our memory improves if we only remember information that is relevant to us. <br><br>Therefore, your <strong>second task</strong> will be to <strong>remember</strong> the pictures you are to categorize. <br> After the learning phase, there will be a memory test phase, in which you will be asked to indicate whether you have seen a picture before or not. <br>Some, but not all pictures shown in the learning phase will appear in the memory test phase.<br>After classifying a picture, you will be told whether you should remember it for the memory test phase or not. <br>Thus, some pictures can be forgotten, whereas others have to be remembered. <br><br>Note: From now on, feedback will only be displayed if you responded incorrectly or not in time.<br><br>Press SPACE to continue.</div>","32","","","","","","","","","","","","","","","","","","","",""
"html-keyboard-response","45","594731","0.0-3.0-1.0","wm78p7q59g0yszh","instructions","5f1d3667ed2efa62bbcfe896","5f60e3c0a3b16e07647b2ff9","5f638068afd08b063baa2d69","false","29983.145000000135","<div align=left>In the following part, you will thus have to remember only some pictures. <br>Immediately after seeing and classifying the picture, a symbol will be displayed, indicating whether you should remember or forget the previous picture. <br><br>A <span style='color: dodgerblue; font-size: 28px'>O</span> indicates REMEMBER. That means, you have to remember this picture, because it will be tested later. <br><br>A <span style='color: darkorange; font-size:28px'>Ø</span> indicates FORGET. You do not have to remember this picture. <br><br> As you will have to remember a lot of pictures, it will be hard for you to remember all of them. <br>It will put you at an advantage if you instantly forget the pictures you are not asked to remember. <br> This will make it easier for you to remember the pictures that will be tested afterwards. <br><br>Press SPACE to continue.</div>","32","","","","","","","","","","","","","","","","","","","",""
"html-keyboard-response","46","612407","0.0-3.0-2.0","wm78p7q59g0yszh","instructions","5f1d3667ed2efa62bbcfe896","5f60e3c0a3b16e07647b2ff9","5f638068afd08b063baa2d69","false","17673.81500000006","<div align=left> Now you have the chance to practice both tasks together.<br><br>Remember: <br> <br><li>Please place your index fingers on the <strong>'S'</strong> and <strong>'L'</strong> keys <br>to respond as fast and accurately as possible.</li><li>Every picture can be classified as either mechanical or non-mechanical.</li><li>If you do not respond in time or commit an error, you will receive a corresponding feedback. <br>Please try to respond as <strong> fast </strong> and as <strong> accurately as possible </strong>.</li><li> Please remember only the to-be-remembered <span style='color: dodgerblue; font-size: 28px'>O</span> pictures. <br></li><li> Please minimize distractions and stay focused. </li><br><br>Press SPACE to START</div>","32","","","","","","","","","","","","","","","","","","","",""
"html-keyboard-response","47","613111","0.0-3.0-3.0-0.0","wm78p7q59g0yszh","practice_cue","5f1d3667ed2efa62bbcfe896","5f60e3c0a3b16e07647b2ff9","5f638068afd08b063baa2d69","false","null","<span style=""color: black; font-size: 48px"">M + N</span>","null","","","","resp_prompt","","","","","","","","","","","","","","","",""
"categorize-image","48","613673","0.0-3.0-3.0-1.0","wm78p7q59g0yszh","practice_cue","5f1d3667ed2efa62bbcfe896","5f60e3c0a3b16e07647b2ff9","5f638068afd08b063baa2d69","true","554.9899999996414","./Stimuli/ImagesPractice/LN72.jpg","76","","","","test","true","M + N","76","","LN","LN72.jpg","forget","old","17","2","practice_forget","right","","","",""
"html-keyboard-response","49","615677","0.0-3.0-3.0-3.0","wm78p7q59g0yszh","practice_cue","5f1d3667ed2efa62bbcfe896","5f60e3c0a3b16e07647b2ff9","5f638068afd08b063baa2d69","false","null","<div style=""align-items: center; display: flex; color: darkorange; font-size: 90px""><b>ø</b></div>","null","","","","forget_cue","","","","","","","","","","","","","","","",""
"html-keyboard-response","50","616380","0.0-3.0-3.0-0.1","wm78p7q59g0yszh","practice_cue","5f1d3667ed2efa62bbcfe896","5f60e3c0a3b16e07647b2ff9","5f638068afd08b063baa2d69","false","null","<span style=""color: black; font-size: 48px"">N + M</span>","null","","","","resp_prompt","","","","","","","","","","","","","","","",""
"categorize-image","51","617184","0.0-3.0-3.0-1.1","wm78p7q59g0yszh","practice_cue","5f1d3667ed2efa62bbcfe896","5f60e3c0a3b16e07647b2ff9","5f638068afd08b063baa2d69","true","799.5700000000652","./Stimuli/ImagesPractice/LM239.jpg","76","","","","test","true","N + M","76","","LM","LM239.jpg","remember","old","18","2","practice_forget","right","","","",""
"html-keyboard-response","52","619187","0.0-3.0-3.0-3.1","wm78p7q59g0yszh","practice_cue","5f1d3667ed2efa62bbcfe896","5f60e3c0a3b16e07647b2ff9","5f638068afd08b063baa2d69","false","null","<div style=""align-items: center; display: flex; color: dodgerblue; font-size: 90px""><b>o</b></div>","null","","","","forget_cue","","","","","","","","","","","","","","","",""
"html-keyboard-response","53","619888","0.0-3.0-3.0-0.2","wm78p7q59g0yszh","practice_cue","5f1d3667ed2efa62bbcfe896","5f60e3c0a3b16e07647b2ff9","5f638068afd08b063baa2d69","false","null","<span style=""color: black; font-size: 48px"">N + M</span>","null","","","","resp_prompt","","","","","","","","","","","","","","","",""
"categorize-image","54","620489","0.0-3.0-3.0-1.2","wm78p7q59g0yszh","practice_cue","5f1d3667ed2efa62bbcfe896","5f60e3c0a3b16e07647b2ff9","5f638068afd08b063baa2d69","true","594.4799999997485","./Stimuli/ImagesPractice/LN17.jpg","83","","","","test","true","N + M","83","","LN","LN17.jpg","remember","old","19","2","practice_forget","left","","","",""
"html-keyboard-response","55","622493","0.0-3.0-3.0-3.2","wm78p7q59g0yszh","practice_cue","5f1d3667ed2efa62bbcfe896","5f60e3c0a3b16e07647b2ff9","5f638068afd08b063baa2d69","false","null","<div style=""align-items: center; display: flex; color: dodgerblue; font-size: 90px""><b>o</b></div>","null","","","","forget_cue","","","","","","","","","","","","","","","",""
"html-keyboard-response","56","623195","0.0-3.0-3.0-0.3","wm78p7q59g0yszh","practice_cue","5f1d3667ed2efa62bbcfe896","5f60e3c0a3b16e07647b2ff9","5f638068afd08b063baa2d69","false","null","<span style=""color: black; font-size: 48px"">M + N</span>","null","","","","resp_prompt","","","","","","","","","","","","","","","",""
"categorize-image","57","624159","0.0-3.0-3.0-1.3","wm78p7q59g0yszh","practice_cue","5f1d3667ed2efa62bbcfe896","5f60e3c0a3b16e07647b2ff9","5f638068afd08b063baa2d69","true","958.4249999998137","./Stimuli/ImagesPractice/LN15.jpg","76","","","","test","true","M + N","76","","LN","LN15.jpg","remember","old","20","2","practice_forget","right","","","",""
"html-keyboard-response","58","626163","0.0-3.0-3.0-3.3","wm78p7q59g0yszh","practice_cue","5f1d3667ed2efa62bbcfe896","5f60e3c0a3b16e07647b2ff9","5f638068afd08b063baa2d69","false","null","<div style=""align-items: center; display: flex; color: dodgerblue; font-size: 90px""><b>o</b></div>","null","","","","forget_cue","","","","","","","","","","","","","","","",""
"html-keyboard-response","59","626865","0.0-3.0-3.0-0.4","wm78p7q59g0yszh","practice_cue","5f1d3667ed2efa62bbcfe896","5f60e3c0a3b16e07647b2ff9","5f638068afd08b063baa2d69","false","null","<span style=""color: black; font-size: 48px"">N + M</span>","null","","","","resp_prompt","","","","","","","","","","","","","","","",""
"categorize-image","60","627405","0.0-3.0-3.0-1.4","wm78p7q59g0yszh","practice_cue","5f1d3667ed2efa62bbcfe896","5f60e3c0a3b16e07647b2ff9","5f638068afd08b063baa2d69","true","532.6500000001397","./Stimuli/ImagesPractice/LM224.jpg","76","","","","test","true","N + M","76","","LM","LM224.jpg","remember","old","21","2","practice_forget","right","","","",""
"html-keyboard-response","61","629407","0.0-3.0-3.0-3.4","wm78p7q59g0yszh","practice_cue","5f1d3667ed2efa62bbcfe896","5f60e3c0a3b16e07647b2ff9","5f638068afd08b063baa2d69","false","null","<div style=""align-items: center; display: flex; color: dodgerblue; font-size: 90px""><b>o</b></div>","null","","","","forget_cue","","","","","","","","","","","","","","","",""
"html-keyboard-response","62","630109","0.0-3.0-3.0-0.5","wm78p7q59g0yszh","practice_cue","5f1d3667ed2efa62bbcfe896","5f60e3c0a3b16e07647b2ff9","5f638068afd08b063baa2d69","false","null","<span style=""color: black; font-size: 48px"">M + N</span>","null","","","","resp_prompt","","","","","","","","","","","","","","","",""
"categorize-image","63","630900","0.0-3.0-3.0-1.5","wm78p7q59g0yszh","practice_cue","5f1d3667ed2efa62bbcfe896","5f60e3c0a3b16e07647b2ff9","5f638068afd08b063baa2d69","true","786.2949999999255","./Stimuli/ImagesPractice/SN222.jpg","76","","","","test","true","M + N","76","","SN","SN222.jpg","remember","old","22","2","practice_forget","right","","","",""
"html-keyboard-response","64","632903","0.0-3.0-3.0-3.5","wm78p7q59g0yszh","practice_cue","5f1d3667ed2efa62bbcfe896","5f60e3c0a3b16e07647b2ff9","5f638068afd08b063baa2d69","false","null","<div style=""align-items: center; display: flex; color: dodgerblue; font-size: 90px""><b>o</b></div>","null","","","","forget_cue","","","","","","","","","","","","","","","",""
"html-keyboard-response","65","633606","0.0-3.0-3.0-0.6","wm78p7q59g0yszh","practice_cue","5f1d3667ed2efa62bbcfe896","5f60e3c0a3b16e07647b2ff9","5f638068afd08b063baa2d69","false","null","<span style=""color: black; font-size: 48px"">N + M</span>","null","","","","resp_prompt","","","","","","","","","","","","","","","",""
"categorize-image","66","634430","0.0-3.0-3.0-1.6","wm78p7q59g0yszh","practice_cue","5f1d3667ed2efa62bbcfe896","5f60e3c0a3b16e07647b2ff9","5f638068afd08b063baa2d69","true","817.9700000000885","./Stimuli/ImagesPractice/SN205.jpg","76","","","","test","false","N + M","83","","SN","SN205.jpg","forget","old","23","2","practice_forget","right","","","",""
"html-keyboard-response","67","634933","0.0-3.0-3.0-2.6-0.6","wm78p7q59g0yszh","practice_cue","5f1d3667ed2efa62bbcfe896","5f60e3c0a3b16e07647b2ff9","5f638068afd08b063baa2d69","false","null","<span style=""color: red; font-size: 48px"">Error!</span>","null","","","","feedback","","","","","","","","","","","","","","","",""
"html-keyboard-response","68","636934","0.0-3.0-3.0-3.6","wm78p7q59g0yszh","practice_cue","5f1d3667ed2efa62bbcfe896","5f60e3c0a3b16e07647b2ff9","5f638068afd08b063baa2d69","false","null","<div style=""align-items: center; display: flex; color: darkorange; font-size: 90px""><b>ø</b></div>","null","","","","forget_cue","","","","","","","","","","","","","","","",""
"html-keyboard-response","69","637637","0.0-3.0-3.0-0.7","wm78p7q59g0yszh","practice_cue","5f1d3667ed2efa62bbcfe896","5f60e3c0a3b16e07647b2ff9","5f638068afd08b063baa2d69","false","null","<span style=""color: black; font-size: 48px"">N + M</span>","null","","","","resp_prompt","","","","","","","","","","","","","","","",""
"categorize-image","70","638323","0.0-3.0-3.0-1.7","wm78p7q59g0yszh","practice_cue","5f1d3667ed2efa62bbcfe896","5f60e3c0a3b16e07647b2ff9","5f638068afd08b063baa2d69","true","679.4000000000233","./Stimuli/ImagesPractice/SM35.jpg","76","","","","test","true","N + M","76","","SM","SM35.jpg","remember","old","24","2","practice_forget","right","","","",""
"html-keyboard-response","71","640325","0.0-3.0-3.0-3.7","wm78p7q59g0yszh","practice_cue","5f1d3667ed2efa62bbcfe896","5f60e3c0a3b16e07647b2ff9","5f638068afd08b063baa2d69","false","null","<div style=""align-items: center; display: flex; color: dodgerblue; font-size: 90px""><b>o</b></div>","null","","","","forget_cue","","","","","","","","","","","","","","","",""
"html-keyboard-response","72","641027","0.0-3.0-3.0-0.8","wm78p7q59g0yszh","practice_cue","5f1d3667ed2efa62bbcfe896","5f60e3c0a3b16e07647b2ff9","5f638068afd08b063baa2d69","false","null","<span style=""color: black; font-size: 48px"">M + N</span>","null","","","","resp_prompt","","","","","","","","","","","","","","","",""
"categorize-image","73","641859","0.0-3.0-3.0-1.8","wm78p7q59g0yszh","practice_cue","5f1d3667ed2efa62bbcfe896","5f60e3c0a3b16e07647b2ff9","5f638068afd08b063baa2d69","true","825.6099999998696","./Stimuli/ImagesPractice/LN2.jpg","76","","","","test","true","M + N","76","","LN","LN2.jpg","forget","old","25","2","practice_forget","right","","","",""
"html-keyboard-response","74","643862","0.0-3.0-3.0-3.8","wm78p7q59g0yszh","practice_cue","5f1d3667ed2efa62bbcfe896","5f60e3c0a3b16e07647b2ff9","5f638068afd08b063baa2d69","false","null","<div style=""align-items: center; display: flex; color: darkorange; font-size: 90px""><b>ø</b></div>","null","","","","forget_cue","","","","","","","","","","","","","","","",""
"html-keyboard-response","75","644564","0.0-3.0-3.0-0.9","wm78p7q59g0yszh","practice_cue","5f1d3667ed2efa62bbcfe896","5f60e3c0a3b16e07647b2ff9","5f638068afd08b063baa2d69","false","null","<span style=""color: black; font-size: 48px"">M + N</span>","null","","","","resp_prompt","","","","","","","","","","","","","","","",""
"categorize-image","76","645556","0.0-3.0-3.0-1.9","wm78p7q59g0yszh","practice_cue","5f1d3667ed2efa62bbcfe896","5f60e3c0a3b16e07647b2ff9","5f638068afd08b063baa2d69","true","985.0250000008382","./Stimuli/ImagesPractice/SM37.jpg","83","","","","test","true","M + N","83","","SM","SM37.jpg","forget","old","26","2","practice_forget","left","","","",""
"html-keyboard-response","77","647561","0.0-3.0-3.0-3.9","wm78p7q59g0yszh","practice_cue","5f1d3667ed2efa62bbcfe896","5f60e3c0a3b16e07647b2ff9","5f638068afd08b063baa2d69","false","null","<div style=""align-items: center; display: flex; color: darkorange; font-size: 90px""><b>ø</b></div>","null","","","","forget_cue","","","","","","","","","","","","","","","",""
"html-keyboard-response","78","648267","0.0-3.0-3.0-0.10","wm78p7q59g0yszh","practice_cue","5f1d3667ed2efa62bbcfe896","5f60e3c0a3b16e07647b2ff9","5f638068afd08b063baa2d69","false","null","<span style=""color: black; font-size: 48px"">N + M</span>","null","","","","resp_prompt","","","","","","","","","","","","","","","",""
"categorize-image","79","649689","0.0-3.0-3.0-1.10","wm78p7q59g0yszh","practice_cue","5f1d3667ed2efa62bbcfe896","5f60e3c0a3b16e07647b2ff9","5f638068afd08b063baa2d69","true","1418.1900000002934","./Stimuli/ImagesPractice/LN109.jpg","76","","","","test","false","N + M","83","","LN","LN109.jpg","forget","old","27","2","practice_forget","right","","","",""
"html-keyboard-response","80","650191","0.0-3.0-3.0-2.10-0.10","wm78p7q59g0yszh","practice_cue","5f1d3667ed2efa62bbcfe896","5f60e3c0a3b16e07647b2ff9","5f638068afd08b063baa2d69","false","null","<span style=""color: red; font-size: 48px"">Error!</span>","null","","","","feedback","","","","","","","","","","","","","","","",""
"html-keyboard-response","81","652192","0.0-3.0-3.0-3.10","wm78p7q59g0yszh","practice_cue","5f1d3667ed2efa62bbcfe896","5f60e3c0a3b16e07647b2ff9","5f638068afd08b063baa2d69","false","null","<div style=""align-items: center; display: flex; color: darkorange; font-size: 90px""><b>ø</b></div>","null","","","","forget_cue","","","","","","","","","","","","","","","",""
"html-keyboard-response","82","652893","0.0-3.0-3.0-0.11","wm78p7q59g0yszh","practice_cue","5f1d3667ed2efa62bbcfe896","5f60e3c0a3b16e07647b2ff9","5f638068afd08b063baa2d69","false","null","<span style=""color: black; font-size: 48px"">M + N</span>","null","","","","resp_prompt","","","","","","","","","","","","","","","",""
"categorize-image","83","654377","0.0-3.0-3.0-1.11","wm78p7q59g0yszh","practice_cue","5f1d3667ed2efa62bbcfe896","5f60e3c0a3b16e07647b2ff9","5f638068afd08b063baa2d69","true","1478.4550000004238","./Stimuli/ImagesPractice/SN75.jpg","76","","","","test","true","M + N","76","","SN","SN75.jpg","forget","old","28","2","practice_forget","right","","","",""
"html-keyboard-response","84","656380","0.0-3.0-3.0-3.11","wm78p7q59g0yszh","practice_cue","5f1d3667ed2efa62bbcfe896","5f60e3c0a3b16e07647b2ff9","5f638068afd08b063baa2d69","false","null","<div style=""align-items: center; display: flex; color: darkorange; font-size: 90px""><b>ø</b></div>","null","","","","forget_cue","","","","","","","","","","","","","","","",""
"html-keyboard-response","85","657082","0.0-3.0-3.0-0.12","wm78p7q59g0yszh","practice_cue","5f1d3667ed2efa62bbcfe896","5f60e3c0a3b16e07647b2ff9","5f638068afd08b063baa2d69","false","null","<span style=""color: black; font-size: 48px"">M + N</span>","null","","","","resp_prompt","","","","","","","","","","","","","","","",""
"categorize-image","86","658171","0.0-3.0-3.0-1.12","wm78p7q59g0yszh","practice_cue","5f1d3667ed2efa62bbcfe896","5f60e3c0a3b16e07647b2ff9","5f638068afd08b063baa2d69","true","1082.8200000005309","./Stimuli/ImagesPractice/LN4.jpg","76","","","","test","true","M + N","76","","LN","LN4.jpg","remember","old","29","2","practice_forget","right","","","",""
"html-keyboard-response","87","660175","0.0-3.0-3.0-3.12","wm78p7q59g0yszh","practice_cue","5f1d3667ed2efa62bbcfe896","5f60e3c0a3b16e07647b2ff9","5f638068afd08b063baa2d69","false","null","<div style=""align-items: center; display: flex; color: dodgerblue; font-size: 90px""><b>o</b></div>","null","","","","forget_cue","","","","","","","","","","","","","","","",""
"html-keyboard-response","88","660878","0.0-3.0-3.0-0.13","wm78p7q59g0yszh","practice_cue","5f1d3667ed2efa62bbcfe896","5f60e3c0a3b16e07647b2ff9","5f638068afd08b063baa2d69","false","null","<span style=""color: black; font-size: 48px"">N + M</span>","null","","","","resp_prompt","","","","","","","","","","","","","","","",""
"categorize-image","89","661841","0.0-3.0-3.0-1.13","wm78p7q59g0yszh","practice_cue","5f1d3667ed2efa62bbcfe896","5f60e3c0a3b16e07647b2ff9","5f638068afd08b063baa2d69","true","957.9549999998417","./Stimuli/ImagesPractice/SM97.jpg","83","","","","test","false","N + M","76","","SM","SM97.jpg","forget","old","30","2","practice_forget","left","","","",""
"html-keyboard-response","90","662344","0.0-3.0-3.0-2.13-0.13","wm78p7q59g0yszh","practice_cue","5f1d3667ed2efa62bbcfe896","5f60e3c0a3b16e07647b2ff9","5f638068afd08b063baa2d69","false","null","<span style=""color: red; font-size: 48px"">Error!</span>","null","","","","feedback","","","","","","","","","","","","","","","",""
"html-keyboard-response","91","664346","0.0-3.0-3.0-3.13","wm78p7q59g0yszh","practice_cue","5f1d3667ed2efa62bbcfe896","5f60e3c0a3b16e07647b2ff9","5f638068afd08b063baa2d69","false","null","<div style=""align-items: center; display: flex; color: darkorange; font-size: 90px""><b>ø</b></div>","null","","","","forget_cue","","","","","","","","","","","","","","","",""
"html-keyboard-response","92","665048","0.0-3.0-3.0-0.14","wm78p7q59g0yszh","practice_cue","5f1d3667ed2efa62bbcfe896","5f60e3c0a3b16e07647b2ff9","5f638068afd08b063baa2d69","false","null","<span style=""color: black; font-size: 48px"">M + N</span>","null","","","","resp_prompt","","","","","","","","","","","","","","","",""
"categorize-image","93","666360","0.0-3.0-3.0-1.14","wm78p7q59g0yszh","practice_cue","5f1d3667ed2efa62bbcfe896","5f60e3c0a3b16e07647b2ff9","5f638068afd08b063baa2d69","true","1305.6299999997718","./Stimuli/ImagesPractice/SM61.jpg","76","","","","test","false","M + N","83","","SM","SM61.jpg","remember","old","31","2","practice_forget","right","","","",""
"html-keyboard-response","94","666863","0.0-3.0-3.0-2.14-0.14","wm78p7q59g0yszh","practice_cue","5f1d3667ed2efa62bbcfe896","5f60e3c0a3b16e07647b2ff9","5f638068afd08b063baa2d69","false","null","<span style=""color: red; font-size: 48px"">Error!</span>","null","","","","feedback","","","","","","","","","","","","","","","",""
"html-keyboard-response","95","668865","0.0-3.0-3.0-3.14","wm78p7q59g0yszh","practice_cue","5f1d3667ed2efa62bbcfe896","5f60e3c0a3b16e07647b2ff9","5f638068afd08b063baa2d69","false","null","<div style=""align-items: center; display: flex; color: dodgerblue; font-size: 90px""><b>o</b></div>","null","","","","forget_cue","","","","","","","","","","","","","","","",""
"html-keyboard-response","96","669567","0.0-3.0-3.0-0.15","wm78p7q59g0yszh","practice_cue","5f1d3667ed2efa62bbcfe896","5f60e3c0a3b16e07647b2ff9","5f638068afd08b063baa2d69","false","null","<span style=""color: black; font-size: 48px"">N + M</span>","null","","","","resp_prompt","","","","","","","","","","","","","","","",""
"categorize-image","97","671238","0.0-3.0-3.0-1.15","wm78p7q59g0yszh","practice_cue","5f1d3667ed2efa62bbcfe896","5f60e3c0a3b16e07647b2ff9","5f638068afd08b063baa2d69","true","1663.1150000002235","./Stimuli/ImagesPractice/LM230.jpg","76","","","","test","true","N + M","76","","LM","LM230.jpg","forget","old","32","2","practice_forget","right","","","",""
"html-keyboard-response","98","673241","0.0-3.0-3.0-3.15","wm78p7q59g0yszh","practice_cue","5f1d3667ed2efa62bbcfe896","5f60e3c0a3b16e07647b2ff9","5f638068afd08b063baa2d69","false","null","<div style=""align-items: center; display: flex; color: darkorange; font-size: 90px""><b>ø</b></div>","null","","","","forget_cue","","","","","","","","","","","","","","","",""
"html-keyboard-response","99","679928","0.0-3.0-4.0","wm78p7q59g0yszh","break","5f1d3667ed2efa62bbcfe896","5f60e3c0a3b16e07647b2ff9","5f638068afd08b063baa2d69","false","6684.739999999641","<p style='font-size: 32px;'>Break</><br><br><br><br><br><p style='font-size: 24px;'>In the last block, you committed 4 errors and did not respond in time on 0 trials.
</p><p style='font-size: 24px;'>Try to respond as fast and accurately as possible in the next block as well! </p><p style='font-size: 24px;'>Press SPACE to continue.</p>","32","","","","","","","","","","","","","","","","","","","",""
"html-keyboard-response","100","775746","0.0-3.0-5.0","wm78p7q59g0yszh","instructions","5f1d3667ed2efa62bbcfe896","5f60e3c0a3b16e07647b2ff9","5f638068afd08b063baa2d69","false","95817.73999999953","<div align=left> Now, to practice, we kindly ask you to remember as many of the to-be-remembered pictures<br>of the previous learning phase as possible.<br><br>The pictures you were instructed to remember were the pictures followed by a <span style='color: dodgerblue; font-size: 28px'>O</span>.<br><br>In this memory test phase, you will also see some new pictures.<br>It is your task to remember whether you were presented with this specific picture in this study so far or not.<br>If you recognize an object (you have already seen it in this study), it is an OLD object. <br>If you do not recognize an object (you have NOT seen it in this study), it is a NEW object. <br><strong> Attention</strong>: As already mentioned, <span style='color: darkorange; font-size:28px'>Ø</span>-pictures will <strong>never</strong> appear in this memory test (neither as new objects). <br><br>Press SPACE to continue. </div>","32","","","","","","","","","","","","","","","","","","","",""
"html-keyboard-response","101","798575","0.0-3.0-6.0","wm78p7q59g0yszh","instructions","5f1d3667ed2efa62bbcfe896","5f60e3c0a3b16e07647b2ff9","5f638068afd08b063baa2d69","false","22826.604999999283","<div align=left> M and N no longer will appear on the left/right of the fixation cross. <br>Instead there will be a note at the bottom of the left or right side  <br>indicating which key you should press for an old or new object:  <br> <br>Press the <strong>right</strong> key to classify an object as <strong>old</strong> and press the <strong>left</strong>, to classify an object as <strong>new</strong>.<br>Please classify the objects as new/old by again placing your index finger on the 'S' and 'L' keys <br>and press them accordingly.<br><br><strong>Old:</strong> This object has been presented before. <br><strong>New:</strong> This object has <strong>not</strong> been presented.<br><br>Now please put your right and left index fingers on the 'S' and 'L' keys of your keyboard. <br>Please respond as fast and as accurately as possible!<br><br>Press SPACE to continue. </div>","32","","","","","","","","","","","","","","","","","","","",""
"categorize-image","102","800790","0.0-3.0-7.0-0.0","wm78p7q59g0yszh","practice_recog","5f1d3667ed2efa62bbcfe896","5f60e3c0a3b16e07647b2ff9","5f638068afd08b063baa2d69","true","1709.285000000731","./Stimuli/ImagesPractice/SM35.jpg","83","","","","test","true","","83","","SM","SM35.jpg","","old","33","3","practice_recog","left","","","",""
"categorize-image","103","803563","0.0-3.0-7.0-0.1","wm78p7q59g0yszh","practice_recog","5f1d3667ed2efa62bbcfe896","5f60e3c0a3b16e07647b2ff9","5f638068afd08b063baa2d69","true","2268.7000000005355","./Stimuli/ImagesPractice/LN4.jpg","76","","","","test","false","","83","","LN","LN4.jpg","","old","34","3","practice_recog","right","","","",""
"categorize-image","104","805036","0.0-3.0-7.0-0.2","wm78p7q59g0yszh","practice_recog","5f1d3667ed2efa62bbcfe896","5f60e3c0a3b16e07647b2ff9","5f638068afd08b063baa2d69","true","970.0849999999627","./Stimuli/ImagesPractice/SN221.jpg","76","","","","test","true","","76","","SN","SN221.jpg","","new","35","3","practice_recog","right","","","",""
"categorize-image","105","806563","0.0-3.0-7.0-0.3","wm78p7q59g0yszh","practice_recog","5f1d3667ed2efa62bbcfe896","5f60e3c0a3b16e07647b2ff9","5f638068afd08b063baa2d69","true","1022.5300000001444","./Stimuli/ImagesPractice/LM143.jpg","76","","","","test","true","","76","","LM","LM143.jpg","","new","36","3","practice_recog","right","","","",""
"categorize-image","106","807819","0.0-3.0-7.0-0.4","wm78p7q59g0yszh","practice_recog","5f1d3667ed2efa62bbcfe896","5f60e3c0a3b16e07647b2ff9","5f638068afd08b063baa2d69","true","752.8849999998929","./Stimuli/ImagesPractice/SM61.jpg","83","","","","test","true","","83","","SM","SM61.jpg","","old","37","3","practice_recog","left","","","",""
"categorize-image","107","809329","0.0-3.0-7.0-0.5","wm78p7q59g0yszh","practice_recog","5f1d3667ed2efa62bbcfe896","5f60e3c0a3b16e07647b2ff9","5f638068afd08b063baa2d69","true","1005.6050000003306","./Stimuli/ImagesPractice/LN15.jpg","83","","","","test","true","","83","","LN","LN15.jpg","","old","38","3","practice_recog","left","","","",""
"categorize-image","108","810616","0.0-3.0-7.0-0.6","wm78p7q59g0yszh","practice_recog","5f1d3667ed2efa62bbcfe896","5f60e3c0a3b16e07647b2ff9","5f638068afd08b063baa2d69","true","782.129999999539","./Stimuli/ImagesPractice/SN76.jpg","76","","","","test","true","","76","","SN","SN76.jpg","","new","39","3","practice_recog","right","","","",""
"categorize-image","109","811996","0.0-3.0-7.0-0.7","wm78p7q59g0yszh","practice_recog","5f1d3667ed2efa62bbcfe896","5f60e3c0a3b16e07647b2ff9","5f638068afd08b063baa2d69","true","877.4350000004051","./Stimuli/ImagesPractice/LM239.jpg","83","","","","test","true","","83","","LM","LM239.jpg","","old","40","3","practice_recog","left","","","",""
"categorize-image","110","813432","0.0-3.0-7.0-0.8","wm78p7q59g0yszh","practice_recog","5f1d3667ed2efa62bbcfe896","5f60e3c0a3b16e07647b2ff9","5f638068afd08b063baa2d69","true","931.1299999998882","./Stimuli/ImagesPractice/LN17.jpg","83","","","","test","true","","83","","LN","LN17.jpg","","old","41","3","practice_recog","left","","","",""
"categorize-image","111","815323","0.0-3.0-7.0-0.9","wm78p7q59g0yszh","practice_recog","5f1d3667ed2efa62bbcfe896","5f60e3c0a3b16e07647b2ff9","5f638068afd08b063baa2d69","true","1387.130000000121","./Stimuli/ImagesPractice/LM224.jpg","83","","","","test","true","","83","","LM","LM224.jpg","","old","42","3","practice_recog","left","","","",""
"categorize-image","112","816552","0.0-3.0-7.0-0.10","wm78p7q59g0yszh","practice_recog","5f1d3667ed2efa62bbcfe896","5f60e3c0a3b16e07647b2ff9","5f638068afd08b063baa2d69","true","725.644999999553","./Stimuli/ImagesPractice/SM98.jpg","76","","","","test","true","","76","","SM","SM98.jpg","","new","43","3","practice_recog","right","","","",""
"categorize-image","113","818266","0.0-3.0-7.0-0.11","wm78p7q59g0yszh","practice_recog","5f1d3667ed2efa62bbcfe896","5f60e3c0a3b16e07647b2ff9","5f638068afd08b063baa2d69","true","1209.6300000002375","./Stimuli/ImagesPractice/LM147.jpg","83","","","","test","false","","76","","LM","LM147.jpg","","new","44","3","practice_recog","left","","","",""
"categorize-image","114","820728","0.0-3.0-7.0-0.12","wm78p7q59g0yszh","practice_recog","5f1d3667ed2efa62bbcfe896","5f60e3c0a3b16e07647b2ff9","5f638068afd08b063baa2d69","true","1957.3449999998556","./Stimuli/ImagesPractice/SM62.jpg","76","","","","test","true","","76","","SM","SM62.jpg","","new","45","3","practice_recog","right","","","",""
"categorize-image","115","822204","0.0-3.0-7.0-0.13","wm78p7q59g0yszh","practice_recog","5f1d3667ed2efa62bbcfe896","5f60e3c0a3b16e07647b2ff9","5f638068afd08b063baa2d69","true","970.5599999997066","./Stimuli/ImagesPractice/SN220.jpg","76","","","","test","true","","76","","SN","SN220.jpg","","new","46","3","practice_recog","right","","","",""
"categorize-image","116","824021","0.0-3.0-7.0-0.14","wm78p7q59g0yszh","practice_recog","5f1d3667ed2efa62bbcfe896","5f60e3c0a3b16e07647b2ff9","5f638068afd08b063baa2d69","true","1312.5550000005169","./Stimuli/ImagesPractice/LM55.jpg","76","","","","test","true","","76","","LM","LM55.jpg","","new","47","3","practice_recog","right","","","",""
"categorize-image","117","825316","0.0-3.0-7.0-0.15","wm78p7q59g0yszh","practice_recog","5f1d3667ed2efa62bbcfe896","5f60e3c0a3b16e07647b2ff9","5f638068afd08b063baa2d69","true","791.4900000004563","./Stimuli/ImagesPractice/SN222.jpg","83","","","","test","true","","83","","SN","SN222.jpg","","old","48","3","practice_recog","left","","","",""
"html-keyboard-response","118","846985","0.0-3.0-8.0","wm78p7q59g0yszh","instructions","5f1d3667ed2efa62bbcfe896","5f60e3c0a3b16e07647b2ff9","5f638068afd08b063baa2d69","false","21666.54999999993","<div align=left> Great!<br><br>Are you ready to continue?<br>If you want to reread the instructions and redo the practice trials, please <br>press „Z“.<br><br>You can proceed when you are ready.<br><br>After the presentation of each object, you will receive an instruction whether to <br>remember or to forget the object.<br>We will test your memory of the following pictures only at the very end of <br>the experiment after all learning blocks are completed. <br><br>Press SPACE to CONTINUE when you are ready. </div>","32","","","","","","","","","","","","","","","","","","","",""
"html-keyboard-response","119","860012","0.0-4.0-0.0","wm78p7q59g0yszh","instructions","5f1d3667ed2efa62bbcfe896","5f60e3c0a3b16e07647b2ff9","5f638068afd08b063baa2d69","false","13024.289999999339","<div align=left> The actual experiment is about to start.<br>The practice trials are over!<br><br>Please always respond both fast and accurately!<br><br>Remember: <br> <br><li> Please place your index fingers on the <strong>'S'</strong> and <strong>'L'</strong> keys <br>to respond as fast and accurately as possible.</li><li> Every picture can be classified as either mechanical or non-mechanical.</li><li> If you do not respond in time or commit an error, you will receive a corresponding feedback.<br> Please try to respond as <strong> fast </strong> and as <strong> accurately as possible </strong>.</li><li> Remember the <span style='color: dodgerblue; font-size: 28px'>O</span> pictures. <br></li><li> Please minimize distractions and stay focused. </li><br><br>Press SPACE to START.</div>","32","","","","","","","","","","","","","","","","","","","",""
"html-keyboard-response","120","860714","0.0-4.0-1.0-0.0","wm78p7q59g0yszh","prime","5f1d3667ed2efa62bbcfe896","5f60e3c0a3b16e07647b2ff9","5f638068afd08b063baa2d69","false","null","<span style=""color: black; font-size: 48px"">M + N</span>","null","","","","resp_prompt","","","","","","","","","","","","","","","",""
"categorize-image","121","861491","0.0-4.0-1.0-1.0","wm78p7q59g0yszh","prime","5f1d3667ed2efa62bbcfe896","5f60e3c0a3b16e07647b2ff9","5f638068afd08b063baa2d69","true","770.9199999999255","./Stimuli/SelectedImages/SM/SM74.bmp","83","","","","test","true","M + N","83","repetition","SM","SM74.bmp","forget","","49","3","prime1","left","","","",""
"html-keyboard-response","122","863494","0.0-4.0-1.0-3.0","wm78p7q59g0yszh","prime","5f1d3667ed2efa62bbcfe896","5f60e3c0a3b16e07647b2ff9","5f638068afd08b063baa2d69","false","null","<div style=""align-items: center; display: flex; color: darkorange; font-size: 90px""><b>ø</b></div>","null","","","","forget_cue","","","","","","","","","","","","","","","",""
"html-keyboard-response","123","864196","0.0-4.0-1.0-0.1","wm78p7q59g0yszh","prime","5f1d3667ed2efa62bbcfe896","5f60e3c0a3b16e07647b2ff9","5f638068afd08b063baa2d69","false","null","<span style=""color: black; font-size: 48px"">M + N</span>","null","","","","resp_prompt","","","","","","","","","","","","","","","",""
"categorize-image","124","865131","0.0-4.0-1.0-1.1","wm78p7q59g0yszh","prime","5f1d3667ed2efa62bbcfe896","5f60e3c0a3b16e07647b2ff9","5f638068afd08b063baa2d69","true","930.5199999999022","./Stimuli/SelectedImages/LM/LM75.bmp","83","","","","test","true","M + N","83","switch","LM","LM75.bmp","forget","","50","3","prime1","left","","","",""
"html-keyboard-response","125","867134","0.0-4.0-1.0-3.1","wm78p7q59g0yszh","prime","5f1d3667ed2efa62bbcfe896","5f60e3c0a3b16e07647b2ff9","5f638068afd08b063baa2d69","false","null","<div style=""align-items: center; display: flex; color: darkorange; font-size: 90px""><b>ø</b></div>","null","","","","forget_cue","","","","","","","","","","","","","","","",""
"html-keyboard-response","126","867837","0.0-4.0-1.0-0.2","wm78p7q59g0yszh","prime","5f1d3667ed2efa62bbcfe896","5f60e3c0a3b16e07647b2ff9","5f638068afd08b063baa2d69","false","null","<span style=""color: black; font-size: 48px"">N + M</span>","null","","","","resp_prompt","","","","","","","","","","","","","","","",""
"categorize-image","127","868622","0.0-4.0-1.0-1.2","wm78p7q59g0yszh","prime","5f1d3667ed2efa62bbcfe896","5f60e3c0a3b16e07647b2ff9","5f638068afd08b063baa2d69","true","778.9249999995809","./Stimuli/SelectedImages/LN/LN101.bmp","83","","","","test","true","N + M","83","switch","LN","LN101.bmp","forget","","51","3","prime1","left","","","",""
"html-keyboard-response","128","870624","0.0-4.0-1.0-3.2","wm78p7q59g0yszh","prime","5f1d3667ed2efa62bbcfe896","5f60e3c0a3b16e07647b2ff9","5f638068afd08b063baa2d69","false","null","<div style=""align-items: center; display: flex; color: darkorange; font-size: 90px""><b>ø</b></div>","null","","","","forget_cue","","","","","","","","","","","","","","","",""
"html-keyboard-response","129","871326","0.0-4.0-1.0-0.3","wm78p7q59g0yszh","prime","5f1d3667ed2efa62bbcfe896","5f60e3c0a3b16e07647b2ff9","5f638068afd08b063baa2d69","false","null","<span style=""color: black; font-size: 48px"">M + N</span>","null","","","","resp_prompt","","","","","","","","","","","","","","","",""
"categorize-image","130","872283","0.0-4.0-1.0-1.3","wm78p7q59g0yszh","prime","5f1d3667ed2efa62bbcfe896","5f60e3c0a3b16e07647b2ff9","5f638068afd08b063baa2d69","true","951.184999999823","./Stimuli/SelectedImages/SM/SM17.bmp","83","","","","test","true","M + N","83","switch","SM","SM17.bmp","remember","","52","3","prime1","left","","","",""
"html-keyboard-response","131","874286","0.0-4.0-1.0-3.3","wm78p7q59g0yszh","prime","5f1d3667ed2efa62bbcfe896","5f60e3c0a3b16e07647b2ff9","5f638068afd08b063baa2d69","false","null","<div style=""align-items: center; display: flex; color: dodgerblue; font-size: 90px""><b>o</b></div>","null","","","","forget_cue","","","","","","","","","","","","","","","",""
"html-keyboard-response","132","874988","0.0-4.0-1.0-0.4","wm78p7q59g0yszh","prime","5f1d3667ed2efa62bbcfe896","5f60e3c0a3b16e07647b2ff9","5f638068afd08b063baa2d69","false","null","<span style=""color: black; font-size: 48px"">M + N</span>","null","","","","resp_prompt","","","","","","","","","","","","","","","",""
"categorize-image","133","875665","0.0-4.0-1.0-1.4","wm78p7q59g0yszh","prime","5f1d3667ed2efa62bbcfe896","5f60e3c0a3b16e07647b2ff9","5f638068afd08b063baa2d69","true","668.9150000001537","./Stimuli/SelectedImages/LM/LM129.bmp","83","","","","test","true","M + N","83","switch","LM","LM129.bmp","remember","","53","3","prime1","left","","","",""
"html-keyboard-response","134","877667","0.0-4.0-1.0-3.4","wm78p7q59g0yszh","prime","5f1d3667ed2efa62bbcfe896","5f60e3c0a3b16e07647b2ff9","5f638068afd08b063baa2d69","false","null","<div style=""align-items: center; display: flex; color: dodgerblue; font-size: 90px""><b>o</b></div>","null","","","","forget_cue","","","","","","","","","","","","","","","",""
"html-keyboard-response","135","878369","0.0-4.0-1.0-0.5","wm78p7q59g0yszh","prime","5f1d3667ed2efa62bbcfe896","5f60e3c0a3b16e07647b2ff9","5f638068afd08b063baa2d69","false","null","<span style=""color: black; font-size: 48px"">M + N</span>","null","","","","resp_prompt","","","","","","","","","","","","","","","",""
"categorize-image","136","879520","0.0-4.0-1.0-1.5","wm78p7q59g0yszh","prime","5f1d3667ed2efa62bbcfe896","5f60e3c0a3b16e07647b2ff9","5f638068afd08b063baa2d69","true","1144.5750000003027","./Stimuli/SelectedImages/LM/LM57.bmp","83","","","","test","true","M + N","83","switch","LM","LM57.bmp","remember","","54","3","prime1","left","","","",""
"html-keyboard-response","137","881524","0.0-4.0-1.0-3.5","wm78p7q59g0yszh","prime","5f1d3667ed2efa62bbcfe896","5f60e3c0a3b16e07647b2ff9","5f638068afd08b063baa2d69","false","null","<div style=""align-items: center; display: flex; color: dodgerblue; font-size: 90px""><b>o</b></div>","null","","","","forget_cue","","","","","","","","","","","","","","","",""
"html-keyboard-response","138","882227","0.0-4.0-1.0-0.6","wm78p7q59g0yszh","prime","5f1d3667ed2efa62bbcfe896","5f60e3c0a3b16e07647b2ff9","5f638068afd08b063baa2d69","false","null","<span style=""color: black; font-size: 48px"">M + N</span>","null","","","","resp_prompt","","","","","","","","","","","","","","","",""
"categorize-image","139","883617","0.0-4.0-1.0-1.6","wm78p7q59g0yszh","prime","5f1d3667ed2efa62bbcfe896","5f60e3c0a3b16e07647b2ff9","5f638068afd08b063baa2d69","true","1384.2700000004843","./Stimuli/SelectedImages/LN/LN131.bmp","76","","","","test","true","M + N","76","repetition","LN","LN131.bmp","remember","","55","3","prime1","right","","","",""
"html-keyboard-response","140","885620","0.0-4.0-1.0-3.6","wm78p7q59g0yszh","prime","5f1d3667ed2efa62bbcfe896","5f60e3c0a3b16e07647b2ff9","5f638068afd08b063baa2d69","false","null","<div style=""align-items: center; display: flex; color: dodgerblue; font-size: 90px""><b>o</b></div>","null","","","","forget_cue","","","","","","","","","","","","","","","",""
"html-keyboard-response","141","886322","0.0-4.0-1.0-0.7","wm78p7q59g0yszh","prime","5f1d3667ed2efa62bbcfe896","5f60e3c0a3b16e07647b2ff9","5f638068afd08b063baa2d69","false","null","<span style=""color: black; font-size: 48px"">M + N</span>","null","","","","resp_prompt","","","","","","","","","","","","","","","",""
"categorize-image","142","887682","0.0-4.0-1.0-1.7","wm78p7q59g0yszh","prime","5f1d3667ed2efa62bbcfe896","5f60e3c0a3b16e07647b2ff9","5f638068afd08b063baa2d69","true","1353.3200000001816","./Stimuli/SelectedImages/SN/SN179.bmp","76","","","","test","true","M + N","76","switch","SN","SN179.bmp","remember","","56","3","prime1","right","","","",""
"html-keyboard-response","143","889684","0.0-4.0-1.0-3.7","wm78p7q59g0yszh","prime","5f1d3667ed2efa62bbcfe896","5f60e3c0a3b16e07647b2ff9","5f638068afd08b063baa2d69","false","null","<div style=""align-items: center; display: flex; color: dodgerblue; font-size: 90px""><b>o</b></div>","null","","","","forget_cue","","","","","","","","","","","","","","","",""
"html-keyboard-response","144","890385","0.0-4.0-1.0-0.8","wm78p7q59g0yszh","prime","5f1d3667ed2efa62bbcfe896","5f60e3c0a3b16e07647b2ff9","5f638068afd08b063baa2d69","false","null","<span style=""color: black; font-size: 48px"">N + M</span>","null","","","","resp_prompt","","","","","","","","","","","","","","","",""
"categorize-image","145","891753","0.0-4.0-1.0-1.8","wm78p7q59g0yszh","prime","5f1d3667ed2efa62bbcfe896","5f60e3c0a3b16e07647b2ff9","5f638068afd08b063baa2d69","true","1362.2400000004563","./Stimuli/SelectedImages/LN/LN59.bmp","83","","","","test","true","N + M","83","switch","LN","LN59.bmp","remember","","57","3","prime1","left","","","",""
"html-keyboard-response","146","893756","0.0-4.0-1.0-3.8","wm78p7q59g0yszh","prime","5f1d3667ed2efa62bbcfe896","5f60e3c0a3b16e07647b2ff9","5f638068afd08b063baa2d69","false","null","<div style=""align-items: center; display: flex; color: dodgerblue; font-size: 90px""><b>o</b></div>","null","","","","forget_cue","","","","","","","","","","","","","","","",""
"html-keyboard-response","147","894458","0.0-4.0-1.0-0.9","wm78p7q59g0yszh","prime","5f1d3667ed2efa62bbcfe896","5f60e3c0a3b16e07647b2ff9","5f638068afd08b063baa2d69","false","null","<span style=""color: black; font-size: 48px"">M + N</span>","null","","","","resp_prompt","","","","","","","","","","","","","","","",""
"categorize-image","148","895429","0.0-4.0-1.0-1.9","wm78p7q59g0yszh","prime","5f1d3667ed2efa62bbcfe896","5f60e3c0a3b16e07647b2ff9","5f638068afd08b063baa2d69","true","964.7800000002608","./Stimuli/SelectedImages/LM/LM179.bmp","83","","","","test","true","M + N","83","repetition","LM","LM179.bmp","remember","","58","3","prime1","left","","","",""
"html-keyboard-response","149","897432","0.0-4.0-1.0-3.9","wm78p7q59g0yszh","prime","5f1d3667ed2efa62bbcfe896","5f60e3c0a3b16e07647b2ff9","5f638068afd08b063baa2d69","false","null","<div style=""align-items: center; display: flex; color: dodgerblue; font-size: 90px""><b>o</b></div>","null","","","","forget_cue","","","","","","","","","","","","","","","",""
"html-keyboard-response","150","898133","0.0-4.0-1.0-0.10","wm78p7q59g0yszh","prime","5f1d3667ed2efa62bbcfe896","5f60e3c0a3b16e07647b2ff9","5f638068afd08b063baa2d69","false","null","<span style=""color: black; font-size: 48px"">N + M</span>","null","","","","resp_prompt","","","","","","","","","","","","","","","",""
"categorize-image","151","899635","0.0-4.0-1.0-1.10","wm78p7q59g0yszh","prime","5f1d3667ed2efa62bbcfe896","5f60e3c0a3b16e07647b2ff9","5f638068afd08b063baa2d69","true","1495.6350000002421","./Stimuli/SelectedImages/LN/LN149.bmp","83","","","","test","true","N + M","83","repetition","LN","LN149.bmp","remember","","59","3","prime1","left","","","",""
"html-keyboard-response","152","901638","0.0-4.0-1.0-3.10","wm78p7q59g0yszh","prime","5f1d3667ed2efa62bbcfe896","5f60e3c0a3b16e07647b2ff9","5f638068afd08b063baa2d69","false","null","<div style=""align-items: center; display: flex; color: dodgerblue; font-size: 90px""><b>o</b></div>","null","","","","forget_cue","","","","","","","","","","","","","","","",""
"html-keyboard-response","153","902340","0.0-4.0-1.0-0.11","wm78p7q59g0yszh","prime","5f1d3667ed2efa62bbcfe896","5f60e3c0a3b16e07647b2ff9","5f638068afd08b063baa2d69","false","null","<span style=""color: black; font-size: 48px"">N + M</span>","null","","","","resp_prompt","","","","","","","","","","","","","","","",""
"categorize-image","154","903979","0.0-4.0-1.0-1.11","wm78p7q59g0yszh","prime","5f1d3667ed2efa62bbcfe896","5f60e3c0a3b16e07647b2ff9","5f638068afd08b063baa2d69","true","1633.824999999837","./Stimuli/SelectedImages/SN/SN60.bmp","83","","","","test","true","N + M","83","repetition","SN","SN60.bmp","forget","","60","3","prime1","left","","","",""
"html-keyboard-response","155","905982","0.0-4.0-1.0-3.11","wm78p7q59g0yszh","prime","5f1d3667ed2efa62bbcfe896","5f60e3c0a3b16e07647b2ff9","5f638068afd08b063baa2d69","false","null","<div style=""align-items: center; display: flex; color: darkorange; font-size: 90px""><b>ø</b></div>","null","","","","forget_cue","","","","","","","","","","","","","","","",""
"html-keyboard-response","156","906684","0.0-4.0-1.0-0.12","wm78p7q59g0yszh","prime","5f1d3667ed2efa62bbcfe896","5f60e3c0a3b16e07647b2ff9","5f638068afd08b063baa2d69","false","null","<span style=""color: black; font-size: 48px"">N + M</span>","null","","","","resp_prompt","","","","","","","","","","","","","","","",""
"categorize-image","157","907544","0.0-4.0-1.0-1.12","wm78p7q59g0yszh","prime","5f1d3667ed2efa62bbcfe896","5f60e3c0a3b16e07647b2ff9","5f638068afd08b063baa2d69","true","855.1199999992969","./Stimuli/SelectedImages/SM/SM205.bmp","76","","","","test","true","N + M","76","repetition","SM","SM205.bmp","remember","","61","3","prime1","right","","","",""
"html-keyboard-response","158","909546","0.0-4.0-1.0-3.12","wm78p7q59g0yszh","prime","5f1d3667ed2efa62bbcfe896","5f60e3c0a3b16e07647b2ff9","5f638068afd08b063baa2d69","false","null","<div style=""align-items: center; display: flex; color: dodgerblue; font-size: 90px""><b>o</b></div>","null","","","","forget_cue","","","","","","","","","","","","","","","",""
"html-keyboard-response","159","910248","0.0-4.0-1.0-0.13","wm78p7q59g0yszh","prime","5f1d3667ed2efa62bbcfe896","5f60e3c0a3b16e07647b2ff9","5f638068afd08b063baa2d69","false","null","<span style=""color: black; font-size: 48px"">N + M</span>","null","","","","resp_prompt","","","","","","","","","","","","","","","",""
"categorize-image","160","911115","0.0-4.0-1.0-1.13","wm78p7q59g0yszh","prime","5f1d3667ed2efa62bbcfe896","5f60e3c0a3b16e07647b2ff9","5f638068afd08b063baa2d69","true","860.7449999999953","./Stimuli/SelectedImages/LM/LM103.bmp","76","","","","test","true","N + M","76","repetition","LM","LM103.bmp","forget","","62","3","prime1","right","","","",""
"html-keyboard-response","161","913116","0.0-4.0-1.0-3.13","wm78p7q59g0yszh","prime","5f1d3667ed2efa62bbcfe896","5f60e3c0a3b16e07647b2ff9","5f638068afd08b063baa2d69","false","null","<div style=""align-items: center; display: flex; color: darkorange; font-size: 90px""><b>ø</b></div>","null","","","","forget_cue","","","","","","","","","","","","","","","",""
"html-keyboard-response","162","913819","0.0-4.0-1.0-0.14","wm78p7q59g0yszh","prime","5f1d3667ed2efa62bbcfe896","5f60e3c0a3b16e07647b2ff9","5f638068afd08b063baa2d69","false","null","<span style=""color: black; font-size: 48px"">N + M</span>","null","","","","resp_prompt","","","","","","","","","","","","","","","",""
"categorize-image","163","914547","0.0-4.0-1.0-1.14","wm78p7q59g0yszh","prime","5f1d3667ed2efa62bbcfe896","5f60e3c0a3b16e07647b2ff9","5f638068afd08b063baa2d69","true","720.3799999997718","./Stimuli/SelectedImages/LM/LM51.bmp","76","","","","test","true","N + M","76","switch","LM","LM51.bmp","remember","","63","3","prime1","right","","","",""
"html-keyboard-response","164","916550","0.0-4.0-1.0-3.14","wm78p7q59g0yszh","prime","5f1d3667ed2efa62bbcfe896","5f60e3c0a3b16e07647b2ff9","5f638068afd08b063baa2d69","false","null","<div style=""align-items: center; display: flex; color: dodgerblue; font-size: 90px""><b>o</b></div>","null","","","","forget_cue","","","","","","","","","","","","","","","",""
"html-keyboard-response","165","917252","0.0-4.0-1.0-0.15","wm78p7q59g0yszh","prime","5f1d3667ed2efa62bbcfe896","5f60e3c0a3b16e07647b2ff9","5f638068afd08b063baa2d69","false","null","<span style=""color: black; font-size: 48px"">M + N</span>","null","","","","resp_prompt","","","","","","","","","","","","","","","",""
"categorize-image","166","918077","0.0-4.0-1.0-1.15","wm78p7q59g0yszh","prime","5f1d3667ed2efa62bbcfe896","5f60e3c0a3b16e07647b2ff9","5f638068afd08b063baa2d69","true","818.9700000003213","./Stimuli/SelectedImages/SN/SN52.bmp","76","","","","test","true","M + N","76","switch","SN","SN52.bmp","remember","","64","3","prime1","right","","","",""
"html-keyboard-response","167","920079","0.0-4.0-1.0-3.15","wm78p7q59g0yszh","prime","5f1d3667ed2efa62bbcfe896","5f60e3c0a3b16e07647b2ff9","5f638068afd08b063baa2d69","false","null","<div style=""align-items: center; display: flex; color: dodgerblue; font-size: 90px""><b>o</b></div>","null","","","","forget_cue","","","","","","","","","","","","","","","",""
"html-keyboard-response","168","920781","0.0-4.0-1.0-0.16","wm78p7q59g0yszh","prime","5f1d3667ed2efa62bbcfe896","5f60e3c0a3b16e07647b2ff9","5f638068afd08b063baa2d69","false","null","<span style=""color: black; font-size: 48px"">N + M</span>","null","","","","resp_prompt","","","","","","","","","","","","","","","",""
"categorize-image","169","921451","0.0-4.0-1.0-1.16","wm78p7q59g0yszh","prime","5f1d3667ed2efa62bbcfe896","5f60e3c0a3b16e07647b2ff9","5f638068afd08b063baa2d69","true","664.0699999998324","./Stimuli/SelectedImages/LM/LM157.bmp","76","","","","test","true","N + M","76","switch","LM","LM157.bmp","forget","","65","3","prime1","right","","","",""
"html-keyboard-response","170","923454","0.0-4.0-1.0-3.16","wm78p7q59g0yszh","prime","5f1d3667ed2efa62bbcfe896","5f60e3c0a3b16e07647b2ff9","5f638068afd08b063baa2d69","false","null","<div style=""align-items: center; display: flex; color: darkorange; font-size: 90px""><b>ø</b></div>","null","","","","forget_cue","","","","","","","","","","","","","","","",""
"html-keyboard-response","171","924157","0.0-4.0-1.0-0.17","wm78p7q59g0yszh","prime","5f1d3667ed2efa62bbcfe896","5f60e3c0a3b16e07647b2ff9","5f638068afd08b063baa2d69","false","null","<span style=""color: black; font-size: 48px"">M + N</span>","null","","","","resp_prompt","","","","","","","","","","","","","","","",""
"categorize-image","172","924919","0.0-4.0-1.0-1.17","wm78p7q59g0yszh","prime","5f1d3667ed2efa62bbcfe896","5f60e3c0a3b16e07647b2ff9","5f638068afd08b063baa2d69","true","756.3049999998184","./Stimuli/SelectedImages/SM/SM78.bmp","83","","","","test","true","M + N","83","repetition","SM","SM78.bmp","remember","","66","3","prime1","left","","","",""
"html-keyboard-response","173","926921","0.0-4.0-1.0-3.17","wm78p7q59g0yszh","prime","5f1d3667ed2efa62bbcfe896","5f60e3c0a3b16e07647b2ff9","5f638068afd08b063baa2d69","false","null","<div style=""align-items: center; display: flex; color: dodgerblue; font-size: 90px""><b>o</b></div>","null","","","","forget_cue","","","","","","","","","","","","","","","",""
"html-keyboard-response","174","927624","0.0-4.0-1.0-0.18","wm78p7q59g0yszh","prime","5f1d3667ed2efa62bbcfe896","5f60e3c0a3b16e07647b2ff9","5f638068afd08b063baa2d69","false","null","<span style=""color: black; font-size: 48px"">N + M</span>","null","","","","resp_prompt","","","","","","","","","","","","","","","",""
"categorize-image","175","928609","0.0-4.0-1.0-1.18","wm78p7q59g0yszh","prime","5f1d3667ed2efa62bbcfe896","5f60e3c0a3b16e07647b2ff9","5f638068afd08b063baa2d69","true","980.3449999999721","./Stimuli/SelectedImages/SM/SM207.bmp","76","","","","test","true","N + M","76","switch","SM","SM207.bmp","remember","","67","3","prime1","right","","","",""
"html-keyboard-response","176","930612","0.0-4.0-1.0-3.18","wm78p7q59g0yszh","prime","5f1d3667ed2efa62bbcfe896","5f60e3c0a3b16e07647b2ff9","5f638068afd08b063baa2d69","false","null","<div style=""align-items: center; display: flex; color: dodgerblue; font-size: 90px""><b>o</b></div>","null","","","","forget_cue","","","","","","","","","","","","","","","",""
"html-keyboard-response","177","931314","0.0-4.0-1.0-0.19","wm78p7q59g0yszh","prime","5f1d3667ed2efa62bbcfe896","5f60e3c0a3b16e07647b2ff9","5f638068afd08b063baa2d69","false","null","<span style=""color: black; font-size: 48px"">N + M</span>","null","","","","resp_prompt","","","","","","","","","","","","","","","",""
"categorize-image","178","932472","0.0-4.0-1.0-1.19","wm78p7q59g0yszh","prime","5f1d3667ed2efa62bbcfe896","5f60e3c0a3b16e07647b2ff9","5f638068afd08b063baa2d69","true","1152.1650000003865","./Stimuli/SelectedImages/SN/SN111.bmp","83","","","","test","true","N + M","83","repetition","SN","SN111.bmp","forget","","68","3","prime1","left","","","",""
"html-keyboard-response","179","934475","0.0-4.0-1.0-3.19","wm78p7q59g0yszh","prime","5f1d3667ed2efa62bbcfe896","5f60e3c0a3b16e07647b2ff9","5f638068afd08b063baa2d69","false","null","<div style=""align-items: center; display: flex; color: darkorange; font-size: 90px""><b>ø</b></div>","null","","","","forget_cue","","","","","","","","","","","","","","","",""
"html-keyboard-response","180","935177","0.0-4.0-1.0-0.20","wm78p7q59g0yszh","prime","5f1d3667ed2efa62bbcfe896","5f60e3c0a3b16e07647b2ff9","5f638068afd08b063baa2d69","false","null","<span style=""color: black; font-size: 48px"">N + M</span>","null","","","","resp_prompt","","","","","","","","","","","","","","","",""
"categorize-image","181","935856","0.0-4.0-1.0-1.20","wm78p7q59g0yszh","prime","5f1d3667ed2efa62bbcfe896","5f60e3c0a3b16e07647b2ff9","5f638068afd08b063baa2d69","true","672.6199999994133","./Stimuli/SelectedImages/SM/SM106.bmp","76","","","","test","true","N + M","76","repetition","SM","SM106.bmp","remember","","69","3","prime1","right","","","",""
"html-keyboard-response","182","937858","0.0-4.0-1.0-3.20","wm78p7q59g0yszh","prime","5f1d3667ed2efa62bbcfe896","5f60e3c0a3b16e07647b2ff9","5f638068afd08b063baa2d69","false","null","<div style=""align-items: center; display: flex; color: dodgerblue; font-size: 90px""><b>o</b></div>","null","","","","forget_cue","","","","","","","","","","","","","","","",""
"html-keyboard-response","183","938561","0.0-4.0-1.0-0.21","wm78p7q59g0yszh","prime","5f1d3667ed2efa62bbcfe896","5f60e3c0a3b16e07647b2ff9","5f638068afd08b063baa2d69","false","null","<span style=""color: black; font-size: 48px"">N + M</span>","null","","","","resp_prompt","","","","","","","","","","","","","","","",""
"categorize-image","184","939386","0.0-4.0-1.0-1.21","wm78p7q59g0yszh","prime","5f1d3667ed2efa62bbcfe896","5f60e3c0a3b16e07647b2ff9","5f638068afd08b063baa2d69","true","818.7100000004284","./Stimuli/SelectedImages/SN/SN93.bmp","76","","","","test","false","N + M","83","repetition","SN","SN93.bmp","remember","","70","3","prime1","right","","","",""
"html-keyboard-response","185","939890","0.0-4.0-1.0-2.21-0.21","wm78p7q59g0yszh","prime","5f1d3667ed2efa62bbcfe896","5f60e3c0a3b16e07647b2ff9","5f638068afd08b063baa2d69","false","null","<span style=""color: red; font-size: 48px"">Error!</span>","null","","","","feedback","","","","","","","","","","","","","","","",""
"html-keyboard-response","186","941892","0.0-4.0-1.0-3.21","wm78p7q59g0yszh","prime","5f1d3667ed2efa62bbcfe896","5f60e3c0a3b16e07647b2ff9","5f638068afd08b063baa2d69","false","null","<div style=""align-items: center; display: flex; color: dodgerblue; font-size: 90px""><b>o</b></div>","null","","","","forget_cue","","","","","","","","","","","","","","","",""
"html-keyboard-response","187","942595","0.0-4.0-1.0-0.22","wm78p7q59g0yszh","prime","5f1d3667ed2efa62bbcfe896","5f60e3c0a3b16e07647b2ff9","5f638068afd08b063baa2d69","false","null","<span style=""color: black; font-size: 48px"">N + M</span>","null","","","","resp_prompt","","","","","","","","","","","","","","","",""
"categorize-image","188","943603","0.0-4.0-1.0-1.22","wm78p7q59g0yszh","prime","5f1d3667ed2efa62bbcfe896","5f60e3c0a3b16e07647b2ff9","5f638068afd08b063baa2d69","true","1003.8299999996088","./Stimuli/SelectedImages/SN/SN240.bmp","83","","","","test","true","N + M","83","switch","SN","SN240.bmp","remember","","71","3","prime1","left","","","",""
"html-keyboard-response","189","945607","0.0-4.0-1.0-3.22","wm78p7q59g0yszh","prime","5f1d3667ed2efa62bbcfe896","5f60e3c0a3b16e07647b2ff9","5f638068afd08b063baa2d69","false","null","<div style=""align-items: center; display: flex; color: dodgerblue; font-size: 90px""><b>o</b></div>","null","","","","forget_cue","","","","","","","","","","","","","","","",""
"html-keyboard-response","190","946309","0.0-4.0-1.0-0.23","wm78p7q59g0yszh","prime","5f1d3667ed2efa62bbcfe896","5f60e3c0a3b16e07647b2ff9","5f638068afd08b063baa2d69","false","null","<span style=""color: black; font-size: 48px"">M + N</span>","null","","","","resp_prompt","","","","","","","","","","","","","","","",""
"categorize-image","191","947625","0.0-4.0-1.0-1.23","wm78p7q59g0yszh","prime","5f1d3667ed2efa62bbcfe896","5f60e3c0a3b16e07647b2ff9","5f638068afd08b063baa2d69","true","1309.4549999996088","./Stimuli/SelectedImages/LN/LN13.bmp","83","","","","test","false","M + N","76","switch","LN","LN13.bmp","remember","","72","3","prime1","left","","","",""
"html-keyboard-response","192","948128","0.0-4.0-1.0-2.23-0.23","wm78p7q59g0yszh","prime","5f1d3667ed2efa62bbcfe896","5f60e3c0a3b16e07647b2ff9","5f638068afd08b063baa2d69","false","null","<span style=""color: red; font-size: 48px"">Error!</span>","null","","","","feedback","","","","","","","","","","","","","","","",""
"html-keyboard-response","193","950130","0.0-4.0-1.0-3.23","wm78p7q59g0yszh","prime","5f1d3667ed2efa62bbcfe896","5f60e3c0a3b16e07647b2ff9","5f638068afd08b063baa2d69","false","null","<div style=""align-items: center; display: flex; color: dodgerblue; font-size: 90px""><b>o</b></div>","null","","","","forget_cue","","","","","","","","","","","","","","","",""
"html-keyboard-response","194","950833","0.0-4.0-1.0-0.24","wm78p7q59g0yszh","prime","5f1d3667ed2efa62bbcfe896","5f60e3c0a3b16e07647b2ff9","5f638068afd08b063baa2d69","false","null","<span style=""color: black; font-size: 48px"">M + N</span>","null","","","","resp_prompt","","","","","","","","","","","","","","","",""
"categorize-image","195","951636","0.0-4.0-1.0-1.24","wm78p7q59g0yszh","prime","5f1d3667ed2efa62bbcfe896","5f60e3c0a3b16e07647b2ff9","5f638068afd08b063baa2d69","true","797.4499999999534","./Stimuli/SelectedImages/LN/LN82.bmp","76","","","","test","true","M + N","76","repetition","LN","LN82.bmp","forget","","73","3","prime1","right","","","",""
"html-keyboard-response","196","953638","0.0-4.0-1.0-3.24","wm78p7q59g0yszh","prime","5f1d3667ed2efa62bbcfe896","5f60e3c0a3b16e07647b2ff9","5f638068afd08b063baa2d69","false","null","<div style=""align-items: center; display: flex; color: darkorange; font-size: 90px""><b>ø</b></div>","null","","","","forget_cue","","","","","","","","","","","","","","","",""
"html-keyboard-response","197","954340","0.0-4.0-1.0-0.25","wm78p7q59g0yszh","prime","5f1d3667ed2efa62bbcfe896","5f60e3c0a3b16e07647b2ff9","5f638068afd08b063baa2d69","false","null","<span style=""color: black; font-size: 48px"">M + N</span>","null","","","","resp_prompt","","","","","","","","","","","","","","","",""
"categorize-image","198","955520","0.0-4.0-1.0-1.25","wm78p7q59g0yszh","prime","5f1d3667ed2efa62bbcfe896","5f60e3c0a3b16e07647b2ff9","5f638068afd08b063baa2d69","true","1174.1600000004983","./Stimuli/SelectedImages/LN/LN42.bmp","76","","","","test","true","M + N","76","switch","LN","LN42.bmp","remember","","74","3","prime1","right","","","",""
"html-keyboard-response","199","957524","0.0-4.0-1.0-3.25","wm78p7q59g0yszh","prime","5f1d3667ed2efa62bbcfe896","5f60e3c0a3b16e07647b2ff9","5f638068afd08b063baa2d69","false","null","<div style=""align-items: center; display: flex; color: dodgerblue; font-size: 90px""><b>o</b></div>","null","","","","forget_cue","","","","","","","","","","","","","","","",""
"html-keyboard-response","200","958225","0.0-4.0-1.0-0.26","wm78p7q59g0yszh","prime","5f1d3667ed2efa62bbcfe896","5f60e3c0a3b16e07647b2ff9","5f638068afd08b063baa2d69","false","null","<span style=""color: black; font-size: 48px"">M + N</span>","null","","","","resp_prompt","","","","","","","","","","","","","","","",""
"categorize-image","201","959062","0.0-4.0-1.0-1.26","wm78p7q59g0yszh","prime","5f1d3667ed2efa62bbcfe896","5f60e3c0a3b16e07647b2ff9","5f638068afd08b063baa2d69","true","830.4500000004191","./Stimuli/SelectedImages/SN/SN49.bmp","76","","","","test","true","M + N","76","switch","SN","SN49.bmp","forget","","75","3","prime1","right","","","",""
"html-keyboard-response","202","961065","0.0-4.0-1.0-3.26","wm78p7q59g0yszh","prime","5f1d3667ed2efa62bbcfe896","5f60e3c0a3b16e07647b2ff9","5f638068afd08b063baa2d69","false","null","<div style=""align-items: center; display: flex; color: darkorange; font-size: 90px""><b>ø</b></div>","null","","","","forget_cue","","","","","","","","","","","","","","","",""
"html-keyboard-response","203","961768","0.0-4.0-1.0-0.27","wm78p7q59g0yszh","prime","5f1d3667ed2efa62bbcfe896","5f60e3c0a3b16e07647b2ff9","5f638068afd08b063baa2d69","false","null","<span style=""color: black; font-size: 48px"">N + M</span>","null","","","","resp_prompt","","","","","","","","","","","","","","","",""
"categorize-image","204","962584","0.0-4.0-1.0-1.27","wm78p7q59g0yszh","prime","5f1d3667ed2efa62bbcfe896","5f60e3c0a3b16e07647b2ff9","5f638068afd08b063baa2d69","true","810.8650000003399","./Stimuli/SelectedImages/SN/SN187.bmp","83","","","","test","true","N + M","83","switch","SN","SN187.bmp","remember","","76","3","prime1","left","","","",""
"html-keyboard-response","205","964587","0.0-4.0-1.0-3.27","wm78p7q59g0yszh","prime","5f1d3667ed2efa62bbcfe896","5f60e3c0a3b16e07647b2ff9","5f638068afd08b063baa2d69","false","null","<div style=""align-items: center; display: flex; color: dodgerblue; font-size: 90px""><b>o</b></div>","null","","","","forget_cue","","","","","","","","","","","","","","","",""
"html-keyboard-response","206","965288","0.0-4.0-1.0-0.28","wm78p7q59g0yszh","prime","5f1d3667ed2efa62bbcfe896","5f60e3c0a3b16e07647b2ff9","5f638068afd08b063baa2d69","false","null","<span style=""color: black; font-size: 48px"">M + N</span>","null","","","","resp_prompt","","","","","","","","","","","","","","","",""
"categorize-image","207","966670","0.0-4.0-1.0-1.28","wm78p7q59g0yszh","prime","5f1d3667ed2efa62bbcfe896","5f60e3c0a3b16e07647b2ff9","5f638068afd08b063baa2d69","true","1375.2249999997439","./Stimuli/SelectedImages/SN/SN140.bmp","76","","","","test","true","M + N","76","repetition","SN","SN140.bmp","remember","","77","3","prime1","right","","","",""
"html-keyboard-response","208","968673","0.0-4.0-1.0-3.28","wm78p7q59g0yszh","prime","5f1d3667ed2efa62bbcfe896","5f60e3c0a3b16e07647b2ff9","5f638068afd08b063baa2d69","false","null","<div style=""align-items: center; display: flex; color: dodgerblue; font-size: 90px""><b>o</b></div>","null","","","","forget_cue","","","","","","","","","","","","","","","",""
"html-keyboard-response","209","969375","0.0-4.0-1.0-0.29","wm78p7q59g0yszh","prime","5f1d3667ed2efa62bbcfe896","5f60e3c0a3b16e07647b2ff9","5f638068afd08b063baa2d69","false","null","<span style=""color: black; font-size: 48px"">M + N</span>","null","","","","resp_prompt","","","","","","","","","","","","","","","",""
"categorize-image","210","970148","0.0-4.0-1.0-1.29","wm78p7q59g0yszh","prime","5f1d3667ed2efa62bbcfe896","5f60e3c0a3b16e07647b2ff9","5f638068afd08b063baa2d69","true","765.9650000005495","./Stimuli/SelectedImages/SM/SM184.bmp","83","","","","test","true","M + N","83","repetition","SM","SM184.bmp","remember","","78","3","prime1","left","","","",""
"html-keyboard-response","211","972151","0.0-4.0-1.0-3.29","wm78p7q59g0yszh","prime","5f1d3667ed2efa62bbcfe896","5f60e3c0a3b16e07647b2ff9","5f638068afd08b063baa2d69","false","null","<div style=""align-items: center; display: flex; color: dodgerblue; font-size: 90px""><b>o</b></div>","null","","","","forget_cue","","","","","","","","","","","","","","","",""
"html-keyboard-response","212","972854","0.0-4.0-1.0-0.30","wm78p7q59g0yszh","prime","5f1d3667ed2efa62bbcfe896","5f60e3c0a3b16e07647b2ff9","5f638068afd08b063baa2d69","false","null","<span style=""color: black; font-size: 48px"">M + N</span>","null","","","","resp_prompt","","","","","","","","","","","","","","","",""
"categorize-image","213","973515","0.0-4.0-1.0-1.30","wm78p7q59g0yszh","prime","5f1d3667ed2efa62bbcfe896","5f60e3c0a3b16e07647b2ff9","5f638068afd08b063baa2d69","true","654.854999999865","./Stimuli/SelectedImages/SM/SM128.bmp","83","","","","test","true","M + N","83","switch","SM","SM128.bmp","forget","","79","3","prime1","left","","","",""
"html-keyboard-response","214","975518","0.0-4.0-1.0-3.30","wm78p7q59g0yszh","prime","5f1d3667ed2efa62bbcfe896","5f60e3c0a3b16e07647b2ff9","5f638068afd08b063baa2d69","false","null","<div style=""align-items: center; display: flex; color: darkorange; font-size: 90px""><b>ø</b></div>","null","","","","forget_cue","","","","","","","","","","","","","","","",""
"html-keyboard-response","215","976220","0.0-4.0-1.0-0.31","wm78p7q59g0yszh","prime","5f1d3667ed2efa62bbcfe896","5f60e3c0a3b16e07647b2ff9","5f638068afd08b063baa2d69","false","null","<span style=""color: black; font-size: 48px"">M + N</span>","null","","","","resp_prompt","","","","","","","","","","","","","","","",""
"categorize-image","216","976944","0.0-4.0-1.0-1.31","wm78p7q59g0yszh","prime","5f1d3667ed2efa62bbcfe896","5f60e3c0a3b16e07647b2ff9","5f638068afd08b063baa2d69","true","717.9300000007497","./Stimuli/SelectedImages/SN/SN182.bmp","76","","","","test","true","M + N","76","switch","SN","SN182.bmp","forget","","80","3","prime1","right","","","",""
"html-keyboard-response","217","978946","0.0-4.0-1.0-3.31","wm78p7q59g0yszh","prime","5f1d3667ed2efa62bbcfe896","5f60e3c0a3b16e07647b2ff9","5f638068afd08b063baa2d69","false","null","<div style=""align-items: center; display: flex; color: darkorange; font-size: 90px""><b>ø</b></div>","null","","","","forget_cue","","","","","","","","","","","","","","","",""
"html-keyboard-response","218","979648","0.0-4.0-1.0-0.32","wm78p7q59g0yszh","prime","5f1d3667ed2efa62bbcfe896","5f60e3c0a3b16e07647b2ff9","5f638068afd08b063baa2d69","false","null","<span style=""color: black; font-size: 48px"">N + M</span>","null","","","","resp_prompt","","","","","","","","","","","","","","","",""
"categorize-image","219","980349","0.0-4.0-1.0-1.32","wm78p7q59g0yszh","prime","5f1d3667ed2efa62bbcfe896","5f60e3c0a3b16e07647b2ff9","5f638068afd08b063baa2d69","true","696.315000000177","./Stimuli/SelectedImages/SN/SN155.bmp","83","","","","test","true","N + M","83","switch","SN","SN155.bmp","forget","","81","3","prime1","left","","","",""
"html-keyboard-response","220","982352","0.0-4.0-1.0-3.32","wm78p7q59g0yszh","prime","5f1d3667ed2efa62bbcfe896","5f60e3c0a3b16e07647b2ff9","5f638068afd08b063baa2d69","false","null","<div style=""align-items: center; display: flex; color: darkorange; font-size: 90px""><b>ø</b></div>","null","","","","forget_cue","","","","","","","","","","","","","","","",""
"html-keyboard-response","221","983054","0.0-4.0-1.0-0.33","wm78p7q59g0yszh","prime","5f1d3667ed2efa62bbcfe896","5f60e3c0a3b16e07647b2ff9","5f638068afd08b063baa2d69","false","null","<span style=""color: black; font-size: 48px"">N + M</span>","null","","","","resp_prompt","","","","","","","","","","","","","","","",""
"categorize-image","222","984121","0.0-4.0-1.0-1.33","wm78p7q59g0yszh","prime","5f1d3667ed2efa62bbcfe896","5f60e3c0a3b16e07647b2ff9","5f638068afd08b063baa2d69","true","1061.0749999996042","./Stimuli/SelectedImages/SM/SM195.bmp","76","","","","test","true","N + M","76","switch","SM","SM195.bmp","remember","","82","3","prime1","right","","","",""
"html-keyboard-response","223","986123","0.0-4.0-1.0-3.33","wm78p7q59g0yszh","prime","5f1d3667ed2efa62bbcfe896","5f60e3c0a3b16e07647b2ff9","5f638068afd08b063baa2d69","false","null","<div style=""align-items: center; display: flex; color: dodgerblue; font-size: 90px""><b>o</b></div>","null","","","","forget_cue","","","","","","","","","","","","","","","",""
"html-keyboard-response","224","986826","0.0-4.0-1.0-0.34","wm78p7q59g0yszh","prime","5f1d3667ed2efa62bbcfe896","5f60e3c0a3b16e07647b2ff9","5f638068afd08b063baa2d69","false","null","<span style=""color: black; font-size: 48px"">M + N</span>","null","","","","resp_prompt","","","","","","","","","","","","","","","",""
"categorize-image","225","987720","0.0-4.0-1.0-1.34","wm78p7q59g0yszh","prime","5f1d3667ed2efa62bbcfe896","5f60e3c0a3b16e07647b2ff9","5f638068afd08b063baa2d69","true","888.4649999999674","./Stimuli/SelectedImages/SM/SM148.bmp","83","","","","test","true","M + N","83","repetition","SM","SM148.bmp","forget","","83","3","prime1","left","","","",""
"html-keyboard-response","226","989722","0.0-4.0-1.0-3.34","wm78p7q59g0yszh","prime","5f1d3667ed2efa62bbcfe896","5f60e3c0a3b16e07647b2ff9","5f638068afd08b063baa2d69","false","null","<div style=""align-items: center; display: flex; color: darkorange; font-size: 90px""><b>ø</b></div>","null","","","","forget_cue","","","","","","","","","","","","","","","",""
"html-keyboard-response","227","990425","0.0-4.0-1.0-0.35","wm78p7q59g0yszh","prime","5f1d3667ed2efa62bbcfe896","5f60e3c0a3b16e07647b2ff9","5f638068afd08b063baa2d69","false","null","<span style=""color: black; font-size: 48px"">N + M</span>","null","","","","resp_prompt","","","","","","","","","","","","","","","",""
"categorize-image","228","991181","0.0-4.0-1.0-1.35","wm78p7q59g0yszh","prime","5f1d3667ed2efa62bbcfe896","5f60e3c0a3b16e07647b2ff9","5f638068afd08b063baa2d69","true","749.4249999999302","./Stimuli/SelectedImages/LM/LM48.bmp","76","","","","test","true","N + M","76","switch","LM","LM48.bmp","remember","","84","3","prime1","right","","","",""
"html-keyboard-response","229","993183","0.0-4.0-1.0-3.35","wm78p7q59g0yszh","prime","5f1d3667ed2efa62bbcfe896","5f60e3c0a3b16e07647b2ff9","5f638068afd08b063baa2d69","false","null","<div style=""align-items: center; display: flex; color: dodgerblue; font-size: 90px""><b>o</b></div>","null","","","","forget_cue","","","","","","","","","","","","","","","",""
"html-keyboard-response","230","993885","0.0-4.0-1.0-0.36","wm78p7q59g0yszh","prime","5f1d3667ed2efa62bbcfe896","5f60e3c0a3b16e07647b2ff9","5f638068afd08b063baa2d69","false","null","<span style=""color: black; font-size: 48px"">N + M</span>","null","","","","resp_prompt","","","","","","","","","","","","","","","",""
"categorize-image","231","994696","0.0-4.0-1.0-1.36","wm78p7q59g0yszh","prime","5f1d3667ed2efa62bbcfe896","5f60e3c0a3b16e07647b2ff9","5f638068afd08b063baa2d69","true","807.2899999998044","./Stimuli/SelectedImages/SM/SM76.bmp","76","","","","test","true","N + M","76","switch","SM","SM76.bmp","forget","","85","3","prime1","right","","","",""
"html-keyboard-response","232","996698","0.0-4.0-1.0-3.36","wm78p7q59g0yszh","prime","5f1d3667ed2efa62bbcfe896","5f60e3c0a3b16e07647b2ff9","5f638068afd08b063baa2d69","false","null","<div style=""align-items: center; display: flex; color: darkorange; font-size: 90px""><b>ø</b></div>","null","","","","forget_cue","","","","","","","","","","","","","","","",""
"html-keyboard-response","233","997400","0.0-4.0-1.0-0.37","wm78p7q59g0yszh","prime","5f1d3667ed2efa62bbcfe896","5f60e3c0a3b16e07647b2ff9","5f638068afd08b063baa2d69","false","null","<span style=""color: black; font-size: 48px"">M + N</span>","null","","","","resp_prompt","","","","","","","","","","","","","","","",""
"categorize-image","234","998295","0.0-4.0-1.0-1.37","wm78p7q59g0yszh","prime","5f1d3667ed2efa62bbcfe896","5f60e3c0a3b16e07647b2ff9","5f638068afd08b063baa2d69","true","888.6450000000186","./Stimuli/SelectedImages/LM/LM150.bmp","83","","","","test","true","M + N","83","repetition","LM","LM150.bmp","forget","","86","3","prime1","left","","","",""
"html-keyboard-response","235","1000300","0.0-4.0-1.0-3.37","wm78p7q59g0yszh","prime","5f1d3667ed2efa62bbcfe896","5f60e3c0a3b16e07647b2ff9","5f638068afd08b063baa2d69","false","null","<div style=""align-items: center; display: flex; color: darkorange; font-size: 90px""><b>ø</b></div>","null","","","","forget_cue","","","","","","","","","","","","","","","",""
"html-keyboard-response","236","1001002","0.0-4.0-1.0-0.38","wm78p7q59g0yszh","prime","5f1d3667ed2efa62bbcfe896","5f60e3c0a3b16e07647b2ff9","5f638068afd08b063baa2d69","false","null","<span style=""color: black; font-size: 48px"">M + N</span>","null","","","","resp_prompt","","","","","","","","","","","","","","","",""
"categorize-image","237","1001632","0.0-4.0-1.0-1.38","wm78p7q59g0yszh","prime","5f1d3667ed2efa62bbcfe896","5f60e3c0a3b16e07647b2ff9","5f638068afd08b063baa2d69","true","624.0049999996554","./Stimuli/SelectedImages/SN/SN181.bmp","76","","","","test","true","M + N","76","repetition","SN","SN181.bmp","forget","","87","3","prime1","right","","","",""
"html-keyboard-response","238","1003635","0.0-4.0-1.0-3.38","wm78p7q59g0yszh","prime","5f1d3667ed2efa62bbcfe896","5f60e3c0a3b16e07647b2ff9","5f638068afd08b063baa2d69","false","null","<div style=""align-items: center; display: flex; color: darkorange; font-size: 90px""><b>ø</b></div>","null","","","","forget_cue","","","","","","","","","","","","","","","",""
"html-keyboard-response","239","1004337","0.0-4.0-1.0-0.39","wm78p7q59g0yszh","prime","5f1d3667ed2efa62bbcfe896","5f60e3c0a3b16e07647b2ff9","5f638068afd08b063baa2d69","false","null","<span style=""color: black; font-size: 48px"">M + N</span>","null","","","","resp_prompt","","","","","","","","","","","","","","","",""
"categorize-image","240","1005070","0.0-4.0-1.0-1.39","wm78p7q59g0yszh","prime","5f1d3667ed2efa62bbcfe896","5f60e3c0a3b16e07647b2ff9","5f638068afd08b063baa2d69","true","726.1199999994133","./Stimuli/SelectedImages/SM/SM213.bmp","83","","","","test","true","M + N","83","switch","SM","SM213.bmp","forget","","88","3","prime1","left","","","",""
"html-keyboard-response","241","1007072","0.0-4.0-1.0-3.39","wm78p7q59g0yszh","prime","5f1d3667ed2efa62bbcfe896","5f60e3c0a3b16e07647b2ff9","5f638068afd08b063baa2d69","false","null","<div style=""align-items: center; display: flex; color: darkorange; font-size: 90px""><b>ø</b></div>","null","","","","forget_cue","","","","","","","","","","","","","","","",""
"html-keyboard-response","242","1007773","0.0-4.0-1.0-0.40","wm78p7q59g0yszh","prime","5f1d3667ed2efa62bbcfe896","5f60e3c0a3b16e07647b2ff9","5f638068afd08b063baa2d69","false","null","<span style=""color: black; font-size: 48px"">N + M</span>","null","","","","resp_prompt","","","","","","","","","","","","","","","",""
"categorize-image","243","1008404","0.0-4.0-1.0-1.40","wm78p7q59g0yszh","prime","5f1d3667ed2efa62bbcfe896","5f60e3c0a3b16e07647b2ff9","5f638068afd08b063baa2d69","true","626.6550000000279","./Stimuli/SelectedImages/SM/SM108.bmp","76","","","","test","true","N + M","76","switch","SM","SM108.bmp","forget","","89","3","prime1","right","","","",""
"html-keyboard-response","244","1010407","0.0-4.0-1.0-3.40","wm78p7q59g0yszh","prime","5f1d3667ed2efa62bbcfe896","5f60e3c0a3b16e07647b2ff9","5f638068afd08b063baa2d69","false","null","<div style=""align-items: center; display: flex; color: darkorange; font-size: 90px""><b>ø</b></div>","null","","","","forget_cue","","","","","","","","","","","","","","","",""
"html-keyboard-response","245","1011108","0.0-4.0-1.0-0.41","wm78p7q59g0yszh","prime","5f1d3667ed2efa62bbcfe896","5f60e3c0a3b16e07647b2ff9","5f638068afd08b063baa2d69","false","null","<span style=""color: black; font-size: 48px"">N + M</span>","null","","","","resp_prompt","","","","","","","","","","","","","","","",""
"categorize-image","246","1011888","0.0-4.0-1.0-1.41","wm78p7q59g0yszh","prime","5f1d3667ed2efa62bbcfe896","5f60e3c0a3b16e07647b2ff9","5f638068afd08b063baa2d69","true","773.4399999999441","./Stimuli/SelectedImages/LN/LN92.bmp","83","","","","test","true","N + M","83","switch","LN","LN92.bmp","remember","","90","3","prime1","left","","","",""
"html-keyboard-response","247","1013890","0.0-4.0-1.0-3.41","wm78p7q59g0yszh","prime","5f1d3667ed2efa62bbcfe896","5f60e3c0a3b16e07647b2ff9","5f638068afd08b063baa2d69","false","null","<div style=""align-items: center; display: flex; color: dodgerblue; font-size: 90px""><b>o</b></div>","null","","","","forget_cue","","","","","","","","","","","","","","","",""
"html-keyboard-response","248","1014593","0.0-4.0-1.0-0.42","wm78p7q59g0yszh","prime","5f1d3667ed2efa62bbcfe896","5f60e3c0a3b16e07647b2ff9","5f638068afd08b063baa2d69","false","null","<span style=""color: black; font-size: 48px"">M + N</span>","null","","","","resp_prompt","","","","","","","","","","","","","","","",""
"categorize-image","249","1015462","0.0-4.0-1.0-1.42","wm78p7q59g0yszh","prime","5f1d3667ed2efa62bbcfe896","5f60e3c0a3b16e07647b2ff9","5f638068afd08b063baa2d69","true","862.8299999999581","./Stimuli/SelectedImages/SN/SN64.bmp","76","","","","test","true","M + N","76","repetition","SN","SN64.bmp","forget","","91","3","prime1","right","","","",""
"html-keyboard-response","250","1017464","0.0-4.0-1.0-3.42","wm78p7q59g0yszh","prime","5f1d3667ed2efa62bbcfe896","5f60e3c0a3b16e07647b2ff9","5f638068afd08b063baa2d69","false","null","<div style=""align-items: center; display: flex; color: darkorange; font-size: 90px""><b>ø</b></div>","null","","","","forget_cue","","","","","","","","","","","","","","","",""
"html-keyboard-response","251","1018166","0.0-4.0-1.0-0.43","wm78p7q59g0yszh","prime","5f1d3667ed2efa62bbcfe896","5f60e3c0a3b16e07647b2ff9","5f638068afd08b063baa2d69","false","null","<span style=""color: black; font-size: 48px"">M + N</span>","null","","","","resp_prompt","","","","","","","","","","","","","","","",""
"categorize-image","252","1019183","0.0-4.0-1.0-1.43","wm78p7q59g0yszh","prime","5f1d3667ed2efa62bbcfe896","5f60e3c0a3b16e07647b2ff9","5f638068afd08b063baa2d69","true","1010.2150000002002","./Stimuli/SelectedImages/SM/SM73.bmp","83","","","","test","true","M + N","83","switch","SM","SM73.bmp","remember","","92","3","prime1","left","","","",""
