"trial_type","trial_index","time_elapsed","internal_node_id","subject","exp_part","prolific_PID","study_ID","session_ID","use","rt","stimulus","key_press","button_pressed","responses","question_order","trial_part","correct","resp_map","correct_resp","probe_condition","category","image","forget_condition","list","trial_num","block_num","block","response","test_part","n_span","sequence","num_spaces"
"pavlovia","0","6","0.0-0.0","4zcdfpd4t0sntrv","","5dd28c7e9c84d82a2b5b2966","5f60e3c0a3b16e07647b2ff9","5f60ee883e3a8a016bd0dbd6","false","","","","","","","","","","","","","","","","","","","","","","",""
"html-keyboard-response","1","9246","0.0-1.0-0.0-0.0","4zcdfpd4t0sntrv","welcome","5dd28c7e9c84d82a2b5b2966","5f60e3c0a3b16e07647b2ff9","5f60ee883e3a8a016bd0dbd6","false","9237.534999992931","<div align=left>Dear participant, <br> thank you for participating in an online study of the Cognition, Action, and Sustainability Unit of the University of Freiburg! <br> <br>The aim of this study is to examine our ability to remember previously learned information. <br>Our goal is to find out, whether our memory improves, when we only remember information that is relevant to us. <br>The experiment will take about 35 minutes to complete. <br> <br>Please, note that you can only participate in this study if you are using a device with a keyboard (PC, Laptop etc.) <br>and not if you are using a mobile device such as a tablet or smartphone.<br> <br>Press 'SPACE' to proceed to the experiment. </div>","32","","","","","","","","","","","","","","","","","","","",""
"html-keyboard-response","2","26316","0.0-1.0-0.0-1.0","4zcdfpd4t0sntrv","welcome","5dd28c7e9c84d82a2b5b2966","5f60e3c0a3b16e07647b2ff9","5f60ee883e3a8a016bd0dbd6","false","17068.19999999425","<div align=left><strong> Time Course of this experiment: </strong> <br><br> <strong> 1.</strong>  First, please fill in some information regarding your demographic data. <br><br> <strong> 2.</strong>  Next, your task will be to classify everyday objects. <br>In addition, you will be asked to remember certain objects and recall them later. <br>Working on these tasks requires your undivided attention and concentration.<br>It is therefore essential that you eliminate any sources of distraction in your  <br>environment and ensure that you will not be disturbed. <br><br><strong> 3.</strong>  At the end of the experiment, you will be asked to answer a few additional questions. <br> <br><strong> Important:</strong> After finishing the experiment, only close the browser window <br> by clicking on the 'end the experiment'-button when you are asked to do so. <br>Closing the browser window prematurely will make the allocation of your participation credit impossible. <br><br> Press 'SPACE' to start the experiment. </div>","32","","","","","","","","","","","","","","","","","","","",""
"html-button-response","3","42021","0.0-1.0-0.0-2.0","4zcdfpd4t0sntrv","welcome","5dd28c7e9c84d82a2b5b2966","5f60e3c0a3b16e07647b2ff9","5f60ee883e3a8a016bd0dbd6","true","15701.385000007576","<div align=left><strong> Informed consent </strong>  <br>The aim of our research is to better understand human behavior and mental processes. <br>In the following study your behavior (e.g. choices, reaction times) will be studied. <br> <br><strong> Voluntariness and Anonymity </strong> <br>Your participation in this study is  <strong> voluntary</strong>.<br>You may withdraw your consent to participate at any time without providing a reason for doing so and without fear of prejudice. <br><br>As no personal data will be collected, <strong>your data and your person cannot be connected after data collection</strong> – the data-set is anonymous. <br>Respectively, deletion of your data will not be possible after data collection has been completed, as we cannot retrace your data-set.<br>The results and anonymized data collected in this study will be published as a scientific publication. <br>This will happen in an <strong>anonymized format</strong>, so that no data can be traced back to a specific person. <br> <br>The anonymized data of this study will be made available to other researchers and/or in a data archive on the Internet as a means of transparency and to enable subsequent re-use. By doing so, this study follows the recommendations of the Deutsche Forschungsgemeinschaft (DFG, German Research Foundation) and Deutsche Gesellschaft für Psychologie (DGPS, German Psychological Society) regarding quality assurance in research.<br>If you have any questions now or after the experiment, please contact our team (experiments@cs.uni-freiburg.de).<br><br><br>I hereby declare, that I understand the above described conditions of participation and I agree to participate under these conditions. <br><br> </div>","","0","","","","","","","","","","","","","","","","","","",""
"html-keyboard-response","4","77951","0.0-1.0-0.0-3.0","4zcdfpd4t0sntrv","welcome","5dd28c7e9c84d82a2b5b2966","5f60e3c0a3b16e07647b2ff9","5f60ee883e3a8a016bd0dbd6","false","35926.1850000039","<div align=left><strong> General information concerning the experiment </strong>  <br> <br>Please follow the instructions:<ol> <li><strong> Do not leave this tab (your browser window) during the experiment and do not reload this tab! </strong>  <br>If you do switch tabs/windows during the experiment (to check your mail or visit another website, for example), <br>the experiment will end automatically and you will <strong>not receive credit</strong> for your participation. <br>Repeated participation or resumption of the experiment is impossible.</li> <br><li>Please close all other programs for the duration of your participation. </li> <br><li>Please mute or turn off your phone and put it out of your reach. </li> <br><li>Please also take off any disturbing accessories (such as wristwatches, bracelets, etc.). </li> <br><li>If you have music playing in the background, please turn it off now. </li> <br></ol>Thank you! <br>Press 'SPACE' to continue. </div>","32","","","","","","","","","","","","","","","","","","","",""
"survey-text","5","81082","0.0-1.0-1.0-0.0","4zcdfpd4t0sntrv","demographics","5dd28c7e9c84d82a2b5b2966","5f60e3c0a3b16e07647b2ff9","5f60ee883e3a8a016bd0dbd6","true","3116.294999999809","","","","{""age"":""37""}","","","","","","","","","","","","","","","","","",""
"survey-multi-choice","6","93181","0.0-1.0-1.0-1.0","4zcdfpd4t0sntrv","demographics","5dd28c7e9c84d82a2b5b2966","5f60e3c0a3b16e07647b2ff9","5f60ee883e3a8a016bd0dbd6","true","12095.500000010361","","","","{""gender"":""female"",""school"":""others"",""education"":""Doctorate degree""}","[0,1,2]","","","","","","","","","","","","","","","","",""
"html-keyboard-response","7","106081","0.0-1.0-2.0","4zcdfpd4t0sntrv","instructions","5dd28c7e9c84d82a2b5b2966","5f60e3c0a3b16e07647b2ff9","5f60ee883e3a8a016bd0dbd6","false","12897.26499999233","<div align=left> The experiment is now about to start: <br> <br>In the following part, you will be presented pictures of everyday objects. <br>Your first task is to <strong>classify these objects. </strong> <br> <br> You will classify them either as mechanical or non-mechanical objects. <br> <br>Objects that include any kind of technical mechanism (for example, wheels, switches, levers, <br> electronic components) fall under the category of <strong>mechanical</strong> objects. <br>Only objects without any kind of technical mechanism should be classified as <strong>non-mechanical</strong>. <br><br>Press 'SPACE' to continue. </div>","32","","","","","","","","","","","","","","","","","","","",""
"html-keyboard-response","8","164619","0.0-2.0-0.0","4zcdfpd4t0sntrv","instructions","5dd28c7e9c84d82a2b5b2966","5f60e3c0a3b16e07647b2ff9","5f60ee883e3a8a016bd0dbd6","false","58534.444999997504","<div align=justify>You will classify the objects using the <strong>'S'</strong> and the <strong>'L'</strong> keys on your keyboard.<br>For doing so, please place your <strong>left index finger</strong> on the <strong>'S'</strong> key and place your <strong>right index finger</strong> on the <strong>'L'</strong> key. <br><br> Each trial starts with an instruction, indicating which key ('S'/'L') you need to press to classify <br>the object as mechanical (letter M) or non-mechanical (letter N).<br>The instruction <strong>M + N</strong> indicates that, in the current trial, by pressing the left key ('S') you classify the displayed object as mechanical (M) <br> and by pressing the right key ('L') you classify the object as non-mechanical (N). <br>The instruction <strong>N + M</strong> on the other hand indicates that by pressing the left key ('S') you classify the displayed object as non-mechanical (N) <br> and by pressing the right key ('L') you classify the object as mechanical (M). <br><br>Please press the key corresponding to the correct classification as fast as possible as soon as the object is displayed and try to avoid making mistakes.<br>If you do not respond within a 2 second window, a corresponding feedback will be displayed and the next trial will start.<br> The experiment is divided into multiple blocks to give you the opportunity to take a break after each block. <br>First, you can now practice this task. <br><br>Please place your <strong>LEFT INDEX FINGER</strong> on the 'S' key and your <strong>RIGHT INDEX FINGER</strong> on the 'L' key now. <br><br>Press SPACE to continue.</div>","32","","","","","","","","","","","","","","","","","","","",""
"html-keyboard-response","9","174456","0.0-2.0-1.0","4zcdfpd4t0sntrv","instructions","5dd28c7e9c84d82a2b5b2966","5f60e3c0a3b16e07647b2ff9","5f60ee883e3a8a016bd0dbd6","false","9835.730000006151","<div align=left> You will now have time to practice this task.<br><br>Remember: <br> <br><li>Please place your index fingers on the <strong>'S'</strong> and <strong>'L'</strong> keys <br>to respond as fast and accurately as possible.</li><li>Every picture can be classified as either mechanical or non-mechanical.</li><li>If you do not respond in time or commit an error, you will receive a corresponding feedback. </li><li> Please try to respond as <strong> fast </strong> and as <strong> accurately as possible </strong> .<br><li>To ensure optimal results, please minimize distractions and stay focused. </li><br><br>Press SPACE to continue.</div>","32","","","","","","","","","","","","","","","","","","","",""
"html-keyboard-response","10","175160","0.0-2.0-2.0-0.0","4zcdfpd4t0sntrv","practice_no_cue","5dd28c7e9c84d82a2b5b2966","5f60e3c0a3b16e07647b2ff9","5f60ee883e3a8a016bd0dbd6","false","null","<span style=""color: black; font-size: 48px"">N + M</span>","null","","","","resp_prompt","","","","","","","","","","","","","","","",""
"categorize-image","11","177418","0.0-2.0-2.0-1.0","4zcdfpd4t0sntrv","practice_no_cue","5dd28c7e9c84d82a2b5b2966","5f60e3c0a3b16e07647b2ff9","5f60ee883e3a8a016bd0dbd6","true","1754.4550000020536","./Stimuli/ImagesPractice/LM147.jpg","76","","","","test","true","N + M","76","","LM","LM147.jpg","forget","old","1","1","start","right","","","",""
"html-keyboard-response","12","178123","0.0-2.0-2.0-0.1","4zcdfpd4t0sntrv","practice_no_cue","5dd28c7e9c84d82a2b5b2966","5f60e3c0a3b16e07647b2ff9","5f60ee883e3a8a016bd0dbd6","false","null","<span style=""color: black; font-size: 48px"">M + N</span>","null","","","","resp_prompt","","","","","","","","","","","","","","","",""
"categorize-image","13","180495","0.0-2.0-2.0-1.1","4zcdfpd4t0sntrv","practice_no_cue","5dd28c7e9c84d82a2b5b2966","5f60e3c0a3b16e07647b2ff9","5f60ee883e3a8a016bd0dbd6","true","1868.7449999997625","./Stimuli/ImagesPractice/SM97.jpg","76","","","","test","false","M + N","83","","SM","SM97.jpg","remember","old","2","1","start","right","","","",""
"html-keyboard-response","14","181198","0.0-2.0-2.0-0.2","4zcdfpd4t0sntrv","practice_no_cue","5dd28c7e9c84d82a2b5b2966","5f60e3c0a3b16e07647b2ff9","5f60ee883e3a8a016bd0dbd6","false","null","<span style=""color: black; font-size: 48px"">M + N</span>","null","","","","resp_prompt","","","","","","","","","","","","","","","",""
"categorize-image","15","182823","0.0-2.0-2.0-1.2","4zcdfpd4t0sntrv","practice_no_cue","5dd28c7e9c84d82a2b5b2966","5f60e3c0a3b16e07647b2ff9","5f60ee883e3a8a016bd0dbd6","true","1121.194999999716","./Stimuli/ImagesPractice/SN76.jpg","76","","","","test","true","M + N","76","","SN","SN76.jpg","forget","old","3","1","start","right","","","",""
"html-keyboard-response","16","183526","0.0-2.0-2.0-0.3","4zcdfpd4t0sntrv","practice_no_cue","5dd28c7e9c84d82a2b5b2966","5f60e3c0a3b16e07647b2ff9","5f60ee883e3a8a016bd0dbd6","false","null","<span style=""color: black; font-size: 48px"">M + N</span>","null","","","","resp_prompt","","","","","","","","","","","","","","","",""
"categorize-image","17","185004","0.0-2.0-2.0-1.3","4zcdfpd4t0sntrv","practice_no_cue","5dd28c7e9c84d82a2b5b2966","5f60e3c0a3b16e07647b2ff9","5f60ee883e3a8a016bd0dbd6","true","973.4150000003865","./Stimuli/ImagesPractice/SN220.jpg","76","","","","test","true","M + N","76","","SN","SN220.jpg","remember","old","4","1","start","right","","","",""
"html-keyboard-response","18","185706","0.0-2.0-2.0-0.4","4zcdfpd4t0sntrv","practice_no_cue","5dd28c7e9c84d82a2b5b2966","5f60e3c0a3b16e07647b2ff9","5f60ee883e3a8a016bd0dbd6","false","null","<span style=""color: black; font-size: 48px"">M + N</span>","null","","","","resp_prompt","","","","","","","","","","","","","","","",""
"categorize-image","19","187809","0.0-2.0-2.0-1.4","4zcdfpd4t0sntrv","practice_no_cue","5dd28c7e9c84d82a2b5b2966","5f60e3c0a3b16e07647b2ff9","5f60ee883e3a8a016bd0dbd6","true","1600.879999998142","./Stimuli/ImagesPractice/SN221.jpg","76","","","","test","true","M + N","76","","SN","SN221.jpg","forget","old","5","1","start","right","","","",""
"html-keyboard-response","20","188510","0.0-2.0-2.0-0.5","4zcdfpd4t0sntrv","practice_no_cue","5dd28c7e9c84d82a2b5b2966","5f60e3c0a3b16e07647b2ff9","5f60ee883e3a8a016bd0dbd6","false","null","<span style=""color: black; font-size: 48px"">M + N</span>","null","","","","resp_prompt","","","","","","","","","","","","","","","",""
"categorize-image","21","190293","0.0-2.0-2.0-1.5","4zcdfpd4t0sntrv","practice_no_cue","5dd28c7e9c84d82a2b5b2966","5f60e3c0a3b16e07647b2ff9","5f60ee883e3a8a016bd0dbd6","true","1278.5250000015367","./Stimuli/ImagesPractice/LN72.jpg","76","","","","test","true","M + N","76","","LN","LN72.jpg","forget","old","6","1","start","right","","","",""
"html-keyboard-response","22","190994","0.0-2.0-2.0-0.6","4zcdfpd4t0sntrv","practice_no_cue","5dd28c7e9c84d82a2b5b2966","5f60e3c0a3b16e07647b2ff9","5f60ee883e3a8a016bd0dbd6","false","null","<span style=""color: black; font-size: 48px"">M + N</span>","null","","","","resp_prompt","","","","","","","","","","","","","","","",""
"categorize-image","23","192358","0.0-2.0-2.0-1.6","4zcdfpd4t0sntrv","practice_no_cue","5dd28c7e9c84d82a2b5b2966","5f60e3c0a3b16e07647b2ff9","5f60ee883e3a8a016bd0dbd6","true","861.0349999944447","./Stimuli/ImagesPractice/LN17.jpg","76","","","","test","true","M + N","76","","LN","LN17.jpg","forget","old","7","1","start","right","","","",""
"html-keyboard-response","24","193062","0.0-2.0-2.0-0.7","4zcdfpd4t0sntrv","practice_no_cue","5dd28c7e9c84d82a2b5b2966","5f60e3c0a3b16e07647b2ff9","5f60ee883e3a8a016bd0dbd6","false","null","<span style=""color: black; font-size: 48px"">N + M</span>","null","","","","resp_prompt","","","","","","","","","","","","","","","",""
"categorize-image","25","194801","0.0-2.0-2.0-1.7","4zcdfpd4t0sntrv","practice_no_cue","5dd28c7e9c84d82a2b5b2966","5f60e3c0a3b16e07647b2ff9","5f60ee883e3a8a016bd0dbd6","true","1236.2649999995483","./Stimuli/ImagesPractice/LM143.jpg","76","","","","test","true","N + M","76","","LM","LM143.jpg","forget","old","8","1","start","right","","","",""
"html-keyboard-response","26","195503","0.0-2.0-2.0-0.8","4zcdfpd4t0sntrv","practice_no_cue","5dd28c7e9c84d82a2b5b2966","5f60e3c0a3b16e07647b2ff9","5f60ee883e3a8a016bd0dbd6","false","null","<span style=""color: black; font-size: 48px"">M + N</span>","null","","","","resp_prompt","","","","","","","","","","","","","","","",""
"categorize-image","27","197328","0.0-2.0-2.0-1.8","4zcdfpd4t0sntrv","practice_no_cue","5dd28c7e9c84d82a2b5b2966","5f60e3c0a3b16e07647b2ff9","5f60ee883e3a8a016bd0dbd6","true","1323.8399999972899","./Stimuli/ImagesPractice/SM37.jpg","83","","","","test","true","M + N","83","","SM","SM37.jpg","remember","old","9","1","start","left","","","",""
"html-keyboard-response","28","198030","0.0-2.0-2.0-0.9","4zcdfpd4t0sntrv","practice_no_cue","5dd28c7e9c84d82a2b5b2966","5f60e3c0a3b16e07647b2ff9","5f60ee883e3a8a016bd0dbd6","false","null","<span style=""color: black; font-size: 48px"">N + M</span>","null","","","","resp_prompt","","","","","","","","","","","","","","","",""
"categorize-image","29","199662","0.0-2.0-2.0-1.9","4zcdfpd4t0sntrv","practice_no_cue","5dd28c7e9c84d82a2b5b2966","5f60e3c0a3b16e07647b2ff9","5f60ee883e3a8a016bd0dbd6","true","1129.5099999988452","./Stimuli/ImagesPractice/LN109.jpg","76","","","","test","false","N + M","83","","LN","LN109.jpg","forget","old","10","1","start","right","","","",""
"html-keyboard-response","30","200364","0.0-2.0-2.0-0.10","4zcdfpd4t0sntrv","practice_no_cue","5dd28c7e9c84d82a2b5b2966","5f60e3c0a3b16e07647b2ff9","5f60ee883e3a8a016bd0dbd6","false","null","<span style=""color: black; font-size: 48px"">N + M</span>","null","","","","resp_prompt","","","","","","","","","","","","","","","",""
"categorize-image","31","202446","0.0-2.0-2.0-1.10","4zcdfpd4t0sntrv","practice_no_cue","5dd28c7e9c84d82a2b5b2966","5f60e3c0a3b16e07647b2ff9","5f60ee883e3a8a016bd0dbd6","true","1579.1450000106124","./Stimuli/ImagesPractice/LN2.jpg","76","","","","test","false","N + M","83","","LN","LN2.jpg","remember","old","11","1","start","right","","","",""
"html-keyboard-response","32","203147","0.0-2.0-2.0-0.11","4zcdfpd4t0sntrv","practice_no_cue","5dd28c7e9c84d82a2b5b2966","5f60e3c0a3b16e07647b2ff9","5f60ee883e3a8a016bd0dbd6","false","null","<span style=""color: black; font-size: 48px"">N + M</span>","null","","","","resp_prompt","","","","","","","","","","","","","","","",""
"categorize-image","33","205519","0.0-2.0-2.0-1.11","4zcdfpd4t0sntrv","practice_no_cue","5dd28c7e9c84d82a2b5b2966","5f60e3c0a3b16e07647b2ff9","5f60ee883e3a8a016bd0dbd6","true","1869.0500000084285","./Stimuli/ImagesPractice/LM239.jpg","76","","","","test","true","N + M","76","","LM","LM239.jpg","remember","old","12","1","start","right","","","",""
"html-keyboard-response","34","206222","0.0-2.0-2.0-0.12","4zcdfpd4t0sntrv","practice_no_cue","5dd28c7e9c84d82a2b5b2966","5f60e3c0a3b16e07647b2ff9","5f60ee883e3a8a016bd0dbd6","false","null","<span style=""color: black; font-size: 48px"">N + M</span>","null","","","","resp_prompt","","","","","","","","","","","","","","","",""
"categorize-image","35","207535","0.0-2.0-2.0-1.12","4zcdfpd4t0sntrv","practice_no_cue","5dd28c7e9c84d82a2b5b2966","5f60e3c0a3b16e07647b2ff9","5f60ee883e3a8a016bd0dbd6","true","809.0050000027986","./Stimuli/ImagesPractice/SN205.jpg","83","","","","test","true","N + M","83","","SN","SN205.jpg","forget","old","13","1","start","left","","","",""
"html-keyboard-response","36","208236","0.0-2.0-2.0-0.13","4zcdfpd4t0sntrv","practice_no_cue","5dd28c7e9c84d82a2b5b2966","5f60e3c0a3b16e07647b2ff9","5f60ee883e3a8a016bd0dbd6","false","null","<span style=""color: black; font-size: 48px"">M + N</span>","null","","","","resp_prompt","","","","","","","","","","","","","","","",""
"categorize-image","37","210242","0.0-2.0-2.0-1.13","4zcdfpd4t0sntrv","practice_no_cue","5dd28c7e9c84d82a2b5b2966","5f60e3c0a3b16e07647b2ff9","5f60ee883e3a8a016bd0dbd6","true","1503.6250000121072","./Stimuli/ImagesPractice/SN75.jpg","83","","","","test","false","M + N","76","","SN","SN75.jpg","remember","old","14","1","start","left","","","",""
"html-keyboard-response","38","210944","0.0-2.0-2.0-0.14","4zcdfpd4t0sntrv","practice_no_cue","5dd28c7e9c84d82a2b5b2966","5f60e3c0a3b16e07647b2ff9","5f60ee883e3a8a016bd0dbd6","false","null","<span style=""color: black; font-size: 48px"">N + M</span>","null","","","","resp_prompt","","","","","","","","","","","","","","","",""
"categorize-image","39","212818","0.0-2.0-2.0-1.14","4zcdfpd4t0sntrv","practice_no_cue","5dd28c7e9c84d82a2b5b2966","5f60e3c0a3b16e07647b2ff9","5f60ee883e3a8a016bd0dbd6","true","1371.115000001737","./Stimuli/ImagesPractice/SM61.jpg","76","","","","test","true","N + M","76","","SM","SM61.jpg","remember","old","15","1","start","right","","","",""
"html-keyboard-response","40","213520","0.0-2.0-2.0-0.15","4zcdfpd4t0sntrv","practice_no_cue","5dd28c7e9c84d82a2b5b2966","5f60e3c0a3b16e07647b2ff9","5f60ee883e3a8a016bd0dbd6","false","null","<span style=""color: black; font-size: 48px"">N + M</span>","null","","","","resp_prompt","","","","","","","","","","","","","","","",""
"categorize-image","41","215223","0.0-2.0-2.0-1.15","4zcdfpd4t0sntrv","practice_no_cue","5dd28c7e9c84d82a2b5b2966","5f60e3c0a3b16e07647b2ff9","5f60ee883e3a8a016bd0dbd6","true","1200.4099999903701","./Stimuli/ImagesPractice/SM35.jpg","76","","","","test","true","N + M","76","","SM","SM35.jpg","remember","old","16","1","start","right","","","",""
"html-keyboard-response","42","219537","0.0-2.0-3.0","4zcdfpd4t0sntrv","break","5dd28c7e9c84d82a2b5b2966","5f60e3c0a3b16e07647b2ff9","5f60ee883e3a8a016bd0dbd6","false","4311.180000004242","<p style='font-size: 32px;'>Break</><br><br><br><br><br><p style='font-size: 24px;'>In the last block, you committed 4 errors and did not respond in time on 0 trials.
</p><p style='font-size: 24px;'>Try to respond as fast and accurately as possible in the next block as well! </p><p style='font-size: 24px;'>Press SPACE to continue.</p>","32","","","","","","","","","","","","","","","","","","","",""
"html-keyboard-response","43","222659","0.0-2.0-4.0","4zcdfpd4t0sntrv","instructions","5dd28c7e9c84d82a2b5b2966","5f60e3c0a3b16e07647b2ff9","5f60ee883e3a8a016bd0dbd6","false","3119.5949999964796","<div align=left> Great!<br><br>Are you ready to continue?<br><br>If you want to reread the instructions and redo the practice trials, <br>please press „Z“. <br><br>Press SPACE to CONTINUE with the experiment when you are ready. </div>","32","","","","","","","","","","","","","","","","","","","",""
"html-keyboard-response","44","251368","0.0-3.0-0.0","4zcdfpd4t0sntrv","instructions","5dd28c7e9c84d82a2b5b2966","5f60e3c0a3b16e07647b2ff9","5f60ee883e3a8a016bd0dbd6","false","28706.225000001723","<div align=left>Great!<br> <strong>Attention</strong>! You will now receive a second, additional task! <br><br>To this point it was you <strong>first task</strong> to correctly <strong>classify objects</strong>. <br><br>As mentioned in the beginning, we aim to examine how well humans can remember previously learned information.<br>We would like to find out whether our memory improves if we only remember information that is relevant to us. <br><br>Therefore, your <strong>second task</strong> will be to <strong>remember</strong> the pictures you are to categorize. <br> After the learning phase, there will be a memory test phase, in which you will be asked to indicate whether you have seen a picture before or not. <br>Some, but not all pictures shown in the learning phase will appear in the memory test phase.<br>After classifying a picture, you will be told whether you should remember it for the memory test phase or not. <br>Thus, some pictures can be forgotten, whereas others have to be remembered. <br><br>Note: From now on, feedback will only be displayed if you responded incorrectly or not in time.<br><br>Press SPACE to continue.</div>","32","","","","","","","","","","","","","","","","","","","",""
"html-keyboard-response","45","277663","0.0-3.0-1.0","4zcdfpd4t0sntrv","instructions","5dd28c7e9c84d82a2b5b2966","5f60e3c0a3b16e07647b2ff9","5f60ee883e3a8a016bd0dbd6","false","26293.45499999181","<div align=left>In the following part, you will thus have to remember only some pictures. <br>Immediately after seeing and classifying the picture, a symbol will be displayed, indicating whether you should remember or forget the previous picture. <br><br>A <span style='color: dodgerblue; font-size: 28px'>O</span> indicates REMEMBER. That means, you have to remember this picture, because it will be tested later. <br><br>A <span style='color: darkorange; font-size:28px'>Ø</span> indicates FORGET. You do not have to remember this picture. <br><br> As you will have to remember a lot of pictures, it will be hard for you to remember all of them. <br>It will put you at an advantage if you instantly forget the pictures you are not asked to remember. <br> This will make it easier for you to remember the pictures that will be tested afterwards. <br><br>Press SPACE to continue.</div>","32","","","","","","","","","","","","","","","","","","","",""
"html-keyboard-response","46","288844","0.0-3.0-2.0","4zcdfpd4t0sntrv","instructions","5dd28c7e9c84d82a2b5b2966","5f60e3c0a3b16e07647b2ff9","5f60ee883e3a8a016bd0dbd6","false","11179.83500000264","<div align=left> Now you have the chance to practice both tasks together.<br><br>Remember: <br> <br><li>Please place your index fingers on the <strong>'S'</strong> and <strong>'L'</strong> keys <br>to respond as fast and accurately as possible.</li><li>Every picture can be classified as either mechanical or non-mechanical.</li><li>If you do not respond in time or commit an error, you will receive a corresponding feedback. <br>Please try to respond as <strong> fast </strong> and as <strong> accurately as possible </strong>.</li><li> Please remember only the to-be-remembered <span style='color: dodgerblue; font-size: 28px'>O</span> pictures. <br></li><li> Please minimize distractions and stay focused. </li><br><br>Press SPACE to START</div>","32","","","","","","","","","","","","","","","","","","","",""
"html-keyboard-response","47","289546","0.0-3.0-3.0-0.0","4zcdfpd4t0sntrv","practice_cue","5dd28c7e9c84d82a2b5b2966","5f60e3c0a3b16e07647b2ff9","5f60ee883e3a8a016bd0dbd6","false","null","<span style=""color: black; font-size: 48px"">N + M</span>","null","","","","resp_prompt","","","","","","","","","","","","","","","",""
"categorize-image","48","290312","0.0-3.0-3.0-1.0","4zcdfpd4t0sntrv","practice_cue","5dd28c7e9c84d82a2b5b2966","5f60e3c0a3b16e07647b2ff9","5f60ee883e3a8a016bd0dbd6","true","760.8449999970617","./Stimuli/ImagesPractice/LM147.jpg","76","","","","test","true","N + M","76","","LM","LM147.jpg","forget","old","17","2","practice_forget","right","","","",""
"html-keyboard-response","49","292314","0.0-3.0-3.0-3.0","4zcdfpd4t0sntrv","practice_cue","5dd28c7e9c84d82a2b5b2966","5f60e3c0a3b16e07647b2ff9","5f60ee883e3a8a016bd0dbd6","false","null","<div style=""align-items: center; display: flex; color: darkorange; font-size: 90px""><b>ø</b></div>","null","","","","forget_cue","","","","","","","","","","","","","","","",""
"html-keyboard-response","50","293017","0.0-3.0-3.0-0.1","4zcdfpd4t0sntrv","practice_cue","5dd28c7e9c84d82a2b5b2966","5f60e3c0a3b16e07647b2ff9","5f60ee883e3a8a016bd0dbd6","false","null","<span style=""color: black; font-size: 48px"">N + M</span>","null","","","","resp_prompt","","","","","","","","","","","","","","","",""
"categorize-image","51","294357","0.0-3.0-3.0-1.1","4zcdfpd4t0sntrv","practice_cue","5dd28c7e9c84d82a2b5b2966","5f60e3c0a3b16e07647b2ff9","5f60ee883e3a8a016bd0dbd6","true","1337.165000004461","./Stimuli/ImagesPractice/LM143.jpg","76","","","","test","true","N + M","76","","LM","LM143.jpg","forget","old","18","2","practice_forget","right","","","",""
"html-keyboard-response","52","296358","0.0-3.0-3.0-3.1","4zcdfpd4t0sntrv","practice_cue","5dd28c7e9c84d82a2b5b2966","5f60e3c0a3b16e07647b2ff9","5f60ee883e3a8a016bd0dbd6","false","null","<div style=""align-items: center; display: flex; color: darkorange; font-size: 90px""><b>ø</b></div>","null","","","","forget_cue","","","","","","","","","","","","","","","",""
"html-keyboard-response","53","297060","0.0-3.0-3.0-0.2","4zcdfpd4t0sntrv","practice_cue","5dd28c7e9c84d82a2b5b2966","5f60e3c0a3b16e07647b2ff9","5f60ee883e3a8a016bd0dbd6","false","null","<span style=""color: black; font-size: 48px"">N + M</span>","null","","","","resp_prompt","","","","","","","","","","","","","","","",""
"categorize-image","54","297804","0.0-3.0-3.0-1.2","4zcdfpd4t0sntrv","practice_cue","5dd28c7e9c84d82a2b5b2966","5f60e3c0a3b16e07647b2ff9","5f60ee883e3a8a016bd0dbd6","true","737.2199999954319","./Stimuli/ImagesPractice/SN205.jpg","76","","","","test","false","N + M","83","","SN","SN205.jpg","forget","old","19","2","practice_forget","right","","","",""
"html-keyboard-response","55","298308","0.0-3.0-3.0-2.2-0.2","4zcdfpd4t0sntrv","practice_cue","5dd28c7e9c84d82a2b5b2966","5f60e3c0a3b16e07647b2ff9","5f60ee883e3a8a016bd0dbd6","false","null","<span style=""color: red; font-size: 48px"">Error!</span>","null","","","","feedback","","","","","","","","","","","","","","","",""
"html-keyboard-response","56","300309","0.0-3.0-3.0-3.2","4zcdfpd4t0sntrv","practice_cue","5dd28c7e9c84d82a2b5b2966","5f60e3c0a3b16e07647b2ff9","5f60ee883e3a8a016bd0dbd6","false","null","<div style=""align-items: center; display: flex; color: darkorange; font-size: 90px""><b>ø</b></div>","null","","","","forget_cue","","","","","","","","","","","","","","","",""
"html-keyboard-response","57","301011","0.0-3.0-3.0-0.3","4zcdfpd4t0sntrv","practice_cue","5dd28c7e9c84d82a2b5b2966","5f60e3c0a3b16e07647b2ff9","5f60ee883e3a8a016bd0dbd6","false","null","<span style=""color: black; font-size: 48px"">M + N</span>","null","","","","resp_prompt","","","","","","","","","","","","","","","",""
"categorize-image","58","301897","0.0-3.0-3.0-1.3","4zcdfpd4t0sntrv","practice_cue","5dd28c7e9c84d82a2b5b2966","5f60e3c0a3b16e07647b2ff9","5f60ee883e3a8a016bd0dbd6","true","880.5300000094576","./Stimuli/ImagesPractice/SM37.jpg","83","","","","test","true","M + N","83","","SM","SM37.jpg","remember","old","20","2","practice_forget","left","","","",""
"html-keyboard-response","59","303899","0.0-3.0-3.0-3.3","4zcdfpd4t0sntrv","practice_cue","5dd28c7e9c84d82a2b5b2966","5f60e3c0a3b16e07647b2ff9","5f60ee883e3a8a016bd0dbd6","false","null","<div style=""align-items: center; display: flex; color: dodgerblue; font-size: 90px""><b>o</b></div>","null","","","","forget_cue","","","","","","","","","","","","","","","",""
"html-keyboard-response","60","304601","0.0-3.0-3.0-0.4","4zcdfpd4t0sntrv","practice_cue","5dd28c7e9c84d82a2b5b2966","5f60e3c0a3b16e07647b2ff9","5f60ee883e3a8a016bd0dbd6","false","null","<span style=""color: black; font-size: 48px"">M + N</span>","null","","","","resp_prompt","","","","","","","","","","","","","","","",""
"categorize-image","61","305651","0.0-3.0-3.0-1.4","4zcdfpd4t0sntrv","practice_cue","5dd28c7e9c84d82a2b5b2966","5f60e3c0a3b16e07647b2ff9","5f60ee883e3a8a016bd0dbd6","true","1043.7699999893084","./Stimuli/ImagesPractice/SN76.jpg","76","","","","test","true","M + N","76","","SN","SN76.jpg","forget","old","21","2","practice_forget","right","","","",""
"html-keyboard-response","62","307655","0.0-3.0-3.0-3.4","4zcdfpd4t0sntrv","practice_cue","5dd28c7e9c84d82a2b5b2966","5f60e3c0a3b16e07647b2ff9","5f60ee883e3a8a016bd0dbd6","false","null","<div style=""align-items: center; display: flex; color: darkorange; font-size: 90px""><b>ø</b></div>","null","","","","forget_cue","","","","","","","","","","","","","","","",""
"html-keyboard-response","63","308357","0.0-3.0-3.0-0.5","4zcdfpd4t0sntrv","practice_cue","5dd28c7e9c84d82a2b5b2966","5f60e3c0a3b16e07647b2ff9","5f60ee883e3a8a016bd0dbd6","false","null","<span style=""color: black; font-size: 48px"">N + M</span>","null","","","","resp_prompt","","","","","","","","","","","","","","","",""
"categorize-image","64","309245","0.0-3.0-3.0-1.5","4zcdfpd4t0sntrv","practice_cue","5dd28c7e9c84d82a2b5b2966","5f60e3c0a3b16e07647b2ff9","5f60ee883e3a8a016bd0dbd6","true","884.1249999968568","./Stimuli/ImagesPractice/LN2.jpg","83","","","","test","true","N + M","83","","LN","LN2.jpg","remember","old","22","2","practice_forget","left","","","",""
"html-keyboard-response","65","311247","0.0-3.0-3.0-3.5","4zcdfpd4t0sntrv","practice_cue","5dd28c7e9c84d82a2b5b2966","5f60e3c0a3b16e07647b2ff9","5f60ee883e3a8a016bd0dbd6","false","null","<div style=""align-items: center; display: flex; color: dodgerblue; font-size: 90px""><b>o</b></div>","null","","","","forget_cue","","","","","","","","","","","","","","","",""
"html-keyboard-response","66","311950","0.0-3.0-3.0-0.6","4zcdfpd4t0sntrv","practice_cue","5dd28c7e9c84d82a2b5b2966","5f60e3c0a3b16e07647b2ff9","5f60ee883e3a8a016bd0dbd6","false","null","<span style=""color: black; font-size: 48px"">N + M</span>","null","","","","resp_prompt","","","","","","","","","","","","","","","",""
"categorize-image","67","313714","0.0-3.0-3.0-1.6","4zcdfpd4t0sntrv","practice_cue","5dd28c7e9c84d82a2b5b2966","5f60e3c0a3b16e07647b2ff9","5f60ee883e3a8a016bd0dbd6","true","1757.3249999986729","./Stimuli/ImagesPractice/SM61.jpg","83","","","","test","false","N + M","76","","SM","SM61.jpg","remember","old","23","2","practice_forget","left","","","",""
"html-keyboard-response","68","314216","0.0-3.0-3.0-2.6-0.6","4zcdfpd4t0sntrv","practice_cue","5dd28c7e9c84d82a2b5b2966","5f60e3c0a3b16e07647b2ff9","5f60ee883e3a8a016bd0dbd6","false","null","<span style=""color: red; font-size: 48px"">Error!</span>","null","","","","feedback","","","","","","","","","","","","","","","",""
"html-keyboard-response","69","316218","0.0-3.0-3.0-3.6","4zcdfpd4t0sntrv","practice_cue","5dd28c7e9c84d82a2b5b2966","5f60e3c0a3b16e07647b2ff9","5f60ee883e3a8a016bd0dbd6","false","null","<div style=""align-items: center; display: flex; color: dodgerblue; font-size: 90px""><b>o</b></div>","null","","","","forget_cue","","","","","","","","","","","","","","","",""
"html-keyboard-response","70","316920","0.0-3.0-3.0-0.7","4zcdfpd4t0sntrv","practice_cue","5dd28c7e9c84d82a2b5b2966","5f60e3c0a3b16e07647b2ff9","5f60ee883e3a8a016bd0dbd6","false","null","<span style=""color: black; font-size: 48px"">M + N</span>","null","","","","resp_prompt","","","","","","","","","","","","","","","",""
"categorize-image","71","318083","0.0-3.0-3.0-1.7","4zcdfpd4t0sntrv","practice_cue","5dd28c7e9c84d82a2b5b2966","5f60e3c0a3b16e07647b2ff9","5f60ee883e3a8a016bd0dbd6","true","1158.9549999916926","./Stimuli/ImagesPractice/SN221.jpg","76","","","","test","true","M + N","76","","SN","SN221.jpg","forget","old","24","2","practice_forget","right","","","",""
"html-keyboard-response","72","320086","0.0-3.0-3.0-3.7","4zcdfpd4t0sntrv","practice_cue","5dd28c7e9c84d82a2b5b2966","5f60e3c0a3b16e07647b2ff9","5f60ee883e3a8a016bd0dbd6","false","null","<div style=""align-items: center; display: flex; color: darkorange; font-size: 90px""><b>ø</b></div>","null","","","","forget_cue","","","","","","","","","","","","","","","",""
"html-keyboard-response","73","320788","0.0-3.0-3.0-0.8","4zcdfpd4t0sntrv","practice_cue","5dd28c7e9c84d82a2b5b2966","5f60e3c0a3b16e07647b2ff9","5f60ee883e3a8a016bd0dbd6","false","null","<span style=""color: black; font-size: 48px"">M + N</span>","null","","","","resp_prompt","","","","","","","","","","","","","","","",""
"categorize-image","74","321513","0.0-3.0-3.0-1.8","4zcdfpd4t0sntrv","practice_cue","5dd28c7e9c84d82a2b5b2966","5f60e3c0a3b16e07647b2ff9","5f60ee883e3a8a016bd0dbd6","true","719.0949999931036","./Stimuli/ImagesPractice/SM97.jpg","83","","","","test","true","M + N","83","","SM","SM97.jpg","remember","old","25","2","practice_forget","left","","","",""
"html-keyboard-response","75","323516","0.0-3.0-3.0-3.8","4zcdfpd4t0sntrv","practice_cue","5dd28c7e9c84d82a2b5b2966","5f60e3c0a3b16e07647b2ff9","5f60ee883e3a8a016bd0dbd6","false","null","<div style=""align-items: center; display: flex; color: dodgerblue; font-size: 90px""><b>o</b></div>","null","","","","forget_cue","","","","","","","","","","","","","","","",""
"html-keyboard-response","76","324217","0.0-3.0-3.0-0.9","4zcdfpd4t0sntrv","practice_cue","5dd28c7e9c84d82a2b5b2966","5f60e3c0a3b16e07647b2ff9","5f60ee883e3a8a016bd0dbd6","false","null","<span style=""color: black; font-size: 48px"">N + M</span>","null","","","","resp_prompt","","","","","","","","","","","","","","","",""
"categorize-image","77","324893","0.0-3.0-3.0-1.9","4zcdfpd4t0sntrv","practice_cue","5dd28c7e9c84d82a2b5b2966","5f60e3c0a3b16e07647b2ff9","5f60ee883e3a8a016bd0dbd6","true","672.6500000077067","./Stimuli/ImagesPractice/SM35.jpg","76","","","","test","true","N + M","76","","SM","SM35.jpg","remember","old","26","2","practice_forget","right","","","",""
"html-keyboard-response","78","326898","0.0-3.0-3.0-3.9","4zcdfpd4t0sntrv","practice_cue","5dd28c7e9c84d82a2b5b2966","5f60e3c0a3b16e07647b2ff9","5f60ee883e3a8a016bd0dbd6","false","null","<div style=""align-items: center; display: flex; color: dodgerblue; font-size: 90px""><b>o</b></div>","null","","","","forget_cue","","","","","","","","","","","","","","","",""
"html-keyboard-response","79","327599","0.0-3.0-3.0-0.10","4zcdfpd4t0sntrv","practice_cue","5dd28c7e9c84d82a2b5b2966","5f60e3c0a3b16e07647b2ff9","5f60ee883e3a8a016bd0dbd6","false","null","<span style=""color: black; font-size: 48px"">N + M</span>","null","","","","resp_prompt","","","","","","","","","","","","","","","",""
"categorize-image","80","328784","0.0-3.0-3.0-1.10","4zcdfpd4t0sntrv","practice_cue","5dd28c7e9c84d82a2b5b2966","5f60e3c0a3b16e07647b2ff9","5f60ee883e3a8a016bd0dbd6","true","1178.8500000111526","./Stimuli/ImagesPractice/LN109.jpg","76","","","","test","false","N + M","83","","LN","LN109.jpg","forget","old","27","2","practice_forget","right","","","",""
"html-keyboard-response","81","329286","0.0-3.0-3.0-2.10-0.10","4zcdfpd4t0sntrv","practice_cue","5dd28c7e9c84d82a2b5b2966","5f60e3c0a3b16e07647b2ff9","5f60ee883e3a8a016bd0dbd6","false","null","<span style=""color: red; font-size: 48px"">Error!</span>","null","","","","feedback","","","","","","","","","","","","","","","",""
"html-keyboard-response","82","331290","0.0-3.0-3.0-3.10","4zcdfpd4t0sntrv","practice_cue","5dd28c7e9c84d82a2b5b2966","5f60e3c0a3b16e07647b2ff9","5f60ee883e3a8a016bd0dbd6","false","null","<div style=""align-items: center; display: flex; color: darkorange; font-size: 90px""><b>ø</b></div>","null","","","","forget_cue","","","","","","","","","","","","","","","",""
"html-keyboard-response","83","331992","0.0-3.0-3.0-0.11","4zcdfpd4t0sntrv","practice_cue","5dd28c7e9c84d82a2b5b2966","5f60e3c0a3b16e07647b2ff9","5f60ee883e3a8a016bd0dbd6","false","null","<span style=""color: black; font-size: 48px"">M + N</span>","null","","","","resp_prompt","","","","","","","","","","","","","","","",""
"categorize-image","84","333199","0.0-3.0-3.0-1.11","4zcdfpd4t0sntrv","practice_cue","5dd28c7e9c84d82a2b5b2966","5f60e3c0a3b16e07647b2ff9","5f60ee883e3a8a016bd0dbd6","true","1201.9399999990128","./Stimuli/ImagesPractice/SN75.jpg","83","","","","test","false","M + N","76","","SN","SN75.jpg","remember","old","28","2","practice_forget","left","","","",""
"html-keyboard-response","85","333701","0.0-3.0-3.0-2.11-0.11","4zcdfpd4t0sntrv","practice_cue","5dd28c7e9c84d82a2b5b2966","5f60e3c0a3b16e07647b2ff9","5f60ee883e3a8a016bd0dbd6","false","null","<span style=""color: red; font-size: 48px"">Error!</span>","null","","","","feedback","","","","","","","","","","","","","","","",""
"html-keyboard-response","86","335703","0.0-3.0-3.0-3.11","4zcdfpd4t0sntrv","practice_cue","5dd28c7e9c84d82a2b5b2966","5f60e3c0a3b16e07647b2ff9","5f60ee883e3a8a016bd0dbd6","false","null","<div style=""align-items: center; display: flex; color: dodgerblue; font-size: 90px""><b>o</b></div>","null","","","","forget_cue","","","","","","","","","","","","","","","",""
"html-keyboard-response","87","336405","0.0-3.0-3.0-0.12","4zcdfpd4t0sntrv","practice_cue","5dd28c7e9c84d82a2b5b2966","5f60e3c0a3b16e07647b2ff9","5f60ee883e3a8a016bd0dbd6","false","null","<span style=""color: black; font-size: 48px"">N + M</span>","null","","","","resp_prompt","","","","","","","","","","","","","","","",""
"categorize-image","88","337249","0.0-3.0-3.0-1.12","4zcdfpd4t0sntrv","practice_cue","5dd28c7e9c84d82a2b5b2966","5f60e3c0a3b16e07647b2ff9","5f60ee883e3a8a016bd0dbd6","true","841.1449999985052","./Stimuli/ImagesPractice/LM239.jpg","76","","","","test","true","N + M","76","","LM","LM239.jpg","remember","old","29","2","practice_forget","right","","","",""
"html-keyboard-response","89","339251","0.0-3.0-3.0-3.12","4zcdfpd4t0sntrv","practice_cue","5dd28c7e9c84d82a2b5b2966","5f60e3c0a3b16e07647b2ff9","5f60ee883e3a8a016bd0dbd6","false","null","<div style=""align-items: center; display: flex; color: dodgerblue; font-size: 90px""><b>o</b></div>","null","","","","forget_cue","","","","","","","","","","","","","","","",""
"html-keyboard-response","90","339953","0.0-3.0-3.0-0.13","4zcdfpd4t0sntrv","practice_cue","5dd28c7e9c84d82a2b5b2966","5f60e3c0a3b16e07647b2ff9","5f60ee883e3a8a016bd0dbd6","false","null","<span style=""color: black; font-size: 48px"">M + N</span>","null","","","","resp_prompt","","","","","","","","","","","","","","","",""
"categorize-image","91","340728","0.0-3.0-3.0-1.13","4zcdfpd4t0sntrv","practice_cue","5dd28c7e9c84d82a2b5b2966","5f60e3c0a3b16e07647b2ff9","5f60ee883e3a8a016bd0dbd6","true","768.6800000083167","./Stimuli/ImagesPractice/LN17.jpg","76","","","","test","true","M + N","76","","LN","LN17.jpg","forget","old","30","2","practice_forget","right","","","",""
"html-keyboard-response","92","342731","0.0-3.0-3.0-3.13","4zcdfpd4t0sntrv","practice_cue","5dd28c7e9c84d82a2b5b2966","5f60e3c0a3b16e07647b2ff9","5f60ee883e3a8a016bd0dbd6","false","null","<div style=""align-items: center; display: flex; color: darkorange; font-size: 90px""><b>ø</b></div>","null","","","","forget_cue","","","","","","","","","","","","","","","",""
"html-keyboard-response","93","343433","0.0-3.0-3.0-0.14","4zcdfpd4t0sntrv","practice_cue","5dd28c7e9c84d82a2b5b2966","5f60e3c0a3b16e07647b2ff9","5f60ee883e3a8a016bd0dbd6","false","null","<span style=""color: black; font-size: 48px"">M + N</span>","null","","","","resp_prompt","","","","","","","","","","","","","","","",""
"categorize-image","94","344066","0.0-3.0-3.0-1.14","4zcdfpd4t0sntrv","practice_cue","5dd28c7e9c84d82a2b5b2966","5f60e3c0a3b16e07647b2ff9","5f60ee883e3a8a016bd0dbd6","true","626.9150000007357","./Stimuli/ImagesPractice/SN220.jpg","76","","","","test","true","M + N","76","","SN","SN220.jpg","remember","old","31","2","practice_forget","right","","","",""
"html-keyboard-response","95","346069","0.0-3.0-3.0-3.14","4zcdfpd4t0sntrv","practice_cue","5dd28c7e9c84d82a2b5b2966","5f60e3c0a3b16e07647b2ff9","5f60ee883e3a8a016bd0dbd6","false","null","<div style=""align-items: center; display: flex; color: dodgerblue; font-size: 90px""><b>o</b></div>","null","","","","forget_cue","","","","","","","","","","","","","","","",""
"html-keyboard-response","96","346771","0.0-3.0-3.0-0.15","4zcdfpd4t0sntrv","practice_cue","5dd28c7e9c84d82a2b5b2966","5f60e3c0a3b16e07647b2ff9","5f60ee883e3a8a016bd0dbd6","false","null","<span style=""color: black; font-size: 48px"">M + N</span>","null","","","","resp_prompt","","","","","","","","","","","","","","","",""
"categorize-image","97","348308","0.0-3.0-3.0-1.15","4zcdfpd4t0sntrv","practice_cue","5dd28c7e9c84d82a2b5b2966","5f60e3c0a3b16e07647b2ff9","5f60ee883e3a8a016bd0dbd6","true","1533.7299999955576","./Stimuli/ImagesPractice/LN72.jpg","76","","","","test","true","M + N","76","","LN","LN72.jpg","forget","old","32","2","practice_forget","right","","","",""
"html-keyboard-response","98","350309","0.0-3.0-3.0-3.15","4zcdfpd4t0sntrv","practice_cue","5dd28c7e9c84d82a2b5b2966","5f60e3c0a3b16e07647b2ff9","5f60ee883e3a8a016bd0dbd6","false","null","<div style=""align-items: center; display: flex; color: darkorange; font-size: 90px""><b>ø</b></div>","null","","","","forget_cue","","","","","","","","","","","","","","","",""
"html-keyboard-response","99","352780","0.0-3.0-4.0","4zcdfpd4t0sntrv","break","5dd28c7e9c84d82a2b5b2966","5f60e3c0a3b16e07647b2ff9","5f60ee883e3a8a016bd0dbd6","false","2469.1450000100303","<p style='font-size: 32px;'>Break</><br><br><br><br><br><p style='font-size: 24px;'>In the last block, you committed 4 errors and did not respond in time on 0 trials.
</p><p style='font-size: 24px;'>Try to respond as fast and accurately as possible in the next block as well! </p><p style='font-size: 24px;'>Press SPACE to continue.</p>","32","","","","","","","","","","","","","","","","","","","",""
"html-keyboard-response","100","370442","0.0-3.0-5.0","4zcdfpd4t0sntrv","instructions","5dd28c7e9c84d82a2b5b2966","5f60e3c0a3b16e07647b2ff9","5f60ee883e3a8a016bd0dbd6","false","17659.98500000569","<div align=left> Now, to practice, we kindly ask you to remember as many of the to-be-remembered pictures<br>of the previous learning phase as possible.<br><br>The pictures you were instructed to remember were the pictures followed by a <span style='color: dodgerblue; font-size: 28px'>O</span>.<br><br>In this memory test phase, you will also see some new pictures.<br>It is your task to remember whether you were presented with this specific picture in this study so far or not.<br>If you recognize an object (you have already seen it in this study), it is an OLD object. <br>If you do not recognize an object (you have NOT seen it in this study), it is a NEW object. <br><strong> Attention</strong>: As already mentioned, <span style='color: darkorange; font-size:28px'>Ø</span>-pictures will <strong>never</strong> appear in this memory test (neither as new objects). <br><br>Press SPACE to continue. </div>","32","","","","","","","","","","","","","","","","","","","",""
"html-keyboard-response","101","405131","0.0-3.0-6.0","4zcdfpd4t0sntrv","instructions","5dd28c7e9c84d82a2b5b2966","5f60e3c0a3b16e07647b2ff9","5f60ee883e3a8a016bd0dbd6","false","34687.95000000682","<div align=left> M and N no longer will appear on the left/right of the fixation cross. <br>Instead there will be a note at the bottom of the left or right side  <br>indicating which key you should press for an old or new object:  <br> <br>Press the <strong>right</strong> key to classify an object as <strong>old</strong> and press the <strong>left</strong>, to classify an object as <strong>new</strong>.<br>Please classify the objects as new/old by again placing your index finger on the 'S' and 'L' keys <br>and press them accordingly.<br><br><strong>Old:</strong> This object has been presented before. <br><strong>New:</strong> This object has <strong>not</strong> been presented.<br><br>Now please put your right and left index fingers on the 'S' and 'L' keys of your keyboard. <br>Please respond as fast and as accurately as possible!<br><br>Press SPACE to continue. </div>","32","","","","","","","","","","","","","","","","","","","",""
"categorize-image","102","409763","0.0-3.0-7.0-0.0","4zcdfpd4t0sntrv","practice_recog","5dd28c7e9c84d82a2b5b2966","5f60e3c0a3b16e07647b2ff9","5f60ee883e3a8a016bd0dbd6","true","4127.849999989849","./Stimuli/ImagesPractice/LM224.jpg","76","","","","test","true","","76","","LM","LM224.jpg","","new","33","3","practice_recog","right","","","",""
"categorize-image","103","411582","0.0-3.0-7.0-0.1","4zcdfpd4t0sntrv","practice_recog","5dd28c7e9c84d82a2b5b2966","5f60e3c0a3b16e07647b2ff9","5f60ee883e3a8a016bd0dbd6","true","1314.9600000033388","./Stimuli/ImagesPractice/SN75.jpg","83","","","","test","true","","83","","SN","SN75.jpg","","old","34","3","practice_recog","left","","","",""
"categorize-image","104","413150","0.0-3.0-7.0-0.2","4zcdfpd4t0sntrv","practice_recog","5dd28c7e9c84d82a2b5b2966","5f60e3c0a3b16e07647b2ff9","5f60ee883e3a8a016bd0dbd6","true","1066.1200000031386","./Stimuli/ImagesPractice/SM61.jpg","83","","","","test","true","","83","","SM","SM61.jpg","","old","35","3","practice_recog","left","","","",""
"categorize-image","105","414632","0.0-3.0-7.0-0.3","4zcdfpd4t0sntrv","practice_recog","5dd28c7e9c84d82a2b5b2966","5f60e3c0a3b16e07647b2ff9","5f60ee883e3a8a016bd0dbd6","true","978.4299999882933","./Stimuli/ImagesPractice/SN222.jpg","76","","","","test","true","","76","","SN","SN222.jpg","","new","36","3","practice_recog","right","","","",""
"categorize-image","106","416816","0.0-3.0-7.0-0.4","4zcdfpd4t0sntrv","practice_recog","5dd28c7e9c84d82a2b5b2966","5f60e3c0a3b16e07647b2ff9","5f60ee883e3a8a016bd0dbd6","true","1682.874999998603","./Stimuli/ImagesPractice/LM230.jpg","76","","","","test","true","","76","","LM","LM230.jpg","","new","37","3","practice_recog","right","","","",""
"categorize-image","107","418062","0.0-3.0-7.0-0.5","4zcdfpd4t0sntrv","practice_recog","5dd28c7e9c84d82a2b5b2966","5f60e3c0a3b16e07647b2ff9","5f60ee883e3a8a016bd0dbd6","true","743.0100000055972","./Stimuli/ImagesPractice/LM239.jpg","83","","","","test","true","","83","","LM","LM239.jpg","","old","38","3","practice_recog","left","","","",""
"categorize-image","108","419407","0.0-3.0-7.0-0.6","4zcdfpd4t0sntrv","practice_recog","5dd28c7e9c84d82a2b5b2966","5f60e3c0a3b16e07647b2ff9","5f60ee883e3a8a016bd0dbd6","true","841.3399999990361","./Stimuli/ImagesPractice/LM55.jpg","76","","","","test","true","","76","","LM","LM55.jpg","","new","39","3","practice_recog","right","","","",""
"categorize-image","109","423103","0.0-3.0-7.0-0.7","4zcdfpd4t0sntrv","practice_recog","5dd28c7e9c84d82a2b5b2966","5f60e3c0a3b16e07647b2ff9","5f60ee883e3a8a016bd0dbd6","true","3192.089999996824","./Stimuli/ImagesPractice/SN220.jpg","83","","","","test","true","","83","","SN","SN220.jpg","","old","40","3","practice_recog","left","","","",""
"categorize-image","110","424424","0.0-3.0-7.0-0.8","4zcdfpd4t0sntrv","practice_recog","5dd28c7e9c84d82a2b5b2966","5f60e3c0a3b16e07647b2ff9","5f60ee883e3a8a016bd0dbd6","true","817.6900000107707","./Stimuli/ImagesPractice/SM35.jpg","83","","","","test","true","","83","","SM","SM35.jpg","","old","41","3","practice_recog","left","","","",""
"categorize-image","111","426070","0.0-3.0-7.0-0.9","4zcdfpd4t0sntrv","practice_recog","5dd28c7e9c84d82a2b5b2966","5f60e3c0a3b16e07647b2ff9","5f60ee883e3a8a016bd0dbd6","true","1143.275000009453","./Stimuli/ImagesPractice/SM62.jpg","76","","","","test","true","","76","","SM","SM62.jpg","","new","42","3","practice_recog","right","","","",""
"categorize-image","112","427275","0.0-3.0-7.0-0.10","4zcdfpd4t0sntrv","practice_recog","5dd28c7e9c84d82a2b5b2966","5f60e3c0a3b16e07647b2ff9","5f60ee883e3a8a016bd0dbd6","true","701.6850000072736","./Stimuli/ImagesPractice/SM37.jpg","83","","","","test","true","","83","","SM","SM37.jpg","","old","43","3","practice_recog","left","","","",""
"categorize-image","113","428534","0.0-3.0-7.0-0.11","4zcdfpd4t0sntrv","practice_recog","5dd28c7e9c84d82a2b5b2966","5f60e3c0a3b16e07647b2ff9","5f60ee883e3a8a016bd0dbd6","true","756.3899999950081","./Stimuli/ImagesPractice/LN2.jpg","83","","","","test","true","","83","","LN","LN2.jpg","","old","44","3","practice_recog","left","","","",""
"categorize-image","114","429736","0.0-3.0-7.0-0.12","4zcdfpd4t0sntrv","practice_recog","5dd28c7e9c84d82a2b5b2966","5f60e3c0a3b16e07647b2ff9","5f60ee883e3a8a016bd0dbd6","true","696.235000010347","./Stimuli/ImagesPractice/SM97.jpg","83","","","","test","true","","83","","SM","SM97.jpg","","old","45","3","practice_recog","left","","","",""
"categorize-image","115","430946","0.0-3.0-7.0-0.13","4zcdfpd4t0sntrv","practice_recog","5dd28c7e9c84d82a2b5b2966","5f60e3c0a3b16e07647b2ff9","5f60ee883e3a8a016bd0dbd6","true","706.9100000080653","./Stimuli/ImagesPractice/LN4.jpg","76","","","","test","true","","76","","LN","LN4.jpg","","new","46","3","practice_recog","right","","","",""
"categorize-image","116","432741","0.0-3.0-7.0-0.14","4zcdfpd4t0sntrv","practice_recog","5dd28c7e9c84d82a2b5b2966","5f60e3c0a3b16e07647b2ff9","5f60ee883e3a8a016bd0dbd6","true","1293.1549999921117","./Stimuli/ImagesPractice/SM98.jpg","76","","","","test","true","","76","","SM","SM98.jpg","","new","47","3","practice_recog","right","","","",""
"categorize-image","117","434609","0.0-3.0-7.0-0.15","4zcdfpd4t0sntrv","practice_recog","5dd28c7e9c84d82a2b5b2966","5f60e3c0a3b16e07647b2ff9","5f60ee883e3a8a016bd0dbd6","true","1364.8749999993015","./Stimuli/ImagesPractice/LN15.jpg","76","","","","test","true","","76","","LN","LN15.jpg","","new","48","3","practice_recog","right","","","",""
"html-keyboard-response","118","442142","0.0-3.0-8.0","4zcdfpd4t0sntrv","instructions","5dd28c7e9c84d82a2b5b2966","5f60e3c0a3b16e07647b2ff9","5f60ee883e3a8a016bd0dbd6","false","7531.455000003916","<div align=left> Great!<br><br>Are you ready to continue?<br>If you want to reread the instructions and redo the practice trials, please <br>press „Z“.<br><br>You can proceed when you are ready.<br><br>After the presentation of each object, you will receive an instruction whether to <br>remember or to forget the object.<br>We will test your memory of the following pictures only at the very end of <br>the experiment after all learning blocks are completed. <br><br>Press SPACE to CONTINUE when you are ready. </div>","32","","","","","","","","","","","","","","","","","","","",""
"html-keyboard-response","119","451159","0.0-4.0-0.0","4zcdfpd4t0sntrv","instructions","5dd28c7e9c84d82a2b5b2966","5f60e3c0a3b16e07647b2ff9","5f60ee883e3a8a016bd0dbd6","false","9014.540000003763","<div align=left> The actual experiment is about to start.<br>The practice trials are over!<br><br>Please always respond both fast and accurately!<br><br>Remember: <br> <br><li> Please place your index fingers on the <strong>'S'</strong> and <strong>'L'</strong> keys <br>to respond as fast and accurately as possible.</li><li> Every picture can be classified as either mechanical or non-mechanical.</li><li> If you do not respond in time or commit an error, you will receive a corresponding feedback.<br> Please try to respond as <strong> fast </strong> and as <strong> accurately as possible </strong>.</li><li> Remember the <span style='color: dodgerblue; font-size: 28px'>O</span> pictures. <br></li><li> Please minimize distractions and stay focused. </li><br><br>Press SPACE to START.</div>","32","","","","","","","","","","","","","","","","","","","",""
"html-keyboard-response","120","451861","0.0-4.0-1.0-0.0","4zcdfpd4t0sntrv","prime","5dd28c7e9c84d82a2b5b2966","5f60e3c0a3b16e07647b2ff9","5f60ee883e3a8a016bd0dbd6","false","null","<span style=""color: black; font-size: 48px"">M + N</span>","null","","","","resp_prompt","","","","","","","","","","","","","","","",""
"categorize-image","121","452696","0.0-4.0-1.0-1.0","4zcdfpd4t0sntrv","prime","5dd28c7e9c84d82a2b5b2966","5f60e3c0a3b16e07647b2ff9","5f60ee883e3a8a016bd0dbd6","true","831.0550000023795","./Stimuli/SelectedImages/SM/SM24.bmp","83","","","","test","true","M + N","83","switch","SM","SM24.bmp","forget","","49","3","prime1","left","","","",""
"html-keyboard-response","122","454700","0.0-4.0-1.0-3.0","4zcdfpd4t0sntrv","prime","5dd28c7e9c84d82a2b5b2966","5f60e3c0a3b16e07647b2ff9","5f60ee883e3a8a016bd0dbd6","false","null","<div style=""align-items: center; display: flex; color: darkorange; font-size: 90px""><b>ø</b></div>","null","","","","forget_cue","","","","","","","","","","","","","","","",""
"html-keyboard-response","123","455402","0.0-4.0-1.0-0.1","4zcdfpd4t0sntrv","prime","5dd28c7e9c84d82a2b5b2966","5f60e3c0a3b16e07647b2ff9","5f60ee883e3a8a016bd0dbd6","false","null","<span style=""color: black; font-size: 48px"">M + N</span>","null","","","","resp_prompt","","","","","","","","","","","","","","","",""
"categorize-image","124","456566","0.0-4.0-1.0-1.1","4zcdfpd4t0sntrv","prime","5dd28c7e9c84d82a2b5b2966","5f60e3c0a3b16e07647b2ff9","5f60ee883e3a8a016bd0dbd6","true","1160.3699999977835","./Stimuli/SelectedImages/LN/LN28.bmp","76","","","","test","true","M + N","76","switch","LN","LN28.bmp","remember","","50","3","prime1","right","","","",""
"html-keyboard-response","125","458568","0.0-4.0-1.0-3.1","4zcdfpd4t0sntrv","prime","5dd28c7e9c84d82a2b5b2966","5f60e3c0a3b16e07647b2ff9","5f60ee883e3a8a016bd0dbd6","false","null","<div style=""align-items: center; display: flex; color: dodgerblue; font-size: 90px""><b>o</b></div>","null","","","","forget_cue","","","","","","","","","","","","","","","",""
"html-keyboard-response","126","459269","0.0-4.0-1.0-0.2","4zcdfpd4t0sntrv","prime","5dd28c7e9c84d82a2b5b2966","5f60e3c0a3b16e07647b2ff9","5f60ee883e3a8a016bd0dbd6","false","null","<span style=""color: black; font-size: 48px"">N + M</span>","null","","","","resp_prompt","","","","","","","","","","","","","","","",""
"categorize-image","127","460024","0.0-4.0-1.0-1.2","4zcdfpd4t0sntrv","prime","5dd28c7e9c84d82a2b5b2966","5f60e3c0a3b16e07647b2ff9","5f60ee883e3a8a016bd0dbd6","true","751.7150000057882","./Stimuli/SelectedImages/LM/LM58.bmp","76","","","","test","true","N + M","76","repetition","LM","LM58.bmp","forget","","51","3","prime1","right","","","",""
"html-keyboard-response","128","462026","0.0-4.0-1.0-3.2","4zcdfpd4t0sntrv","prime","5dd28c7e9c84d82a2b5b2966","5f60e3c0a3b16e07647b2ff9","5f60ee883e3a8a016bd0dbd6","false","null","<div style=""align-items: center; display: flex; color: darkorange; font-size: 90px""><b>ø</b></div>","null","","","","forget_cue","","","","","","","","","","","","","","","",""
"html-keyboard-response","129","462728","0.0-4.0-1.0-0.3","4zcdfpd4t0sntrv","prime","5dd28c7e9c84d82a2b5b2966","5f60e3c0a3b16e07647b2ff9","5f60ee883e3a8a016bd0dbd6","false","null","<span style=""color: black; font-size: 48px"">N + M</span>","null","","","","resp_prompt","","","","","","","","","","","","","","","",""
"categorize-image","130","463469","0.0-4.0-1.0-1.3","4zcdfpd4t0sntrv","prime","5dd28c7e9c84d82a2b5b2966","5f60e3c0a3b16e07647b2ff9","5f60ee883e3a8a016bd0dbd6","true","738.3999999874504","./Stimuli/SelectedImages/SM/SM106.bmp","76","","","","test","true","N + M","76","switch","SM","SM106.bmp","forget","","52","3","prime1","right","","","",""
"html-keyboard-response","131","465472","0.0-4.0-1.0-3.3","4zcdfpd4t0sntrv","prime","5dd28c7e9c84d82a2b5b2966","5f60e3c0a3b16e07647b2ff9","5f60ee883e3a8a016bd0dbd6","false","null","<div style=""align-items: center; display: flex; color: darkorange; font-size: 90px""><b>ø</b></div>","null","","","","forget_cue","","","","","","","","","","","","","","","",""
"html-keyboard-response","132","466174","0.0-4.0-1.0-0.4","4zcdfpd4t0sntrv","prime","5dd28c7e9c84d82a2b5b2966","5f60e3c0a3b16e07647b2ff9","5f60ee883e3a8a016bd0dbd6","false","null","<span style=""color: black; font-size: 48px"">N + M</span>","null","","","","resp_prompt","","","","","","","","","","","","","","","",""
"categorize-image","133","466849","0.0-4.0-1.0-1.4","4zcdfpd4t0sntrv","prime","5dd28c7e9c84d82a2b5b2966","5f60e3c0a3b16e07647b2ff9","5f60ee883e3a8a016bd0dbd6","true","671.2249999982305","./Stimuli/SelectedImages/SM/SM148.bmp","76","","","","test","true","N + M","76","repetition","SM","SM148.bmp","remember","","53","3","prime1","right","","","",""
"html-keyboard-response","134","468851","0.0-4.0-1.0-3.4","4zcdfpd4t0sntrv","prime","5dd28c7e9c84d82a2b5b2966","5f60e3c0a3b16e07647b2ff9","5f60ee883e3a8a016bd0dbd6","false","null","<div style=""align-items: center; display: flex; color: dodgerblue; font-size: 90px""><b>o</b></div>","null","","","","forget_cue","","","","","","","","","","","","","","","",""
"html-keyboard-response","135","469553","0.0-4.0-1.0-0.5","4zcdfpd4t0sntrv","prime","5dd28c7e9c84d82a2b5b2966","5f60e3c0a3b16e07647b2ff9","5f60ee883e3a8a016bd0dbd6","false","null","<span style=""color: black; font-size: 48px"">N + M</span>","null","","","","resp_prompt","","","","","","","","","","","","","","","",""
"categorize-image","136","470454","0.0-4.0-1.0-1.5","4zcdfpd4t0sntrv","prime","5dd28c7e9c84d82a2b5b2966","5f60e3c0a3b16e07647b2ff9","5f60ee883e3a8a016bd0dbd6","true","896.5749999915715","./Stimuli/SelectedImages/SN/SN240.bmp","83","","","","test","true","N + M","83","repetition","SN","SN240.bmp","remember","","54","3","prime1","left","","","",""
"html-keyboard-response","137","472457","0.0-4.0-1.0-3.5","4zcdfpd4t0sntrv","prime","5dd28c7e9c84d82a2b5b2966","5f60e3c0a3b16e07647b2ff9","5f60ee883e3a8a016bd0dbd6","false","null","<div style=""align-items: center; display: flex; color: dodgerblue; font-size: 90px""><b>o</b></div>","null","","","","forget_cue","","","","","","","","","","","","","","","",""
"html-keyboard-response","138","473159","0.0-4.0-1.0-0.6","4zcdfpd4t0sntrv","prime","5dd28c7e9c84d82a2b5b2966","5f60e3c0a3b16e07647b2ff9","5f60ee883e3a8a016bd0dbd6","false","null","<span style=""color: black; font-size: 48px"">M + N</span>","null","","","","resp_prompt","","","","","","","","","","","","","","","",""
"categorize-image","139","473974","0.0-4.0-1.0-1.6","4zcdfpd4t0sntrv","prime","5dd28c7e9c84d82a2b5b2966","5f60e3c0a3b16e07647b2ff9","5f60ee883e3a8a016bd0dbd6","true","812.4649999954272","./Stimuli/SelectedImages/SN/SN64.bmp","76","","","","test","true","M + N","76","switch","SN","SN64.bmp","forget","","55","3","prime1","right","","","",""
"html-keyboard-response","140","475976","0.0-4.0-1.0-3.6","4zcdfpd4t0sntrv","prime","5dd28c7e9c84d82a2b5b2966","5f60e3c0a3b16e07647b2ff9","5f60ee883e3a8a016bd0dbd6","false","null","<div style=""align-items: center; display: flex; color: darkorange; font-size: 90px""><b>ø</b></div>","null","","","","forget_cue","","","","","","","","","","","","","","","",""
"html-keyboard-response","141","476678","0.0-4.0-1.0-0.7","4zcdfpd4t0sntrv","prime","5dd28c7e9c84d82a2b5b2966","5f60e3c0a3b16e07647b2ff9","5f60ee883e3a8a016bd0dbd6","false","null","<span style=""color: black; font-size: 48px"">M + N</span>","null","","","","resp_prompt","","","","","","","","","","","","","","","",""
"categorize-image","142","477306","0.0-4.0-1.0-1.7","4zcdfpd4t0sntrv","prime","5dd28c7e9c84d82a2b5b2966","5f60e3c0a3b16e07647b2ff9","5f60ee883e3a8a016bd0dbd6","true","624.1149999987101","./Stimuli/SelectedImages/SN/SN111.bmp","76","","","","test","true","M + N","76","switch","SN","SN111.bmp","forget","","56","3","prime1","right","","","",""
"html-keyboard-response","143","479307","0.0-4.0-1.0-3.7","4zcdfpd4t0sntrv","prime","5dd28c7e9c84d82a2b5b2966","5f60e3c0a3b16e07647b2ff9","5f60ee883e3a8a016bd0dbd6","false","null","<div style=""align-items: center; display: flex; color: darkorange; font-size: 90px""><b>ø</b></div>","null","","","","forget_cue","","","","","","","","","","","","","","","",""
"html-keyboard-response","144","480008","0.0-4.0-1.0-0.8","4zcdfpd4t0sntrv","prime","5dd28c7e9c84d82a2b5b2966","5f60e3c0a3b16e07647b2ff9","5f60ee883e3a8a016bd0dbd6","false","null","<span style=""color: black; font-size: 48px"">N + M</span>","null","","","","resp_prompt","","","","","","","","","","","","","","","",""
"categorize-image","145","481208","0.0-4.0-1.0-1.8","4zcdfpd4t0sntrv","prime","5dd28c7e9c84d82a2b5b2966","5f60e3c0a3b16e07647b2ff9","5f60ee883e3a8a016bd0dbd6","true","1195.5799999996088","./Stimuli/SelectedImages/LN/LN131.bmp","83","","","","test","true","N + M","83","repetition","LN","LN131.bmp","remember","","57","3","prime1","left","","","",""
"html-keyboard-response","146","483210","0.0-4.0-1.0-3.8","4zcdfpd4t0sntrv","prime","5dd28c7e9c84d82a2b5b2966","5f60e3c0a3b16e07647b2ff9","5f60ee883e3a8a016bd0dbd6","false","null","<div style=""align-items: center; display: flex; color: dodgerblue; font-size: 90px""><b>o</b></div>","null","","","","forget_cue","","","","","","","","","","","","","","","",""
"html-keyboard-response","147","483912","0.0-4.0-1.0-0.9","4zcdfpd4t0sntrv","prime","5dd28c7e9c84d82a2b5b2966","5f60e3c0a3b16e07647b2ff9","5f60ee883e3a8a016bd0dbd6","false","null","<span style=""color: black; font-size: 48px"">N + M</span>","null","","","","resp_prompt","","","","","","","","","","","","","","","",""
"categorize-image","148","484546","0.0-4.0-1.0-1.9","4zcdfpd4t0sntrv","prime","5dd28c7e9c84d82a2b5b2966","5f60e3c0a3b16e07647b2ff9","5f60ee883e3a8a016bd0dbd6","true","629.8999999999069","./Stimuli/SelectedImages/SN/SN52.bmp","83","","","","test","true","N + M","83","switch","SN","SN52.bmp","forget","","58","3","prime1","left","","","",""
"html-keyboard-response","149","486547","0.0-4.0-1.0-3.9","4zcdfpd4t0sntrv","prime","5dd28c7e9c84d82a2b5b2966","5f60e3c0a3b16e07647b2ff9","5f60ee883e3a8a016bd0dbd6","false","null","<div style=""align-items: center; display: flex; color: darkorange; font-size: 90px""><b>ø</b></div>","null","","","","forget_cue","","","","","","","","","","","","","","","",""
"html-keyboard-response","150","487250","0.0-4.0-1.0-0.10","4zcdfpd4t0sntrv","prime","5dd28c7e9c84d82a2b5b2966","5f60e3c0a3b16e07647b2ff9","5f60ee883e3a8a016bd0dbd6","false","null","<span style=""color: black; font-size: 48px"">M + N</span>","null","","","","resp_prompt","","","","","","","","","","","","","","","",""
"categorize-image","151","488063","0.0-4.0-1.0-1.10","4zcdfpd4t0sntrv","prime","5dd28c7e9c84d82a2b5b2966","5f60e3c0a3b16e07647b2ff9","5f60ee883e3a8a016bd0dbd6","true","808.9400000026217","./Stimuli/SelectedImages/LM/LM100.bmp","83","","","","test","true","M + N","83","repetition","LM","LM100.bmp","forget","","59","3","prime1","left","","","",""
"html-keyboard-response","152","490064","0.0-4.0-1.0-3.10","4zcdfpd4t0sntrv","prime","5dd28c7e9c84d82a2b5b2966","5f60e3c0a3b16e07647b2ff9","5f60ee883e3a8a016bd0dbd6","false","null","<div style=""align-items: center; display: flex; color: darkorange; font-size: 90px""><b>ø</b></div>","null","","","","forget_cue","","","","","","","","","","","","","","","",""
"html-keyboard-response","153","490766","0.0-4.0-1.0-0.11","4zcdfpd4t0sntrv","prime","5dd28c7e9c84d82a2b5b2966","5f60e3c0a3b16e07647b2ff9","5f60ee883e3a8a016bd0dbd6","false","null","<span style=""color: black; font-size: 48px"">N + M</span>","null","","","","resp_prompt","","","","","","","","","","","","","","","",""
"categorize-image","154","491953","0.0-4.0-1.0-1.11","4zcdfpd4t0sntrv","prime","5dd28c7e9c84d82a2b5b2966","5f60e3c0a3b16e07647b2ff9","5f60ee883e3a8a016bd0dbd6","true","1183.2900000008522","./Stimuli/SelectedImages/SM/SM17.bmp","76","","","","test","true","N + M","76","switch","SM","SM17.bmp","remember","","60","3","prime1","right","","","",""
"html-keyboard-response","155","493956","0.0-4.0-1.0-3.11","4zcdfpd4t0sntrv","prime","5dd28c7e9c84d82a2b5b2966","5f60e3c0a3b16e07647b2ff9","5f60ee883e3a8a016bd0dbd6","false","null","<div style=""align-items: center; display: flex; color: dodgerblue; font-size: 90px""><b>o</b></div>","null","","","","forget_cue","","","","","","","","","","","","","","","",""
"html-keyboard-response","156","494658","0.0-4.0-1.0-0.12","4zcdfpd4t0sntrv","prime","5dd28c7e9c84d82a2b5b2966","5f60e3c0a3b16e07647b2ff9","5f60ee883e3a8a016bd0dbd6","false","null","<span style=""color: black; font-size: 48px"">M + N</span>","null","","","","resp_prompt","","","","","","","","","","","","","","","",""
"categorize-image","157","495423","0.0-4.0-1.0-1.12","4zcdfpd4t0sntrv","prime","5dd28c7e9c84d82a2b5b2966","5f60e3c0a3b16e07647b2ff9","5f60ee883e3a8a016bd0dbd6","true","762.3699999967357","./Stimuli/SelectedImages/SM/SM200.bmp","83","","","","test","true","M + N","83","switch","SM","SM200.bmp","remember","","61","3","prime1","left","","","",""
"html-keyboard-response","158","497426","0.0-4.0-1.0-3.12","4zcdfpd4t0sntrv","prime","5dd28c7e9c84d82a2b5b2966","5f60e3c0a3b16e07647b2ff9","5f60ee883e3a8a016bd0dbd6","false","null","<div style=""align-items: center; display: flex; color: dodgerblue; font-size: 90px""><b>o</b></div>","null","","","","forget_cue","","","","","","","","","","","","","","","",""
"html-keyboard-response","159","498128","0.0-4.0-1.0-0.13","4zcdfpd4t0sntrv","prime","5dd28c7e9c84d82a2b5b2966","5f60e3c0a3b16e07647b2ff9","5f60ee883e3a8a016bd0dbd6","false","null","<span style=""color: black; font-size: 48px"">N + M</span>","null","","","","resp_prompt","","","","","","","","","","","","","","","",""
"categorize-image","160","499147","0.0-4.0-1.0-1.13","4zcdfpd4t0sntrv","prime","5dd28c7e9c84d82a2b5b2966","5f60e3c0a3b16e07647b2ff9","5f60ee883e3a8a016bd0dbd6","true","1016.4549999899464","./Stimuli/SelectedImages/SN/SN187.bmp","83","","","","test","true","N + M","83","switch","SN","SN187.bmp","remember","","62","3","prime1","left","","","",""
"html-keyboard-response","161","501149","0.0-4.0-1.0-3.13","4zcdfpd4t0sntrv","prime","5dd28c7e9c84d82a2b5b2966","5f60e3c0a3b16e07647b2ff9","5f60ee883e3a8a016bd0dbd6","false","null","<div style=""align-items: center; display: flex; color: dodgerblue; font-size: 90px""><b>o</b></div>","null","","","","forget_cue","","","","","","","","","","","","","","","",""
"html-keyboard-response","162","501850","0.0-4.0-1.0-0.14","4zcdfpd4t0sntrv","prime","5dd28c7e9c84d82a2b5b2966","5f60e3c0a3b16e07647b2ff9","5f60ee883e3a8a016bd0dbd6","false","null","<span style=""color: black; font-size: 48px"">M + N</span>","null","","","","resp_prompt","","","","","","","","","","","","","","","",""
"categorize-image","163","503215","0.0-4.0-1.0-1.14","4zcdfpd4t0sntrv","prime","5dd28c7e9c84d82a2b5b2966","5f60e3c0a3b16e07647b2ff9","5f60ee883e3a8a016bd0dbd6","true","1360.324999986915","./Stimuli/SelectedImages/LM/LM59.bmp","83","","","","test","true","M + N","83","repetition","LM","LM59.bmp","remember","","63","3","prime1","left","","","",""
"html-keyboard-response","164","505217","0.0-4.0-1.0-3.14","4zcdfpd4t0sntrv","prime","5dd28c7e9c84d82a2b5b2966","5f60e3c0a3b16e07647b2ff9","5f60ee883e3a8a016bd0dbd6","false","null","<div style=""align-items: center; display: flex; color: dodgerblue; font-size: 90px""><b>o</b></div>","null","","","","forget_cue","","","","","","","","","","","","","","","",""
"html-keyboard-response","165","505919","0.0-4.0-1.0-0.15","4zcdfpd4t0sntrv","prime","5dd28c7e9c84d82a2b5b2966","5f60e3c0a3b16e07647b2ff9","5f60ee883e3a8a016bd0dbd6","false","null","<span style=""color: black; font-size: 48px"">N + M</span>","null","","","","resp_prompt","","","","","","","","","","","","","","","",""
"categorize-image","166","506748","0.0-4.0-1.0-1.15","4zcdfpd4t0sntrv","prime","5dd28c7e9c84d82a2b5b2966","5f60e3c0a3b16e07647b2ff9","5f60ee883e3a8a016bd0dbd6","true","824.8849999945378","./Stimuli/SelectedImages/SM/SM108.bmp","76","","","","test","true","N + M","76","repetition","SM","SM108.bmp","forget","","64","3","prime1","right","","","",""
"html-keyboard-response","167","508750","0.0-4.0-1.0-3.15","4zcdfpd4t0sntrv","prime","5dd28c7e9c84d82a2b5b2966","5f60e3c0a3b16e07647b2ff9","5f60ee883e3a8a016bd0dbd6","false","null","<div style=""align-items: center; display: flex; color: darkorange; font-size: 90px""><b>ø</b></div>","null","","","","forget_cue","","","","","","","","","","","","","","","",""
"html-keyboard-response","168","509452","0.0-4.0-1.0-0.16","4zcdfpd4t0sntrv","prime","5dd28c7e9c84d82a2b5b2966","5f60e3c0a3b16e07647b2ff9","5f60ee883e3a8a016bd0dbd6","false","null","<span style=""color: black; font-size: 48px"">M + N</span>","null","","","","resp_prompt","","","","","","","","","","","","","","","",""
"categorize-image","169","510097","0.0-4.0-1.0-1.16","4zcdfpd4t0sntrv","prime","5dd28c7e9c84d82a2b5b2966","5f60e3c0a3b16e07647b2ff9","5f60ee883e3a8a016bd0dbd6","true","639.2300000006799","./Stimuli/SelectedImages/LM/LM150.bmp","83","","","","test","true","M + N","83","switch","LM","LM150.bmp","remember","","65","3","prime1","left","","","",""
"html-keyboard-response","170","512099","0.0-4.0-1.0-3.16","4zcdfpd4t0sntrv","prime","5dd28c7e9c84d82a2b5b2966","5f60e3c0a3b16e07647b2ff9","5f60ee883e3a8a016bd0dbd6","false","null","<div style=""align-items: center; display: flex; color: dodgerblue; font-size: 90px""><b>o</b></div>","null","","","","forget_cue","","","","","","","","","","","","","","","",""
"html-keyboard-response","171","512801","0.0-4.0-1.0-0.17","4zcdfpd4t0sntrv","prime","5dd28c7e9c84d82a2b5b2966","5f60e3c0a3b16e07647b2ff9","5f60ee883e3a8a016bd0dbd6","false","null","<span style=""color: black; font-size: 48px"">N + M</span>","null","","","","resp_prompt","","","","","","","","","","","","","","","",""
"categorize-image","172","514309","0.0-4.0-1.0-1.17","4zcdfpd4t0sntrv","prime","5dd28c7e9c84d82a2b5b2966","5f60e3c0a3b16e07647b2ff9","5f60ee883e3a8a016bd0dbd6","true","1504.2800000082934","./Stimuli/SelectedImages/LN/LN13.bmp","83","","","","test","true","N + M","83","switch","LN","LN13.bmp","remember","","66","3","prime1","left","","","",""
"html-keyboard-response","173","516312","0.0-4.0-1.0-3.17","4zcdfpd4t0sntrv","prime","5dd28c7e9c84d82a2b5b2966","5f60e3c0a3b16e07647b2ff9","5f60ee883e3a8a016bd0dbd6","false","null","<div style=""align-items: center; display: flex; color: dodgerblue; font-size: 90px""><b>o</b></div>","null","","","","forget_cue","","","","","","","","","","","","","","","",""
"html-keyboard-response","174","517014","0.0-4.0-1.0-0.18","4zcdfpd4t0sntrv","prime","5dd28c7e9c84d82a2b5b2966","5f60e3c0a3b16e07647b2ff9","5f60ee883e3a8a016bd0dbd6","false","null","<span style=""color: black; font-size: 48px"">N + M</span>","null","","","","resp_prompt","","","","","","","","","","","","","","","",""
"categorize-image","175","518220","0.0-4.0-1.0-1.18","4zcdfpd4t0sntrv","prime","5dd28c7e9c84d82a2b5b2966","5f60e3c0a3b16e07647b2ff9","5f60ee883e3a8a016bd0dbd6","true","1203.0549999908544","./Stimuli/SelectedImages/SM/SM128.bmp","76","","","","test","true","N + M","76","repetition","SM","SM128.bmp","remember","","67","3","prime1","right","","","",""
"html-keyboard-response","176","520223","0.0-4.0-1.0-3.18","4zcdfpd4t0sntrv","prime","5dd28c7e9c84d82a2b5b2966","5f60e3c0a3b16e07647b2ff9","5f60ee883e3a8a016bd0dbd6","false","null","<div style=""align-items: center; display: flex; color: dodgerblue; font-size: 90px""><b>o</b></div>","null","","","","forget_cue","","","","","","","","","","","","","","","",""
"html-keyboard-response","177","520925","0.0-4.0-1.0-0.19","4zcdfpd4t0sntrv","prime","5dd28c7e9c84d82a2b5b2966","5f60e3c0a3b16e07647b2ff9","5f60ee883e3a8a016bd0dbd6","false","null","<span style=""color: black; font-size: 48px"">N + M</span>","null","","","","resp_prompt","","","","","","","","","","","","","","","",""
"categorize-image","178","522322","0.0-4.0-1.0-1.19","4zcdfpd4t0sntrv","prime","5dd28c7e9c84d82a2b5b2966","5f60e3c0a3b16e07647b2ff9","5f60ee883e3a8a016bd0dbd6","true","1391.2550000095507","./Stimuli/SelectedImages/LN/LN92.bmp","83","","","","test","true","N + M","83","repetition","LN","LN92.bmp","forget","","68","3","prime1","left","","","",""
"html-keyboard-response","179","524324","0.0-4.0-1.0-3.19","4zcdfpd4t0sntrv","prime","5dd28c7e9c84d82a2b5b2966","5f60e3c0a3b16e07647b2ff9","5f60ee883e3a8a016bd0dbd6","false","null","<div style=""align-items: center; display: flex; color: darkorange; font-size: 90px""><b>ø</b></div>","null","","","","forget_cue","","","","","","","","","","","","","","","",""
"html-keyboard-response","180","525026","0.0-4.0-1.0-0.20","4zcdfpd4t0sntrv","prime","5dd28c7e9c84d82a2b5b2966","5f60e3c0a3b16e07647b2ff9","5f60ee883e3a8a016bd0dbd6","false","null","<span style=""color: black; font-size: 48px"">N + M</span>","null","","","","resp_prompt","","","","","","","","","","","","","","","",""
"categorize-image","181","525758","0.0-4.0-1.0-1.20","4zcdfpd4t0sntrv","prime","5dd28c7e9c84d82a2b5b2966","5f60e3c0a3b16e07647b2ff9","5f60ee883e3a8a016bd0dbd6","true","729.6099999948638","./Stimuli/SelectedImages/LM/LM48.bmp","76","","","","test","true","N + M","76","switch","LM","LM48.bmp","forget","","69","3","prime1","right","","","",""
"html-keyboard-response","182","527761","0.0-4.0-1.0-3.20","4zcdfpd4t0sntrv","prime","5dd28c7e9c84d82a2b5b2966","5f60e3c0a3b16e07647b2ff9","5f60ee883e3a8a016bd0dbd6","false","null","<div style=""align-items: center; display: flex; color: darkorange; font-size: 90px""><b>ø</b></div>","null","","","","forget_cue","","","","","","","","","","","","","","","",""
"html-keyboard-response","183","528463","0.0-4.0-1.0-0.21","4zcdfpd4t0sntrv","prime","5dd28c7e9c84d82a2b5b2966","5f60e3c0a3b16e07647b2ff9","5f60ee883e3a8a016bd0dbd6","false","null","<span style=""color: black; font-size: 48px"">N + M</span>","null","","","","resp_prompt","","","","","","","","","","","","","","","",""
"categorize-image","184","529516","0.0-4.0-1.0-1.21","4zcdfpd4t0sntrv","prime","5dd28c7e9c84d82a2b5b2966","5f60e3c0a3b16e07647b2ff9","5f60ee883e3a8a016bd0dbd6","true","1047.2999999910826","./Stimuli/SelectedImages/SM/SM184.bmp","76","","","","test","true","N + M","76","repetition","SM","SM184.bmp","forget","","70","3","prime1","right","","","",""
"html-keyboard-response","185","531520","0.0-4.0-1.0-3.21","4zcdfpd4t0sntrv","prime","5dd28c7e9c84d82a2b5b2966","5f60e3c0a3b16e07647b2ff9","5f60ee883e3a8a016bd0dbd6","false","null","<div style=""align-items: center; display: flex; color: darkorange; font-size: 90px""><b>ø</b></div>","null","","","","forget_cue","","","","","","","","","","","","","","","",""
"html-keyboard-response","186","532221","0.0-4.0-1.0-0.22","4zcdfpd4t0sntrv","prime","5dd28c7e9c84d82a2b5b2966","5f60e3c0a3b16e07647b2ff9","5f60ee883e3a8a016bd0dbd6","false","null","<span style=""color: black; font-size: 48px"">N + M</span>","null","","","","resp_prompt","","","","","","","","","","","","","","","",""
"categorize-image","187","533117","0.0-4.0-1.0-1.22","4zcdfpd4t0sntrv","prime","5dd28c7e9c84d82a2b5b2966","5f60e3c0a3b16e07647b2ff9","5f60ee883e3a8a016bd0dbd6","true","890.5050000030315","./Stimuli/SelectedImages/SN/SN27.bmp","83","","","","test","true","N + M","83","switch","SN","SN27.bmp","remember","","71","3","prime1","left","","","",""
"html-keyboard-response","188","535120","0.0-4.0-1.0-3.22","4zcdfpd4t0sntrv","prime","5dd28c7e9c84d82a2b5b2966","5f60e3c0a3b16e07647b2ff9","5f60ee883e3a8a016bd0dbd6","false","null","<div style=""align-items: center; display: flex; color: dodgerblue; font-size: 90px""><b>o</b></div>","null","","","","forget_cue","","","","","","","","","","","","","","","",""
"html-keyboard-response","189","535822","0.0-4.0-1.0-0.23","4zcdfpd4t0sntrv","prime","5dd28c7e9c84d82a2b5b2966","5f60e3c0a3b16e07647b2ff9","5f60ee883e3a8a016bd0dbd6","false","null","<span style=""color: black; font-size: 48px"">M + N</span>","null","","","","resp_prompt","","","","","","","","","","","","","","","",""
"categorize-image","190","536824","0.0-4.0-1.0-1.23","4zcdfpd4t0sntrv","prime","5dd28c7e9c84d82a2b5b2966","5f60e3c0a3b16e07647b2ff9","5f60ee883e3a8a016bd0dbd6","true","995.8550000010291","./Stimuli/SelectedImages/SM/SM76.bmp","83","","","","test","true","M + N","83","repetition","SM","SM76.bmp","forget","","72","3","prime1","left","","","",""
"html-keyboard-response","191","538827","0.0-4.0-1.0-3.23","4zcdfpd4t0sntrv","prime","5dd28c7e9c84d82a2b5b2966","5f60e3c0a3b16e07647b2ff9","5f60ee883e3a8a016bd0dbd6","false","null","<div style=""align-items: center; display: flex; color: darkorange; font-size: 90px""><b>ø</b></div>","null","","","","forget_cue","","","","","","","","","","","","","","","",""
"html-keyboard-response","192","539529","0.0-4.0-1.0-0.24","4zcdfpd4t0sntrv","prime","5dd28c7e9c84d82a2b5b2966","5f60e3c0a3b16e07647b2ff9","5f60ee883e3a8a016bd0dbd6","false","null","<span style=""color: black; font-size: 48px"">M + N</span>","null","","","","resp_prompt","","","","","","","","","","","","","","","",""
"categorize-image","193","540136","0.0-4.0-1.0-1.24","4zcdfpd4t0sntrv","prime","5dd28c7e9c84d82a2b5b2966","5f60e3c0a3b16e07647b2ff9","5f60ee883e3a8a016bd0dbd6","true","601.9749999977648","./Stimuli/SelectedImages/LN/LN101.bmp","76","","","","test","true","M + N","76","switch","LN","LN101.bmp","forget","","73","3","prime1","right","","","",""
"html-keyboard-response","194","542138","0.0-4.0-1.0-3.24","4zcdfpd4t0sntrv","prime","5dd28c7e9c84d82a2b5b2966","5f60e3c0a3b16e07647b2ff9","5f60ee883e3a8a016bd0dbd6","false","null","<div style=""align-items: center; display: flex; color: darkorange; font-size: 90px""><b>ø</b></div>","null","","","","forget_cue","","","","","","","","","","","","","","","",""
"html-keyboard-response","195","542840","0.0-4.0-1.0-0.25","4zcdfpd4t0sntrv","prime","5dd28c7e9c84d82a2b5b2966","5f60e3c0a3b16e07647b2ff9","5f60ee883e3a8a016bd0dbd6","false","null","<span style=""color: black; font-size: 48px"">M + N</span>","null","","","","resp_prompt","","","","","","","","","","","","","","","",""
"categorize-image","196","543874","0.0-4.0-1.0-1.25","4zcdfpd4t0sntrv","prime","5dd28c7e9c84d82a2b5b2966","5f60e3c0a3b16e07647b2ff9","5f60ee883e3a8a016bd0dbd6","true","1029.675000012503","./Stimuli/SelectedImages/LN/LN42.bmp","76","","","","test","true","M + N","76","switch","LN","LN42.bmp","remember","","74","3","prime1","right","","","",""
"html-keyboard-response","197","545876","0.0-4.0-1.0-3.25","4zcdfpd4t0sntrv","prime","5dd28c7e9c84d82a2b5b2966","5f60e3c0a3b16e07647b2ff9","5f60ee883e3a8a016bd0dbd6","false","null","<div style=""align-items: center; display: flex; color: dodgerblue; font-size: 90px""><b>o</b></div>","null","","","","forget_cue","","","","","","","","","","","","","","","",""
"html-keyboard-response","198","546578","0.0-4.0-1.0-0.26","4zcdfpd4t0sntrv","prime","5dd28c7e9c84d82a2b5b2966","5f60e3c0a3b16e07647b2ff9","5f60ee883e3a8a016bd0dbd6","false","null","<span style=""color: black; font-size: 48px"">M + N</span>","null","","","","resp_prompt","","","","","","","","","","","","","","","",""
"categorize-image","199","547634","0.0-4.0-1.0-1.26","4zcdfpd4t0sntrv","prime","5dd28c7e9c84d82a2b5b2966","5f60e3c0a3b16e07647b2ff9","5f60ee883e3a8a016bd0dbd6","true","1051.3950000022305","./Stimuli/SelectedImages/SM/SM207.bmp","83","","","","test","true","M + N","83","repetition","SM","SM207.bmp","forget","","75","3","prime1","left","","","",""
"html-keyboard-response","200","549636","0.0-4.0-1.0-3.26","4zcdfpd4t0sntrv","prime","5dd28c7e9c84d82a2b5b2966","5f60e3c0a3b16e07647b2ff9","5f60ee883e3a8a016bd0dbd6","false","null","<div style=""align-items: center; display: flex; color: darkorange; font-size: 90px""><b>ø</b></div>","null","","","","forget_cue","","","","","","","","","","","","","","","",""
"html-keyboard-response","201","550338","0.0-4.0-1.0-0.27","4zcdfpd4t0sntrv","prime","5dd28c7e9c84d82a2b5b2966","5f60e3c0a3b16e07647b2ff9","5f60ee883e3a8a016bd0dbd6","false","null","<span style=""color: black; font-size: 48px"">M + N</span>","null","","","","resp_prompt","","","","","","","","","","","","","","","",""
"categorize-image","202","550993","0.0-4.0-1.0-1.27","4zcdfpd4t0sntrv","prime","5dd28c7e9c84d82a2b5b2966","5f60e3c0a3b16e07647b2ff9","5f60ee883e3a8a016bd0dbd6","true","648.3250000019325","./Stimuli/SelectedImages/LN/LN111.bmp","76","","","","test","true","M + N","76","repetition","LN","LN111.bmp","remember","","76","3","prime1","right","","","",""
"html-keyboard-response","203","552995","0.0-4.0-1.0-3.27","4zcdfpd4t0sntrv","prime","5dd28c7e9c84d82a2b5b2966","5f60e3c0a3b16e07647b2ff9","5f60ee883e3a8a016bd0dbd6","false","null","<div style=""align-items: center; display: flex; color: dodgerblue; font-size: 90px""><b>o</b></div>","null","","","","forget_cue","","","","","","","","","","","","","","","",""
"html-keyboard-response","204","553697","0.0-4.0-1.0-0.28","4zcdfpd4t0sntrv","prime","5dd28c7e9c84d82a2b5b2966","5f60e3c0a3b16e07647b2ff9","5f60ee883e3a8a016bd0dbd6","false","null","<span style=""color: black; font-size: 48px"">M + N</span>","null","","","","resp_prompt","","","","","","","","","","","","","","","",""
"categorize-image","205","554816","0.0-4.0-1.0-1.28","4zcdfpd4t0sntrv","prime","5dd28c7e9c84d82a2b5b2966","5f60e3c0a3b16e07647b2ff9","5f60ee883e3a8a016bd0dbd6","true","1113.7949999974808","./Stimuli/SelectedImages/SN/SN93.bmp","76","","","","test","true","M + N","76","repetition","SN","SN93.bmp","forget","","77","3","prime1","right","","","",""
"html-keyboard-response","206","556818","0.0-4.0-1.0-3.28","4zcdfpd4t0sntrv","prime","5dd28c7e9c84d82a2b5b2966","5f60e3c0a3b16e07647b2ff9","5f60ee883e3a8a016bd0dbd6","false","null","<div style=""align-items: center; display: flex; color: darkorange; font-size: 90px""><b>ø</b></div>","null","","","","forget_cue","","","","","","","","","","","","","","","",""
"html-keyboard-response","207","557521","0.0-4.0-1.0-0.29","4zcdfpd4t0sntrv","prime","5dd28c7e9c84d82a2b5b2966","5f60e3c0a3b16e07647b2ff9","5f60ee883e3a8a016bd0dbd6","false","null","<span style=""color: black; font-size: 48px"">M + N</span>","null","","","","resp_prompt","","","","","","","","","","","","","","","",""
"categorize-image","208","558186","0.0-4.0-1.0-1.29","4zcdfpd4t0sntrv","prime","5dd28c7e9c84d82a2b5b2966","5f60e3c0a3b16e07647b2ff9","5f60ee883e3a8a016bd0dbd6","true","658.6349999997765","./Stimuli/SelectedImages/SN/SN49.bmp","76","","","","test","true","M + N","76","repetition","SN","SN49.bmp","remember","","78","3","prime1","right","","","",""
"html-keyboard-response","209","560189","0.0-4.0-1.0-3.29","4zcdfpd4t0sntrv","prime","5dd28c7e9c84d82a2b5b2966","5f60e3c0a3b16e07647b2ff9","5f60ee883e3a8a016bd0dbd6","false","null","<div style=""align-items: center; display: flex; color: dodgerblue; font-size: 90px""><b>o</b></div>","null","","","","forget_cue","","","","","","","","","","","","","","","",""
"html-keyboard-response","210","560891","0.0-4.0-1.0-0.30","4zcdfpd4t0sntrv","prime","5dd28c7e9c84d82a2b5b2966","5f60e3c0a3b16e07647b2ff9","5f60ee883e3a8a016bd0dbd6","false","null","<span style=""color: black; font-size: 48px"">M + N</span>","null","","","","resp_prompt","","","","","","","","","","","","","","","",""
"categorize-image","211","561971","0.0-4.0-1.0-1.30","4zcdfpd4t0sntrv","prime","5dd28c7e9c84d82a2b5b2966","5f60e3c0a3b16e07647b2ff9","5f60ee883e3a8a016bd0dbd6","true","1076.3199999928474","./Stimuli/SelectedImages/LN/LN149.bmp","76","","","","test","true","M + N","76","switch","LN","LN149.bmp","forget","","79","3","prime1","right","","","",""
"html-keyboard-response","212","563974","0.0-4.0-1.0-3.30","4zcdfpd4t0sntrv","prime","5dd28c7e9c84d82a2b5b2966","5f60e3c0a3b16e07647b2ff9","5f60ee883e3a8a016bd0dbd6","false","null","<div style=""align-items: center; display: flex; color: darkorange; font-size: 90px""><b>ø</b></div>","null","","","","forget_cue","","","","","","","","","","","","","","","",""
"html-keyboard-response","213","564677","0.0-4.0-1.0-0.31","4zcdfpd4t0sntrv","prime","5dd28c7e9c84d82a2b5b2966","5f60e3c0a3b16e07647b2ff9","5f60ee883e3a8a016bd0dbd6","false","null","<span style=""color: black; font-size: 48px"">M + N</span>","null","","","","resp_prompt","","","","","","","","","","","","","","","",""
"categorize-image","214","565742","0.0-4.0-1.0-1.31","4zcdfpd4t0sntrv","prime","5dd28c7e9c84d82a2b5b2966","5f60e3c0a3b16e07647b2ff9","5f60ee883e3a8a016bd0dbd6","true","1059.1249999997672","./Stimuli/SelectedImages/LN/LN177.bmp","76","","","","test","true","M + N","76","repetition","LN","LN177.bmp","forget","","80","3","prime1","right","","","",""
"html-keyboard-response","215","567744","0.0-4.0-1.0-3.31","4zcdfpd4t0sntrv","prime","5dd28c7e9c84d82a2b5b2966","5f60e3c0a3b16e07647b2ff9","5f60ee883e3a8a016bd0dbd6","false","null","<div style=""align-items: center; display: flex; color: darkorange; font-size: 90px""><b>ø</b></div>","null","","","","forget_cue","","","","","","","","","","","","","","","",""
"html-keyboard-response","216","568448","0.0-4.0-1.0-0.32","4zcdfpd4t0sntrv","prime","5dd28c7e9c84d82a2b5b2966","5f60e3c0a3b16e07647b2ff9","5f60ee883e3a8a016bd0dbd6","false","null","<span style=""color: black; font-size: 48px"">N + M</span>","null","","","","resp_prompt","","","","","","","","","","","","","","","",""
"categorize-image","217","569526","0.0-4.0-1.0-1.32","4zcdfpd4t0sntrv","prime","5dd28c7e9c84d82a2b5b2966","5f60e3c0a3b16e07647b2ff9","5f60ee883e3a8a016bd0dbd6","true","1073.5949999943841","./Stimuli/SelectedImages/LM/LM179.bmp","76","","","","test","true","N + M","76","switch","LM","LM179.bmp","forget","","81","3","prime1","right","","","",""
"html-keyboard-response","218","571529","0.0-4.0-1.0-3.32","4zcdfpd4t0sntrv","prime","5dd28c7e9c84d82a2b5b2966","5f60e3c0a3b16e07647b2ff9","5f60ee883e3a8a016bd0dbd6","false","null","<div style=""align-items: center; display: flex; color: darkorange; font-size: 90px""><b>ø</b></div>","null","","","","forget_cue","","","","","","","","","","","","","","","",""
"html-keyboard-response","219","572232","0.0-4.0-1.0-0.33","4zcdfpd4t0sntrv","prime","5dd28c7e9c84d82a2b5b2966","5f60e3c0a3b16e07647b2ff9","5f60ee883e3a8a016bd0dbd6","false","null","<span style=""color: black; font-size: 48px"">N + M</span>","null","","","","resp_prompt","","","","","","","","","","","","","","","",""
"categorize-image","220","573794","0.0-4.0-1.0-1.33","4zcdfpd4t0sntrv","prime","5dd28c7e9c84d82a2b5b2966","5f60e3c0a3b16e07647b2ff9","5f60ee883e3a8a016bd0dbd6","true","1558.38999999105","./Stimuli/SelectedImages/LM/LM103.bmp","76","","","","test","true","N + M","76","repetition","LM","LM103.bmp","remember","","82","3","prime1","right","","","",""
"html-keyboard-response","221","575797","0.0-4.0-1.0-3.33","4zcdfpd4t0sntrv","prime","5dd28c7e9c84d82a2b5b2966","5f60e3c0a3b16e07647b2ff9","5f60ee883e3a8a016bd0dbd6","false","null","<div style=""align-items: center; display: flex; color: dodgerblue; font-size: 90px""><b>o</b></div>","null","","","","forget_cue","","","","","","","","","","","","","","","",""
"html-keyboard-response","222","576500","0.0-4.0-1.0-0.34","4zcdfpd4t0sntrv","prime","5dd28c7e9c84d82a2b5b2966","5f60e3c0a3b16e07647b2ff9","5f60ee883e3a8a016bd0dbd6","false","null","<span style=""color: black; font-size: 48px"">N + M</span>","null","","","","resp_prompt","","","","","","","","","","","","","","","",""
"categorize-image","223","577368","0.0-4.0-1.0-1.34","4zcdfpd4t0sntrv","prime","5dd28c7e9c84d82a2b5b2966","5f60e3c0a3b16e07647b2ff9","5f60ee883e3a8a016bd0dbd6","true","863.1449999957113","./Stimuli/SelectedImages/LN/LN12.bmp","83","","","","test","true","N + M","83","switch","LN","LN12.bmp","forget","","83","3","prime1","left","","","",""
"html-keyboard-response","224","579370","0.0-4.0-1.0-3.34","4zcdfpd4t0sntrv","prime","5dd28c7e9c84d82a2b5b2966","5f60e3c0a3b16e07647b2ff9","5f60ee883e3a8a016bd0dbd6","false","null","<div style=""align-items: center; display: flex; color: darkorange; font-size: 90px""><b>ø</b></div>","null","","","","forget_cue","","","","","","","","","","","","","","","",""
"html-keyboard-response","225","580072","0.0-4.0-1.0-0.35","4zcdfpd4t0sntrv","prime","5dd28c7e9c84d82a2b5b2966","5f60e3c0a3b16e07647b2ff9","5f60ee883e3a8a016bd0dbd6","false","null","<span style=""color: black; font-size: 48px"">N + M</span>","null","","","","resp_prompt","","","","","","","","","","","","","","","",""
"categorize-image","226","581201","0.0-4.0-1.0-1.35","4zcdfpd4t0sntrv","prime","5dd28c7e9c84d82a2b5b2966","5f60e3c0a3b16e07647b2ff9","5f60ee883e3a8a016bd0dbd6","true","1124.599999995553","./Stimuli/SelectedImages/SN/SN179.bmp","83","","","","test","true","N + M","83","repetition","SN","SN179.bmp","remember","","84","3","prime1","left","","","",""
"html-keyboard-response","227","583203","0.0-4.0-1.0-3.35","4zcdfpd4t0sntrv","prime","5dd28c7e9c84d82a2b5b2966","5f60e3c0a3b16e07647b2ff9","5f60ee883e3a8a016bd0dbd6","false","null","<div style=""align-items: center; display: flex; color: dodgerblue; font-size: 90px""><b>o</b></div>","null","","","","forget_cue","","","","","","","","","","","","","","","",""
"html-keyboard-response","228","583905","0.0-4.0-1.0-0.36","4zcdfpd4t0sntrv","prime","5dd28c7e9c84d82a2b5b2966","5f60e3c0a3b16e07647b2ff9","5f60ee883e3a8a016bd0dbd6","false","null","<span style=""color: black; font-size: 48px"">M + N</span>","null","","","","resp_prompt","","","","","","","","","","","","","","","",""
"categorize-image","229","584644","0.0-4.0-1.0-1.36","4zcdfpd4t0sntrv","prime","5dd28c7e9c84d82a2b5b2966","5f60e3c0a3b16e07647b2ff9","5f60ee883e3a8a016bd0dbd6","true","733.6749999958556","./Stimuli/SelectedImages/LN/LN59.bmp","76","","","","test","true","M + N","76","repetition","LN","LN59.bmp","remember","","85","3","prime1","right","","","",""
"html-keyboard-response","230","586647","0.0-4.0-1.0-3.36","4zcdfpd4t0sntrv","prime","5dd28c7e9c84d82a2b5b2966","5f60e3c0a3b16e07647b2ff9","5f60ee883e3a8a016bd0dbd6","false","null","<div style=""align-items: center; display: flex; color: dodgerblue; font-size: 90px""><b>o</b></div>","null","","","","forget_cue","","","","","","","","","","","","","","","",""
"html-keyboard-response","231","587349","0.0-4.0-1.0-0.37","4zcdfpd4t0sntrv","prime","5dd28c7e9c84d82a2b5b2966","5f60e3c0a3b16e07647b2ff9","5f60ee883e3a8a016bd0dbd6","false","null","<span style=""color: black; font-size: 48px"">M + N</span>","null","","","","resp_prompt","","","","","","","","","","","","","","","",""
"categorize-image","232","588627","0.0-4.0-1.0-1.37","4zcdfpd4t0sntrv","prime","5dd28c7e9c84d82a2b5b2966","5f60e3c0a3b16e07647b2ff9","5f60ee883e3a8a016bd0dbd6","true","1270.619999995688","./Stimuli/SelectedImages/SM/SM74.bmp","83","","","","test","true","M + N","83","switch","SM","SM74.bmp","forget","","86","3","prime1","left","","","",""
"html-keyboard-response","233","590630","0.0-4.0-1.0-3.37","4zcdfpd4t0sntrv","prime","5dd28c7e9c84d82a2b5b2966","5f60e3c0a3b16e07647b2ff9","5f60ee883e3a8a016bd0dbd6","false","null","<div style=""align-items: center; display: flex; color: darkorange; font-size: 90px""><b>ø</b></div>","null","","","","forget_cue","","","","","","","","","","","","","","","",""
"html-keyboard-response","234","591331","0.0-4.0-1.0-0.38","4zcdfpd4t0sntrv","prime","5dd28c7e9c84d82a2b5b2966","5f60e3c0a3b16e07647b2ff9","5f60ee883e3a8a016bd0dbd6","false","null","<span style=""color: black; font-size: 48px"">N + M</span>","null","","","","resp_prompt","","","","","","","","","","","","","","","",""
"categorize-image","235","592005","0.0-4.0-1.0-1.38","4zcdfpd4t0sntrv","prime","5dd28c7e9c84d82a2b5b2966","5f60e3c0a3b16e07647b2ff9","5f60ee883e3a8a016bd0dbd6","true","668.6400000035064","./Stimuli/SelectedImages/SM/SM205.bmp","76","","","","test","true","N + M","76","switch","SM","SM205.bmp","forget","","87","3","prime1","right","","","",""
"html-keyboard-response","236","594007","0.0-4.0-1.0-3.38","4zcdfpd4t0sntrv","prime","5dd28c7e9c84d82a2b5b2966","5f60e3c0a3b16e07647b2ff9","5f60ee883e3a8a016bd0dbd6","false","null","<div style=""align-items: center; display: flex; color: darkorange; font-size: 90px""><b>ø</b></div>","null","","","","forget_cue","","","","","","","","","","","","","","","",""
"html-keyboard-response","237","594708","0.0-4.0-1.0-0.39","4zcdfpd4t0sntrv","prime","5dd28c7e9c84d82a2b5b2966","5f60e3c0a3b16e07647b2ff9","5f60ee883e3a8a016bd0dbd6","false","null","<span style=""color: black; font-size: 48px"">M + N</span>","null","","","","resp_prompt","","","","","","","","","","","","","","","",""
"categorize-image","238","595349","0.0-4.0-1.0-1.39","4zcdfpd4t0sntrv","prime","5dd28c7e9c84d82a2b5b2966","5f60e3c0a3b16e07647b2ff9","5f60ee883e3a8a016bd0dbd6","true","637.5600000028498","./Stimuli/SelectedImages/SM/SM73.bmp","83","","","","test","true","M + N","83","repetition","SM","SM73.bmp","remember","","88","3","prime1","left","","","",""
"html-keyboard-response","239","597350","0.0-4.0-1.0-3.39","4zcdfpd4t0sntrv","prime","5dd28c7e9c84d82a2b5b2966","5f60e3c0a3b16e07647b2ff9","5f60ee883e3a8a016bd0dbd6","false","null","<div style=""align-items: center; display: flex; color: dodgerblue; font-size: 90px""><b>o</b></div>","null","","","","forget_cue","","","","","","","","","","","","","","","",""
"html-keyboard-response","240","598052","0.0-4.0-1.0-0.40","4zcdfpd4t0sntrv","prime","5dd28c7e9c84d82a2b5b2966","5f60e3c0a3b16e07647b2ff9","5f60ee883e3a8a016bd0dbd6","false","null","<span style=""color: black; font-size: 48px"">M + N</span>","null","","","","resp_prompt","","","","","","","","","","","","","","","",""
"categorize-image","241","599027","0.0-4.0-1.0-1.40","4zcdfpd4t0sntrv","prime","5dd28c7e9c84d82a2b5b2966","5f60e3c0a3b16e07647b2ff9","5f60ee883e3a8a016bd0dbd6","true","970.2849999885075","./Stimuli/SelectedImages/SN/SN60.bmp","76","","","","test","true","M + N","76","switch","SN","SN60.bmp","remember","","89","3","prime1","right","","","",""
"html-keyboard-response","242","601029","0.0-4.0-1.0-3.40","4zcdfpd4t0sntrv","prime","5dd28c7e9c84d82a2b5b2966","5f60e3c0a3b16e07647b2ff9","5f60ee883e3a8a016bd0dbd6","false","null","<div style=""align-items: center; display: flex; color: dodgerblue; font-size: 90px""><b>o</b></div>","null","","","","forget_cue","","","","","","","","","","","","","","","",""
"html-keyboard-response","243","601730","0.0-4.0-1.0-0.41","4zcdfpd4t0sntrv","prime","5dd28c7e9c84d82a2b5b2966","5f60e3c0a3b16e07647b2ff9","5f60ee883e3a8a016bd0dbd6","false","null","<span style=""color: black; font-size: 48px"">N + M</span>","null","","","","resp_prompt","","","","","","","","","","","","","","","",""
"categorize-image","244","603331","0.0-4.0-1.0-1.41","4zcdfpd4t0sntrv","prime","5dd28c7e9c84d82a2b5b2966","5f60e3c0a3b16e07647b2ff9","5f60ee883e3a8a016bd0dbd6","true","1595.5600000015693","./Stimuli/SelectedImages/LN/LN82.bmp","83","","","","test","true","N + M","83","switch","LN","LN82.bmp","remember","","90","3","prime1","left","","","",""
"html-keyboard-response","245","605333","0.0-4.0-1.0-3.41","4zcdfpd4t0sntrv","prime","5dd28c7e9c84d82a2b5b2966","5f60e3c0a3b16e07647b2ff9","5f60ee883e3a8a016bd0dbd6","false","null","<div style=""align-items: center; display: flex; color: dodgerblue; font-size: 90px""><b>o</b></div>","null","","","","forget_cue","","","","","","","","","","","","","","","",""
"html-keyboard-response","246","606034","0.0-4.0-1.0-0.42","4zcdfpd4t0sntrv","prime","5dd28c7e9c84d82a2b5b2966","5f60e3c0a3b16e07647b2ff9","5f60ee883e3a8a016bd0dbd6","false","null","<span style=""color: black; font-size: 48px"">M + N</span>","null","","","","resp_prompt","","","","","","","","","","","","","","","",""
"categorize-image","247","607084","0.0-4.0-1.0-1.42","4zcdfpd4t0sntrv","prime","5dd28c7e9c84d82a2b5b2966","5f60e3c0a3b16e07647b2ff9","5f60ee883e3a8a016bd0dbd6","true","1043.7499999970896","./Stimuli/SelectedImages/LM/LM51.bmp","83","","","","test","true","M + N","83","switch","LM","LM51.bmp","forget","","91","3","prime1","left","","","",""
"html-keyboard-response","248","609086","0.0-4.0-1.0-3.42","4zcdfpd4t0sntrv","prime","5dd28c7e9c84d82a2b5b2966","5f60e3c0a3b16e07647b2ff9","5f60ee883e3a8a016bd0dbd6","false","null","<div style=""align-items: center; display: flex; color: darkorange; font-size: 90px""><b>ø</b></div>","null","","","","forget_cue","","","","","","","","","","","","","","","",""
"html-keyboard-response","249","609788","0.0-4.0-1.0-0.43","4zcdfpd4t0sntrv","prime","5dd28c7e9c84d82a2b5b2966","5f60e3c0a3b16e07647b2ff9","5f60ee883e3a8a016bd0dbd6","false","null","<span style=""color: black; font-size: 48px"">M + N</span>","null","","","","resp_prompt","","","","","","","","","","","","","","","",""
"categorize-image","250","610749","0.0-4.0-1.0-1.43","4zcdfpd4t0sntrv","prime","5dd28c7e9c84d82a2b5b2966","5f60e3c0a3b16e07647b2ff9","5f60ee883e3a8a016bd0dbd6","true","957.2349999943981","./Stimuli/SelectedImages/SN/SN140.bmp","76","","","","test","true","M + N","76","repetition","SN","SN140.bmp","forget","","92","3","prime1","right","","","",""
"html-keyboard-response","251","612751","0.0-4.0-1.0-3.43","4zcdfpd4t0sntrv","prime","5dd28c7e9c84d82a2b5b2966","5f60e3c0a3b16e07647b2ff9","5f60ee883e3a8a016bd0dbd6","false","null","<div style=""align-items: center; display: flex; color: darkorange; font-size: 90px""><b>ø</b></div>","null","","","","forget_cue","","","","","","","","","","","","","","","",""
"html-keyboard-response","252","613453","0.0-4.0-1.0-0.44","4zcdfpd4t0sntrv","prime","5dd28c7e9c84d82a2b5b2966","5f60e3c0a3b16e07647b2ff9","5f60ee883e3a8a016bd0dbd6","false","null","<span style=""color: black; font-size: 48px"">N + M</span>","null","","","","resp_prompt","","","","","","","","","","","","","","","",""
