"trial_type","trial_index","time_elapsed","internal_node_id","subject","exp_part","prolific_PID","study_ID","session_ID","use","rt","stimulus","key_press","button_pressed","responses","question_order","trial_part","correct","resp_map","correct_resp","probe_condition","category","image","forget_condition","list","trial_num","block_num","block","response","test_part","n_span","sequence","num_spaces"
"pavlovia","0","4","0.0-0.0","ub98ran9sfnhqvt","","5f3d6ca05772161108bc0e2e","5f60e3c0a3b16e07647b2ff9","5f64c2c68921360280dd33a0","false","","","","","","","","","","","","","","","","","","","","","","",""
"html-keyboard-response","1","8038","0.0-1.0-0.0-0.0","ub98ran9sfnhqvt","welcome","5f3d6ca05772161108bc0e2e","5f60e3c0a3b16e07647b2ff9","5f64c2c68921360280dd33a0","false","8031.8200000001525","<div align=left>Dear participant, <br> thank you for participating in an online study of the Cognition, Action, and Sustainability Unit of the University of Freiburg! <br> <br>The aim of this study is to examine our ability to remember previously learned information. <br>Our goal is to find out, whether our memory improves, when we only remember information that is relevant to us. <br>The experiment will take about 35 minutes to complete. <br> <br>Please, note that you can only participate in this study if you are using a device with a keyboard (PC, Laptop etc.) <br>and not if you are using a mobile device such as a tablet or smartphone.<br> <br>Press 'SPACE' to proceed to the experiment. </div>","32","","","","","","","","","","","","","","","","","","","",""
"html-keyboard-response","2","14509","0.0-1.0-0.0-1.0","ub98ran9sfnhqvt","welcome","5f3d6ca05772161108bc0e2e","5f60e3c0a3b16e07647b2ff9","5f64c2c68921360280dd33a0","false","6469.325000000026","<div align=left><strong> Time Course of this experiment: </strong> <br><br> <strong> 1.</strong>  First, please fill in some information regarding your demographic data. <br><br> <strong> 2.</strong>  Next, your task will be to classify everyday objects. <br>In addition, you will be asked to remember certain objects and recall them later. <br>Working on these tasks requires your undivided attention and concentration.<br>It is therefore essential that you eliminate any sources of distraction in your  <br>environment and ensure that you will not be disturbed. <br><br><strong> 3.</strong>  At the end of the experiment, you will be asked to answer a few additional questions. <br> <br><strong> Important:</strong> After finishing the experiment, only close the browser window <br> by clicking on the 'end the experiment'-button when you are asked to do so. <br>Closing the browser window prematurely will make the allocation of your participation credit impossible. <br><br> Press 'SPACE' to start the experiment. </div>","32","","","","","","","","","","","","","","","","","","","",""
"html-button-response","3","44154","0.0-1.0-0.0-2.0","ub98ran9sfnhqvt","welcome","5f3d6ca05772161108bc0e2e","5f60e3c0a3b16e07647b2ff9","5f64c2c68921360280dd33a0","true","29642.66999999927","<div align=left><strong> Informed consent </strong>  <br>The aim of our research is to better understand human behavior and mental processes. <br>In the following study your behavior (e.g. choices, reaction times) will be studied. <br> <br><strong> Voluntariness and Anonymity </strong> <br>Your participation in this study is  <strong> voluntary</strong>.<br>You may withdraw your consent to participate at any time without providing a reason for doing so and without fear of prejudice. <br><br>As no personal data will be collected, <strong>your data and your person cannot be connected after data collection</strong> – the data-set is anonymous. <br>Respectively, deletion of your data will not be possible after data collection has been completed, as we cannot retrace your data-set.<br>The results and anonymized data collected in this study will be published as a scientific publication. <br>This will happen in an <strong>anonymized format</strong>, so that no data can be traced back to a specific person. <br> <br>The anonymized data of this study will be made available to other researchers and/or in a data archive on the Internet as a means of transparency and to enable subsequent re-use. By doing so, this study follows the recommendations of the Deutsche Forschungsgemeinschaft (DFG, German Research Foundation) and Deutsche Gesellschaft für Psychologie (DGPS, German Psychological Society) regarding quality assurance in research.<br>If you have any questions now or after the experiment, please contact our team (experiments@cs.uni-freiburg.de).<br><br><br>I hereby declare, that I understand the above described conditions of participation and I agree to participate under these conditions. <br><br> </div>","","0","","","","","","","","","","","","","","","","","","",""
"html-keyboard-response","4","65928","0.0-1.0-0.0-3.0","ub98ran9sfnhqvt","welcome","5f3d6ca05772161108bc0e2e","5f60e3c0a3b16e07647b2ff9","5f64c2c68921360280dd33a0","false","21770.80500000011","<div align=left><strong> General information concerning the experiment </strong>  <br> <br>Please follow the instructions:<ol> <li><strong> Do not leave this tab (your browser window) during the experiment and do not reload this tab! </strong>  <br>If you do switch tabs/windows during the experiment (to check your mail or visit another website, for example), <br>the experiment will end automatically and you will <strong>not receive credit</strong> for your participation. <br>Repeated participation or resumption of the experiment is impossible.</li> <br><li>Please close all other programs for the duration of your participation. </li> <br><li>Please mute or turn off your phone and put it out of your reach. </li> <br><li>Please also take off any disturbing accessories (such as wristwatches, bracelets, etc.). </li> <br><li>If you have music playing in the background, please turn it off now. </li> <br></ol>Thank you! <br>Press 'SPACE' to continue. </div>","32","","","","","","","","","","","","","","","","","","","",""
"survey-text","5","70728","0.0-1.0-1.0-0.0","ub98ran9sfnhqvt","demographics","5f3d6ca05772161108bc0e2e","5f60e3c0a3b16e07647b2ff9","5f64c2c68921360280dd33a0","true","4795.279999998456","","","","{""age"":""32""}","","","","","","","","","","","","","","","","","",""
"survey-multi-choice","6","85709","0.0-1.0-1.0-1.0","ub98ran9sfnhqvt","demographics","5f3d6ca05772161108bc0e2e","5f60e3c0a3b16e07647b2ff9","5f64c2c68921360280dd33a0","true","14977.51000000062","","","","{""gender"":""diverse"",""school"":""others"",""education"":""Completed university degree or equivalent""}","[0,1,2]","","","","","","","","","","","","","","","","",""
"html-keyboard-response","7","162021","0.0-1.0-2.0","ub98ran9sfnhqvt","instructions","5f3d6ca05772161108bc0e2e","5f60e3c0a3b16e07647b2ff9","5f64c2c68921360280dd33a0","false","76309.76499999997","<div align=left> The experiment is now about to start: <br> <br>In the following part, you will be presented pictures of everyday objects. <br>Your first task is to <strong>classify these objects. </strong> <br> <br> You will classify them either as mechanical or non-mechanical objects. <br> <br>Objects that include any kind of technical mechanism (for example, wheels, switches, levers, <br> electronic components) fall under the category of <strong>mechanical</strong> objects. <br>Only objects without any kind of technical mechanism should be classified as <strong>non-mechanical</strong>. <br><br>Press 'SPACE' to continue. </div>","32","","","","","","","","","","","","","","","","","","","",""
"html-keyboard-response","8","178394","0.0-2.0-0.0","ub98ran9sfnhqvt","instructions","5f3d6ca05772161108bc0e2e","5f60e3c0a3b16e07647b2ff9","5f64c2c68921360280dd33a0","false","16371.150000000838","<div align=justify>You will classify the objects using the <strong>'S'</strong> and the <strong>'L'</strong> keys on your keyboard.<br>For doing so, please place your <strong>left index finger</strong> on the <strong>'S'</strong> key and place your <strong>right index finger</strong> on the <strong>'L'</strong> key. <br><br> Each trial starts with an instruction, indicating which key ('S'/'L') you need to press to classify <br>the object as mechanical (letter M) or non-mechanical (letter N).<br>The instruction <strong>M + N</strong> indicates that, in the current trial, by pressing the left key ('S') you classify the displayed object as mechanical (M) <br> and by pressing the right key ('L') you classify the object as non-mechanical (N). <br>The instruction <strong>N + M</strong> on the other hand indicates that by pressing the left key ('S') you classify the displayed object as non-mechanical (N) <br> and by pressing the right key ('L') you classify the object as mechanical (M). <br><br>Please press the key corresponding to the correct classification as fast as possible as soon as the object is displayed and try to avoid making mistakes.<br>If you do not respond within a 2 second window, a corresponding feedback will be displayed and the next trial will start.<br> The experiment is divided into multiple blocks to give you the opportunity to take a break after each block. <br>First, you can now practice this task. <br><br>Please place your <strong>LEFT INDEX FINGER</strong> on the 'S' key and your <strong>RIGHT INDEX FINGER</strong> on the 'L' key now. <br><br>Press SPACE to continue.</div>","32","","","","","","","","","","","","","","","","","","","",""
"html-keyboard-response","9","180229","0.0-2.0-1.0","ub98ran9sfnhqvt","instructions","5f3d6ca05772161108bc0e2e","5f60e3c0a3b16e07647b2ff9","5f64c2c68921360280dd33a0","false","1833.1500000003725","<div align=left> You will now have time to practice this task.<br><br>Remember: <br> <br><li>Please place your index fingers on the <strong>'S'</strong> and <strong>'L'</strong> keys <br>to respond as fast and accurately as possible.</li><li>Every picture can be classified as either mechanical or non-mechanical.</li><li>If you do not respond in time or commit an error, you will receive a corresponding feedback. </li><li> Please try to respond as <strong> fast </strong> and as <strong> accurately as possible </strong> .<br><li>To ensure optimal results, please minimize distractions and stay focused. </li><br><br>Press SPACE to continue.</div>","32","","","","","","","","","","","","","","","","","","","",""
"html-keyboard-response","10","180931","0.0-2.0-2.0-0.0","ub98ran9sfnhqvt","practice_no_cue","5f3d6ca05772161108bc0e2e","5f60e3c0a3b16e07647b2ff9","5f64c2c68921360280dd33a0","false","null","<span style=""color: black; font-size: 48px"">N + M</span>","null","","","","resp_prompt","","","","","","","","","","","","","","","",""
"categorize-image","11","182670","0.0-2.0-2.0-1.0","ub98ran9sfnhqvt","practice_no_cue","5f3d6ca05772161108bc0e2e","5f60e3c0a3b16e07647b2ff9","5f64c2c68921360280dd33a0","true","1236.4399999987509","./Stimuli/ImagesPractice/LM143.jpg","76","","","","test","true","N + M","76","","LM","LM143.jpg","forget","old","1","1","start","right","","","",""
"html-keyboard-response","12","183372","0.0-2.0-2.0-0.1","ub98ran9sfnhqvt","practice_no_cue","5f3d6ca05772161108bc0e2e","5f60e3c0a3b16e07647b2ff9","5f64c2c68921360280dd33a0","false","null","<span style=""color: black; font-size: 48px"">N + M</span>","null","","","","resp_prompt","","","","","","","","","","","","","","","",""
"categorize-image","13","184725","0.0-2.0-2.0-1.1","ub98ran9sfnhqvt","practice_no_cue","5f3d6ca05772161108bc0e2e","5f60e3c0a3b16e07647b2ff9","5f64c2c68921360280dd33a0","true","851.0949999999721","./Stimuli/ImagesPractice/LM224.jpg","76","","","","test","true","N + M","76","","LM","LM224.jpg","forget","old","2","1","start","right","","","",""
"html-keyboard-response","14","185426","0.0-2.0-2.0-0.2","ub98ran9sfnhqvt","practice_no_cue","5f3d6ca05772161108bc0e2e","5f60e3c0a3b16e07647b2ff9","5f64c2c68921360280dd33a0","false","null","<span style=""color: black; font-size: 48px"">M + N</span>","null","","","","resp_prompt","","","","","","","","","","","","","","","",""
"categorize-image","15","186636","0.0-2.0-2.0-1.2","ub98ran9sfnhqvt","practice_no_cue","5f3d6ca05772161108bc0e2e","5f60e3c0a3b16e07647b2ff9","5f64c2c68921360280dd33a0","true","707.4700000011944","./Stimuli/ImagesPractice/LM239.jpg","83","","","","test","true","M + N","83","","LM","LM239.jpg","forget","old","3","1","start","left","","","",""
"html-keyboard-response","16","187337","0.0-2.0-2.0-0.3","ub98ran9sfnhqvt","practice_no_cue","5f3d6ca05772161108bc0e2e","5f60e3c0a3b16e07647b2ff9","5f64c2c68921360280dd33a0","false","null","<span style=""color: black; font-size: 48px"">M + N</span>","null","","","","resp_prompt","","","","","","","","","","","","","","","",""
"categorize-image","17","188732","0.0-2.0-2.0-1.3","ub98ran9sfnhqvt","practice_no_cue","5f3d6ca05772161108bc0e2e","5f60e3c0a3b16e07647b2ff9","5f64c2c68921360280dd33a0","true","892.4450000013458","./Stimuli/ImagesPractice/SN75.jpg","83","","","","test","false","M + N","76","","SN","SN75.jpg","remember","old","4","1","start","left","","","",""
"html-keyboard-response","18","189433","0.0-2.0-2.0-0.4","ub98ran9sfnhqvt","practice_no_cue","5f3d6ca05772161108bc0e2e","5f60e3c0a3b16e07647b2ff9","5f64c2c68921360280dd33a0","false","null","<span style=""color: black; font-size: 48px"">N + M</span>","null","","","","resp_prompt","","","","","","","","","","","","","","","",""
"categorize-image","19","191575","0.0-2.0-2.0-1.4","ub98ran9sfnhqvt","practice_no_cue","5f3d6ca05772161108bc0e2e","5f60e3c0a3b16e07647b2ff9","5f64c2c68921360280dd33a0","true","1640.13999999949","./Stimuli/ImagesPractice/SN222.jpg","83","","","","test","true","N + M","83","","SN","SN222.jpg","remember","old","5","1","start","left","","","",""
"html-keyboard-response","20","192276","0.0-2.0-2.0-0.5","ub98ran9sfnhqvt","practice_no_cue","5f3d6ca05772161108bc0e2e","5f60e3c0a3b16e07647b2ff9","5f64c2c68921360280dd33a0","false","null","<span style=""color: black; font-size: 48px"">M + N</span>","null","","","","resp_prompt","","","","","","","","","","","","","","","",""
"categorize-image","21","193899","0.0-2.0-2.0-1.5","ub98ran9sfnhqvt","practice_no_cue","5f3d6ca05772161108bc0e2e","5f60e3c0a3b16e07647b2ff9","5f64c2c68921360280dd33a0","true","1121.2799999993877","./Stimuli/ImagesPractice/LM147.jpg","83","","","","test","true","M + N","83","","LM","LM147.jpg","forget","old","6","1","start","left","","","",""
"html-keyboard-response","22","194601","0.0-2.0-2.0-0.6","ub98ran9sfnhqvt","practice_no_cue","5f3d6ca05772161108bc0e2e","5f60e3c0a3b16e07647b2ff9","5f64c2c68921360280dd33a0","false","null","<span style=""color: black; font-size: 48px"">M + N</span>","null","","","","resp_prompt","","","","","","","","","","","","","","","",""
"categorize-image","23","196083","0.0-2.0-2.0-1.6","ub98ran9sfnhqvt","practice_no_cue","5f3d6ca05772161108bc0e2e","5f60e3c0a3b16e07647b2ff9","5f64c2c68921360280dd33a0","true","979.5250000006345","./Stimuli/ImagesPractice/LN2.jpg","76","","","","test","true","M + N","76","","LN","LN2.jpg","forget","old","7","1","start","right","","","",""
"html-keyboard-response","24","196785","0.0-2.0-2.0-0.7","ub98ran9sfnhqvt","practice_no_cue","5f3d6ca05772161108bc0e2e","5f60e3c0a3b16e07647b2ff9","5f64c2c68921360280dd33a0","false","null","<span style=""color: black; font-size: 48px"">N + M</span>","null","","","","resp_prompt","","","","","","","","","","","","","","","",""
"categorize-image","25","198241","0.0-2.0-2.0-1.7","ub98ran9sfnhqvt","practice_no_cue","5f3d6ca05772161108bc0e2e","5f60e3c0a3b16e07647b2ff9","5f64c2c68921360280dd33a0","true","954.2199999996228","./Stimuli/ImagesPractice/SM37.jpg","76","","","","test","true","N + M","76","","SM","SM37.jpg","forget","old","8","1","start","right","","","",""
"html-keyboard-response","26","198942","0.0-2.0-2.0-0.8","ub98ran9sfnhqvt","practice_no_cue","5f3d6ca05772161108bc0e2e","5f60e3c0a3b16e07647b2ff9","5f64c2c68921360280dd33a0","false","null","<span style=""color: black; font-size: 48px"">M + N</span>","null","","","","resp_prompt","","","","","","","","","","","","","","","",""
"categorize-image","27","200278","0.0-2.0-2.0-1.8","ub98ran9sfnhqvt","practice_no_cue","5f3d6ca05772161108bc0e2e","5f60e3c0a3b16e07647b2ff9","5f64c2c68921360280dd33a0","true","833.4649999997055","./Stimuli/ImagesPractice/SM98.jpg","83","","","","test","true","M + N","83","","SM","SM98.jpg","remember","old","9","1","start","left","","","",""
"html-keyboard-response","28","200979","0.0-2.0-2.0-0.9","ub98ran9sfnhqvt","practice_no_cue","5f3d6ca05772161108bc0e2e","5f60e3c0a3b16e07647b2ff9","5f64c2c68921360280dd33a0","false","null","<span style=""color: black; font-size: 48px"">N + M</span>","null","","","","resp_prompt","","","","","","","","","","","","","","","",""
"categorize-image","29","202349","0.0-2.0-2.0-1.9","ub98ran9sfnhqvt","practice_no_cue","5f3d6ca05772161108bc0e2e","5f60e3c0a3b16e07647b2ff9","5f64c2c68921360280dd33a0","true","867.8850000014936","./Stimuli/ImagesPractice/LN72.jpg","76","","","","test","false","N + M","83","","LN","LN72.jpg","remember","old","10","1","start","right","","","",""
"html-keyboard-response","30","203050","0.0-2.0-2.0-0.10","ub98ran9sfnhqvt","practice_no_cue","5f3d6ca05772161108bc0e2e","5f60e3c0a3b16e07647b2ff9","5f64c2c68921360280dd33a0","false","null","<span style=""color: black; font-size: 48px"">M + N</span>","null","","","","resp_prompt","","","","","","","","","","","","","","","",""
"categorize-image","31","204622","0.0-2.0-2.0-1.10","ub98ran9sfnhqvt","practice_no_cue","5f3d6ca05772161108bc0e2e","5f60e3c0a3b16e07647b2ff9","5f64c2c68921360280dd33a0","true","1069.6899999984598","./Stimuli/ImagesPractice/SM62.jpg","83","","","","test","true","M + N","83","","SM","SM62.jpg","remember","old","11","1","start","left","","","",""
"html-keyboard-response","32","205323","0.0-2.0-2.0-0.11","ub98ran9sfnhqvt","practice_no_cue","5f3d6ca05772161108bc0e2e","5f60e3c0a3b16e07647b2ff9","5f64c2c68921360280dd33a0","false","null","<span style=""color: black; font-size: 48px"">N + M</span>","null","","","","resp_prompt","","","","","","","","","","","","","","","",""
"categorize-image","33","206602","0.0-2.0-2.0-1.11","ub98ran9sfnhqvt","practice_no_cue","5f3d6ca05772161108bc0e2e","5f60e3c0a3b16e07647b2ff9","5f64c2c68921360280dd33a0","true","777.6599999997416","./Stimuli/ImagesPractice/LN17.jpg","83","","","","test","true","N + M","83","","LN","LN17.jpg","forget","old","12","1","start","left","","","",""
"html-keyboard-response","34","207303","0.0-2.0-2.0-0.12","ub98ran9sfnhqvt","practice_no_cue","5f3d6ca05772161108bc0e2e","5f60e3c0a3b16e07647b2ff9","5f64c2c68921360280dd33a0","false","null","<span style=""color: black; font-size: 48px"">N + M</span>","null","","","","resp_prompt","","","","","","","","","","","","","","","",""
"categorize-image","35","208741","0.0-2.0-2.0-1.12","ub98ran9sfnhqvt","practice_no_cue","5f3d6ca05772161108bc0e2e","5f60e3c0a3b16e07647b2ff9","5f64c2c68921360280dd33a0","true","936.0749999996042","./Stimuli/ImagesPractice/SM35.jpg","76","","","","test","true","N + M","76","","SM","SM35.jpg","remember","old","13","1","start","right","","","",""
"html-keyboard-response","36","209442","0.0-2.0-2.0-0.13","ub98ran9sfnhqvt","practice_no_cue","5f3d6ca05772161108bc0e2e","5f60e3c0a3b16e07647b2ff9","5f64c2c68921360280dd33a0","false","null","<span style=""color: black; font-size: 48px"">N + M</span>","null","","","","resp_prompt","","","","","","","","","","","","","","","",""
"categorize-image","37","210665","0.0-2.0-2.0-1.13","ub98ran9sfnhqvt","practice_no_cue","5f3d6ca05772161108bc0e2e","5f60e3c0a3b16e07647b2ff9","5f64c2c68921360280dd33a0","true","720.5999999987544","./Stimuli/ImagesPractice/SN221.jpg","83","","","","test","true","N + M","83","","SN","SN221.jpg","remember","old","14","1","start","left","","","",""
"html-keyboard-response","38","211366","0.0-2.0-2.0-0.14","ub98ran9sfnhqvt","practice_no_cue","5f3d6ca05772161108bc0e2e","5f60e3c0a3b16e07647b2ff9","5f64c2c68921360280dd33a0","false","null","<span style=""color: black; font-size: 48px"">M + N</span>","null","","","","resp_prompt","","","","","","","","","","","","","","","",""
"categorize-image","39","212450","0.0-2.0-2.0-1.14","ub98ran9sfnhqvt","practice_no_cue","5f3d6ca05772161108bc0e2e","5f60e3c0a3b16e07647b2ff9","5f64c2c68921360280dd33a0","true","581.930000000284","./Stimuli/ImagesPractice/SN76.jpg","76","","","","test","true","M + N","76","","SN","SN76.jpg","forget","old","15","1","start","right","","","",""
"html-keyboard-response","40","213151","0.0-2.0-2.0-0.15","ub98ran9sfnhqvt","practice_no_cue","5f3d6ca05772161108bc0e2e","5f60e3c0a3b16e07647b2ff9","5f64c2c68921360280dd33a0","false","null","<span style=""color: black; font-size: 48px"">M + N</span>","null","","","","resp_prompt","","","","","","","","","","","","","","","",""
"categorize-image","41","214609","0.0-2.0-2.0-1.15","ub98ran9sfnhqvt","practice_no_cue","5f3d6ca05772161108bc0e2e","5f60e3c0a3b16e07647b2ff9","5f64c2c68921360280dd33a0","true","955.9950000002573","./Stimuli/ImagesPractice/LM55.jpg","83","","","","test","true","M + N","83","","LM","LM55.jpg","remember","old","16","1","start","left","","","",""
"html-keyboard-response","42","221284","0.0-2.0-3.0","ub98ran9sfnhqvt","break","5f3d6ca05772161108bc0e2e","5f60e3c0a3b16e07647b2ff9","5f64c2c68921360280dd33a0","false","6672.254999999481","<p style='font-size: 32px;'>Break</><br><br><br><br><br><p style='font-size: 24px;'>In the last block, you committed 2 errors and did not respond in time on 0 trials.
</p><p style='font-size: 24px;'>Try to respond as fast and accurately as possible in the next block as well! </p><p style='font-size: 24px;'>Press SPACE to continue.</p>","32","","","","","","","","","","","","","","","","","","","",""
"html-keyboard-response","43","224519","0.0-2.0-4.0","ub98ran9sfnhqvt","instructions","5f3d6ca05772161108bc0e2e","5f60e3c0a3b16e07647b2ff9","5f64c2c68921360280dd33a0","false","3233.729999999923","<div align=left> Great!<br><br>Are you ready to continue?<br><br>If you want to reread the instructions and redo the practice trials, <br>please press „Z“. <br><br>Press SPACE to CONTINUE with the experiment when you are ready. </div>","32","","","","","","","","","","","","","","","","","","","",""
"html-keyboard-response","44","241896","0.0-3.0-0.0","ub98ran9sfnhqvt","instructions","5f3d6ca05772161108bc0e2e","5f60e3c0a3b16e07647b2ff9","5f64c2c68921360280dd33a0","false","17375.029999999242","<div align=left>Great!<br> <strong>Attention</strong>! You will now receive a second, additional task! <br><br>To this point it was you <strong>first task</strong> to correctly <strong>classify objects</strong>. <br><br>As mentioned in the beginning, we aim to examine how well humans can remember previously learned information.<br>We would like to find out whether our memory improves if we only remember information that is relevant to us. <br><br>Therefore, your <strong>second task</strong> will be to <strong>remember</strong> the pictures you are to categorize. <br> After the learning phase, there will be a memory test phase, in which you will be asked to indicate whether you have seen a picture before or not. <br>Some, but not all pictures shown in the learning phase will appear in the memory test phase.<br>After classifying a picture, you will be told whether you should remember it for the memory test phase or not. <br>Thus, some pictures can be forgotten, whereas others have to be remembered. <br><br>Note: From now on, feedback will only be displayed if you responded incorrectly or not in time.<br><br>Press SPACE to continue.</div>","32","","","","","","","","","","","","","","","","","","","",""
"html-keyboard-response","45","247424","0.0-3.0-1.0","ub98ran9sfnhqvt","instructions","5f3d6ca05772161108bc0e2e","5f60e3c0a3b16e07647b2ff9","5f64c2c68921360280dd33a0","false","5526.820000000938","<div align=left>In the following part, you will thus have to remember only some pictures. <br>Immediately after seeing and classifying the picture, a symbol will be displayed, indicating whether you should remember or forget the previous picture. <br><br>A <span style='color: dodgerblue; font-size: 28px'>O</span> indicates REMEMBER. That means, you have to remember this picture, because it will be tested later. <br><br>A <span style='color: darkorange; font-size:28px'>Ø</span> indicates FORGET. You do not have to remember this picture. <br><br> As you will have to remember a lot of pictures, it will be hard for you to remember all of them. <br>It will put you at an advantage if you instantly forget the pictures you are not asked to remember. <br> This will make it easier for you to remember the pictures that will be tested afterwards. <br><br>Press SPACE to continue.</div>","32","","","","","","","","","","","","","","","","","","","",""
"html-keyboard-response","46","251791","0.0-3.0-2.0","ub98ran9sfnhqvt","instructions","5f3d6ca05772161108bc0e2e","5f60e3c0a3b16e07647b2ff9","5f64c2c68921360280dd33a0","false","4365.754999998899","<div align=left> Now you have the chance to practice both tasks together.<br><br>Remember: <br> <br><li>Please place your index fingers on the <strong>'S'</strong> and <strong>'L'</strong> keys <br>to respond as fast and accurately as possible.</li><li>Every picture can be classified as either mechanical or non-mechanical.</li><li>If you do not respond in time or commit an error, you will receive a corresponding feedback. <br>Please try to respond as <strong> fast </strong> and as <strong> accurately as possible </strong>.</li><li> Please remember only the to-be-remembered <span style='color: dodgerblue; font-size: 28px'>O</span> pictures. <br></li><li> Please minimize distractions and stay focused. </li><br><br>Press SPACE to START</div>","32","","","","","","","","","","","","","","","","","","","",""
"html-keyboard-response","47","252493","0.0-3.0-3.0-0.0","ub98ran9sfnhqvt","practice_cue","5f3d6ca05772161108bc0e2e","5f60e3c0a3b16e07647b2ff9","5f64c2c68921360280dd33a0","false","null","<span style=""color: black; font-size: 48px"">M + N</span>","null","","","","resp_prompt","","","","","","","","","","","","","","","",""
"categorize-image","48","253590","0.0-3.0-3.0-1.0","ub98ran9sfnhqvt","practice_cue","5f3d6ca05772161108bc0e2e","5f60e3c0a3b16e07647b2ff9","5f64c2c68921360280dd33a0","true","1093.3750000003492","./Stimuli/ImagesPractice/LN2.jpg","76","","","","test","true","M + N","76","","LN","LN2.jpg","forget","old","17","2","practice_forget","right","","","",""
"html-keyboard-response","49","255592","0.0-3.0-3.0-3.0","ub98ran9sfnhqvt","practice_cue","5f3d6ca05772161108bc0e2e","5f60e3c0a3b16e07647b2ff9","5f64c2c68921360280dd33a0","false","null","<div style=""align-items: center; display: flex; color: darkorange; font-size: 90px""><b>ø</b></div>","null","","","","forget_cue","","","","","","","","","","","","","","","",""
"html-keyboard-response","50","256293","0.0-3.0-3.0-0.1","ub98ran9sfnhqvt","practice_cue","5f3d6ca05772161108bc0e2e","5f60e3c0a3b16e07647b2ff9","5f64c2c68921360280dd33a0","false","null","<span style=""color: black; font-size: 48px"">N + M</span>","null","","","","resp_prompt","","","","","","","","","","","","","","","",""
"categorize-image","51","257092","0.0-3.0-3.0-1.1","ub98ran9sfnhqvt","practice_cue","5f3d6ca05772161108bc0e2e","5f60e3c0a3b16e07647b2ff9","5f64c2c68921360280dd33a0","true","795.734999999695","./Stimuli/ImagesPractice/LM143.jpg","76","","","","test","true","N + M","76","","LM","LM143.jpg","forget","old","18","2","practice_forget","right","","","",""
"html-keyboard-response","52","259094","0.0-3.0-3.0-3.1","ub98ran9sfnhqvt","practice_cue","5f3d6ca05772161108bc0e2e","5f60e3c0a3b16e07647b2ff9","5f64c2c68921360280dd33a0","false","null","<div style=""align-items: center; display: flex; color: darkorange; font-size: 90px""><b>ø</b></div>","null","","","","forget_cue","","","","","","","","","","","","","","","",""
"html-keyboard-response","53","259795","0.0-3.0-3.0-0.2","ub98ran9sfnhqvt","practice_cue","5f3d6ca05772161108bc0e2e","5f60e3c0a3b16e07647b2ff9","5f64c2c68921360280dd33a0","false","null","<span style=""color: black; font-size: 48px"">N + M</span>","null","","","","resp_prompt","","","","","","","","","","","","","","","",""
"categorize-image","54","260787","0.0-3.0-3.0-1.2","ub98ran9sfnhqvt","practice_cue","5f3d6ca05772161108bc0e2e","5f60e3c0a3b16e07647b2ff9","5f64c2c68921360280dd33a0","true","988.6750000005122","./Stimuli/ImagesPractice/SM35.jpg","76","","","","test","true","N + M","76","","SM","SM35.jpg","remember","old","19","2","practice_forget","right","","","",""
"html-keyboard-response","55","262788","0.0-3.0-3.0-3.2","ub98ran9sfnhqvt","practice_cue","5f3d6ca05772161108bc0e2e","5f60e3c0a3b16e07647b2ff9","5f64c2c68921360280dd33a0","false","null","<div style=""align-items: center; display: flex; color: dodgerblue; font-size: 90px""><b>o</b></div>","null","","","","forget_cue","","","","","","","","","","","","","","","",""
"html-keyboard-response","56","263489","0.0-3.0-3.0-0.3","ub98ran9sfnhqvt","practice_cue","5f3d6ca05772161108bc0e2e","5f60e3c0a3b16e07647b2ff9","5f64c2c68921360280dd33a0","false","null","<span style=""color: black; font-size: 48px"">M + N</span>","null","","","","resp_prompt","","","","","","","","","","","","","","","",""
"categorize-image","57","264693","0.0-3.0-3.0-1.3","ub98ran9sfnhqvt","practice_cue","5f3d6ca05772161108bc0e2e","5f60e3c0a3b16e07647b2ff9","5f64c2c68921360280dd33a0","true","1199.6650000000955","./Stimuli/ImagesPractice/SN76.jpg","76","","","","test","true","M + N","76","","SN","SN76.jpg","forget","old","20","2","practice_forget","right","","","",""
"html-keyboard-response","58","266695","0.0-3.0-3.0-3.3","ub98ran9sfnhqvt","practice_cue","5f3d6ca05772161108bc0e2e","5f60e3c0a3b16e07647b2ff9","5f64c2c68921360280dd33a0","false","null","<div style=""align-items: center; display: flex; color: darkorange; font-size: 90px""><b>ø</b></div>","null","","","","forget_cue","","","","","","","","","","","","","","","",""
"html-keyboard-response","59","267396","0.0-3.0-3.0-0.4","ub98ran9sfnhqvt","practice_cue","5f3d6ca05772161108bc0e2e","5f60e3c0a3b16e07647b2ff9","5f64c2c68921360280dd33a0","false","null","<span style=""color: black; font-size: 48px"">M + N</span>","null","","","","resp_prompt","","","","","","","","","","","","","","","",""
"categorize-image","60","268383","0.0-3.0-3.0-1.4","ub98ran9sfnhqvt","practice_cue","5f3d6ca05772161108bc0e2e","5f60e3c0a3b16e07647b2ff9","5f64c2c68921360280dd33a0","true","982.9250000002794","./Stimuli/ImagesPractice/LM239.jpg","76","","","","test","false","M + N","83","","LM","LM239.jpg","forget","old","21","2","practice_forget","right","","","",""
"html-keyboard-response","61","268884","0.0-3.0-3.0-2.4-0.4","ub98ran9sfnhqvt","practice_cue","5f3d6ca05772161108bc0e2e","5f60e3c0a3b16e07647b2ff9","5f64c2c68921360280dd33a0","false","null","<span style=""color: red; font-size: 48px"">Error!</span>","null","","","","feedback","","","","","","","","","","","","","","","",""
"html-keyboard-response","62","270885","0.0-3.0-3.0-3.4","ub98ran9sfnhqvt","practice_cue","5f3d6ca05772161108bc0e2e","5f60e3c0a3b16e07647b2ff9","5f64c2c68921360280dd33a0","false","null","<div style=""align-items: center; display: flex; color: darkorange; font-size: 90px""><b>ø</b></div>","null","","","","forget_cue","","","","","","","","","","","","","","","",""
"html-keyboard-response","63","271586","0.0-3.0-3.0-0.5","ub98ran9sfnhqvt","practice_cue","5f3d6ca05772161108bc0e2e","5f60e3c0a3b16e07647b2ff9","5f64c2c68921360280dd33a0","false","null","<span style=""color: black; font-size: 48px"">N + M</span>","null","","","","resp_prompt","","","","","","","","","","","","","","","",""
"categorize-image","64","272782","0.0-3.0-3.0-1.5","ub98ran9sfnhqvt","practice_cue","5f3d6ca05772161108bc0e2e","5f60e3c0a3b16e07647b2ff9","5f64c2c68921360280dd33a0","true","1192.5799999989686","./Stimuli/ImagesPractice/LN72.jpg","83","","","","test","true","N + M","83","","LN","LN72.jpg","remember","old","22","2","practice_forget","left","","","",""
"html-keyboard-response","65","274784","0.0-3.0-3.0-3.5","ub98ran9sfnhqvt","practice_cue","5f3d6ca05772161108bc0e2e","5f60e3c0a3b16e07647b2ff9","5f64c2c68921360280dd33a0","false","null","<div style=""align-items: center; display: flex; color: dodgerblue; font-size: 90px""><b>o</b></div>","null","","","","forget_cue","","","","","","","","","","","","","","","",""
"html-keyboard-response","66","275485","0.0-3.0-3.0-0.6","ub98ran9sfnhqvt","practice_cue","5f3d6ca05772161108bc0e2e","5f60e3c0a3b16e07647b2ff9","5f64c2c68921360280dd33a0","false","null","<span style=""color: black; font-size: 48px"">N + M</span>","null","","","","resp_prompt","","","","","","","","","","","","","","","",""
"categorize-image","67","276655","0.0-3.0-3.0-1.6","ub98ran9sfnhqvt","practice_cue","5f3d6ca05772161108bc0e2e","5f60e3c0a3b16e07647b2ff9","5f64c2c68921360280dd33a0","true","1166.270000001532","./Stimuli/ImagesPractice/SN222.jpg","83","","","","test","true","N + M","83","","SN","SN222.jpg","remember","old","23","2","practice_forget","left","","","",""
"html-keyboard-response","68","278656","0.0-3.0-3.0-3.6","ub98ran9sfnhqvt","practice_cue","5f3d6ca05772161108bc0e2e","5f60e3c0a3b16e07647b2ff9","5f64c2c68921360280dd33a0","false","null","<div style=""align-items: center; display: flex; color: dodgerblue; font-size: 90px""><b>o</b></div>","null","","","","forget_cue","","","","","","","","","","","","","","","",""
"html-keyboard-response","69","279357","0.0-3.0-3.0-0.7","ub98ran9sfnhqvt","practice_cue","5f3d6ca05772161108bc0e2e","5f60e3c0a3b16e07647b2ff9","5f64c2c68921360280dd33a0","false","null","<span style=""color: black; font-size: 48px"">M + N</span>","null","","","","resp_prompt","","","","","","","","","","","","","","","",""
"categorize-image","70","280247","0.0-3.0-3.0-1.7","ub98ran9sfnhqvt","practice_cue","5f3d6ca05772161108bc0e2e","5f60e3c0a3b16e07647b2ff9","5f64c2c68921360280dd33a0","true","886.5650000007008","./Stimuli/ImagesPractice/SN75.jpg","76","","","","test","true","M + N","76","","SN","SN75.jpg","remember","old","24","2","practice_forget","right","","","",""
"html-keyboard-response","71","282249","0.0-3.0-3.0-3.7","ub98ran9sfnhqvt","practice_cue","5f3d6ca05772161108bc0e2e","5f60e3c0a3b16e07647b2ff9","5f64c2c68921360280dd33a0","false","null","<div style=""align-items: center; display: flex; color: dodgerblue; font-size: 90px""><b>o</b></div>","null","","","","forget_cue","","","","","","","","","","","","","","","",""
"html-keyboard-response","72","282950","0.0-3.0-3.0-0.8","ub98ran9sfnhqvt","practice_cue","5f3d6ca05772161108bc0e2e","5f60e3c0a3b16e07647b2ff9","5f64c2c68921360280dd33a0","false","null","<span style=""color: black; font-size: 48px"">M + N</span>","null","","","","resp_prompt","","","","","","","","","","","","","","","",""
"categorize-image","73","283589","0.0-3.0-3.0-1.8","ub98ran9sfnhqvt","practice_cue","5f3d6ca05772161108bc0e2e","5f60e3c0a3b16e07647b2ff9","5f64c2c68921360280dd33a0","true","635.0450000027195","./Stimuli/ImagesPractice/LM55.jpg","83","","","","test","true","M + N","83","","LM","LM55.jpg","remember","old","25","2","practice_forget","left","","","",""
"html-keyboard-response","74","285590","0.0-3.0-3.0-3.8","ub98ran9sfnhqvt","practice_cue","5f3d6ca05772161108bc0e2e","5f60e3c0a3b16e07647b2ff9","5f64c2c68921360280dd33a0","false","null","<div style=""align-items: center; display: flex; color: dodgerblue; font-size: 90px""><b>o</b></div>","null","","","","forget_cue","","","","","","","","","","","","","","","",""
"html-keyboard-response","75","286291","0.0-3.0-3.0-0.9","ub98ran9sfnhqvt","practice_cue","5f3d6ca05772161108bc0e2e","5f60e3c0a3b16e07647b2ff9","5f64c2c68921360280dd33a0","false","null","<span style=""color: black; font-size: 48px"">N + M</span>","null","","","","resp_prompt","","","","","","","","","","","","","","","",""
"categorize-image","76","287059","0.0-3.0-3.0-1.9","ub98ran9sfnhqvt","practice_cue","5f3d6ca05772161108bc0e2e","5f60e3c0a3b16e07647b2ff9","5f64c2c68921360280dd33a0","true","763.9899999994668","./Stimuli/ImagesPractice/LM224.jpg","83","","","","test","false","N + M","76","","LM","LM224.jpg","forget","old","26","2","practice_forget","left","","","",""
"html-keyboard-response","77","287560","0.0-3.0-3.0-2.9-0.9","ub98ran9sfnhqvt","practice_cue","5f3d6ca05772161108bc0e2e","5f60e3c0a3b16e07647b2ff9","5f64c2c68921360280dd33a0","false","null","<span style=""color: red; font-size: 48px"">Error!</span>","null","","","","feedback","","","","","","","","","","","","","","","",""
"html-keyboard-response","78","289563","0.0-3.0-3.0-3.9","ub98ran9sfnhqvt","practice_cue","5f3d6ca05772161108bc0e2e","5f60e3c0a3b16e07647b2ff9","5f64c2c68921360280dd33a0","false","null","<div style=""align-items: center; display: flex; color: darkorange; font-size: 90px""><b>ø</b></div>","null","","","","forget_cue","","","","","","","","","","","","","","","",""
"html-keyboard-response","79","290264","0.0-3.0-3.0-0.10","ub98ran9sfnhqvt","practice_cue","5f3d6ca05772161108bc0e2e","5f60e3c0a3b16e07647b2ff9","5f64c2c68921360280dd33a0","false","null","<span style=""color: black; font-size: 48px"">M + N</span>","null","","","","resp_prompt","","","","","","","","","","","","","","","",""
"categorize-image","80","291469","0.0-3.0-3.0-1.10","ub98ran9sfnhqvt","practice_cue","5f3d6ca05772161108bc0e2e","5f60e3c0a3b16e07647b2ff9","5f64c2c68921360280dd33a0","true","1200.3900000017602","./Stimuli/ImagesPractice/SM62.jpg","83","","","","test","true","M + N","83","","SM","SM62.jpg","remember","old","27","2","practice_forget","left","","","",""
"html-keyboard-response","81","293470","0.0-3.0-3.0-3.10","ub98ran9sfnhqvt","practice_cue","5f3d6ca05772161108bc0e2e","5f60e3c0a3b16e07647b2ff9","5f64c2c68921360280dd33a0","false","null","<div style=""align-items: center; display: flex; color: dodgerblue; font-size: 90px""><b>o</b></div>","null","","","","forget_cue","","","","","","","","","","","","","","","",""
"html-keyboard-response","82","294171","0.0-3.0-3.0-0.11","ub98ran9sfnhqvt","practice_cue","5f3d6ca05772161108bc0e2e","5f60e3c0a3b16e07647b2ff9","5f64c2c68921360280dd33a0","false","null","<span style=""color: black; font-size: 48px"">N + M</span>","null","","","","resp_prompt","","","","","","","","","","","","","","","",""
"categorize-image","83","294869","0.0-3.0-3.0-1.11","ub98ran9sfnhqvt","practice_cue","5f3d6ca05772161108bc0e2e","5f60e3c0a3b16e07647b2ff9","5f64c2c68921360280dd33a0","true","694.9000000022352","./Stimuli/ImagesPractice/SM37.jpg","76","","","","test","true","N + M","76","","SM","SM37.jpg","forget","old","28","2","practice_forget","right","","","",""
"html-keyboard-response","84","296870","0.0-3.0-3.0-3.11","ub98ran9sfnhqvt","practice_cue","5f3d6ca05772161108bc0e2e","5f60e3c0a3b16e07647b2ff9","5f64c2c68921360280dd33a0","false","null","<div style=""align-items: center; display: flex; color: darkorange; font-size: 90px""><b>ø</b></div>","null","","","","forget_cue","","","","","","","","","","","","","","","",""
"html-keyboard-response","85","297572","0.0-3.0-3.0-0.12","ub98ran9sfnhqvt","practice_cue","5f3d6ca05772161108bc0e2e","5f60e3c0a3b16e07647b2ff9","5f64c2c68921360280dd33a0","false","null","<span style=""color: black; font-size: 48px"">N + M</span>","null","","","","resp_prompt","","","","","","","","","","","","","","","",""
"categorize-image","86","298515","0.0-3.0-3.0-1.12","ub98ran9sfnhqvt","practice_cue","5f3d6ca05772161108bc0e2e","5f60e3c0a3b16e07647b2ff9","5f64c2c68921360280dd33a0","true","940.6999999991967","./Stimuli/ImagesPractice/LN17.jpg","83","","","","test","true","N + M","83","","LN","LN17.jpg","forget","old","29","2","practice_forget","left","","","",""
"html-keyboard-response","87","300517","0.0-3.0-3.0-3.12","ub98ran9sfnhqvt","practice_cue","5f3d6ca05772161108bc0e2e","5f60e3c0a3b16e07647b2ff9","5f64c2c68921360280dd33a0","false","null","<div style=""align-items: center; display: flex; color: darkorange; font-size: 90px""><b>ø</b></div>","null","","","","forget_cue","","","","","","","","","","","","","","","",""
"html-keyboard-response","88","301218","0.0-3.0-3.0-0.13","ub98ran9sfnhqvt","practice_cue","5f3d6ca05772161108bc0e2e","5f60e3c0a3b16e07647b2ff9","5f64c2c68921360280dd33a0","false","null","<span style=""color: black; font-size: 48px"">M + N</span>","null","","","","resp_prompt","","","","","","","","","","","","","","","",""
"categorize-image","89","302106","0.0-3.0-3.0-1.13","ub98ran9sfnhqvt","practice_cue","5f3d6ca05772161108bc0e2e","5f60e3c0a3b16e07647b2ff9","5f64c2c68921360280dd33a0","true","883.9049999987474","./Stimuli/ImagesPractice/SM98.jpg","83","","","","test","true","M + N","83","","SM","SM98.jpg","remember","old","30","2","practice_forget","left","","","",""
"html-keyboard-response","90","304107","0.0-3.0-3.0-3.13","ub98ran9sfnhqvt","practice_cue","5f3d6ca05772161108bc0e2e","5f60e3c0a3b16e07647b2ff9","5f64c2c68921360280dd33a0","false","null","<div style=""align-items: center; display: flex; color: dodgerblue; font-size: 90px""><b>o</b></div>","null","","","","forget_cue","","","","","","","","","","","","","","","",""
"html-keyboard-response","91","304808","0.0-3.0-3.0-0.14","ub98ran9sfnhqvt","practice_cue","5f3d6ca05772161108bc0e2e","5f60e3c0a3b16e07647b2ff9","5f64c2c68921360280dd33a0","false","null","<span style=""color: black; font-size: 48px"">M + N</span>","null","","","","resp_prompt","","","","","","","","","","","","","","","",""
"categorize-image","92","305652","0.0-3.0-3.0-1.14","ub98ran9sfnhqvt","practice_cue","5f3d6ca05772161108bc0e2e","5f60e3c0a3b16e07647b2ff9","5f64c2c68921360280dd33a0","true","840.3400000024703","./Stimuli/ImagesPractice/LM147.jpg","83","","","","test","true","M + N","83","","LM","LM147.jpg","forget","old","31","2","practice_forget","left","","","",""
"html-keyboard-response","93","307654","0.0-3.0-3.0-3.14","ub98ran9sfnhqvt","practice_cue","5f3d6ca05772161108bc0e2e","5f60e3c0a3b16e07647b2ff9","5f64c2c68921360280dd33a0","false","null","<div style=""align-items: center; display: flex; color: darkorange; font-size: 90px""><b>ø</b></div>","null","","","","forget_cue","","","","","","","","","","","","","","","",""
"html-keyboard-response","94","308355","0.0-3.0-3.0-0.15","ub98ran9sfnhqvt","practice_cue","5f3d6ca05772161108bc0e2e","5f60e3c0a3b16e07647b2ff9","5f64c2c68921360280dd33a0","false","null","<span style=""color: black; font-size: 48px"">N + M</span>","null","","","","resp_prompt","","","","","","","","","","","","","","","",""
"categorize-image","95","309682","0.0-3.0-3.0-1.15","ub98ran9sfnhqvt","practice_cue","5f3d6ca05772161108bc0e2e","5f60e3c0a3b16e07647b2ff9","5f64c2c68921360280dd33a0","true","1323.7449999978417","./Stimuli/ImagesPractice/SN221.jpg","83","","","","test","true","N + M","83","","SN","SN221.jpg","remember","old","32","2","practice_forget","left","","","",""
"html-keyboard-response","96","311683","0.0-3.0-3.0-3.15","ub98ran9sfnhqvt","practice_cue","5f3d6ca05772161108bc0e2e","5f60e3c0a3b16e07647b2ff9","5f64c2c68921360280dd33a0","false","null","<div style=""align-items: center; display: flex; color: dodgerblue; font-size: 90px""><b>o</b></div>","null","","","","forget_cue","","","","","","","","","","","","","","","",""
"html-keyboard-response","97","320506","0.0-3.0-4.0","ub98ran9sfnhqvt","break","5f3d6ca05772161108bc0e2e","5f60e3c0a3b16e07647b2ff9","5f64c2c68921360280dd33a0","false","8820.059999998193","<p style='font-size: 32px;'>Break</><br><br><br><br><br><p style='font-size: 24px;'>In the last block, you committed 2 errors and did not respond in time on 0 trials.
</p><p style='font-size: 24px;'>Try to respond as fast and accurately as possible in the next block as well! </p><p style='font-size: 24px;'>Press SPACE to continue.</p>","32","","","","","","","","","","","","","","","","","","","",""
"html-keyboard-response","98","331058","0.0-3.0-5.0","ub98ran9sfnhqvt","instructions","5f3d6ca05772161108bc0e2e","5f60e3c0a3b16e07647b2ff9","5f64c2c68921360280dd33a0","false","10550.684999998368","<div align=left> Now, to practice, we kindly ask you to remember as many of the to-be-remembered pictures<br>of the previous learning phase as possible.<br><br>The pictures you were instructed to remember were the pictures followed by a <span style='color: dodgerblue; font-size: 28px'>O</span>.<br><br>In this memory test phase, you will also see some new pictures.<br>It is your task to remember whether you were presented with this specific picture in this study so far or not.<br>If you recognize an object (you have already seen it in this study), it is an OLD object. <br>If you do not recognize an object (you have NOT seen it in this study), it is a NEW object. <br><strong> Attention</strong>: As already mentioned, <span style='color: darkorange; font-size:28px'>Ø</span>-pictures will <strong>never</strong> appear in this memory test (neither as new objects). <br><br>Press SPACE to continue. </div>","32","","","","","","","","","","","","","","","","","","","",""
"html-keyboard-response","99","338212","0.0-3.0-6.0","ub98ran9sfnhqvt","instructions","5f3d6ca05772161108bc0e2e","5f60e3c0a3b16e07647b2ff9","5f64c2c68921360280dd33a0","false","7152.30000000156","<div align=left> M and N no longer will appear on the left/right of the fixation cross. <br>Instead there will be a note at the bottom of the left or right side  <br>indicating which key you should press for an old or new object:  <br> <br>Press the <strong>right</strong> key to classify an object as <strong>old</strong> and press the <strong>left</strong>, to classify an object as <strong>new</strong>.<br>Please classify the objects as new/old by again placing your index finger on the 'S' and 'L' keys <br>and press them accordingly.<br><br><strong>Old:</strong> This object has been presented before. <br><strong>New:</strong> This object has <strong>not</strong> been presented.<br><br>Now please put your right and left index fingers on the 'S' and 'L' keys of your keyboard. <br>Please respond as fast and as accurately as possible!<br><br>Press SPACE to continue. </div>","32","","","","","","","","","","","","","","","","","","","",""
"categorize-image","100","340733","0.0-3.0-7.0-0.0","ub98ran9sfnhqvt","practice_recog","5f3d6ca05772161108bc0e2e","5f60e3c0a3b16e07647b2ff9","5f64c2c68921360280dd33a0","true","2019.0499999989406","./Stimuli/ImagesPractice/LN15.jpg","76","","","","test","true","","76","","LN","LN15.jpg","","new","33","3","practice_recog","right","","","",""
"categorize-image","101","342212","0.0-3.0-7.0-0.1","ub98ran9sfnhqvt","practice_recog","5f3d6ca05772161108bc0e2e","5f60e3c0a3b16e07647b2ff9","5f64c2c68921360280dd33a0","true","976.5999999981141","./Stimuli/ImagesPractice/SM62.jpg","83","","","","test","true","","83","","SM","SM62.jpg","","old","34","3","practice_recog","left","","","",""
"categorize-image","102","343437","0.0-3.0-7.0-0.2","ub98ran9sfnhqvt","practice_recog","5f3d6ca05772161108bc0e2e","5f60e3c0a3b16e07647b2ff9","5f64c2c68921360280dd33a0","true","722.590000001248","./Stimuli/ImagesPractice/SN205.jpg","76","","","","test","true","","76","","SN","SN205.jpg","","new","35","3","practice_recog","right","","","",""
"categorize-image","103","344743","0.0-3.0-7.0-0.3","ub98ran9sfnhqvt","practice_recog","5f3d6ca05772161108bc0e2e","5f60e3c0a3b16e07647b2ff9","5f64c2c68921360280dd33a0","true","804.4149999986985","./Stimuli/ImagesPractice/LM230.jpg","76","","","","test","true","","76","","LM","LM230.jpg","","new","36","3","practice_recog","right","","","",""
"categorize-image","104","346178","0.0-3.0-7.0-0.4","ub98ran9sfnhqvt","practice_recog","5f3d6ca05772161108bc0e2e","5f60e3c0a3b16e07647b2ff9","5f64c2c68921360280dd33a0","true","932.4300000007497","./Stimuli/ImagesPractice/LM55.jpg","83","","","","test","true","","83","","LM","LM55.jpg","","old","37","3","practice_recog","left","","","",""
"categorize-image","105","347451","0.0-3.0-7.0-0.5","ub98ran9sfnhqvt","practice_recog","5f3d6ca05772161108bc0e2e","5f60e3c0a3b16e07647b2ff9","5f64c2c68921360280dd33a0","true","770.2700000008917","./Stimuli/ImagesPractice/LN4.jpg","76","","","","test","true","","76","","LN","LN4.jpg","","new","38","3","practice_recog","right","","","",""
"categorize-image","106","348848","0.0-3.0-7.0-0.6","ub98ran9sfnhqvt","practice_recog","5f3d6ca05772161108bc0e2e","5f60e3c0a3b16e07647b2ff9","5f64c2c68921360280dd33a0","true","894.895000001241","./Stimuli/ImagesPractice/LN72.jpg","83","","","","test","true","","83","","LN","LN72.jpg","","old","39","3","practice_recog","left","","","",""
"categorize-image","107","350156","0.0-3.0-7.0-0.7","ub98ran9sfnhqvt","practice_recog","5f3d6ca05772161108bc0e2e","5f60e3c0a3b16e07647b2ff9","5f64c2c68921360280dd33a0","true","806.0149999982677","./Stimuli/ImagesPractice/SN221.jpg","83","","","","test","true","","83","","SN","SN221.jpg","","old","40","3","practice_recog","left","","","",""
"categorize-image","108","351362","0.0-3.0-7.0-0.8","ub98ran9sfnhqvt","practice_recog","5f3d6ca05772161108bc0e2e","5f60e3c0a3b16e07647b2ff9","5f64c2c68921360280dd33a0","true","704.330000000482","./Stimuli/ImagesPractice/SM98.jpg","83","","","","test","true","","83","","SM","SM98.jpg","","old","41","3","practice_recog","left","","","",""
"categorize-image","109","352549","0.0-3.0-7.0-0.9","ub98ran9sfnhqvt","practice_recog","5f3d6ca05772161108bc0e2e","5f60e3c0a3b16e07647b2ff9","5f64c2c68921360280dd33a0","true","685.5649999997695","./Stimuli/ImagesPractice/SN220.jpg","76","","","","test","true","","76","","SN","SN220.jpg","","new","42","3","practice_recog","right","","","",""
"categorize-image","110","353756","0.0-3.0-7.0-0.10","ub98ran9sfnhqvt","practice_recog","5f3d6ca05772161108bc0e2e","5f60e3c0a3b16e07647b2ff9","5f64c2c68921360280dd33a0","true","704.4649999988615","./Stimuli/ImagesPractice/SN222.jpg","83","","","","test","true","","83","","SN","SN222.jpg","","old","43","3","practice_recog","left","","","",""
"categorize-image","111","355593","0.0-3.0-7.0-0.11","ub98ran9sfnhqvt","practice_recog","5f3d6ca05772161108bc0e2e","5f60e3c0a3b16e07647b2ff9","5f64c2c68921360280dd33a0","true","1334.644999999029","./Stimuli/ImagesPractice/SM97.jpg","76","","","","test","true","","76","","SM","SM97.jpg","","new","44","3","practice_recog","right","","","",""
"categorize-image","112","356941","0.0-3.0-7.0-0.12","ub98ran9sfnhqvt","practice_recog","5f3d6ca05772161108bc0e2e","5f60e3c0a3b16e07647b2ff9","5f64c2c68921360280dd33a0","true","846.4099999982864","./Stimuli/ImagesPractice/LN109.jpg","83","","","","test","false","","76","","LN","LN109.jpg","","new","45","3","practice_recog","left","","","",""
"categorize-image","113","358682","0.0-3.0-7.0-0.13","ub98ran9sfnhqvt","practice_recog","5f3d6ca05772161108bc0e2e","5f60e3c0a3b16e07647b2ff9","5f64c2c68921360280dd33a0","true","1239.0549999981886","./Stimuli/ImagesPractice/SN75.jpg","83","","","","test","true","","83","","SN","SN75.jpg","","old","46","3","practice_recog","left","","","",""
"categorize-image","114","360650","0.0-3.0-7.0-0.14","ub98ran9sfnhqvt","practice_recog","5f3d6ca05772161108bc0e2e","5f60e3c0a3b16e07647b2ff9","5f64c2c68921360280dd33a0","true","1465.7650000008289","./Stimuli/ImagesPractice/SM61.jpg","76","","","","test","true","","76","","SM","SM61.jpg","","new","47","3","practice_recog","right","","","",""
"categorize-image","115","362269","0.0-3.0-7.0-0.15","ub98ran9sfnhqvt","practice_recog","5f3d6ca05772161108bc0e2e","5f60e3c0a3b16e07647b2ff9","5f64c2c68921360280dd33a0","true","1117.0449999990524","./Stimuli/ImagesPractice/SM35.jpg","83","","","","test","true","","83","","SM","SM35.jpg","","old","48","3","practice_recog","left","","","",""
"html-keyboard-response","116","365537","0.0-3.0-8.0","ub98ran9sfnhqvt","instructions","5f3d6ca05772161108bc0e2e","5f60e3c0a3b16e07647b2ff9","5f64c2c68921360280dd33a0","false","3266.8850000008824","<div align=left> Great!<br><br>Are you ready to continue?<br>If you want to reread the instructions and redo the practice trials, please <br>press „Z“.<br><br>You can proceed when you are ready.<br><br>After the presentation of each object, you will receive an instruction whether to <br>remember or to forget the object.<br>We will test your memory of the following pictures only at the very end of <br>the experiment after all learning blocks are completed. <br><br>Press SPACE to CONTINUE when you are ready. </div>","32","","","","","","","","","","","","","","","","","","","",""
"html-keyboard-response","117","369303","0.0-4.0-0.0","ub98ran9sfnhqvt","instructions","5f3d6ca05772161108bc0e2e","5f60e3c0a3b16e07647b2ff9","5f64c2c68921360280dd33a0","false","3764.8599999993457","<div align=left> The actual experiment is about to start.<br>The practice trials are over!<br><br>Please always respond both fast and accurately!<br><br>Remember: <br> <br><li> Please place your index fingers on the <strong>'S'</strong> and <strong>'L'</strong> keys <br>to respond as fast and accurately as possible.</li><li> Every picture can be classified as either mechanical or non-mechanical.</li><li> If you do not respond in time or commit an error, you will receive a corresponding feedback.<br> Please try to respond as <strong> fast </strong> and as <strong> accurately as possible </strong>.</li><li> Remember the <span style='color: dodgerblue; font-size: 28px'>O</span> pictures. <br></li><li> Please minimize distractions and stay focused. </li><br><br>Press SPACE to START.</div>","32","","","","","","","","","","","","","","","","","","","",""
"html-keyboard-response","118","370005","0.0-4.0-1.0-0.0","ub98ran9sfnhqvt","prime","5f3d6ca05772161108bc0e2e","5f60e3c0a3b16e07647b2ff9","5f64c2c68921360280dd33a0","false","null","<span style=""color: black; font-size: 48px"">N + M</span>","null","","","","resp_prompt","","","","","","","","","","","","","","","",""
"categorize-image","119","371072","0.0-4.0-1.0-1.0","ub98ran9sfnhqvt","prime","5f3d6ca05772161108bc0e2e","5f60e3c0a3b16e07647b2ff9","5f64c2c68921360280dd33a0","true","1063.0950000013108","./Stimuli/SelectedImages/SN/SN181.bmp","83","","","","test","true","N + M","83","repetition","SN","SN181.bmp","forget","","49","3","prime1","left","","","",""
"html-keyboard-response","120","373073","0.0-4.0-1.0-3.0","ub98ran9sfnhqvt","prime","5f3d6ca05772161108bc0e2e","5f60e3c0a3b16e07647b2ff9","5f64c2c68921360280dd33a0","false","null","<div style=""align-items: center; display: flex; color: darkorange; font-size: 90px""><b>ø</b></div>","null","","","","forget_cue","","","","","","","","","","","","","","","",""
"html-keyboard-response","121","373774","0.0-4.0-1.0-0.1","ub98ran9sfnhqvt","prime","5f3d6ca05772161108bc0e2e","5f60e3c0a3b16e07647b2ff9","5f64c2c68921360280dd33a0","false","null","<span style=""color: black; font-size: 48px"">N + M</span>","null","","","","resp_prompt","","","","","","","","","","","","","","","",""
"categorize-image","122","374730","0.0-4.0-1.0-1.1","ub98ran9sfnhqvt","prime","5f3d6ca05772161108bc0e2e","5f60e3c0a3b16e07647b2ff9","5f64c2c68921360280dd33a0","true","952.1550000026473","./Stimuli/SelectedImages/LM/LM59.bmp","76","","","","test","true","N + M","76","switch","LM","LM59.bmp","forget","","50","3","prime1","right","","","",""
"html-keyboard-response","123","376731","0.0-4.0-1.0-3.1","ub98ran9sfnhqvt","prime","5f3d6ca05772161108bc0e2e","5f60e3c0a3b16e07647b2ff9","5f64c2c68921360280dd33a0","false","null","<div style=""align-items: center; display: flex; color: darkorange; font-size: 90px""><b>ø</b></div>","null","","","","forget_cue","","","","","","","","","","","","","","","",""
"html-keyboard-response","124","377432","0.0-4.0-1.0-0.2","ub98ran9sfnhqvt","prime","5f3d6ca05772161108bc0e2e","5f60e3c0a3b16e07647b2ff9","5f64c2c68921360280dd33a0","false","null","<span style=""color: black; font-size: 48px"">M + N</span>","null","","","","resp_prompt","","","","","","","","","","","","","","","",""
"categorize-image","125","378311","0.0-4.0-1.0-1.2","ub98ran9sfnhqvt","prime","5f3d6ca05772161108bc0e2e","5f60e3c0a3b16e07647b2ff9","5f64c2c68921360280dd33a0","true","874.8750000013388","./Stimuli/SelectedImages/SM/SM73.bmp","83","","","","test","true","M + N","83","repetition","SM","SM73.bmp","forget","","51","3","prime1","left","","","",""
"html-keyboard-response","126","380312","0.0-4.0-1.0-3.2","ub98ran9sfnhqvt","prime","5f3d6ca05772161108bc0e2e","5f60e3c0a3b16e07647b2ff9","5f64c2c68921360280dd33a0","false","null","<div style=""align-items: center; display: flex; color: darkorange; font-size: 90px""><b>ø</b></div>","null","","","","forget_cue","","","","","","","","","","","","","","","",""
"html-keyboard-response","127","381013","0.0-4.0-1.0-0.3","ub98ran9sfnhqvt","prime","5f3d6ca05772161108bc0e2e","5f60e3c0a3b16e07647b2ff9","5f64c2c68921360280dd33a0","false","null","<span style=""color: black; font-size: 48px"">N + M</span>","null","","","","resp_prompt","","","","","","","","","","","","","","","",""
"categorize-image","128","381756","0.0-4.0-1.0-1.3","ub98ran9sfnhqvt","prime","5f3d6ca05772161108bc0e2e","5f60e3c0a3b16e07647b2ff9","5f64c2c68921360280dd33a0","true","739.2849999996834","./Stimuli/SelectedImages/SN/SN182.bmp","83","","","","test","true","N + M","83","switch","SN","SN182.bmp","forget","","52","3","prime1","left","","","",""
"html-keyboard-response","129","383757","0.0-4.0-1.0-3.3","ub98ran9sfnhqvt","prime","5f3d6ca05772161108bc0e2e","5f60e3c0a3b16e07647b2ff9","5f64c2c68921360280dd33a0","false","null","<div style=""align-items: center; display: flex; color: darkorange; font-size: 90px""><b>ø</b></div>","null","","","","forget_cue","","","","","","","","","","","","","","","",""
"html-keyboard-response","130","384459","0.0-4.0-1.0-0.4","ub98ran9sfnhqvt","prime","5f3d6ca05772161108bc0e2e","5f60e3c0a3b16e07647b2ff9","5f64c2c68921360280dd33a0","false","null","<span style=""color: black; font-size: 48px"">M + N</span>","null","","","","resp_prompt","","","","","","","","","","","","","","","",""
"categorize-image","131","386231","0.0-4.0-1.0-1.4","ub98ran9sfnhqvt","prime","5f3d6ca05772161108bc0e2e","5f60e3c0a3b16e07647b2ff9","5f64c2c68921360280dd33a0","true","1769.1850000010454","./Stimuli/SelectedImages/LN/LN12.bmp","76","","","","test","true","M + N","76","switch","LN","LN12.bmp","remember","","53","3","prime1","right","","","",""
"html-keyboard-response","132","388233","0.0-4.0-1.0-3.4","ub98ran9sfnhqvt","prime","5f3d6ca05772161108bc0e2e","5f60e3c0a3b16e07647b2ff9","5f64c2c68921360280dd33a0","false","null","<div style=""align-items: center; display: flex; color: dodgerblue; font-size: 90px""><b>o</b></div>","null","","","","forget_cue","","","","","","","","","","","","","","","",""
"html-keyboard-response","133","388934","0.0-4.0-1.0-0.5","ub98ran9sfnhqvt","prime","5f3d6ca05772161108bc0e2e","5f60e3c0a3b16e07647b2ff9","5f64c2c68921360280dd33a0","false","null","<span style=""color: black; font-size: 48px"">N + M</span>","null","","","","resp_prompt","","","","","","","","","","","","","","","",""
"categorize-image","134","389551","0.0-4.0-1.0-1.5","ub98ran9sfnhqvt","prime","5f3d6ca05772161108bc0e2e","5f60e3c0a3b16e07647b2ff9","5f64c2c68921360280dd33a0","true","613.6149999983609","./Stimuli/SelectedImages/LM/LM51.bmp","76","","","","test","true","N + M","76","repetition","LM","LM51.bmp","forget","","54","3","prime1","right","","","",""
"html-keyboard-response","135","391552","0.0-4.0-1.0-3.5","ub98ran9sfnhqvt","prime","5f3d6ca05772161108bc0e2e","5f60e3c0a3b16e07647b2ff9","5f64c2c68921360280dd33a0","false","null","<div style=""align-items: center; display: flex; color: darkorange; font-size: 90px""><b>ø</b></div>","null","","","","forget_cue","","","","","","","","","","","","","","","",""
"html-keyboard-response","136","392253","0.0-4.0-1.0-0.6","ub98ran9sfnhqvt","prime","5f3d6ca05772161108bc0e2e","5f60e3c0a3b16e07647b2ff9","5f64c2c68921360280dd33a0","false","null","<span style=""color: black; font-size: 48px"">M + N</span>","null","","","","resp_prompt","","","","","","","","","","","","","","","",""
"categorize-image","137","394260","0.0-4.0-1.0-1.6","ub98ran9sfnhqvt","prime","5f3d6ca05772161108bc0e2e","5f60e3c0a3b16e07647b2ff9","5f64c2c68921360280dd33a0","true","null","./Stimuli/SelectedImages/SN/SN187.bmp","null","","","","test","false","M + N","76","repetition","SN","SN187.bmp","forget","","55","3","prime1","too_slow","","","",""
"html-keyboard-response","138","394761","0.0-4.0-1.0-2.6-0.6","ub98ran9sfnhqvt","prime","5f3d6ca05772161108bc0e2e","5f60e3c0a3b16e07647b2ff9","5f64c2c68921360280dd33a0","false","null","<span style=""color: red; font-size: 48px"">Too slow!</span>","null","","","","feedback","","","","","","","","","","","","","","","",""
"html-keyboard-response","139","396762","0.0-4.0-1.0-3.6","ub98ran9sfnhqvt","prime","5f3d6ca05772161108bc0e2e","5f60e3c0a3b16e07647b2ff9","5f64c2c68921360280dd33a0","false","null","<div style=""align-items: center; display: flex; color: darkorange; font-size: 90px""><b>ø</b></div>","null","","","","forget_cue","","","","","","","","","","","","","","","",""
"html-keyboard-response","140","397463","0.0-4.0-1.0-0.7","ub98ran9sfnhqvt","prime","5f3d6ca05772161108bc0e2e","5f60e3c0a3b16e07647b2ff9","5f64c2c68921360280dd33a0","false","null","<span style=""color: black; font-size: 48px"">N + M</span>","null","","","","resp_prompt","","","","","","","","","","","","","","","",""
"categorize-image","141","398264","0.0-4.0-1.0-1.7","ub98ran9sfnhqvt","prime","5f3d6ca05772161108bc0e2e","5f60e3c0a3b16e07647b2ff9","5f64c2c68921360280dd33a0","true","796.9950000006356","./Stimuli/SelectedImages/LM/LM100.bmp","83","","","","test","false","N + M","76","repetition","LM","LM100.bmp","remember","","56","3","prime1","left","","","",""
"html-keyboard-response","142","398766","0.0-4.0-1.0-2.7-0.7","ub98ran9sfnhqvt","prime","5f3d6ca05772161108bc0e2e","5f60e3c0a3b16e07647b2ff9","5f64c2c68921360280dd33a0","false","null","<span style=""color: red; font-size: 48px"">Error!</span>","null","","","","feedback","","","","","","","","","","","","","","","",""
"html-keyboard-response","143","400767","0.0-4.0-1.0-3.7","ub98ran9sfnhqvt","prime","5f3d6ca05772161108bc0e2e","5f60e3c0a3b16e07647b2ff9","5f64c2c68921360280dd33a0","false","null","<div style=""align-items: center; display: flex; color: dodgerblue; font-size: 90px""><b>o</b></div>","null","","","","forget_cue","","","","","","","","","","","","","","","",""
"html-keyboard-response","144","401468","0.0-4.0-1.0-0.8","ub98ran9sfnhqvt","prime","5f3d6ca05772161108bc0e2e","5f60e3c0a3b16e07647b2ff9","5f64c2c68921360280dd33a0","false","null","<span style=""color: black; font-size: 48px"">M + N</span>","null","","","","resp_prompt","","","","","","","","","","","","","","","",""
"categorize-image","145","402416","0.0-4.0-1.0-1.8","ub98ran9sfnhqvt","prime","5f3d6ca05772161108bc0e2e","5f60e3c0a3b16e07647b2ff9","5f64c2c68921360280dd33a0","true","944.8950000005425","./Stimuli/SelectedImages/LM/LM58.bmp","76","","","","test","false","M + N","83","switch","LM","LM58.bmp","remember","","57","3","prime1","right","","","",""
"html-keyboard-response","146","402918","0.0-4.0-1.0-2.8-0.8","ub98ran9sfnhqvt","prime","5f3d6ca05772161108bc0e2e","5f60e3c0a3b16e07647b2ff9","5f64c2c68921360280dd33a0","false","null","<span style=""color: red; font-size: 48px"">Error!</span>","null","","","","feedback","","","","","","","","","","","","","","","",""
"html-keyboard-response","147","404919","0.0-4.0-1.0-3.8","ub98ran9sfnhqvt","prime","5f3d6ca05772161108bc0e2e","5f60e3c0a3b16e07647b2ff9","5f64c2c68921360280dd33a0","false","null","<div style=""align-items: center; display: flex; color: dodgerblue; font-size: 90px""><b>o</b></div>","null","","","","forget_cue","","","","","","","","","","","","","","","",""
"html-keyboard-response","148","405620","0.0-4.0-1.0-0.9","ub98ran9sfnhqvt","prime","5f3d6ca05772161108bc0e2e","5f60e3c0a3b16e07647b2ff9","5f64c2c68921360280dd33a0","false","null","<span style=""color: black; font-size: 48px"">M + N</span>","null","","","","resp_prompt","","","","","","","","","","","","","","","",""
"categorize-image","149","406302","0.0-4.0-1.0-1.9","ub98ran9sfnhqvt","prime","5f3d6ca05772161108bc0e2e","5f60e3c0a3b16e07647b2ff9","5f64c2c68921360280dd33a0","true","678.2149999999092","./Stimuli/SelectedImages/SM/SM78.bmp","83","","","","test","true","M + N","83","switch","SM","SM78.bmp","forget","","58","3","prime1","left","","","",""
"html-keyboard-response","150","408304","0.0-4.0-1.0-3.9","ub98ran9sfnhqvt","prime","5f3d6ca05772161108bc0e2e","5f60e3c0a3b16e07647b2ff9","5f64c2c68921360280dd33a0","false","null","<div style=""align-items: center; display: flex; color: darkorange; font-size: 90px""><b>ø</b></div>","null","","","","forget_cue","","","","","","","","","","","","","","","",""
"html-keyboard-response","151","409005","0.0-4.0-1.0-0.10","ub98ran9sfnhqvt","prime","5f3d6ca05772161108bc0e2e","5f60e3c0a3b16e07647b2ff9","5f64c2c68921360280dd33a0","false","null","<span style=""color: black; font-size: 48px"">N + M</span>","null","","","","resp_prompt","","","","","","","","","","","","","","","",""
"categorize-image","152","410030","0.0-4.0-1.0-1.10","ub98ran9sfnhqvt","prime","5f3d6ca05772161108bc0e2e","5f60e3c0a3b16e07647b2ff9","5f64c2c68921360280dd33a0","true","1021.85499999905","./Stimuli/SelectedImages/SM/SM128.bmp","83","","","","test","false","N + M","76","repetition","SM","SM128.bmp","remember","","59","3","prime1","left","","","",""
"html-keyboard-response","153","410531","0.0-4.0-1.0-2.10-0.10","ub98ran9sfnhqvt","prime","5f3d6ca05772161108bc0e2e","5f60e3c0a3b16e07647b2ff9","5f64c2c68921360280dd33a0","false","null","<span style=""color: red; font-size: 48px"">Error!</span>","null","","","","feedback","","","","","","","","","","","","","","","",""
"html-keyboard-response","154","412532","0.0-4.0-1.0-3.10","ub98ran9sfnhqvt","prime","5f3d6ca05772161108bc0e2e","5f60e3c0a3b16e07647b2ff9","5f64c2c68921360280dd33a0","false","null","<div style=""align-items: center; display: flex; color: dodgerblue; font-size: 90px""><b>o</b></div>","null","","","","forget_cue","","","","","","","","","","","","","","","",""
"html-keyboard-response","155","413233","0.0-4.0-1.0-0.11","ub98ran9sfnhqvt","prime","5f3d6ca05772161108bc0e2e","5f60e3c0a3b16e07647b2ff9","5f64c2c68921360280dd33a0","false","null","<span style=""color: black; font-size: 48px"">M + N</span>","null","","","","resp_prompt","","","","","","","","","","","","","","","",""
"categorize-image","156","413816","0.0-4.0-1.0-1.11","ub98ran9sfnhqvt","prime","5f3d6ca05772161108bc0e2e","5f60e3c0a3b16e07647b2ff9","5f64c2c68921360280dd33a0","true","579.2000000001281","./Stimuli/SelectedImages/LM/LM150.bmp","83","","","","test","true","M + N","83","repetition","LM","LM150.bmp","forget","","60","3","prime1","left","","","",""
"html-keyboard-response","157","415817","0.0-4.0-1.0-3.11","ub98ran9sfnhqvt","prime","5f3d6ca05772161108bc0e2e","5f60e3c0a3b16e07647b2ff9","5f64c2c68921360280dd33a0","false","null","<div style=""align-items: center; display: flex; color: darkorange; font-size: 90px""><b>ø</b></div>","null","","","","forget_cue","","","","","","","","","","","","","","","",""
"html-keyboard-response","158","416518","0.0-4.0-1.0-0.12","ub98ran9sfnhqvt","prime","5f3d6ca05772161108bc0e2e","5f60e3c0a3b16e07647b2ff9","5f64c2c68921360280dd33a0","false","null","<span style=""color: black; font-size: 48px"">N + M</span>","null","","","","resp_prompt","","","","","","","","","","","","","","","",""
"categorize-image","159","417188","0.0-4.0-1.0-1.12","ub98ran9sfnhqvt","prime","5f3d6ca05772161108bc0e2e","5f60e3c0a3b16e07647b2ff9","5f64c2c68921360280dd33a0","true","666.7749999978696","./Stimuli/SelectedImages/LM/LM57.bmp","76","","","","test","true","N + M","76","repetition","LM","LM57.bmp","forget","","61","3","prime1","right","","","",""
"html-keyboard-response","160","419189","0.0-4.0-1.0-3.12","ub98ran9sfnhqvt","prime","5f3d6ca05772161108bc0e2e","5f60e3c0a3b16e07647b2ff9","5f64c2c68921360280dd33a0","false","null","<div style=""align-items: center; display: flex; color: darkorange; font-size: 90px""><b>ø</b></div>","null","","","","forget_cue","","","","","","","","","","","","","","","",""
"html-keyboard-response","161","419890","0.0-4.0-1.0-0.13","ub98ran9sfnhqvt","prime","5f3d6ca05772161108bc0e2e","5f60e3c0a3b16e07647b2ff9","5f64c2c68921360280dd33a0","false","null","<span style=""color: black; font-size: 48px"">N + M</span>","null","","","","resp_prompt","","","","","","","","","","","","","","","",""
"categorize-image","162","420578","0.0-4.0-1.0-1.13","ub98ran9sfnhqvt","prime","5f3d6ca05772161108bc0e2e","5f60e3c0a3b16e07647b2ff9","5f64c2c68921360280dd33a0","true","684.3599999992875","./Stimuli/SelectedImages/SN/SN52.bmp","83","","","","test","true","N + M","83","repetition","SN","SN52.bmp","remember","","62","3","prime1","left","","","",""
"html-keyboard-response","163","422579","0.0-4.0-1.0-3.13","ub98ran9sfnhqvt","prime","5f3d6ca05772161108bc0e2e","5f60e3c0a3b16e07647b2ff9","5f64c2c68921360280dd33a0","false","null","<div style=""align-items: center; display: flex; color: dodgerblue; font-size: 90px""><b>o</b></div>","null","","","","forget_cue","","","","","","","","","","","","","","","",""
"html-keyboard-response","164","423281","0.0-4.0-1.0-0.14","ub98ran9sfnhqvt","prime","5f3d6ca05772161108bc0e2e","5f60e3c0a3b16e07647b2ff9","5f64c2c68921360280dd33a0","false","null","<span style=""color: black; font-size: 48px"">M + N</span>","null","","","","resp_prompt","","","","","","","","","","","","","","","",""
"categorize-image","165","424053","0.0-4.0-1.0-1.14","ub98ran9sfnhqvt","prime","5f3d6ca05772161108bc0e2e","5f60e3c0a3b16e07647b2ff9","5f64c2c68921360280dd33a0","true","767.9949999983073","./Stimuli/SelectedImages/LM/LM235.bmp","83","","","","test","true","M + N","83","switch","LM","LM235.bmp","remember","","63","3","prime1","left","","","",""
"html-keyboard-response","166","426055","0.0-4.0-1.0-3.14","ub98ran9sfnhqvt","prime","5f3d6ca05772161108bc0e2e","5f60e3c0a3b16e07647b2ff9","5f64c2c68921360280dd33a0","false","null","<div style=""align-items: center; display: flex; color: dodgerblue; font-size: 90px""><b>o</b></div>","null","","","","forget_cue","","","","","","","","","","","","","","","",""
"html-keyboard-response","167","426756","0.0-4.0-1.0-0.15","ub98ran9sfnhqvt","prime","5f3d6ca05772161108bc0e2e","5f60e3c0a3b16e07647b2ff9","5f64c2c68921360280dd33a0","false","null","<span style=""color: black; font-size: 48px"">N + M</span>","null","","","","resp_prompt","","","","","","","","","","","","","","","",""
"categorize-image","168","427581","0.0-4.0-1.0-1.15","ub98ran9sfnhqvt","prime","5f3d6ca05772161108bc0e2e","5f60e3c0a3b16e07647b2ff9","5f64c2c68921360280dd33a0","true","821.6800000009243","./Stimuli/SelectedImages/SM/SM106.bmp","76","","","","test","true","N + M","76","switch","SM","SM106.bmp","forget","","64","3","prime1","right","","","",""
"html-keyboard-response","169","429582","0.0-4.0-1.0-3.15","ub98ran9sfnhqvt","prime","5f3d6ca05772161108bc0e2e","5f60e3c0a3b16e07647b2ff9","5f64c2c68921360280dd33a0","false","null","<div style=""align-items: center; display: flex; color: darkorange; font-size: 90px""><b>ø</b></div>","null","","","","forget_cue","","","","","","","","","","","","","","","",""
"html-keyboard-response","170","430283","0.0-4.0-1.0-0.16","ub98ran9sfnhqvt","prime","5f3d6ca05772161108bc0e2e","5f60e3c0a3b16e07647b2ff9","5f64c2c68921360280dd33a0","false","null","<span style=""color: black; font-size: 48px"">N + M</span>","null","","","","resp_prompt","","","","","","","","","","","","","","","",""
"categorize-image","171","430835","0.0-4.0-1.0-1.16","ub98ran9sfnhqvt","prime","5f3d6ca05772161108bc0e2e","5f60e3c0a3b16e07647b2ff9","5f64c2c68921360280dd33a0","true","547.8000000002794","./Stimuli/SelectedImages/LN/LN128.bmp","83","","","","test","true","N + M","83","repetition","LN","LN128.bmp","remember","","65","3","prime1","left","","","",""
"html-keyboard-response","172","432836","0.0-4.0-1.0-3.16","ub98ran9sfnhqvt","prime","5f3d6ca05772161108bc0e2e","5f60e3c0a3b16e07647b2ff9","5f64c2c68921360280dd33a0","false","null","<div style=""align-items: center; display: flex; color: dodgerblue; font-size: 90px""><b>o</b></div>","null","","","","forget_cue","","","","","","","","","","","","","","","",""
"html-keyboard-response","173","433537","0.0-4.0-1.0-0.17","ub98ran9sfnhqvt","prime","5f3d6ca05772161108bc0e2e","5f60e3c0a3b16e07647b2ff9","5f64c2c68921360280dd33a0","false","null","<span style=""color: black; font-size: 48px"">N + M</span>","null","","","","resp_prompt","","","","","","","","","","","","","","","",""
"categorize-image","174","434175","0.0-4.0-1.0-1.17","ub98ran9sfnhqvt","prime","5f3d6ca05772161108bc0e2e","5f60e3c0a3b16e07647b2ff9","5f64c2c68921360280dd33a0","true","633.9000000007218","./Stimuli/SelectedImages/LN/LN111.bmp","83","","","","test","true","N + M","83","repetition","LN","LN111.bmp","forget","","66","3","prime1","left","","","",""
"html-keyboard-response","175","436176","0.0-4.0-1.0-3.17","ub98ran9sfnhqvt","prime","5f3d6ca05772161108bc0e2e","5f60e3c0a3b16e07647b2ff9","5f64c2c68921360280dd33a0","false","null","<div style=""align-items: center; display: flex; color: darkorange; font-size: 90px""><b>ø</b></div>","null","","","","forget_cue","","","","","","","","","","","","","","","",""
"html-keyboard-response","176","436877","0.0-4.0-1.0-0.18","ub98ran9sfnhqvt","prime","5f3d6ca05772161108bc0e2e","5f60e3c0a3b16e07647b2ff9","5f64c2c68921360280dd33a0","false","null","<span style=""color: black; font-size: 48px"">M + N</span>","null","","","","resp_prompt","","","","","","","","","","","","","","","",""
"categorize-image","177","438152","0.0-4.0-1.0-1.18","ub98ran9sfnhqvt","prime","5f3d6ca05772161108bc0e2e","5f60e3c0a3b16e07647b2ff9","5f64c2c68921360280dd33a0","true","1272.1149999997579","./Stimuli/SelectedImages/LN/LN177.bmp","76","","","","test","true","M + N","76","switch","LN","LN177.bmp","remember","","67","3","prime1","right","","","",""
"html-keyboard-response","178","440153","0.0-4.0-1.0-3.18","ub98ran9sfnhqvt","prime","5f3d6ca05772161108bc0e2e","5f60e3c0a3b16e07647b2ff9","5f64c2c68921360280dd33a0","false","null","<div style=""align-items: center; display: flex; color: dodgerblue; font-size: 90px""><b>o</b></div>","null","","","","forget_cue","","","","","","","","","","","","","","","",""
"html-keyboard-response","179","440854","0.0-4.0-1.0-0.19","ub98ran9sfnhqvt","prime","5f3d6ca05772161108bc0e2e","5f60e3c0a3b16e07647b2ff9","5f64c2c68921360280dd33a0","false","null","<span style=""color: black; font-size: 48px"">N + M</span>","null","","","","resp_prompt","","","","","","","","","","","","","","","",""
"categorize-image","180","441490","0.0-4.0-1.0-1.19","ub98ran9sfnhqvt","prime","5f3d6ca05772161108bc0e2e","5f60e3c0a3b16e07647b2ff9","5f64c2c68921360280dd33a0","true","632.1800000005169","./Stimuli/SelectedImages/LN/LN92.bmp","83","","","","test","true","N + M","83","switch","LN","LN92.bmp","forget","","68","3","prime1","left","","","",""
"html-keyboard-response","181","443492","0.0-4.0-1.0-3.19","ub98ran9sfnhqvt","prime","5f3d6ca05772161108bc0e2e","5f60e3c0a3b16e07647b2ff9","5f64c2c68921360280dd33a0","false","null","<div style=""align-items: center; display: flex; color: darkorange; font-size: 90px""><b>ø</b></div>","null","","","","forget_cue","","","","","","","","","","","","","","","",""
"html-keyboard-response","182","444193","0.0-4.0-1.0-0.20","ub98ran9sfnhqvt","prime","5f3d6ca05772161108bc0e2e","5f60e3c0a3b16e07647b2ff9","5f64c2c68921360280dd33a0","false","null","<span style=""color: black; font-size: 48px"">M + N</span>","null","","","","resp_prompt","","","","","","","","","","","","","","","",""
"categorize-image","183","445240","0.0-4.0-1.0-1.20","ub98ran9sfnhqvt","prime","5f3d6ca05772161108bc0e2e","5f60e3c0a3b16e07647b2ff9","5f64c2c68921360280dd33a0","true","1043.2199999995646","./Stimuli/SelectedImages/SN/SN93.bmp","76","","","","test","true","M + N","76","switch","SN","SN93.bmp","forget","","69","3","prime1","right","","","",""
"html-keyboard-response","184","447241","0.0-4.0-1.0-3.20","ub98ran9sfnhqvt","prime","5f3d6ca05772161108bc0e2e","5f60e3c0a3b16e07647b2ff9","5f64c2c68921360280dd33a0","false","null","<div style=""align-items: center; display: flex; color: darkorange; font-size: 90px""><b>ø</b></div>","null","","","","forget_cue","","","","","","","","","","","","","","","",""
"html-keyboard-response","185","447942","0.0-4.0-1.0-0.21","ub98ran9sfnhqvt","prime","5f3d6ca05772161108bc0e2e","5f60e3c0a3b16e07647b2ff9","5f64c2c68921360280dd33a0","false","null","<span style=""color: black; font-size: 48px"">M + N</span>","null","","","","resp_prompt","","","","","","","","","","","","","","","",""
"categorize-image","186","448570","0.0-4.0-1.0-1.21","ub98ran9sfnhqvt","prime","5f3d6ca05772161108bc0e2e","5f60e3c0a3b16e07647b2ff9","5f64c2c68921360280dd33a0","true","625.1699999993434","./Stimuli/SelectedImages/LN/LN166.bmp","76","","","","test","true","M + N","76","repetition","LN","LN166.bmp","remember","","70","3","prime1","right","","","",""
"html-keyboard-response","187","450572","0.0-4.0-1.0-3.21","ub98ran9sfnhqvt","prime","5f3d6ca05772161108bc0e2e","5f60e3c0a3b16e07647b2ff9","5f64c2c68921360280dd33a0","false","null","<div style=""align-items: center; display: flex; color: dodgerblue; font-size: 90px""><b>o</b></div>","null","","","","forget_cue","","","","","","","","","","","","","","","",""
"html-keyboard-response","188","451273","0.0-4.0-1.0-0.22","ub98ran9sfnhqvt","prime","5f3d6ca05772161108bc0e2e","5f60e3c0a3b16e07647b2ff9","5f64c2c68921360280dd33a0","false","null","<span style=""color: black; font-size: 48px"">M + N</span>","null","","","","resp_prompt","","","","","","","","","","","","","","","",""
"categorize-image","189","451893","0.0-4.0-1.0-1.22","ub98ran9sfnhqvt","prime","5f3d6ca05772161108bc0e2e","5f60e3c0a3b16e07647b2ff9","5f64c2c68921360280dd33a0","true","616.6300000004703","./Stimuli/SelectedImages/LN/LN82.bmp","76","","","","test","true","M + N","76","repetition","LN","LN82.bmp","forget","","71","3","prime1","right","","","",""
"html-keyboard-response","190","453894","0.0-4.0-1.0-3.22","ub98ran9sfnhqvt","prime","5f3d6ca05772161108bc0e2e","5f60e3c0a3b16e07647b2ff9","5f64c2c68921360280dd33a0","false","null","<div style=""align-items: center; display: flex; color: darkorange; font-size: 90px""><b>ø</b></div>","null","","","","forget_cue","","","","","","","","","","","","","","","",""
"html-keyboard-response","191","454595","0.0-4.0-1.0-0.23","ub98ran9sfnhqvt","prime","5f3d6ca05772161108bc0e2e","5f60e3c0a3b16e07647b2ff9","5f64c2c68921360280dd33a0","false","null","<span style=""color: black; font-size: 48px"">N + M</span>","null","","","","resp_prompt","","","","","","","","","","","","","","","",""
"categorize-image","192","455859","0.0-4.0-1.0-1.23","ub98ran9sfnhqvt","prime","5f3d6ca05772161108bc0e2e","5f60e3c0a3b16e07647b2ff9","5f64c2c68921360280dd33a0","true","1260.5699999985518","./Stimuli/SelectedImages/LN/LN9.bmp","83","","","","test","true","N + M","83","switch","LN","LN9.bmp","remember","","72","3","prime1","left","","","",""
"html-keyboard-response","193","457860","0.0-4.0-1.0-3.23","ub98ran9sfnhqvt","prime","5f3d6ca05772161108bc0e2e","5f60e3c0a3b16e07647b2ff9","5f64c2c68921360280dd33a0","false","null","<div style=""align-items: center; display: flex; color: dodgerblue; font-size: 90px""><b>o</b></div>","null","","","","forget_cue","","","","","","","","","","","","","","","",""
"html-keyboard-response","194","458561","0.0-4.0-1.0-0.24","ub98ran9sfnhqvt","prime","5f3d6ca05772161108bc0e2e","5f60e3c0a3b16e07647b2ff9","5f64c2c68921360280dd33a0","false","null","<span style=""color: black; font-size: 48px"">M + N</span>","null","","","","resp_prompt","","","","","","","","","","","","","","","",""
"categorize-image","195","459299","0.0-4.0-1.0-1.24","ub98ran9sfnhqvt","prime","5f3d6ca05772161108bc0e2e","5f60e3c0a3b16e07647b2ff9","5f64c2c68921360280dd33a0","true","733.4599999994389","./Stimuli/SelectedImages/LM/LM75.bmp","83","","","","test","true","M + N","83","switch","LM","LM75.bmp","forget","","73","3","prime1","left","","","",""
"html-keyboard-response","196","461300","0.0-4.0-1.0-3.24","ub98ran9sfnhqvt","prime","5f3d6ca05772161108bc0e2e","5f60e3c0a3b16e07647b2ff9","5f64c2c68921360280dd33a0","false","null","<div style=""align-items: center; display: flex; color: darkorange; font-size: 90px""><b>ø</b></div>","null","","","","forget_cue","","","","","","","","","","","","","","","",""
"html-keyboard-response","197","462001","0.0-4.0-1.0-0.25","ub98ran9sfnhqvt","prime","5f3d6ca05772161108bc0e2e","5f60e3c0a3b16e07647b2ff9","5f64c2c68921360280dd33a0","false","null","<span style=""color: black; font-size: 48px"">N + M</span>","null","","","","resp_prompt","","","","","","","","","","","","","","","",""
"categorize-image","198","462836","0.0-4.0-1.0-1.25","ub98ran9sfnhqvt","prime","5f3d6ca05772161108bc0e2e","5f60e3c0a3b16e07647b2ff9","5f64c2c68921360280dd33a0","true","831.6999999987893","./Stimuli/SelectedImages/LM/LM216.bmp","76","","","","test","true","N + M","76","repetition","LM","LM216.bmp","remember","","74","3","prime1","right","","","",""
"html-keyboard-response","199","464837","0.0-4.0-1.0-3.25","ub98ran9sfnhqvt","prime","5f3d6ca05772161108bc0e2e","5f60e3c0a3b16e07647b2ff9","5f64c2c68921360280dd33a0","false","null","<div style=""align-items: center; display: flex; color: dodgerblue; font-size: 90px""><b>o</b></div>","null","","","","forget_cue","","","","","","","","","","","","","","","",""
"html-keyboard-response","200","465538","0.0-4.0-1.0-0.26","ub98ran9sfnhqvt","prime","5f3d6ca05772161108bc0e2e","5f60e3c0a3b16e07647b2ff9","5f64c2c68921360280dd33a0","false","null","<span style=""color: black; font-size: 48px"">N + M</span>","null","","","","resp_prompt","","","","","","","","","","","","","","","",""
"categorize-image","201","466326","0.0-4.0-1.0-1.26","ub98ran9sfnhqvt","prime","5f3d6ca05772161108bc0e2e","5f60e3c0a3b16e07647b2ff9","5f64c2c68921360280dd33a0","true","784.749999998894","./Stimuli/SelectedImages/LM/LM209.bmp","76","","","","test","true","N + M","76","switch","LM","LM209.bmp","remember","","75","3","prime1","right","","","",""
"html-keyboard-response","202","468327","0.0-4.0-1.0-3.26","ub98ran9sfnhqvt","prime","5f3d6ca05772161108bc0e2e","5f60e3c0a3b16e07647b2ff9","5f64c2c68921360280dd33a0","false","null","<div style=""align-items: center; display: flex; color: dodgerblue; font-size: 90px""><b>o</b></div>","null","","","","forget_cue","","","","","","","","","","","","","","","",""
"html-keyboard-response","203","469028","0.0-4.0-1.0-0.27","ub98ran9sfnhqvt","prime","5f3d6ca05772161108bc0e2e","5f60e3c0a3b16e07647b2ff9","5f64c2c68921360280dd33a0","false","null","<span style=""color: black; font-size: 48px"">N + M</span>","null","","","","resp_prompt","","","","","","","","","","","","","","","",""
"categorize-image","204","469723","0.0-4.0-1.0-1.27","ub98ran9sfnhqvt","prime","5f3d6ca05772161108bc0e2e","5f60e3c0a3b16e07647b2ff9","5f64c2c68921360280dd33a0","true","691.4599999981583","./Stimuli/SelectedImages/LN/LN101.bmp","83","","","","test","true","N + M","83","switch","LN","LN101.bmp","remember","","76","3","prime1","left","","","",""
"html-keyboard-response","205","471724","0.0-4.0-1.0-3.27","ub98ran9sfnhqvt","prime","5f3d6ca05772161108bc0e2e","5f60e3c0a3b16e07647b2ff9","5f64c2c68921360280dd33a0","false","null","<div style=""align-items: center; display: flex; color: dodgerblue; font-size: 90px""><b>o</b></div>","null","","","","forget_cue","","","","","","","","","","","","","","","",""
"html-keyboard-response","206","472425","0.0-4.0-1.0-0.28","ub98ran9sfnhqvt","prime","5f3d6ca05772161108bc0e2e","5f60e3c0a3b16e07647b2ff9","5f64c2c68921360280dd33a0","false","null","<span style=""color: black; font-size: 48px"">N + M</span>","null","","","","resp_prompt","","","","","","","","","","","","","","","",""
"categorize-image","207","473115","0.0-4.0-1.0-1.28","ub98ran9sfnhqvt","prime","5f3d6ca05772161108bc0e2e","5f60e3c0a3b16e07647b2ff9","5f64c2c68921360280dd33a0","true","685.4799999964307","./Stimuli/SelectedImages/SM/SM213.bmp","83","","","","test","false","N + M","76","switch","SM","SM213.bmp","remember","","77","3","prime1","left","","","",""
"html-keyboard-response","208","473616","0.0-4.0-1.0-2.28-0.28","ub98ran9sfnhqvt","prime","5f3d6ca05772161108bc0e2e","5f60e3c0a3b16e07647b2ff9","5f64c2c68921360280dd33a0","false","null","<span style=""color: red; font-size: 48px"">Error!</span>","null","","","","feedback","","","","","","","","","","","","","","","",""
"html-keyboard-response","209","475617","0.0-4.0-1.0-3.28","ub98ran9sfnhqvt","prime","5f3d6ca05772161108bc0e2e","5f60e3c0a3b16e07647b2ff9","5f64c2c68921360280dd33a0","false","null","<div style=""align-items: center; display: flex; color: dodgerblue; font-size: 90px""><b>o</b></div>","null","","","","forget_cue","","","","","","","","","","","","","","","",""
"html-keyboard-response","210","476318","0.0-4.0-1.0-0.29","ub98ran9sfnhqvt","prime","5f3d6ca05772161108bc0e2e","5f60e3c0a3b16e07647b2ff9","5f64c2c68921360280dd33a0","false","null","<span style=""color: black; font-size: 48px"">M + N</span>","null","","","","resp_prompt","","","","","","","","","","","","","","","",""
"categorize-image","211","477335","0.0-4.0-1.0-1.29","ub98ran9sfnhqvt","prime","5f3d6ca05772161108bc0e2e","5f60e3c0a3b16e07647b2ff9","5f64c2c68921360280dd33a0","true","1013.5200000004261","./Stimuli/SelectedImages/SM/SM205.bmp","83","","","","test","true","M + N","83","repetition","SM","SM205.bmp","remember","","78","3","prime1","left","","","",""
"html-keyboard-response","212","479335","0.0-4.0-1.0-3.29","ub98ran9sfnhqvt","prime","5f3d6ca05772161108bc0e2e","5f60e3c0a3b16e07647b2ff9","5f64c2c68921360280dd33a0","false","null","<div style=""align-items: center; display: flex; color: dodgerblue; font-size: 90px""><b>o</b></div>","null","","","","forget_cue","","","","","","","","","","","","","","","",""
"html-keyboard-response","213","480037","0.0-4.0-1.0-0.30","ub98ran9sfnhqvt","prime","5f3d6ca05772161108bc0e2e","5f60e3c0a3b16e07647b2ff9","5f64c2c68921360280dd33a0","false","null","<span style=""color: black; font-size: 48px"">M + N</span>","null","","","","resp_prompt","","","","","","","","","","","","","","","",""
"categorize-image","214","480599","0.0-4.0-1.0-1.30","ub98ran9sfnhqvt","prime","5f3d6ca05772161108bc0e2e","5f60e3c0a3b16e07647b2ff9","5f64c2c68921360280dd33a0","true","558.9749999999185","./Stimuli/SelectedImages/SM/SM24.bmp","83","","","","test","true","M + N","83","switch","SM","SM24.bmp","forget","","79","3","prime1","left","","","",""
"html-keyboard-response","215","482601","0.0-4.0-1.0-3.30","ub98ran9sfnhqvt","prime","5f3d6ca05772161108bc0e2e","5f60e3c0a3b16e07647b2ff9","5f64c2c68921360280dd33a0","false","null","<div style=""align-items: center; display: flex; color: darkorange; font-size: 90px""><b>ø</b></div>","null","","","","forget_cue","","","","","","","","","","","","","","","",""
"html-keyboard-response","216","483302","0.0-4.0-1.0-0.31","ub98ran9sfnhqvt","prime","5f3d6ca05772161108bc0e2e","5f60e3c0a3b16e07647b2ff9","5f64c2c68921360280dd33a0","false","null","<span style=""color: black; font-size: 48px"">M + N</span>","null","","","","resp_prompt","","","","","","","","","","","","","","","",""
"categorize-image","217","483960","0.0-4.0-1.0-1.31","ub98ran9sfnhqvt","prime","5f3d6ca05772161108bc0e2e","5f60e3c0a3b16e07647b2ff9","5f64c2c68921360280dd33a0","true","654.2650000010617","./Stimuli/SelectedImages/LM/LM129.bmp","83","","","","test","true","M + N","83","repetition","LM","LM129.bmp","remember","","80","3","prime1","left","","","",""
"html-keyboard-response","218","485961","0.0-4.0-1.0-3.31","ub98ran9sfnhqvt","prime","5f3d6ca05772161108bc0e2e","5f60e3c0a3b16e07647b2ff9","5f64c2c68921360280dd33a0","false","null","<div style=""align-items: center; display: flex; color: dodgerblue; font-size: 90px""><b>o</b></div>","null","","","","forget_cue","","","","","","","","","","","","","","","",""
"html-keyboard-response","219","486662","0.0-4.0-1.0-0.32","ub98ran9sfnhqvt","prime","5f3d6ca05772161108bc0e2e","5f60e3c0a3b16e07647b2ff9","5f64c2c68921360280dd33a0","false","null","<span style=""color: black; font-size: 48px"">N + M</span>","null","","","","resp_prompt","","","","","","","","","","","","","","","",""
"categorize-image","220","487226","0.0-4.0-1.0-1.32","ub98ran9sfnhqvt","prime","5f3d6ca05772161108bc0e2e","5f60e3c0a3b16e07647b2ff9","5f64c2c68921360280dd33a0","true","560.699999998149","./Stimuli/SelectedImages/SM/SM108.bmp","76","","","","test","true","N + M","76","repetition","SM","SM108.bmp","forget","","81","3","prime1","right","","","",""
"html-keyboard-response","221","489228","0.0-4.0-1.0-3.32","ub98ran9sfnhqvt","prime","5f3d6ca05772161108bc0e2e","5f60e3c0a3b16e07647b2ff9","5f64c2c68921360280dd33a0","false","null","<div style=""align-items: center; display: flex; color: darkorange; font-size: 90px""><b>ø</b></div>","null","","","","forget_cue","","","","","","","","","","","","","","","",""
"html-keyboard-response","222","489929","0.0-4.0-1.0-0.33","ub98ran9sfnhqvt","prime","5f3d6ca05772161108bc0e2e","5f60e3c0a3b16e07647b2ff9","5f64c2c68921360280dd33a0","false","null","<span style=""color: black; font-size: 48px"">M + N</span>","null","","","","resp_prompt","","","","","","","","","","","","","","","",""
"categorize-image","223","490626","0.0-4.0-1.0-1.33","ub98ran9sfnhqvt","prime","5f3d6ca05772161108bc0e2e","5f60e3c0a3b16e07647b2ff9","5f64c2c68921360280dd33a0","true","693.9249999995809","./Stimuli/SelectedImages/LM/LM157.bmp","83","","","","test","true","M + N","83","switch","LM","LM157.bmp","forget","","82","3","prime1","left","","","",""
"html-keyboard-response","224","492628","0.0-4.0-1.0-3.33","ub98ran9sfnhqvt","prime","5f3d6ca05772161108bc0e2e","5f60e3c0a3b16e07647b2ff9","5f64c2c68921360280dd33a0","false","null","<div style=""align-items: center; display: flex; color: darkorange; font-size: 90px""><b>ø</b></div>","null","","","","forget_cue","","","","","","","","","","","","","","","",""
"html-keyboard-response","225","493329","0.0-4.0-1.0-0.34","ub98ran9sfnhqvt","prime","5f3d6ca05772161108bc0e2e","5f60e3c0a3b16e07647b2ff9","5f64c2c68921360280dd33a0","false","null","<span style=""color: black; font-size: 48px"">M + N</span>","null","","","","resp_prompt","","","","","","","","","","","","","","","",""
"categorize-image","226","493909","0.0-4.0-1.0-1.34","ub98ran9sfnhqvt","prime","5f3d6ca05772161108bc0e2e","5f60e3c0a3b16e07647b2ff9","5f64c2c68921360280dd33a0","true","575.9849999994622","./Stimuli/SelectedImages/SN/SN179.bmp","76","","","","test","true","M + N","76","switch","SN","SN179.bmp","forget","","83","3","prime1","right","","","",""
"html-keyboard-response","227","495910","0.0-4.0-1.0-3.34","ub98ran9sfnhqvt","prime","5f3d6ca05772161108bc0e2e","5f60e3c0a3b16e07647b2ff9","5f64c2c68921360280dd33a0","false","null","<div style=""align-items: center; display: flex; color: darkorange; font-size: 90px""><b>ø</b></div>","null","","","","forget_cue","","","","","","","","","","","","","","","",""
"html-keyboard-response","228","496611","0.0-4.0-1.0-0.35","ub98ran9sfnhqvt","prime","5f3d6ca05772161108bc0e2e","5f60e3c0a3b16e07647b2ff9","5f64c2c68921360280dd33a0","false","null","<span style=""color: black; font-size: 48px"">M + N</span>","null","","","","resp_prompt","","","","","","","","","","","","","","","",""
"categorize-image","229","497366","0.0-4.0-1.0-1.35","ub98ran9sfnhqvt","prime","5f3d6ca05772161108bc0e2e","5f60e3c0a3b16e07647b2ff9","5f64c2c68921360280dd33a0","true","752.2400000016205","./Stimuli/SelectedImages/LN/LN131.bmp","76","","","","test","true","M + N","76","switch","LN","LN131.bmp","forget","","84","3","prime1","right","","","",""
"html-keyboard-response","230","499367","0.0-4.0-1.0-3.35","ub98ran9sfnhqvt","prime","5f3d6ca05772161108bc0e2e","5f60e3c0a3b16e07647b2ff9","5f64c2c68921360280dd33a0","false","null","<div style=""align-items: center; display: flex; color: darkorange; font-size: 90px""><b>ø</b></div>","null","","","","forget_cue","","","","","","","","","","","","","","","",""
"html-keyboard-response","231","500069","0.0-4.0-1.0-0.36","ub98ran9sfnhqvt","prime","5f3d6ca05772161108bc0e2e","5f60e3c0a3b16e07647b2ff9","5f64c2c68921360280dd33a0","false","null","<span style=""color: black; font-size: 48px"">N + M</span>","null","","","","resp_prompt","","","","","","","","","","","","","","","",""
"categorize-image","232","500734","0.0-4.0-1.0-1.36","ub98ran9sfnhqvt","prime","5f3d6ca05772161108bc0e2e","5f60e3c0a3b16e07647b2ff9","5f64c2c68921360280dd33a0","true","661.5750000019325","./Stimuli/SelectedImages/SM/SM148.bmp","76","","","","test","true","N + M","76","repetition","SM","SM148.bmp","forget","","85","3","prime1","right","","","",""
"html-keyboard-response","233","502735","0.0-4.0-1.0-3.36","ub98ran9sfnhqvt","prime","5f3d6ca05772161108bc0e2e","5f60e3c0a3b16e07647b2ff9","5f64c2c68921360280dd33a0","false","null","<div style=""align-items: center; display: flex; color: darkorange; font-size: 90px""><b>ø</b></div>","null","","","","forget_cue","","","","","","","","","","","","","","","",""
"html-keyboard-response","234","503436","0.0-4.0-1.0-0.37","ub98ran9sfnhqvt","prime","5f3d6ca05772161108bc0e2e","5f60e3c0a3b16e07647b2ff9","5f64c2c68921360280dd33a0","false","null","<span style=""color: black; font-size: 48px"">M + N</span>","null","","","","resp_prompt","","","","","","","","","","","","","","","",""
"categorize-image","235","504356","0.0-4.0-1.0-1.37","ub98ran9sfnhqvt","prime","5f3d6ca05772161108bc0e2e","5f60e3c0a3b16e07647b2ff9","5f64c2c68921360280dd33a0","true","915.7000000013504","./Stimuli/SelectedImages/SN/SN18.bmp","76","","","","test","true","M + N","76","repetition","SN","SN18.bmp","remember","","86","3","prime1","right","","","",""
"html-keyboard-response","236","506357","0.0-4.0-1.0-3.37","ub98ran9sfnhqvt","prime","5f3d6ca05772161108bc0e2e","5f60e3c0a3b16e07647b2ff9","5f64c2c68921360280dd33a0","false","null","<div style=""align-items: center; display: flex; color: dodgerblue; font-size: 90px""><b>o</b></div>","null","","","","forget_cue","","","","","","","","","","","","","","","",""
"html-keyboard-response","237","507059","0.0-4.0-1.0-0.38","ub98ran9sfnhqvt","prime","5f3d6ca05772161108bc0e2e","5f60e3c0a3b16e07647b2ff9","5f64c2c68921360280dd33a0","false","null","<span style=""color: black; font-size: 48px"">M + N</span>","null","","","","resp_prompt","","","","","","","","","","","","","","","",""
"categorize-image","238","507621","0.0-4.0-1.0-1.38","ub98ran9sfnhqvt","prime","5f3d6ca05772161108bc0e2e","5f60e3c0a3b16e07647b2ff9","5f64c2c68921360280dd33a0","true","557.8349999996135","./Stimuli/SelectedImages/SM/SM195.bmp","83","","","","test","true","M + N","83","switch","SM","SM195.bmp","remember","","87","3","prime1","left","","","",""
"html-keyboard-response","239","509622","0.0-4.0-1.0-3.38","ub98ran9sfnhqvt","prime","5f3d6ca05772161108bc0e2e","5f60e3c0a3b16e07647b2ff9","5f64c2c68921360280dd33a0","false","null","<div style=""align-items: center; display: flex; color: dodgerblue; font-size: 90px""><b>o</b></div>","null","","","","forget_cue","","","","","","","","","","","","","","","",""
"html-keyboard-response","240","510323","0.0-4.0-1.0-0.39","ub98ran9sfnhqvt","prime","5f3d6ca05772161108bc0e2e","5f60e3c0a3b16e07647b2ff9","5f64c2c68921360280dd33a0","false","null","<span style=""color: black; font-size: 48px"">M + N</span>","null","","","","resp_prompt","","","","","","","","","","","","","","","",""
"categorize-image","241","511020","0.0-4.0-1.0-1.39","ub98ran9sfnhqvt","prime","5f3d6ca05772161108bc0e2e","5f60e3c0a3b16e07647b2ff9","5f64c2c68921360280dd33a0","true","692.3700000006356","./Stimuli/SelectedImages/SM/SM17.bmp","83","","","","test","true","M + N","83","repetition","SM","SM17.bmp","remember","","88","3","prime1","left","","","",""
"html-keyboard-response","242","513021","0.0-4.0-1.0-3.39","ub98ran9sfnhqvt","prime","5f3d6ca05772161108bc0e2e","5f60e3c0a3b16e07647b2ff9","5f64c2c68921360280dd33a0","false","null","<div style=""align-items: center; display: flex; color: dodgerblue; font-size: 90px""><b>o</b></div>","null","","","","forget_cue","","","","","","","","","","","","","","","",""
"html-keyboard-response","243","513722","0.0-4.0-1.0-0.40","ub98ran9sfnhqvt","prime","5f3d6ca05772161108bc0e2e","5f60e3c0a3b16e07647b2ff9","5f64c2c68921360280dd33a0","false","null","<span style=""color: black; font-size: 48px"">N + M</span>","null","","","","resp_prompt","","","","","","","","","","","","","","","",""
"categorize-image","244","514322","0.0-4.0-1.0-1.40","ub98ran9sfnhqvt","prime","5f3d6ca05772161108bc0e2e","5f60e3c0a3b16e07647b2ff9","5f64c2c68921360280dd33a0","true","596.9949999998789","./Stimuli/SelectedImages/SN/SN155.bmp","83","","","","test","true","N + M","83","switch","SN","SN155.bmp","remember","","89","3","prime1","left","","","",""
"html-keyboard-response","245","516323","0.0-4.0-1.0-3.40","ub98ran9sfnhqvt","prime","5f3d6ca05772161108bc0e2e","5f60e3c0a3b16e07647b2ff9","5f64c2c68921360280dd33a0","false","null","<div style=""align-items: center; display: flex; color: dodgerblue; font-size: 90px""><b>o</b></div>","null","","","","forget_cue","","","","","","","","","","","","","","","",""
"html-keyboard-response","246","517024","0.0-4.0-1.0-0.41","ub98ran9sfnhqvt","prime","5f3d6ca05772161108bc0e2e","5f60e3c0a3b16e07647b2ff9","5f64c2c68921360280dd33a0","false","null","<span style=""color: black; font-size: 48px"">N + M</span>","null","","","","resp_prompt","","","","","","","","","","","","","","","",""
"categorize-image","247","517589","0.0-4.0-1.0-1.41","ub98ran9sfnhqvt","prime","5f3d6ca05772161108bc0e2e","5f60e3c0a3b16e07647b2ff9","5f64c2c68921360280dd33a0","true","561.3900000025751","./Stimuli/SelectedImages/SM/SM207.bmp","76","","","","test","true","N + M","76","switch","SM","SM207.bmp","forget","","90","3","prime1","right","","","",""
"html-keyboard-response","248","519591","0.0-4.0-1.0-3.41","ub98ran9sfnhqvt","prime","5f3d6ca05772161108bc0e2e","5f60e3c0a3b16e07647b2ff9","5f64c2c68921360280dd33a0","false","null","<div style=""align-items: center; display: flex; color: darkorange; font-size: 90px""><b>ø</b></div>","null","","","","forget_cue","","","","","","","","","","","","","","","",""
"html-keyboard-response","249","520292","0.0-4.0-1.0-0.42","ub98ran9sfnhqvt","prime","5f3d6ca05772161108bc0e2e","5f60e3c0a3b16e07647b2ff9","5f64c2c68921360280dd33a0","false","null","<span style=""color: black; font-size: 48px"">M + N</span>","null","","","","resp_prompt","","","","","","","","","","","","","","","",""
"categorize-image","250","520816","0.0-4.0-1.0-1.42","ub98ran9sfnhqvt","prime","5f3d6ca05772161108bc0e2e","5f60e3c0a3b16e07647b2ff9","5f64c2c68921360280dd33a0","true","520.8200000015786","./Stimuli/SelectedImages/SM/SM200.bmp","83","","","","test","true","M + N","83","repetition","SM","SM200.bmp","forget","","91","3","prime1","left","","","",""
"html-keyboard-response","251","522817","0.0-4.0-1.0-3.42","ub98ran9sfnhqvt","prime","5f3d6ca05772161108bc0e2e","5f60e3c0a3b16e07647b2ff9","5f64c2c68921360280dd33a0","false","null","<div style=""align-items: center; display: flex; color: darkorange; font-size: 90px""><b>ø</b></div>","null","","","","forget_cue","","","","","","","","","","","","","","","",""
"html-keyboard-response","252","523518","0.0-4.0-1.0-0.43","ub98ran9sfnhqvt","prime","5f3d6ca05772161108bc0e2e","5f60e3c0a3b16e07647b2ff9","5f64c2c68921360280dd33a0","false","null","<span style=""color: black; font-size: 48px"">M + N</span>","null","","","","resp_prompt","","","","","","","","","","","","","","","",""
