"trial_type","trial_index","time_elapsed","internal_node_id","subject","exp_part","prolific_PID","study_ID","session_ID","use","rt","stimulus","key_press","button_pressed","responses","question_order","trial_part","correct","resp_map","correct_resp","probe_condition","category","image","forget_condition","list","trial_num","block_num","block","response","test_part","n_span","sequence","num_spaces"
"pavlovia","0","5","0.0-0.0","ued272h7t7emtjq","","5d21a8a21b06360019082dac","5f60e3c0a3b16e07647b2ff9","5f60eeeadfc69301b5ec1703","false","","","","","","","","","","","","","","","","","","","","","","",""
"html-keyboard-response","1","15309","0.0-1.0-0.0-0.0","ued272h7t7emtjq","welcome","5d21a8a21b06360019082dac","5f60e3c0a3b16e07647b2ff9","5f60eeeadfc69301b5ec1703","false","15302.094999999099","<div align=left>Dear participant, <br> thank you for participating in an online study of the Cognition, Action, and Sustainability Unit of the University of Freiburg! <br> <br>The aim of this study is to examine our ability to remember previously learned information. <br>Our goal is to find out, whether our memory improves, when we only remember information that is relevant to us. <br>The experiment will take about 35 minutes to complete. <br> <br>Please, note that you can only participate in this study if you are using a device with a keyboard (PC, Laptop etc.) <br>and not if you are using a mobile device such as a tablet or smartphone.<br> <br>Press 'SPACE' to proceed to the experiment. </div>","32","","","","","","","","","","","","","","","","","","","",""
"html-keyboard-response","2","42759","0.0-1.0-0.0-1.0","ued272h7t7emtjq","welcome","5d21a8a21b06360019082dac","5f60e3c0a3b16e07647b2ff9","5f60eeeadfc69301b5ec1703","false","27449.445000005653","<div align=left><strong> Time Course of this experiment: </strong> <br><br> <strong> 1.</strong>  First, please fill in some information regarding your demographic data. <br><br> <strong> 2.</strong>  Next, your task will be to classify everyday objects. <br>In addition, you will be asked to remember certain objects and recall them later. <br>Working on these tasks requires your undivided attention and concentration.<br>It is therefore essential that you eliminate any sources of distraction in your  <br>environment and ensure that you will not be disturbed. <br><br><strong> 3.</strong>  At the end of the experiment, you will be asked to answer a few additional questions. <br> <br><strong> Important:</strong> After finishing the experiment, only close the browser window <br> by clicking on the 'end the experiment'-button when you are asked to do so. <br>Closing the browser window prematurely will make the allocation of your participation credit impossible. <br><br> Press 'SPACE' to start the experiment. </div>","32","","","","","","","","","","","","","","","","","","","",""
"html-button-response","3","50874","0.0-1.0-0.0-2.0","ued272h7t7emtjq","welcome","5d21a8a21b06360019082dac","5f60e3c0a3b16e07647b2ff9","5f60eeeadfc69301b5ec1703","true","8112.679999998363","<div align=left><strong> Informed consent </strong>  <br>The aim of our research is to better understand human behavior and mental processes. <br>In the following study your behavior (e.g. choices, reaction times) will be studied. <br> <br><strong> Voluntariness and Anonymity </strong> <br>Your participation in this study is  <strong> voluntary</strong>.<br>You may withdraw your consent to participate at any time without providing a reason for doing so and without fear of prejudice. <br><br>As no personal data will be collected, <strong>your data and your person cannot be connected after data collection</strong> – the data-set is anonymous. <br>Respectively, deletion of your data will not be possible after data collection has been completed, as we cannot retrace your data-set.<br>The results and anonymized data collected in this study will be published as a scientific publication. <br>This will happen in an <strong>anonymized format</strong>, so that no data can be traced back to a specific person. <br> <br>The anonymized data of this study will be made available to other researchers and/or in a data archive on the Internet as a means of transparency and to enable subsequent re-use. By doing so, this study follows the recommendations of the Deutsche Forschungsgemeinschaft (DFG, German Research Foundation) and Deutsche Gesellschaft für Psychologie (DGPS, German Psychological Society) regarding quality assurance in research.<br>If you have any questions now or after the experiment, please contact our team (experiments@cs.uni-freiburg.de).<br><br><br>I hereby declare, that I understand the above described conditions of participation and I agree to participate under these conditions. <br><br> </div>","","0","","","","","","","","","","","","","","","","","","",""
"html-keyboard-response","4","73594","0.0-1.0-0.0-3.0","ued272h7t7emtjq","welcome","5d21a8a21b06360019082dac","5f60e3c0a3b16e07647b2ff9","5f60eeeadfc69301b5ec1703","false","22718.079999998736","<div align=left><strong> General information concerning the experiment </strong>  <br> <br>Please follow the instructions:<ol> <li><strong> Do not leave this tab (your browser window) during the experiment and do not reload this tab! </strong>  <br>If you do switch tabs/windows during the experiment (to check your mail or visit another website, for example), <br>the experiment will end automatically and you will <strong>not receive credit</strong> for your participation. <br>Repeated participation or resumption of the experiment is impossible.</li> <br><li>Please close all other programs for the duration of your participation. </li> <br><li>Please mute or turn off your phone and put it out of your reach. </li> <br><li>Please also take off any disturbing accessories (such as wristwatches, bracelets, etc.). </li> <br><li>If you have music playing in the background, please turn it off now. </li> <br></ol>Thank you! <br>Press 'SPACE' to continue. </div>","32","","","","","","","","","","","","","","","","","","","",""
"survey-text","5","78105","0.0-1.0-1.0-0.0","ued272h7t7emtjq","demographics","5d21a8a21b06360019082dac","5f60e3c0a3b16e07647b2ff9","5f60eeeadfc69301b5ec1703","true","4506.919999999809","","","","{""age"":""32""}","","","","","","","","","","","","","","","","","",""
"survey-multi-choice","6","93002","0.0-1.0-1.0-1.0","ued272h7t7emtjq","demographics","5d21a8a21b06360019082dac","5f60e3c0a3b16e07647b2ff9","5f60eeeadfc69301b5ec1703","true","14894.514999999956","","","","{""gender"":""female"",""school"":""no degree"",""education"":""High school graduate, diploma or equivalent""}","[0,1,2]","","","","","","","","","","","","","","","","",""
"html-keyboard-response","7","106773","0.0-1.0-2.0","ued272h7t7emtjq","instructions","5d21a8a21b06360019082dac","5f60e3c0a3b16e07647b2ff9","5f60eeeadfc69301b5ec1703","false","13765.654999995604","<div align=left> The experiment is now about to start: <br> <br>In the following part, you will be presented pictures of everyday objects. <br>Your first task is to <strong>classify these objects. </strong> <br> <br> You will classify them either as mechanical or non-mechanical objects. <br> <br>Objects that include any kind of technical mechanism (for example, wheels, switches, levers, <br> electronic components) fall under the category of <strong>mechanical</strong> objects. <br>Only objects without any kind of technical mechanism should be classified as <strong>non-mechanical</strong>. <br><br>Press 'SPACE' to continue. </div>","32","","","","","","","","","","","","","","","","","","","",""
"html-keyboard-response","8","182710","0.0-2.0-0.0","ued272h7t7emtjq","instructions","5d21a8a21b06360019082dac","5f60e3c0a3b16e07647b2ff9","5f60eeeadfc69301b5ec1703","false","75937.08499999775","<div align=justify>You will classify the objects using the <strong>'S'</strong> and the <strong>'L'</strong> keys on your keyboard.<br>For doing so, please place your <strong>left index finger</strong> on the <strong>'S'</strong> key and place your <strong>right index finger</strong> on the <strong>'L'</strong> key. <br><br> Each trial starts with an instruction, indicating which key ('S'/'L') you need to press to classify <br>the object as mechanical (letter M) or non-mechanical (letter N).<br>The instruction <strong>M + N</strong> indicates that, in the current trial, by pressing the left key ('S') you classify the displayed object as mechanical (M) <br> and by pressing the right key ('L') you classify the object as non-mechanical (N). <br>The instruction <strong>N + M</strong> on the other hand indicates that by pressing the left key ('S') you classify the displayed object as non-mechanical (N) <br> and by pressing the right key ('L') you classify the object as mechanical (M). <br><br>Please press the key corresponding to the correct classification as fast as possible as soon as the object is displayed and try to avoid making mistakes.<br>If you do not respond within a 2 second window, a corresponding feedback will be displayed and the next trial will start.<br> The experiment is divided into multiple blocks to give you the opportunity to take a break after each block. <br>First, you can now practice this task. <br><br>Please place your <strong>LEFT INDEX FINGER</strong> on the 'S' key and your <strong>RIGHT INDEX FINGER</strong> on the 'L' key now. <br><br>Press SPACE to continue.</div>","32","","","","","","","","","","","","","","","","","","","",""
"html-keyboard-response","9","191548","0.0-2.0-1.0","ued272h7t7emtjq","instructions","5d21a8a21b06360019082dac","5f60e3c0a3b16e07647b2ff9","5f60eeeadfc69301b5ec1703","false","8836.105000002135","<div align=left> You will now have time to practice this task.<br><br>Remember: <br> <br><li>Please place your index fingers on the <strong>'S'</strong> and <strong>'L'</strong> keys <br>to respond as fast and accurately as possible.</li><li>Every picture can be classified as either mechanical or non-mechanical.</li><li>If you do not respond in time or commit an error, you will receive a corresponding feedback. </li><li> Please try to respond as <strong> fast </strong> and as <strong> accurately as possible </strong> .<br><li>To ensure optimal results, please minimize distractions and stay focused. </li><br><br>Press SPACE to continue.</div>","32","","","","","","","","","","","","","","","","","","","",""
"html-keyboard-response","10","192254","0.0-2.0-2.0-0.0","ued272h7t7emtjq","practice_no_cue","5d21a8a21b06360019082dac","5f60e3c0a3b16e07647b2ff9","5f60eeeadfc69301b5ec1703","false","null","<span style=""color: black; font-size: 48px"">N + M</span>","null","","","","resp_prompt","","","","","","","","","","","","","","","",""
"categorize-image","11","193752","0.0-2.0-2.0-1.0","ued272h7t7emtjq","practice_no_cue","5d21a8a21b06360019082dac","5f60e3c0a3b16e07647b2ff9","5f60eeeadfc69301b5ec1703","true","994.5850000003702","./Stimuli/ImagesPractice/SN220.jpg","83","","","","test","true","N + M","83","","SN","SN220.jpg","remember","old","1","1","start","left","","","",""
"html-keyboard-response","12","194457","0.0-2.0-2.0-0.1","ued272h7t7emtjq","practice_no_cue","5d21a8a21b06360019082dac","5f60e3c0a3b16e07647b2ff9","5f60eeeadfc69301b5ec1703","false","null","<span style=""color: black; font-size: 48px"">N + M</span>","null","","","","resp_prompt","","","","","","","","","","","","","","","",""
"categorize-image","13","196161","0.0-2.0-2.0-1.1","ued272h7t7emtjq","practice_no_cue","5d21a8a21b06360019082dac","5f60e3c0a3b16e07647b2ff9","5f60eeeadfc69301b5ec1703","true","1199.6200000066892","./Stimuli/ImagesPractice/LM147.jpg","83","","","","test","false","N + M","76","","LM","LM147.jpg","forget","old","2","1","start","left","","","",""
"html-keyboard-response","14","196866","0.0-2.0-2.0-0.2","ued272h7t7emtjq","practice_no_cue","5d21a8a21b06360019082dac","5f60e3c0a3b16e07647b2ff9","5f60eeeadfc69301b5ec1703","false","null","<span style=""color: black; font-size: 48px"">M + N</span>","null","","","","resp_prompt","","","","","","","","","","","","","","","",""
"categorize-image","15","198040","0.0-2.0-2.0-1.2","ued272h7t7emtjq","practice_no_cue","5d21a8a21b06360019082dac","5f60e3c0a3b16e07647b2ff9","5f60eeeadfc69301b5ec1703","true","670.6150000027264","./Stimuli/ImagesPractice/SM97.jpg","76","","","","test","false","M + N","83","","SM","SM97.jpg","forget","old","3","1","start","right","","","",""
"html-keyboard-response","16","198746","0.0-2.0-2.0-0.3","ued272h7t7emtjq","practice_no_cue","5d21a8a21b06360019082dac","5f60e3c0a3b16e07647b2ff9","5f60eeeadfc69301b5ec1703","false","null","<span style=""color: black; font-size: 48px"">M + N</span>","null","","","","resp_prompt","","","","","","","","","","","","","","","",""
"categorize-image","17","200435","0.0-2.0-2.0-1.3","ued272h7t7emtjq","practice_no_cue","5d21a8a21b06360019082dac","5f60e3c0a3b16e07647b2ff9","5f60eeeadfc69301b5ec1703","true","1182.6799999980722","./Stimuli/ImagesPractice/SM35.jpg","83","","","","test","true","M + N","83","","SM","SM35.jpg","remember","old","4","1","start","left","","","",""
"html-keyboard-response","18","201141","0.0-2.0-2.0-0.4","ued272h7t7emtjq","practice_no_cue","5d21a8a21b06360019082dac","5f60e3c0a3b16e07647b2ff9","5f60eeeadfc69301b5ec1703","false","null","<span style=""color: black; font-size: 48px"">M + N</span>","null","","","","resp_prompt","","","","","","","","","","","","","","","",""
"categorize-image","19","202530","0.0-2.0-2.0-1.4","ued272h7t7emtjq","practice_no_cue","5d21a8a21b06360019082dac","5f60e3c0a3b16e07647b2ff9","5f60eeeadfc69301b5ec1703","true","884.780000000319","./Stimuli/ImagesPractice/LM239.jpg","83","","","","test","true","M + N","83","","LM","LM239.jpg","forget","old","5","1","start","left","","","",""
"html-keyboard-response","20","203236","0.0-2.0-2.0-0.5","ued272h7t7emtjq","practice_no_cue","5d21a8a21b06360019082dac","5f60e3c0a3b16e07647b2ff9","5f60eeeadfc69301b5ec1703","false","null","<span style=""color: black; font-size: 48px"">N + M</span>","null","","","","resp_prompt","","","","","","","","","","","","","","","",""
"categorize-image","21","204523","0.0-2.0-2.0-1.5","ued272h7t7emtjq","practice_no_cue","5d21a8a21b06360019082dac","5f60e3c0a3b16e07647b2ff9","5f60eeeadfc69301b5ec1703","true","781.184999999823","./Stimuli/ImagesPractice/SN222.jpg","76","","","","test","false","N + M","83","","SN","SN222.jpg","forget","old","6","1","start","right","","","",""
"html-keyboard-response","22","205229","0.0-2.0-2.0-0.6","ued272h7t7emtjq","practice_no_cue","5d21a8a21b06360019082dac","5f60e3c0a3b16e07647b2ff9","5f60eeeadfc69301b5ec1703","false","null","<span style=""color: black; font-size: 48px"">M + N</span>","null","","","","resp_prompt","","","","","","","","","","","","","","","",""
"categorize-image","23","206712","0.0-2.0-2.0-1.6","ued272h7t7emtjq","practice_no_cue","5d21a8a21b06360019082dac","5f60e3c0a3b16e07647b2ff9","5f60eeeadfc69301b5ec1703","true","979.2349999988801","./Stimuli/ImagesPractice/LN109.jpg","76","","","","test","true","M + N","76","","LN","LN109.jpg","forget","old","7","1","start","right","","","",""
"html-keyboard-response","24","207418","0.0-2.0-2.0-0.7","ued272h7t7emtjq","practice_no_cue","5d21a8a21b06360019082dac","5f60e3c0a3b16e07647b2ff9","5f60eeeadfc69301b5ec1703","false","null","<span style=""color: black; font-size: 48px"">N + M</span>","null","","","","resp_prompt","","","","","","","","","","","","","","","",""
"categorize-image","25","208936","0.0-2.0-2.0-1.7","ued272h7t7emtjq","practice_no_cue","5d21a8a21b06360019082dac","5f60e3c0a3b16e07647b2ff9","5f60eeeadfc69301b5ec1703","true","1014.7999999971944","./Stimuli/ImagesPractice/SN75.jpg","83","","","","test","true","N + M","83","","SN","SN75.jpg","forget","old","8","1","start","left","","","",""
"html-keyboard-response","26","209638","0.0-2.0-2.0-0.8","ued272h7t7emtjq","practice_no_cue","5d21a8a21b06360019082dac","5f60e3c0a3b16e07647b2ff9","5f60eeeadfc69301b5ec1703","false","null","<span style=""color: black; font-size: 48px"">N + M</span>","null","","","","resp_prompt","","","","","","","","","","","","","","","",""
"categorize-image","27","211001","0.0-2.0-2.0-1.8","ued272h7t7emtjq","practice_no_cue","5d21a8a21b06360019082dac","5f60e3c0a3b16e07647b2ff9","5f60eeeadfc69301b5ec1703","true","858.8349999990896","./Stimuli/ImagesPractice/LN17.jpg","83","","","","test","true","N + M","83","","LN","LN17.jpg","remember","old","9","1","start","left","","","",""
"html-keyboard-response","28","211706","0.0-2.0-2.0-0.9","ued272h7t7emtjq","practice_no_cue","5d21a8a21b06360019082dac","5f60e3c0a3b16e07647b2ff9","5f60eeeadfc69301b5ec1703","false","null","<span style=""color: black; font-size: 48px"">M + N</span>","null","","","","resp_prompt","","","","","","","","","","","","","","","",""
"categorize-image","29","213354","0.0-2.0-2.0-1.9","ued272h7t7emtjq","practice_no_cue","5d21a8a21b06360019082dac","5f60e3c0a3b16e07647b2ff9","5f60eeeadfc69301b5ec1703","true","1142.87499999773","./Stimuli/ImagesPractice/SN76.jpg","83","","","","test","false","M + N","76","","SN","SN76.jpg","remember","old","10","1","start","left","","","",""
"html-keyboard-response","30","214060","0.0-2.0-2.0-0.10","ued272h7t7emtjq","practice_no_cue","5d21a8a21b06360019082dac","5f60e3c0a3b16e07647b2ff9","5f60eeeadfc69301b5ec1703","false","null","<span style=""color: black; font-size: 48px"">M + N</span>","null","","","","resp_prompt","","","","","","","","","","","","","","","",""
"categorize-image","31","215584","0.0-2.0-2.0-1.10","ued272h7t7emtjq","practice_no_cue","5d21a8a21b06360019082dac","5f60e3c0a3b16e07647b2ff9","5f60eeeadfc69301b5ec1703","true","1020.7700000028126","./Stimuli/ImagesPractice/LM230.jpg","83","","","","test","true","M + N","83","","LM","LM230.jpg","remember","old","11","1","start","left","","","",""
"html-keyboard-response","32","216289","0.0-2.0-2.0-0.11","ued272h7t7emtjq","practice_no_cue","5d21a8a21b06360019082dac","5f60e3c0a3b16e07647b2ff9","5f60eeeadfc69301b5ec1703","false","null","<span style=""color: black; font-size: 48px"">N + M</span>","null","","","","resp_prompt","","","","","","","","","","","","","","","",""
"categorize-image","33","218283","0.0-2.0-2.0-1.11","ued272h7t7emtjq","practice_no_cue","5d21a8a21b06360019082dac","5f60e3c0a3b16e07647b2ff9","5f60eeeadfc69301b5ec1703","true","1487.8249999965192","./Stimuli/ImagesPractice/SM98.jpg","76","","","","test","true","N + M","76","","SM","SM98.jpg","remember","old","12","1","start","right","","","",""
"html-keyboard-response","34","218989","0.0-2.0-2.0-0.12","ued272h7t7emtjq","practice_no_cue","5d21a8a21b06360019082dac","5f60e3c0a3b16e07647b2ff9","5f60eeeadfc69301b5ec1703","false","null","<span style=""color: black; font-size: 48px"">N + M</span>","null","","","","resp_prompt","","","","","","","","","","","","","","","",""
"categorize-image","35","220414","0.0-2.0-2.0-1.12","ued272h7t7emtjq","practice_no_cue","5d21a8a21b06360019082dac","5f60e3c0a3b16e07647b2ff9","5f60eeeadfc69301b5ec1703","true","923.7950000024284","./Stimuli/ImagesPractice/LN15.jpg","83","","","","test","true","N + M","83","","LN","LN15.jpg","remember","old","13","1","start","left","","","",""
"html-keyboard-response","36","221119","0.0-2.0-2.0-0.13","ued272h7t7emtjq","practice_no_cue","5d21a8a21b06360019082dac","5f60e3c0a3b16e07647b2ff9","5f60eeeadfc69301b5ec1703","false","null","<span style=""color: black; font-size: 48px"">N + M</span>","null","","","","resp_prompt","","","","","","","","","","","","","","","",""
"categorize-image","37","222575","0.0-2.0-2.0-1.13","ued272h7t7emtjq","practice_no_cue","5d21a8a21b06360019082dac","5f60e3c0a3b16e07647b2ff9","5f60eeeadfc69301b5ec1703","true","954.0500000002794","./Stimuli/ImagesPractice/LN72.jpg","83","","","","test","true","N + M","83","","LN","LN72.jpg","forget","old","14","1","start","left","","","",""
"html-keyboard-response","38","223280","0.0-2.0-2.0-0.14","ued272h7t7emtjq","practice_no_cue","5d21a8a21b06360019082dac","5f60e3c0a3b16e07647b2ff9","5f60eeeadfc69301b5ec1703","false","null","<span style=""color: black; font-size: 48px"">M + N</span>","null","","","","resp_prompt","","","","","","","","","","","","","","","",""
"categorize-image","39","224594","0.0-2.0-2.0-1.14","ued272h7t7emtjq","practice_no_cue","5d21a8a21b06360019082dac","5f60e3c0a3b16e07647b2ff9","5f60eeeadfc69301b5ec1703","true","808.8950000019395","./Stimuli/ImagesPractice/LM55.jpg","76","","","","test","false","M + N","83","","LM","LM55.jpg","remember","old","15","1","start","right","","","",""
"html-keyboard-response","40","225300","0.0-2.0-2.0-0.15","ued272h7t7emtjq","practice_no_cue","5d21a8a21b06360019082dac","5f60e3c0a3b16e07647b2ff9","5f60eeeadfc69301b5ec1703","false","null","<span style=""color: black; font-size: 48px"">M + N</span>","null","","","","resp_prompt","","","","","","","","","","","","","","","",""
"categorize-image","41","226864","0.0-2.0-2.0-1.15","ued272h7t7emtjq","practice_no_cue","5d21a8a21b06360019082dac","5f60e3c0a3b16e07647b2ff9","5f60eeeadfc69301b5ec1703","true","1060.5299999951967","./Stimuli/ImagesPractice/SN221.jpg","76","","","","test","true","M + N","76","","SN","SN221.jpg","forget","old","16","1","start","right","","","",""
"html-keyboard-response","42","232021","0.0-2.0-3.0","ued272h7t7emtjq","break","5d21a8a21b06360019082dac","5f60e3c0a3b16e07647b2ff9","5f60eeeadfc69301b5ec1703","false","5155.339999997523","<p style='font-size: 32px;'>Break</><br><br><br><br><br><p style='font-size: 24px;'>In the last block, you committed 5 errors and did not respond in time on 0 trials.
</p><p style='font-size: 24px;'>Try to respond as fast and accurately as possible in the next block as well! </p><p style='font-size: 24px;'>Press SPACE to continue.</p>","32","","","","","","","","","","","","","","","","","","","",""
"html-keyboard-response","43","236161","0.0-2.0-4.0","ued272h7t7emtjq","instructions","5d21a8a21b06360019082dac","5f60e3c0a3b16e07647b2ff9","5f60eeeadfc69301b5ec1703","false","4138.10999999987","<div align=left> Great!<br><br>Are you ready to continue?<br><br>If you want to reread the instructions and redo the practice trials, <br>please press „Z“. <br><br>Press SPACE to CONTINUE with the experiment when you are ready. </div>","32","","","","","","","","","","","","","","","","","","","",""
"html-keyboard-response","44","268957","0.0-3.0-0.0","ued272h7t7emtjq","instructions","5d21a8a21b06360019082dac","5f60e3c0a3b16e07647b2ff9","5f60eeeadfc69301b5ec1703","false","32794.80499999772","<div align=left>Great!<br> <strong>Attention</strong>! You will now receive a second, additional task! <br><br>To this point it was you <strong>first task</strong> to correctly <strong>classify objects</strong>. <br><br>As mentioned in the beginning, we aim to examine how well humans can remember previously learned information.<br>We would like to find out whether our memory improves if we only remember information that is relevant to us. <br><br>Therefore, your <strong>second task</strong> will be to <strong>remember</strong> the pictures you are to categorize. <br> After the learning phase, there will be a memory test phase, in which you will be asked to indicate whether you have seen a picture before or not. <br>Some, but not all pictures shown in the learning phase will appear in the memory test phase.<br>After classifying a picture, you will be told whether you should remember it for the memory test phase or not. <br>Thus, some pictures can be forgotten, whereas others have to be remembered. <br><br>Note: From now on, feedback will only be displayed if you responded incorrectly or not in time.<br><br>Press SPACE to continue.</div>","32","","","","","","","","","","","","","","","","","","","",""
"html-keyboard-response","45","281656","0.0-3.0-1.0","ued272h7t7emtjq","instructions","5d21a8a21b06360019082dac","5f60e3c0a3b16e07647b2ff9","5f60eeeadfc69301b5ec1703","false","12698.684999995749","<div align=left>In the following part, you will thus have to remember only some pictures. <br>Immediately after seeing and classifying the picture, a symbol will be displayed, indicating whether you should remember or forget the previous picture. <br><br>A <span style='color: dodgerblue; font-size: 28px'>O</span> indicates REMEMBER. That means, you have to remember this picture, because it will be tested later. <br><br>A <span style='color: darkorange; font-size:28px'>Ø</span> indicates FORGET. You do not have to remember this picture. <br><br> As you will have to remember a lot of pictures, it will be hard for you to remember all of them. <br>It will put you at an advantage if you instantly forget the pictures you are not asked to remember. <br> This will make it easier for you to remember the pictures that will be tested afterwards. <br><br>Press SPACE to continue.</div>","32","","","","","","","","","","","","","","","","","","","",""
"html-keyboard-response","46","290038","0.0-3.0-2.0","ued272h7t7emtjq","instructions","5d21a8a21b06360019082dac","5f60e3c0a3b16e07647b2ff9","5f60eeeadfc69301b5ec1703","false","8380.839999997988","<div align=left> Now you have the chance to practice both tasks together.<br><br>Remember: <br> <br><li>Please place your index fingers on the <strong>'S'</strong> and <strong>'L'</strong> keys <br>to respond as fast and accurately as possible.</li><li>Every picture can be classified as either mechanical or non-mechanical.</li><li>If you do not respond in time or commit an error, you will receive a corresponding feedback. <br>Please try to respond as <strong> fast </strong> and as <strong> accurately as possible </strong>.</li><li> Please remember only the to-be-remembered <span style='color: dodgerblue; font-size: 28px'>O</span> pictures. <br></li><li> Please minimize distractions and stay focused. </li><br><br>Press SPACE to START</div>","32","","","","","","","","","","","","","","","","","","","",""
"html-keyboard-response","47","290745","0.0-3.0-3.0-0.0","ued272h7t7emtjq","practice_cue","5d21a8a21b06360019082dac","5f60e3c0a3b16e07647b2ff9","5f60eeeadfc69301b5ec1703","false","null","<span style=""color: black; font-size: 48px"">N + M</span>","null","","","","resp_prompt","","","","","","","","","","","","","","","",""
"categorize-image","48","291456","0.0-3.0-3.0-1.0","ued272h7t7emtjq","practice_cue","5d21a8a21b06360019082dac","5f60e3c0a3b16e07647b2ff9","5f60eeeadfc69301b5ec1703","true","707.3600000003353","./Stimuli/ImagesPractice/SN220.jpg","83","","","","test","true","N + M","83","","SN","SN220.jpg","remember","old","17","2","practice_forget","left","","","",""
"html-keyboard-response","49","293462","0.0-3.0-3.0-3.0","ued272h7t7emtjq","practice_cue","5d21a8a21b06360019082dac","5f60e3c0a3b16e07647b2ff9","5f60eeeadfc69301b5ec1703","false","null","<div style=""align-items: center; display: flex; color: dodgerblue; font-size: 90px""><b>o</b></div>","null","","","","forget_cue","","","","","","","","","","","","","","","",""
"html-keyboard-response","50","294169","0.0-3.0-3.0-0.1","ued272h7t7emtjq","practice_cue","5d21a8a21b06360019082dac","5f60e3c0a3b16e07647b2ff9","5f60eeeadfc69301b5ec1703","false","null","<span style=""color: black; font-size: 48px"">N + M</span>","null","","","","resp_prompt","","","","","","","","","","","","","","","",""
"categorize-image","51","294849","0.0-3.0-3.0-1.1","ued272h7t7emtjq","practice_cue","5d21a8a21b06360019082dac","5f60e3c0a3b16e07647b2ff9","5f60eeeadfc69301b5ec1703","true","676.4750000002095","./Stimuli/ImagesPractice/SN222.jpg","83","","","","test","true","N + M","83","","SN","SN222.jpg","forget","old","18","2","practice_forget","left","","","",""
"html-keyboard-response","52","296855","0.0-3.0-3.0-3.1","ued272h7t7emtjq","practice_cue","5d21a8a21b06360019082dac","5f60e3c0a3b16e07647b2ff9","5f60eeeadfc69301b5ec1703","false","null","<div style=""align-items: center; display: flex; color: darkorange; font-size: 90px""><b>ø</b></div>","null","","","","forget_cue","","","","","","","","","","","","","","","",""
"html-keyboard-response","53","297561","0.0-3.0-3.0-0.2","ued272h7t7emtjq","practice_cue","5d21a8a21b06360019082dac","5f60e3c0a3b16e07647b2ff9","5f60eeeadfc69301b5ec1703","false","null","<span style=""color: black; font-size: 48px"">N + M</span>","null","","","","resp_prompt","","","","","","","","","","","","","","","",""
"categorize-image","54","298375","0.0-3.0-3.0-1.2","ued272h7t7emtjq","practice_cue","5d21a8a21b06360019082dac","5f60e3c0a3b16e07647b2ff9","5f60eeeadfc69301b5ec1703","true","811.6849999933038","./Stimuli/ImagesPractice/SN75.jpg","83","","","","test","true","N + M","83","","SN","SN75.jpg","forget","old","19","2","practice_forget","left","","","",""
"html-keyboard-response","55","300381","0.0-3.0-3.0-3.2","ued272h7t7emtjq","practice_cue","5d21a8a21b06360019082dac","5f60e3c0a3b16e07647b2ff9","5f60eeeadfc69301b5ec1703","false","null","<div style=""align-items: center; display: flex; color: darkorange; font-size: 90px""><b>ø</b></div>","null","","","","forget_cue","","","","","","","","","","","","","","","",""
"html-keyboard-response","56","301082","0.0-3.0-3.0-0.3","ued272h7t7emtjq","practice_cue","5d21a8a21b06360019082dac","5f60e3c0a3b16e07647b2ff9","5f60eeeadfc69301b5ec1703","false","null","<span style=""color: black; font-size: 48px"">N + M</span>","null","","","","resp_prompt","","","","","","","","","","","","","","","",""
"categorize-image","57","301863","0.0-3.0-3.0-1.3","ued272h7t7emtjq","practice_cue","5d21a8a21b06360019082dac","5f60e3c0a3b16e07647b2ff9","5f60eeeadfc69301b5ec1703","true","777.5299999993877","./Stimuli/ImagesPractice/SM98.jpg","76","","","","test","true","N + M","76","","SM","SM98.jpg","remember","old","20","2","practice_forget","right","","","",""
"html-keyboard-response","58","303864","0.0-3.0-3.0-3.3","ued272h7t7emtjq","practice_cue","5d21a8a21b06360019082dac","5f60e3c0a3b16e07647b2ff9","5f60eeeadfc69301b5ec1703","false","null","<div style=""align-items: center; display: flex; color: dodgerblue; font-size: 90px""><b>o</b></div>","null","","","","forget_cue","","","","","","","","","","","","","","","",""
"html-keyboard-response","59","304566","0.0-3.0-3.0-0.4","ued272h7t7emtjq","practice_cue","5d21a8a21b06360019082dac","5f60e3c0a3b16e07647b2ff9","5f60eeeadfc69301b5ec1703","false","null","<span style=""color: black; font-size: 48px"">N + M</span>","null","","","","resp_prompt","","","","","","","","","","","","","","","",""
"categorize-image","60","305296","0.0-3.0-3.0-1.4","ued272h7t7emtjq","practice_cue","5d21a8a21b06360019082dac","5f60e3c0a3b16e07647b2ff9","5f60eeeadfc69301b5ec1703","true","727.019999998447","./Stimuli/ImagesPractice/LM147.jpg","76","","","","test","true","N + M","76","","LM","LM147.jpg","forget","old","21","2","practice_forget","right","","","",""
"html-keyboard-response","61","307298","0.0-3.0-3.0-3.4","ued272h7t7emtjq","practice_cue","5d21a8a21b06360019082dac","5f60e3c0a3b16e07647b2ff9","5f60eeeadfc69301b5ec1703","false","null","<div style=""align-items: center; display: flex; color: darkorange; font-size: 90px""><b>ø</b></div>","null","","","","forget_cue","","","","","","","","","","","","","","","",""
"html-keyboard-response","62","308002","0.0-3.0-3.0-0.5","ued272h7t7emtjq","practice_cue","5d21a8a21b06360019082dac","5f60e3c0a3b16e07647b2ff9","5f60eeeadfc69301b5ec1703","false","null","<span style=""color: black; font-size: 48px"">M + N</span>","null","","","","resp_prompt","","","","","","","","","","","","","","","",""
"categorize-image","63","308688","0.0-3.0-3.0-1.5","ued272h7t7emtjq","practice_cue","5d21a8a21b06360019082dac","5f60e3c0a3b16e07647b2ff9","5f60eeeadfc69301b5ec1703","true","681.7050000026939","./Stimuli/ImagesPractice/LM55.jpg","83","","","","test","true","M + N","83","","LM","LM55.jpg","remember","old","22","2","practice_forget","left","","","",""
"html-keyboard-response","64","310692","0.0-3.0-3.0-3.5","ued272h7t7emtjq","practice_cue","5d21a8a21b06360019082dac","5f60e3c0a3b16e07647b2ff9","5f60eeeadfc69301b5ec1703","false","null","<div style=""align-items: center; display: flex; color: dodgerblue; font-size: 90px""><b>o</b></div>","null","","","","forget_cue","","","","","","","","","","","","","","","",""
"html-keyboard-response","65","311397","0.0-3.0-3.0-0.6","ued272h7t7emtjq","practice_cue","5d21a8a21b06360019082dac","5f60e3c0a3b16e07647b2ff9","5f60eeeadfc69301b5ec1703","false","null","<span style=""color: black; font-size: 48px"">M + N</span>","null","","","","resp_prompt","","","","","","","","","","","","","","","",""
"categorize-image","66","312255","0.0-3.0-3.0-1.6","ued272h7t7emtjq","practice_cue","5d21a8a21b06360019082dac","5f60e3c0a3b16e07647b2ff9","5f60eeeadfc69301b5ec1703","true","855.0800000011805","./Stimuli/ImagesPractice/SM97.jpg","83","","","","test","true","M + N","83","","SM","SM97.jpg","forget","old","23","2","practice_forget","left","","","",""
"html-keyboard-response","67","314256","0.0-3.0-3.0-3.6","ued272h7t7emtjq","practice_cue","5d21a8a21b06360019082dac","5f60e3c0a3b16e07647b2ff9","5f60eeeadfc69301b5ec1703","false","null","<div style=""align-items: center; display: flex; color: darkorange; font-size: 90px""><b>ø</b></div>","null","","","","forget_cue","","","","","","","","","","","","","","","",""
"html-keyboard-response","68","314960","0.0-3.0-3.0-0.7","ued272h7t7emtjq","practice_cue","5d21a8a21b06360019082dac","5f60e3c0a3b16e07647b2ff9","5f60eeeadfc69301b5ec1703","false","null","<span style=""color: black; font-size: 48px"">N + M</span>","null","","","","resp_prompt","","","","","","","","","","","","","","","",""
"categorize-image","69","315857","0.0-3.0-3.0-1.7","ued272h7t7emtjq","practice_cue","5d21a8a21b06360019082dac","5f60e3c0a3b16e07647b2ff9","5f60eeeadfc69301b5ec1703","true","893.9400000017486","./Stimuli/ImagesPractice/LN72.jpg","83","","","","test","true","N + M","83","","LN","LN72.jpg","forget","old","24","2","practice_forget","left","","","",""
"html-keyboard-response","70","317863","0.0-3.0-3.0-3.7","ued272h7t7emtjq","practice_cue","5d21a8a21b06360019082dac","5f60e3c0a3b16e07647b2ff9","5f60eeeadfc69301b5ec1703","false","null","<div style=""align-items: center; display: flex; color: darkorange; font-size: 90px""><b>ø</b></div>","null","","","","forget_cue","","","","","","","","","","","","","","","",""
"html-keyboard-response","71","318566","0.0-3.0-3.0-0.8","ued272h7t7emtjq","practice_cue","5d21a8a21b06360019082dac","5f60e3c0a3b16e07647b2ff9","5f60eeeadfc69301b5ec1703","false","null","<span style=""color: black; font-size: 48px"">M + N</span>","null","","","","resp_prompt","","","","","","","","","","","","","","","",""
"categorize-image","72","319762","0.0-3.0-3.0-1.8","ued272h7t7emtjq","practice_cue","5d21a8a21b06360019082dac","5f60e3c0a3b16e07647b2ff9","5f60eeeadfc69301b5ec1703","true","1193.025000000489","./Stimuli/ImagesPractice/LM230.jpg","83","","","","test","true","M + N","83","","LM","LM230.jpg","remember","old","25","2","practice_forget","left","","","",""
"html-keyboard-response","73","321763","0.0-3.0-3.0-3.8","ued272h7t7emtjq","practice_cue","5d21a8a21b06360019082dac","5f60e3c0a3b16e07647b2ff9","5f60eeeadfc69301b5ec1703","false","null","<div style=""align-items: center; display: flex; color: dodgerblue; font-size: 90px""><b>o</b></div>","null","","","","forget_cue","","","","","","","","","","","","","","","",""
"html-keyboard-response","74","322465","0.0-3.0-3.0-0.9","ued272h7t7emtjq","practice_cue","5d21a8a21b06360019082dac","5f60e3c0a3b16e07647b2ff9","5f60eeeadfc69301b5ec1703","false","null","<span style=""color: black; font-size: 48px"">N + M</span>","null","","","","resp_prompt","","","","","","","","","","","","","","","",""
"categorize-image","75","323457","0.0-3.0-3.0-1.9","ued272h7t7emtjq","practice_cue","5d21a8a21b06360019082dac","5f60e3c0a3b16e07647b2ff9","5f60eeeadfc69301b5ec1703","true","988.6999999944237","./Stimuli/ImagesPractice/LN17.jpg","83","","","","test","true","N + M","83","","LN","LN17.jpg","remember","old","26","2","practice_forget","left","","","",""
"html-keyboard-response","76","325463","0.0-3.0-3.0-3.9","ued272h7t7emtjq","practice_cue","5d21a8a21b06360019082dac","5f60e3c0a3b16e07647b2ff9","5f60eeeadfc69301b5ec1703","false","null","<div style=""align-items: center; display: flex; color: dodgerblue; font-size: 90px""><b>o</b></div>","null","","","","forget_cue","","","","","","","","","","","","","","","",""
"html-keyboard-response","77","326169","0.0-3.0-3.0-0.10","ued272h7t7emtjq","practice_cue","5d21a8a21b06360019082dac","5f60e3c0a3b16e07647b2ff9","5f60eeeadfc69301b5ec1703","false","null","<span style=""color: black; font-size: 48px"">M + N</span>","null","","","","resp_prompt","","","","","","","","","","","","","","","",""
"categorize-image","78","327333","0.0-3.0-3.0-1.10","ued272h7t7emtjq","practice_cue","5d21a8a21b06360019082dac","5f60e3c0a3b16e07647b2ff9","5f60eeeadfc69301b5ec1703","true","1158.9699999967706","./Stimuli/ImagesPractice/SN221.jpg","76","","","","test","true","M + N","76","","SN","SN221.jpg","forget","old","27","2","practice_forget","right","","","",""
"html-keyboard-response","79","329337","0.0-3.0-3.0-3.10","ued272h7t7emtjq","practice_cue","5d21a8a21b06360019082dac","5f60e3c0a3b16e07647b2ff9","5f60eeeadfc69301b5ec1703","false","null","<div style=""align-items: center; display: flex; color: darkorange; font-size: 90px""><b>ø</b></div>","null","","","","forget_cue","","","","","","","","","","","","","","","",""
"html-keyboard-response","80","330043","0.0-3.0-3.0-0.11","ued272h7t7emtjq","practice_cue","5d21a8a21b06360019082dac","5f60e3c0a3b16e07647b2ff9","5f60eeeadfc69301b5ec1703","false","null","<span style=""color: black; font-size: 48px"">M + N</span>","null","","","","resp_prompt","","","","","","","","","","","","","","","",""
"categorize-image","81","331570","0.0-3.0-3.0-1.11","ued272h7t7emtjq","practice_cue","5d21a8a21b06360019082dac","5f60e3c0a3b16e07647b2ff9","5f60eeeadfc69301b5ec1703","true","1524.184999994759","./Stimuli/ImagesPractice/SM35.jpg","76","","","","test","false","M + N","83","","SM","SM35.jpg","remember","old","28","2","practice_forget","right","","","",""
"html-keyboard-response","82","332072","0.0-3.0-3.0-2.11-0.11","ued272h7t7emtjq","practice_cue","5d21a8a21b06360019082dac","5f60e3c0a3b16e07647b2ff9","5f60eeeadfc69301b5ec1703","false","null","<span style=""color: red; font-size: 48px"">Error!</span>","null","","","","feedback","","","","","","","","","","","","","","","",""
"html-keyboard-response","83","334078","0.0-3.0-3.0-3.11","ued272h7t7emtjq","practice_cue","5d21a8a21b06360019082dac","5f60e3c0a3b16e07647b2ff9","5f60eeeadfc69301b5ec1703","false","null","<div style=""align-items: center; display: flex; color: dodgerblue; font-size: 90px""><b>o</b></div>","null","","","","forget_cue","","","","","","","","","","","","","","","",""
"html-keyboard-response","84","334782","0.0-3.0-3.0-0.12","ued272h7t7emtjq","practice_cue","5d21a8a21b06360019082dac","5f60e3c0a3b16e07647b2ff9","5f60eeeadfc69301b5ec1703","false","null","<span style=""color: black; font-size: 48px"">M + N</span>","null","","","","resp_prompt","","","","","","","","","","","","","","","",""
"categorize-image","85","335614","0.0-3.0-3.0-1.12","ued272h7t7emtjq","practice_cue","5d21a8a21b06360019082dac","5f60e3c0a3b16e07647b2ff9","5f60eeeadfc69301b5ec1703","true","828.800000002957","./Stimuli/ImagesPractice/LN109.jpg","76","","","","test","true","M + N","76","","LN","LN109.jpg","forget","old","29","2","practice_forget","right","","","",""
"html-keyboard-response","86","337618","0.0-3.0-3.0-3.12","ued272h7t7emtjq","practice_cue","5d21a8a21b06360019082dac","5f60e3c0a3b16e07647b2ff9","5f60eeeadfc69301b5ec1703","false","null","<div style=""align-items: center; display: flex; color: darkorange; font-size: 90px""><b>ø</b></div>","null","","","","forget_cue","","","","","","","","","","","","","","","",""
"html-keyboard-response","87","338324","0.0-3.0-3.0-0.13","ued272h7t7emtjq","practice_cue","5d21a8a21b06360019082dac","5f60e3c0a3b16e07647b2ff9","5f60eeeadfc69301b5ec1703","false","null","<span style=""color: black; font-size: 48px"">N + M</span>","null","","","","resp_prompt","","","","","","","","","","","","","","","",""
"categorize-image","88","339234","0.0-3.0-3.0-1.13","ued272h7t7emtjq","practice_cue","5d21a8a21b06360019082dac","5f60e3c0a3b16e07647b2ff9","5f60eeeadfc69301b5ec1703","true","907.2650000016438","./Stimuli/ImagesPractice/LN15.jpg","83","","","","test","true","N + M","83","","LN","LN15.jpg","remember","old","30","2","practice_forget","left","","","",""
"html-keyboard-response","89","341237","0.0-3.0-3.0-3.13","ued272h7t7emtjq","practice_cue","5d21a8a21b06360019082dac","5f60e3c0a3b16e07647b2ff9","5f60eeeadfc69301b5ec1703","false","null","<div style=""align-items: center; display: flex; color: dodgerblue; font-size: 90px""><b>o</b></div>","null","","","","forget_cue","","","","","","","","","","","","","","","",""
"html-keyboard-response","90","341941","0.0-3.0-3.0-0.14","ued272h7t7emtjq","practice_cue","5d21a8a21b06360019082dac","5f60e3c0a3b16e07647b2ff9","5f60eeeadfc69301b5ec1703","false","null","<span style=""color: black; font-size: 48px"">M + N</span>","null","","","","resp_prompt","","","","","","","","","","","","","","","",""
"categorize-image","91","342970","0.0-3.0-3.0-1.14","ued272h7t7emtjq","practice_cue","5d21a8a21b06360019082dac","5f60e3c0a3b16e07647b2ff9","5f60eeeadfc69301b5ec1703","true","1026.8250000008265","./Stimuli/ImagesPractice/SN76.jpg","76","","","","test","true","M + N","76","","SN","SN76.jpg","remember","old","31","2","practice_forget","right","","","",""
"html-keyboard-response","92","344975","0.0-3.0-3.0-3.14","ued272h7t7emtjq","practice_cue","5d21a8a21b06360019082dac","5f60e3c0a3b16e07647b2ff9","5f60eeeadfc69301b5ec1703","false","null","<div style=""align-items: center; display: flex; color: dodgerblue; font-size: 90px""><b>o</b></div>","null","","","","forget_cue","","","","","","","","","","","","","","","",""
"html-keyboard-response","93","345677","0.0-3.0-3.0-0.15","ued272h7t7emtjq","practice_cue","5d21a8a21b06360019082dac","5f60e3c0a3b16e07647b2ff9","5f60eeeadfc69301b5ec1703","false","null","<span style=""color: black; font-size: 48px"">M + N</span>","null","","","","resp_prompt","","","","","","","","","","","","","","","",""
"categorize-image","94","346643","0.0-3.0-3.0-1.15","ued272h7t7emtjq","practice_cue","5d21a8a21b06360019082dac","5f60e3c0a3b16e07647b2ff9","5f60eeeadfc69301b5ec1703","true","962.9700000004959","./Stimuli/ImagesPractice/LM239.jpg","83","","","","test","true","M + N","83","","LM","LM239.jpg","forget","old","32","2","practice_forget","left","","","",""
"html-keyboard-response","95","348647","0.0-3.0-3.0-3.15","ued272h7t7emtjq","practice_cue","5d21a8a21b06360019082dac","5f60e3c0a3b16e07647b2ff9","5f60eeeadfc69301b5ec1703","false","null","<div style=""align-items: center; display: flex; color: darkorange; font-size: 90px""><b>ø</b></div>","null","","","","forget_cue","","","","","","","","","","","","","","","",""
"html-keyboard-response","96","350307","0.0-3.0-4.0","ued272h7t7emtjq","break","5d21a8a21b06360019082dac","5f60e3c0a3b16e07647b2ff9","5f60eeeadfc69301b5ec1703","false","1658.449999995355","<p style='font-size: 32px;'>Break</><br><br><br><br><br><p style='font-size: 24px;'>In the last block, you committed 1 errors and did not respond in time on 0 trials.
</p><p style='font-size: 24px;'>Try to respond as fast and accurately as possible in the next block as well! </p><p style='font-size: 24px;'>Press SPACE to continue.</p>","32","","","","","","","","","","","","","","","","","","","",""
"html-keyboard-response","97","365553","0.0-3.0-5.0","ued272h7t7emtjq","instructions","5d21a8a21b06360019082dac","5f60e3c0a3b16e07647b2ff9","5f60eeeadfc69301b5ec1703","false","15245.410000003176","<div align=left> Now, to practice, we kindly ask you to remember as many of the to-be-remembered pictures<br>of the previous learning phase as possible.<br><br>The pictures you were instructed to remember were the pictures followed by a <span style='color: dodgerblue; font-size: 28px'>O</span>.<br><br>In this memory test phase, you will also see some new pictures.<br>It is your task to remember whether you were presented with this specific picture in this study so far or not.<br>If you recognize an object (you have already seen it in this study), it is an OLD object. <br>If you do not recognize an object (you have NOT seen it in this study), it is a NEW object. <br><strong> Attention</strong>: As already mentioned, <span style='color: darkorange; font-size:28px'>Ø</span>-pictures will <strong>never</strong> appear in this memory test (neither as new objects). <br><br>Press SPACE to continue. </div>","32","","","","","","","","","","","","","","","","","","","",""
"html-keyboard-response","98","387099","0.0-3.0-6.0","ued272h7t7emtjq","instructions","5d21a8a21b06360019082dac","5f60e3c0a3b16e07647b2ff9","5f60eeeadfc69301b5ec1703","false","21545.399999995425","<div align=left> M and N no longer will appear on the left/right of the fixation cross. <br>Instead there will be a note at the bottom of the left or right side  <br>indicating which key you should press for an old or new object:  <br> <br>Press the <strong>right</strong> key to classify an object as <strong>old</strong> and press the <strong>left</strong>, to classify an object as <strong>new</strong>.<br>Please classify the objects as new/old by again placing your index finger on the 'S' and 'L' keys <br>and press them accordingly.<br><br><strong>Old:</strong> This object has been presented before. <br><strong>New:</strong> This object has <strong>not</strong> been presented.<br><br>Now please put your right and left index fingers on the 'S' and 'L' keys of your keyboard. <br>Please respond as fast and as accurately as possible!<br><br>Press SPACE to continue. </div>","32","","","","","","","","","","","","","","","","","","","",""
"categorize-image","99","389476","0.0-3.0-7.0-0.0","ued272h7t7emtjq","practice_recog","5d21a8a21b06360019082dac","5f60e3c0a3b16e07647b2ff9","5f60eeeadfc69301b5ec1703","true","1869.1350000008242","./Stimuli/ImagesPractice/SN205.jpg","76","","","","test","true","","76","","SN","SN205.jpg","","new","33","3","practice_recog","right","","","",""
"categorize-image","100","390875","0.0-3.0-7.0-0.1","ued272h7t7emtjq","practice_recog","5d21a8a21b06360019082dac","5f60e3c0a3b16e07647b2ff9","5f60eeeadfc69301b5ec1703","true","892.5699999963399","./Stimuli/ImagesPractice/SN76.jpg","83","","","","test","true","","83","","SN","SN76.jpg","","old","34","3","practice_recog","left","","","",""
"categorize-image","101","392179","0.0-3.0-7.0-0.2","ued272h7t7emtjq","practice_recog","5d21a8a21b06360019082dac","5f60e3c0a3b16e07647b2ff9","5f60eeeadfc69301b5ec1703","true","798.3749999984866","./Stimuli/ImagesPractice/SM35.jpg","83","","","","test","true","","83","","SM","SM35.jpg","","old","35","3","practice_recog","left","","","",""
"categorize-image","102","393435","0.0-3.0-7.0-0.3","ued272h7t7emtjq","practice_recog","5d21a8a21b06360019082dac","5f60e3c0a3b16e07647b2ff9","5f60eeeadfc69301b5ec1703","true","749.4500000029802","./Stimuli/ImagesPractice/LN17.jpg","83","","","","test","true","","83","","LN","LN17.jpg","","old","36","3","practice_recog","left","","","",""
"categorize-image","103","394865","0.0-3.0-7.0-0.4","ued272h7t7emtjq","practice_recog","5d21a8a21b06360019082dac","5f60e3c0a3b16e07647b2ff9","5f60eeeadfc69301b5ec1703","true","926.0649999996531","./Stimuli/ImagesPractice/SM37.jpg","76","","","","test","true","","76","","SM","SM37.jpg","","new","37","3","practice_recog","right","","","",""
"categorize-image","104","396858","0.0-3.0-7.0-0.5","ued272h7t7emtjq","practice_recog","5d21a8a21b06360019082dac","5f60e3c0a3b16e07647b2ff9","5f60eeeadfc69301b5ec1703","true","1487.7849999975297","./Stimuli/ImagesPractice/SM61.jpg","83","","","","test","false","","76","","SM","SM61.jpg","","new","38","3","practice_recog","left","","","",""
"categorize-image","105","399188","0.0-3.0-7.0-0.6","ued272h7t7emtjq","practice_recog","5d21a8a21b06360019082dac","5f60e3c0a3b16e07647b2ff9","5f60eeeadfc69301b5ec1703","true","1825.3900000054273","./Stimuli/ImagesPractice/SM98.jpg","83","","","","test","true","","83","","SM","SM98.jpg","","old","39","3","practice_recog","left","","","",""
"categorize-image","106","400916","0.0-3.0-7.0-0.7","ued272h7t7emtjq","practice_recog","5d21a8a21b06360019082dac","5f60e3c0a3b16e07647b2ff9","5f60eeeadfc69301b5ec1703","true","1220.3150000059395","./Stimuli/ImagesPractice/SM62.jpg","76","","","","test","true","","76","","SM","SM62.jpg","","new","40","3","practice_recog","right","","","",""
"categorize-image","107","402439","0.0-3.0-7.0-0.8","ued272h7t7emtjq","practice_recog","5d21a8a21b06360019082dac","5f60e3c0a3b16e07647b2ff9","5f60eeeadfc69301b5ec1703","true","1021.2950000059209","./Stimuli/ImagesPractice/LM230.jpg","83","","","","test","true","","83","","LM","LM230.jpg","","old","41","3","practice_recog","left","","","",""
"categorize-image","108","403728","0.0-3.0-7.0-0.9","ued272h7t7emtjq","practice_recog","5d21a8a21b06360019082dac","5f60e3c0a3b16e07647b2ff9","5f60eeeadfc69301b5ec1703","true","786.1499999999069","./Stimuli/ImagesPractice/LN15.jpg","83","","","","test","true","","83","","LN","LN15.jpg","","old","42","3","practice_recog","left","","","",""
"categorize-image","109","405364","0.0-3.0-7.0-0.10","ued272h7t7emtjq","practice_recog","5d21a8a21b06360019082dac","5f60e3c0a3b16e07647b2ff9","5f60eeeadfc69301b5ec1703","true","1129.689999994298","./Stimuli/ImagesPractice/LN2.jpg","76","","","","test","true","","76","","LN","LN2.jpg","","new","43","3","practice_recog","right","","","",""
"categorize-image","110","406627","0.0-3.0-7.0-0.11","ued272h7t7emtjq","practice_recog","5d21a8a21b06360019082dac","5f60e3c0a3b16e07647b2ff9","5f60eeeadfc69301b5ec1703","true","757.2300000028918","./Stimuli/ImagesPractice/LM55.jpg","83","","","","test","true","","83","","LM","LM55.jpg","","old","44","3","practice_recog","left","","","",""
"categorize-image","111","407923","0.0-3.0-7.0-0.12","ued272h7t7emtjq","practice_recog","5d21a8a21b06360019082dac","5f60e3c0a3b16e07647b2ff9","5f60eeeadfc69301b5ec1703","true","789.7899999952642","./Stimuli/ImagesPractice/SN220.jpg","83","","","","test","true","","83","","SN","SN220.jpg","","old","45","3","practice_recog","left","","","",""
"categorize-image","112","409444","0.0-3.0-7.0-0.13","ued272h7t7emtjq","practice_recog","5d21a8a21b06360019082dac","5f60e3c0a3b16e07647b2ff9","5f60eeeadfc69301b5ec1703","true","1014.6200000017416","./Stimuli/ImagesPractice/LN4.jpg","76","","","","test","true","","76","","LN","LN4.jpg","","new","46","3","practice_recog","right","","","",""
"categorize-image","113","411115","0.0-3.0-7.0-0.14","ued272h7t7emtjq","practice_recog","5d21a8a21b06360019082dac","5f60e3c0a3b16e07647b2ff9","5f60eeeadfc69301b5ec1703","true","1164.8149999964517","./Stimuli/ImagesPractice/LM143.jpg","76","","","","test","true","","76","","LM","LM143.jpg","","new","47","3","practice_recog","right","","","",""
"categorize-image","114","412575","0.0-3.0-7.0-0.15","ued272h7t7emtjq","practice_recog","5d21a8a21b06360019082dac","5f60e3c0a3b16e07647b2ff9","5f60eeeadfc69301b5ec1703","true","957.3250000030384","./Stimuli/ImagesPractice/LM224.jpg","76","","","","test","true","","76","","LM","LM224.jpg","","new","48","3","practice_recog","right","","","",""
"html-keyboard-response","115","422925","0.0-3.0-8.0","ued272h7t7emtjq","instructions","5d21a8a21b06360019082dac","5f60e3c0a3b16e07647b2ff9","5f60eeeadfc69301b5ec1703","false","10349.000000001979","<div align=left> Great!<br><br>Are you ready to continue?<br>If you want to reread the instructions and redo the practice trials, please <br>press „Z“.<br><br>You can proceed when you are ready.<br><br>After the presentation of each object, you will receive an instruction whether to <br>remember or to forget the object.<br>We will test your memory of the following pictures only at the very end of <br>the experiment after all learning blocks are completed. <br><br>Press SPACE to CONTINUE when you are ready. </div>","32","","","","","","","","","","","","","","","","","","","",""
"html-keyboard-response","116","430491","0.0-4.0-0.0","ued272h7t7emtjq","instructions","5d21a8a21b06360019082dac","5f60e3c0a3b16e07647b2ff9","5f60eeeadfc69301b5ec1703","false","7565.365000002203","<div align=left> The actual experiment is about to start.<br>The practice trials are over!<br><br>Please always respond both fast and accurately!<br><br>Remember: <br> <br><li> Please place your index fingers on the <strong>'S'</strong> and <strong>'L'</strong> keys <br>to respond as fast and accurately as possible.</li><li> Every picture can be classified as either mechanical or non-mechanical.</li><li> If you do not respond in time or commit an error, you will receive a corresponding feedback.<br> Please try to respond as <strong> fast </strong> and as <strong> accurately as possible </strong>.</li><li> Remember the <span style='color: dodgerblue; font-size: 28px'>O</span> pictures. <br></li><li> Please minimize distractions and stay focused. </li><br><br>Press SPACE to START.</div>","32","","","","","","","","","","","","","","","","","","","",""
"html-keyboard-response","117","431196","0.0-4.0-1.0-0.0","ued272h7t7emtjq","prime","5d21a8a21b06360019082dac","5f60e3c0a3b16e07647b2ff9","5f60eeeadfc69301b5ec1703","false","null","<span style=""color: black; font-size: 48px"">M + N</span>","null","","","","resp_prompt","","","","","","","","","","","","","","","",""
"categorize-image","118","431861","0.0-4.0-1.0-1.0","ued272h7t7emtjq","prime","5d21a8a21b06360019082dac","5f60e3c0a3b16e07647b2ff9","5f60eeeadfc69301b5ec1703","true","661.8099999977858","./Stimuli/SelectedImages/LM/LM157.bmp","83","","","","test","true","M + N","83","switch","LM","LM157.bmp","remember","","49","3","prime1","left","","","",""
"html-keyboard-response","119","433864","0.0-4.0-1.0-3.0","ued272h7t7emtjq","prime","5d21a8a21b06360019082dac","5f60e3c0a3b16e07647b2ff9","5f60eeeadfc69301b5ec1703","false","null","<div style=""align-items: center; display: flex; color: dodgerblue; font-size: 90px""><b>o</b></div>","null","","","","forget_cue","","","","","","","","","","","","","","","",""
"html-keyboard-response","120","434569","0.0-4.0-1.0-0.1","ued272h7t7emtjq","prime","5d21a8a21b06360019082dac","5f60e3c0a3b16e07647b2ff9","5f60eeeadfc69301b5ec1703","false","null","<span style=""color: black; font-size: 48px"">N + M</span>","null","","","","resp_prompt","","","","","","","","","","","","","","","",""
"categorize-image","121","435366","0.0-4.0-1.0-1.1","ued272h7t7emtjq","prime","5d21a8a21b06360019082dac","5f60e3c0a3b16e07647b2ff9","5f60eeeadfc69301b5ec1703","true","793.1199999948149","./Stimuli/SelectedImages/LN/LN59.bmp","83","","","","test","true","N + M","83","repetition","LN","LN59.bmp","forget","","50","3","prime1","left","","","",""
"html-keyboard-response","122","437372","0.0-4.0-1.0-3.1","ued272h7t7emtjq","prime","5d21a8a21b06360019082dac","5f60e3c0a3b16e07647b2ff9","5f60eeeadfc69301b5ec1703","false","null","<div style=""align-items: center; display: flex; color: darkorange; font-size: 90px""><b>ø</b></div>","null","","","","forget_cue","","","","","","","","","","","","","","","",""
"html-keyboard-response","123","438075","0.0-4.0-1.0-0.2","ued272h7t7emtjq","prime","5d21a8a21b06360019082dac","5f60e3c0a3b16e07647b2ff9","5f60eeeadfc69301b5ec1703","false","null","<span style=""color: black; font-size: 48px"">M + N</span>","null","","","","resp_prompt","","","","","","","","","","","","","","","",""
"categorize-image","124","438813","0.0-4.0-1.0-1.2","ued272h7t7emtjq","prime","5d21a8a21b06360019082dac","5f60e3c0a3b16e07647b2ff9","5f60eeeadfc69301b5ec1703","true","734.440000000177","./Stimuli/SelectedImages/SN/SN182.bmp","76","","","","test","true","M + N","76","repetition","SN","SN182.bmp","forget","","51","3","prime1","right","","","",""
"html-keyboard-response","125","440814","0.0-4.0-1.0-3.2","ued272h7t7emtjq","prime","5d21a8a21b06360019082dac","5f60e3c0a3b16e07647b2ff9","5f60eeeadfc69301b5ec1703","false","null","<div style=""align-items: center; display: flex; color: darkorange; font-size: 90px""><b>ø</b></div>","null","","","","forget_cue","","","","","","","","","","","","","","","",""
"html-keyboard-response","126","441517","0.0-4.0-1.0-0.3","ued272h7t7emtjq","prime","5d21a8a21b06360019082dac","5f60e3c0a3b16e07647b2ff9","5f60eeeadfc69301b5ec1703","false","null","<span style=""color: black; font-size: 48px"">M + N</span>","null","","","","resp_prompt","","","","","","","","","","","","","","","",""
"categorize-image","127","442093","0.0-4.0-1.0-1.3","ued272h7t7emtjq","prime","5d21a8a21b06360019082dac","5f60e3c0a3b16e07647b2ff9","5f60eeeadfc69301b5ec1703","true","572.2200000018347","./Stimuli/SelectedImages/LM/LM48.bmp","83","","","","test","true","M + N","83","repetition","LM","LM48.bmp","remember","","52","3","prime1","left","","","",""
"html-keyboard-response","128","444098","0.0-4.0-1.0-3.3","ued272h7t7emtjq","prime","5d21a8a21b06360019082dac","5f60e3c0a3b16e07647b2ff9","5f60eeeadfc69301b5ec1703","false","null","<div style=""align-items: center; display: flex; color: dodgerblue; font-size: 90px""><b>o</b></div>","null","","","","forget_cue","","","","","","","","","","","","","","","",""
"html-keyboard-response","129","444805","0.0-4.0-1.0-0.4","ued272h7t7emtjq","prime","5d21a8a21b06360019082dac","5f60e3c0a3b16e07647b2ff9","5f60eeeadfc69301b5ec1703","false","null","<span style=""color: black; font-size: 48px"">N + M</span>","null","","","","resp_prompt","","","","","","","","","","","","","","","",""
"categorize-image","130","445453","0.0-4.0-1.0-1.4","ued272h7t7emtjq","prime","5d21a8a21b06360019082dac","5f60e3c0a3b16e07647b2ff9","5f60eeeadfc69301b5ec1703","true","645.1450000022305","./Stimuli/SelectedImages/LN/LN42.bmp","83","","","","test","true","N + M","83","switch","LN","LN42.bmp","forget","","53","3","prime1","left","","","",""
"html-keyboard-response","131","447457","0.0-4.0-1.0-3.4","ued272h7t7emtjq","prime","5d21a8a21b06360019082dac","5f60e3c0a3b16e07647b2ff9","5f60eeeadfc69301b5ec1703","false","null","<div style=""align-items: center; display: flex; color: darkorange; font-size: 90px""><b>ø</b></div>","null","","","","forget_cue","","","","","","","","","","","","","","","",""
"html-keyboard-response","132","448158","0.0-4.0-1.0-0.5","ued272h7t7emtjq","prime","5d21a8a21b06360019082dac","5f60e3c0a3b16e07647b2ff9","5f60eeeadfc69301b5ec1703","false","null","<span style=""color: black; font-size: 48px"">M + N</span>","null","","","","resp_prompt","","","","","","","","","","","","","","","",""
"categorize-image","133","448909","0.0-4.0-1.0-1.5","ued272h7t7emtjq","prime","5d21a8a21b06360019082dac","5f60e3c0a3b16e07647b2ff9","5f60eeeadfc69301b5ec1703","true","747.0900000043912","./Stimuli/SelectedImages/SN/SN49.bmp","76","","","","test","true","M + N","76","repetition","SN","SN49.bmp","remember","","54","3","prime1","right","","","",""
"html-keyboard-response","134","450915","0.0-4.0-1.0-3.5","ued272h7t7emtjq","prime","5d21a8a21b06360019082dac","5f60e3c0a3b16e07647b2ff9","5f60eeeadfc69301b5ec1703","false","null","<div style=""align-items: center; display: flex; color: dodgerblue; font-size: 90px""><b>o</b></div>","null","","","","forget_cue","","","","","","","","","","","","","","","",""
"html-keyboard-response","135","451618","0.0-4.0-1.0-0.6","ued272h7t7emtjq","prime","5d21a8a21b06360019082dac","5f60e3c0a3b16e07647b2ff9","5f60eeeadfc69301b5ec1703","false","null","<span style=""color: black; font-size: 48px"">M + N</span>","null","","","","resp_prompt","","","","","","","","","","","","","","","",""
"categorize-image","136","452381","0.0-4.0-1.0-1.6","ued272h7t7emtjq","prime","5d21a8a21b06360019082dac","5f60e3c0a3b16e07647b2ff9","5f60eeeadfc69301b5ec1703","true","759.6049999992829","./Stimuli/SelectedImages/SM/SM108.bmp","83","","","","test","true","M + N","83","repetition","SM","SM108.bmp","forget","","55","3","prime1","left","","","",""
"html-keyboard-response","137","454382","0.0-4.0-1.0-3.6","ued272h7t7emtjq","prime","5d21a8a21b06360019082dac","5f60e3c0a3b16e07647b2ff9","5f60eeeadfc69301b5ec1703","false","null","<div style=""align-items: center; display: flex; color: darkorange; font-size: 90px""><b>ø</b></div>","null","","","","forget_cue","","","","","","","","","","","","","","","",""
"html-keyboard-response","138","455084","0.0-4.0-1.0-0.7","ued272h7t7emtjq","prime","5d21a8a21b06360019082dac","5f60e3c0a3b16e07647b2ff9","5f60eeeadfc69301b5ec1703","false","null","<span style=""color: black; font-size: 48px"">M + N</span>","null","","","","resp_prompt","","","","","","","","","","","","","","","",""
"categorize-image","139","455997","0.0-4.0-1.0-1.7","ued272h7t7emtjq","prime","5d21a8a21b06360019082dac","5f60e3c0a3b16e07647b2ff9","5f60eeeadfc69301b5ec1703","true","910.1449999943725","./Stimuli/SelectedImages/LM/LM209.bmp","83","","","","test","true","M + N","83","repetition","LM","LM209.bmp","forget","","56","3","prime1","left","","","",""
"html-keyboard-response","140","457999","0.0-4.0-1.0-3.7","ued272h7t7emtjq","prime","5d21a8a21b06360019082dac","5f60e3c0a3b16e07647b2ff9","5f60eeeadfc69301b5ec1703","false","null","<div style=""align-items: center; display: flex; color: darkorange; font-size: 90px""><b>ø</b></div>","null","","","","forget_cue","","","","","","","","","","","","","","","",""
"html-keyboard-response","141","458701","0.0-4.0-1.0-0.8","ued272h7t7emtjq","prime","5d21a8a21b06360019082dac","5f60e3c0a3b16e07647b2ff9","5f60eeeadfc69301b5ec1703","false","null","<span style=""color: black; font-size: 48px"">N + M</span>","null","","","","resp_prompt","","","","","","","","","","","","","","","",""
"categorize-image","142","459805","0.0-4.0-1.0-1.8","ued272h7t7emtjq","prime","5d21a8a21b06360019082dac","5f60e3c0a3b16e07647b2ff9","5f60eeeadfc69301b5ec1703","true","1101.17000000173","./Stimuli/SelectedImages/SN/SN111.bmp","83","","","","test","true","N + M","83","switch","SN","SN111.bmp","forget","","57","3","prime1","left","","","",""
"html-keyboard-response","143","461806","0.0-4.0-1.0-3.8","ued272h7t7emtjq","prime","5d21a8a21b06360019082dac","5f60e3c0a3b16e07647b2ff9","5f60eeeadfc69301b5ec1703","false","null","<div style=""align-items: center; display: flex; color: darkorange; font-size: 90px""><b>ø</b></div>","null","","","","forget_cue","","","","","","","","","","","","","","","",""
"html-keyboard-response","144","462513","0.0-4.0-1.0-0.9","ued272h7t7emtjq","prime","5d21a8a21b06360019082dac","5f60e3c0a3b16e07647b2ff9","5f60eeeadfc69301b5ec1703","false","null","<span style=""color: black; font-size: 48px"">M + N</span>","null","","","","resp_prompt","","","","","","","","","","","","","","","",""
"categorize-image","145","463284","0.0-4.0-1.0-1.9","ued272h7t7emtjq","prime","5d21a8a21b06360019082dac","5f60e3c0a3b16e07647b2ff9","5f60eeeadfc69301b5ec1703","true","768.6200000025565","./Stimuli/SelectedImages/SN/SN240.bmp","76","","","","test","true","M + N","76","switch","SN","SN240.bmp","forget","","58","3","prime1","right","","","",""
"html-keyboard-response","146","465289","0.0-4.0-1.0-3.9","ued272h7t7emtjq","prime","5d21a8a21b06360019082dac","5f60e3c0a3b16e07647b2ff9","5f60eeeadfc69301b5ec1703","false","null","<div style=""align-items: center; display: flex; color: darkorange; font-size: 90px""><b>ø</b></div>","null","","","","forget_cue","","","","","","","","","","","","","","","",""
"html-keyboard-response","147","465995","0.0-4.0-1.0-0.10","ued272h7t7emtjq","prime","5d21a8a21b06360019082dac","5f60e3c0a3b16e07647b2ff9","5f60eeeadfc69301b5ec1703","false","null","<span style=""color: black; font-size: 48px"">N + M</span>","null","","","","resp_prompt","","","","","","","","","","","","","","","",""
"categorize-image","148","467119","0.0-4.0-1.0-1.10","ued272h7t7emtjq","prime","5d21a8a21b06360019082dac","5f60e3c0a3b16e07647b2ff9","5f60eeeadfc69301b5ec1703","true","1120.0499999977183","./Stimuli/SelectedImages/SM/SM184.bmp","76","","","","test","true","N + M","76","repetition","SM","SM184.bmp","remember","","59","3","prime1","right","","","",""
"html-keyboard-response","149","469122","0.0-4.0-1.0-3.10","ued272h7t7emtjq","prime","5d21a8a21b06360019082dac","5f60e3c0a3b16e07647b2ff9","5f60eeeadfc69301b5ec1703","false","null","<div style=""align-items: center; display: flex; color: dodgerblue; font-size: 90px""><b>o</b></div>","null","","","","forget_cue","","","","","","","","","","","","","","","",""
"html-keyboard-response","150","469827","0.0-4.0-1.0-0.11","ued272h7t7emtjq","prime","5d21a8a21b06360019082dac","5f60e3c0a3b16e07647b2ff9","5f60eeeadfc69301b5ec1703","false","null","<span style=""color: black; font-size: 48px"">N + M</span>","null","","","","resp_prompt","","","","","","","","","","","","","","","",""
"categorize-image","151","470855","0.0-4.0-1.0-1.11","ued272h7t7emtjq","prime","5d21a8a21b06360019082dac","5f60e3c0a3b16e07647b2ff9","5f60eeeadfc69301b5ec1703","true","1025.1500000013039","./Stimuli/SelectedImages/LM/LM57.bmp","76","","","","test","true","N + M","76","switch","LM","LM57.bmp","forget","","60","3","prime1","right","","","",""
"html-keyboard-response","152","472856","0.0-4.0-1.0-3.11","ued272h7t7emtjq","prime","5d21a8a21b06360019082dac","5f60e3c0a3b16e07647b2ff9","5f60eeeadfc69301b5ec1703","false","null","<div style=""align-items: center; display: flex; color: darkorange; font-size: 90px""><b>ø</b></div>","null","","","","forget_cue","","","","","","","","","","","","","","","",""
"html-keyboard-response","153","473562","0.0-4.0-1.0-0.12","ued272h7t7emtjq","prime","5d21a8a21b06360019082dac","5f60e3c0a3b16e07647b2ff9","5f60eeeadfc69301b5ec1703","false","null","<span style=""color: black; font-size: 48px"">M + N</span>","null","","","","resp_prompt","","","","","","","","","","","","","","","",""
"categorize-image","154","474479","0.0-4.0-1.0-1.12","ued272h7t7emtjq","prime","5d21a8a21b06360019082dac","5f60e3c0a3b16e07647b2ff9","5f60eeeadfc69301b5ec1703","true","913.234999999986","./Stimuli/SelectedImages/LN/LN177.bmp","76","","","","test","true","M + N","76","repetition","LN","LN177.bmp","remember","","61","3","prime1","right","","","",""
"html-keyboard-response","155","476479","0.0-4.0-1.0-3.12","ued272h7t7emtjq","prime","5d21a8a21b06360019082dac","5f60e3c0a3b16e07647b2ff9","5f60eeeadfc69301b5ec1703","false","null","<div style=""align-items: center; display: flex; color: dodgerblue; font-size: 90px""><b>o</b></div>","null","","","","forget_cue","","","","","","","","","","","","","","","",""
"html-keyboard-response","156","477186","0.0-4.0-1.0-0.13","ued272h7t7emtjq","prime","5d21a8a21b06360019082dac","5f60e3c0a3b16e07647b2ff9","5f60eeeadfc69301b5ec1703","false","null","<span style=""color: black; font-size: 48px"">M + N</span>","null","","","","resp_prompt","","","","","","","","","","","","","","","",""
"categorize-image","157","478485","0.0-4.0-1.0-1.13","ued272h7t7emtjq","prime","5d21a8a21b06360019082dac","5f60e3c0a3b16e07647b2ff9","5f60eeeadfc69301b5ec1703","true","1295.669999999518","./Stimuli/SelectedImages/LN/LN111.bmp","76","","","","test","true","M + N","76","repetition","LN","LN111.bmp","forget","","62","3","prime1","right","","","",""
"html-keyboard-response","158","480487","0.0-4.0-1.0-3.13","ued272h7t7emtjq","prime","5d21a8a21b06360019082dac","5f60e3c0a3b16e07647b2ff9","5f60eeeadfc69301b5ec1703","false","null","<div style=""align-items: center; display: flex; color: darkorange; font-size: 90px""><b>ø</b></div>","null","","","","forget_cue","","","","","","","","","","","","","","","",""
"html-keyboard-response","159","481193","0.0-4.0-1.0-0.14","ued272h7t7emtjq","prime","5d21a8a21b06360019082dac","5f60e3c0a3b16e07647b2ff9","5f60eeeadfc69301b5ec1703","false","null","<span style=""color: black; font-size: 48px"">N + M</span>","null","","","","resp_prompt","","","","","","","","","","","","","","","",""
"categorize-image","160","481844","0.0-4.0-1.0-1.14","ued272h7t7emtjq","prime","5d21a8a21b06360019082dac","5f60e3c0a3b16e07647b2ff9","5f60eeeadfc69301b5ec1703","true","647.7350000059232","./Stimuli/SelectedImages/SN/SN18.bmp","83","","","","test","true","N + M","83","switch","SN","SN18.bmp","remember","","63","3","prime1","left","","","",""
"html-keyboard-response","161","483845","0.0-4.0-1.0-3.14","ued272h7t7emtjq","prime","5d21a8a21b06360019082dac","5f60e3c0a3b16e07647b2ff9","5f60eeeadfc69301b5ec1703","false","null","<div style=""align-items: center; display: flex; color: dodgerblue; font-size: 90px""><b>o</b></div>","null","","","","forget_cue","","","","","","","","","","","","","","","",""
"html-keyboard-response","162","484547","0.0-4.0-1.0-0.15","ued272h7t7emtjq","prime","5d21a8a21b06360019082dac","5f60e3c0a3b16e07647b2ff9","5f60eeeadfc69301b5ec1703","false","null","<span style=""color: black; font-size: 48px"">M + N</span>","null","","","","resp_prompt","","","","","","","","","","","","","","","",""
"categorize-image","163","485396","0.0-4.0-1.0-1.15","ued272h7t7emtjq","prime","5d21a8a21b06360019082dac","5f60e3c0a3b16e07647b2ff9","5f60eeeadfc69301b5ec1703","true","845.5699999976787","./Stimuli/SelectedImages/SN/SN187.bmp","76","","","","test","true","M + N","76","switch","SN","SN187.bmp","remember","","64","3","prime1","right","","","",""
"html-keyboard-response","164","487397","0.0-4.0-1.0-3.15","ued272h7t7emtjq","prime","5d21a8a21b06360019082dac","5f60e3c0a3b16e07647b2ff9","5f60eeeadfc69301b5ec1703","false","null","<div style=""align-items: center; display: flex; color: dodgerblue; font-size: 90px""><b>o</b></div>","null","","","","forget_cue","","","","","","","","","","","","","","","",""
"html-keyboard-response","165","488102","0.0-4.0-1.0-0.16","ued272h7t7emtjq","prime","5d21a8a21b06360019082dac","5f60e3c0a3b16e07647b2ff9","5f60eeeadfc69301b5ec1703","false","null","<span style=""color: black; font-size: 48px"">N + M</span>","null","","","","resp_prompt","","","","","","","","","","","","","","","",""
"categorize-image","166","489268","0.0-4.0-1.0-1.16","ued272h7t7emtjq","prime","5d21a8a21b06360019082dac","5f60e3c0a3b16e07647b2ff9","5f60eeeadfc69301b5ec1703","true","1163.1750000015018","./Stimuli/SelectedImages/LM/LM51.bmp","76","","","","test","true","N + M","76","repetition","LM","LM51.bmp","remember","","65","3","prime1","right","","","",""
"html-keyboard-response","167","491270","0.0-4.0-1.0-3.16","ued272h7t7emtjq","prime","5d21a8a21b06360019082dac","5f60e3c0a3b16e07647b2ff9","5f60eeeadfc69301b5ec1703","false","null","<div style=""align-items: center; display: flex; color: dodgerblue; font-size: 90px""><b>o</b></div>","null","","","","forget_cue","","","","","","","","","","","","","","","",""
"html-keyboard-response","168","491976","0.0-4.0-1.0-0.17","ued272h7t7emtjq","prime","5d21a8a21b06360019082dac","5f60e3c0a3b16e07647b2ff9","5f60eeeadfc69301b5ec1703","false","null","<span style=""color: black; font-size: 48px"">N + M</span>","null","","","","resp_prompt","","","","","","","","","","","","","","","",""
"categorize-image","169","492644","0.0-4.0-1.0-1.17","ued272h7t7emtjq","prime","5d21a8a21b06360019082dac","5f60e3c0a3b16e07647b2ff9","5f60eeeadfc69301b5ec1703","true","664.2449999999371","./Stimuli/SelectedImages/LN/LN131.bmp","83","","","","test","true","N + M","83","repetition","LN","LN131.bmp","remember","","66","3","prime1","left","","","",""
"html-keyboard-response","170","494645","0.0-4.0-1.0-3.17","ued272h7t7emtjq","prime","5d21a8a21b06360019082dac","5f60e3c0a3b16e07647b2ff9","5f60eeeadfc69301b5ec1703","false","null","<div style=""align-items: center; display: flex; color: dodgerblue; font-size: 90px""><b>o</b></div>","null","","","","forget_cue","","","","","","","","","","","","","","","",""
"html-keyboard-response","171","495346","0.0-4.0-1.0-0.18","ued272h7t7emtjq","prime","5d21a8a21b06360019082dac","5f60e3c0a3b16e07647b2ff9","5f60eeeadfc69301b5ec1703","false","null","<span style=""color: black; font-size: 48px"">M + N</span>","null","","","","resp_prompt","","","","","","","","","","","","","","","",""
"categorize-image","172","496019","0.0-4.0-1.0-1.18","ued272h7t7emtjq","prime","5d21a8a21b06360019082dac","5f60e3c0a3b16e07647b2ff9","5f60eeeadfc69301b5ec1703","true","669.7100000019418","./Stimuli/SelectedImages/LN/LN28.bmp","76","","","","test","true","M + N","76","switch","LN","LN28.bmp","remember","","67","3","prime1","right","","","",""
"html-keyboard-response","173","498020","0.0-4.0-1.0-3.18","ued272h7t7emtjq","prime","5d21a8a21b06360019082dac","5f60e3c0a3b16e07647b2ff9","5f60eeeadfc69301b5ec1703","false","null","<div style=""align-items: center; display: flex; color: dodgerblue; font-size: 90px""><b>o</b></div>","null","","","","forget_cue","","","","","","","","","","","","","","","",""
"html-keyboard-response","174","498723","0.0-4.0-1.0-0.19","ued272h7t7emtjq","prime","5d21a8a21b06360019082dac","5f60e3c0a3b16e07647b2ff9","5f60eeeadfc69301b5ec1703","false","null","<span style=""color: black; font-size: 48px"">M + N</span>","null","","","","resp_prompt","","","","","","","","","","","","","","","",""
"categorize-image","175","499644","0.0-4.0-1.0-1.19","ued272h7t7emtjq","prime","5d21a8a21b06360019082dac","5f60e3c0a3b16e07647b2ff9","5f60eeeadfc69301b5ec1703","true","918.0749999941327","./Stimuli/SelectedImages/LM/LM235.bmp","83","","","","test","true","M + N","83","switch","LM","LM235.bmp","forget","","68","3","prime1","left","","","",""
"html-keyboard-response","176","501645","0.0-4.0-1.0-3.19","ued272h7t7emtjq","prime","5d21a8a21b06360019082dac","5f60e3c0a3b16e07647b2ff9","5f60eeeadfc69301b5ec1703","false","null","<div style=""align-items: center; display: flex; color: darkorange; font-size: 90px""><b>ø</b></div>","null","","","","forget_cue","","","","","","","","","","","","","","","",""
"html-keyboard-response","177","502351","0.0-4.0-1.0-0.20","ued272h7t7emtjq","prime","5d21a8a21b06360019082dac","5f60e3c0a3b16e07647b2ff9","5f60eeeadfc69301b5ec1703","false","null","<span style=""color: black; font-size: 48px"">M + N</span>","null","","","","resp_prompt","","","","","","","","","","","","","","","",""
"categorize-image","178","503196","0.0-4.0-1.0-1.20","ued272h7t7emtjq","prime","5d21a8a21b06360019082dac","5f60e3c0a3b16e07647b2ff9","5f60eeeadfc69301b5ec1703","true","840.8399999971152","./Stimuli/SelectedImages/SM/SM73.bmp","83","","","","test","true","M + N","83","switch","SM","SM73.bmp","remember","","69","3","prime1","left","","","",""
"html-keyboard-response","179","505202","0.0-4.0-1.0-3.20","ued272h7t7emtjq","prime","5d21a8a21b06360019082dac","5f60e3c0a3b16e07647b2ff9","5f60eeeadfc69301b5ec1703","false","null","<div style=""align-items: center; display: flex; color: dodgerblue; font-size: 90px""><b>o</b></div>","null","","","","forget_cue","","","","","","","","","","","","","","","",""
"html-keyboard-response","180","505907","0.0-4.0-1.0-0.21","ued272h7t7emtjq","prime","5d21a8a21b06360019082dac","5f60e3c0a3b16e07647b2ff9","5f60eeeadfc69301b5ec1703","false","null","<span style=""color: black; font-size: 48px"">N + M</span>","null","","","","resp_prompt","","","","","","","","","","","","","","","",""
"categorize-image","181","506876","0.0-4.0-1.0-1.21","ued272h7t7emtjq","prime","5d21a8a21b06360019082dac","5f60e3c0a3b16e07647b2ff9","5f60eeeadfc69301b5ec1703","true","964.6299999949406","./Stimuli/SelectedImages/SM/SM200.bmp","76","","","","test","true","N + M","76","switch","SM","SM200.bmp","forget","","70","3","prime1","right","","","",""
"html-keyboard-response","182","508881","0.0-4.0-1.0-3.21","ued272h7t7emtjq","prime","5d21a8a21b06360019082dac","5f60e3c0a3b16e07647b2ff9","5f60eeeadfc69301b5ec1703","false","null","<div style=""align-items: center; display: flex; color: darkorange; font-size: 90px""><b>ø</b></div>","null","","","","forget_cue","","","","","","","","","","","","","","","",""
"html-keyboard-response","183","509584","0.0-4.0-1.0-0.22","ued272h7t7emtjq","prime","5d21a8a21b06360019082dac","5f60e3c0a3b16e07647b2ff9","5f60eeeadfc69301b5ec1703","false","null","<span style=""color: black; font-size: 48px"">N + M</span>","null","","","","resp_prompt","","","","","","","","","","","","","","","",""
"categorize-image","184","510324","0.0-4.0-1.0-1.22","ued272h7t7emtjq","prime","5d21a8a21b06360019082dac","5f60e3c0a3b16e07647b2ff9","5f60eeeadfc69301b5ec1703","true","736.205000001064","./Stimuli/SelectedImages/SN/SN179.bmp","83","","","","test","true","N + M","83","repetition","SN","SN179.bmp","forget","","71","3","prime1","left","","","",""
"html-keyboard-response","185","512328","0.0-4.0-1.0-3.22","ued272h7t7emtjq","prime","5d21a8a21b06360019082dac","5f60e3c0a3b16e07647b2ff9","5f60eeeadfc69301b5ec1703","false","null","<div style=""align-items: center; display: flex; color: darkorange; font-size: 90px""><b>ø</b></div>","null","","","","forget_cue","","","","","","","","","","","","","","","",""
"html-keyboard-response","186","513033","0.0-4.0-1.0-0.23","ued272h7t7emtjq","prime","5d21a8a21b06360019082dac","5f60e3c0a3b16e07647b2ff9","5f60eeeadfc69301b5ec1703","false","null","<span style=""color: black; font-size: 48px"">M + N</span>","null","","","","resp_prompt","","","","","","","","","","","","","","","",""
"categorize-image","187","514123","0.0-4.0-1.0-1.23","ued272h7t7emtjq","prime","5d21a8a21b06360019082dac","5f60e3c0a3b16e07647b2ff9","5f60eeeadfc69301b5ec1703","true","1087.455000000773","./Stimuli/SelectedImages/SN/SN128.bmp","76","","","","test","true","M + N","76","repetition","SN","SN128.bmp","remember","","72","3","prime1","right","","","",""
"html-keyboard-response","188","516127","0.0-4.0-1.0-3.23","ued272h7t7emtjq","prime","5d21a8a21b06360019082dac","5f60e3c0a3b16e07647b2ff9","5f60eeeadfc69301b5ec1703","false","null","<div style=""align-items: center; display: flex; color: dodgerblue; font-size: 90px""><b>o</b></div>","null","","","","forget_cue","","","","","","","","","","","","","","","",""
"html-keyboard-response","189","516832","0.0-4.0-1.0-0.24","ued272h7t7emtjq","prime","5d21a8a21b06360019082dac","5f60e3c0a3b16e07647b2ff9","5f60eeeadfc69301b5ec1703","false","null","<span style=""color: black; font-size: 48px"">N + M</span>","null","","","","resp_prompt","","","","","","","","","","","","","","","",""
"categorize-image","190","518283","0.0-4.0-1.0-1.24","ued272h7t7emtjq","prime","5d21a8a21b06360019082dac","5f60e3c0a3b16e07647b2ff9","5f60eeeadfc69301b5ec1703","true","1447.4350000018603","./Stimuli/SelectedImages/SN/SN181.bmp","76","","","","test","false","N + M","83","switch","SN","SN181.bmp","remember","","73","3","prime1","right","","","",""
"html-keyboard-response","191","518787","0.0-4.0-1.0-2.24-0.24","ued272h7t7emtjq","prime","5d21a8a21b06360019082dac","5f60e3c0a3b16e07647b2ff9","5f60eeeadfc69301b5ec1703","false","null","<span style=""color: red; font-size: 48px"">Error!</span>","null","","","","feedback","","","","","","","","","","","","","","","",""
"html-keyboard-response","192","520791","0.0-4.0-1.0-3.24","ued272h7t7emtjq","prime","5d21a8a21b06360019082dac","5f60e3c0a3b16e07647b2ff9","5f60eeeadfc69301b5ec1703","false","null","<div style=""align-items: center; display: flex; color: dodgerblue; font-size: 90px""><b>o</b></div>","null","","","","forget_cue","","","","","","","","","","","","","","","",""
"html-keyboard-response","193","521497","0.0-4.0-1.0-0.25","ued272h7t7emtjq","prime","5d21a8a21b06360019082dac","5f60e3c0a3b16e07647b2ff9","5f60eeeadfc69301b5ec1703","false","null","<span style=""color: black; font-size: 48px"">N + M</span>","null","","","","resp_prompt","","","","","","","","","","","","","","","",""
"categorize-image","194","522492","0.0-4.0-1.0-1.25","ued272h7t7emtjq","prime","5d21a8a21b06360019082dac","5f60e3c0a3b16e07647b2ff9","5f60eeeadfc69301b5ec1703","true","991.3450000023004","./Stimuli/SelectedImages/SM/SM74.bmp","76","","","","test","true","N + M","76","switch","SM","SM74.bmp","remember","","74","3","prime1","right","","","",""
"html-keyboard-response","195","524496","0.0-4.0-1.0-3.25","ued272h7t7emtjq","prime","5d21a8a21b06360019082dac","5f60e3c0a3b16e07647b2ff9","5f60eeeadfc69301b5ec1703","false","null","<div style=""align-items: center; display: flex; color: dodgerblue; font-size: 90px""><b>o</b></div>","null","","","","forget_cue","","","","","","","","","","","","","","","",""
"html-keyboard-response","196","525201","0.0-4.0-1.0-0.26","ued272h7t7emtjq","prime","5d21a8a21b06360019082dac","5f60e3c0a3b16e07647b2ff9","5f60eeeadfc69301b5ec1703","false","null","<span style=""color: black; font-size: 48px"">M + N</span>","null","","","","resp_prompt","","","","","","","","","","","","","","","",""
"categorize-image","197","526075","0.0-4.0-1.0-1.26","ued272h7t7emtjq","prime","5d21a8a21b06360019082dac","5f60e3c0a3b16e07647b2ff9","5f60eeeadfc69301b5ec1703","true","870.340000001248","./Stimuli/SelectedImages/SM/SM128.bmp","83","","","","test","true","M + N","83","switch","SM","SM128.bmp","forget","","75","3","prime1","left","","","",""
"html-keyboard-response","198","528079","0.0-4.0-1.0-3.26","ued272h7t7emtjq","prime","5d21a8a21b06360019082dac","5f60e3c0a3b16e07647b2ff9","5f60eeeadfc69301b5ec1703","false","null","<div style=""align-items: center; display: flex; color: darkorange; font-size: 90px""><b>ø</b></div>","null","","","","forget_cue","","","","","","","","","","","","","","","",""
"html-keyboard-response","199","528781","0.0-4.0-1.0-0.27","ued272h7t7emtjq","prime","5d21a8a21b06360019082dac","5f60e3c0a3b16e07647b2ff9","5f60eeeadfc69301b5ec1703","false","null","<span style=""color: black; font-size: 48px"">M + N</span>","null","","","","resp_prompt","","","","","","","","","","","","","","","",""
"categorize-image","200","529427","0.0-4.0-1.0-1.27","ued272h7t7emtjq","prime","5d21a8a21b06360019082dac","5f60e3c0a3b16e07647b2ff9","5f60eeeadfc69301b5ec1703","true","643.1500000036322","./Stimuli/SelectedImages/SM/SM76.bmp","83","","","","test","true","M + N","83","repetition","SM","SM76.bmp","remember","","76","3","prime1","left","","","",""
"html-keyboard-response","201","531432","0.0-4.0-1.0-3.27","ued272h7t7emtjq","prime","5d21a8a21b06360019082dac","5f60e3c0a3b16e07647b2ff9","5f60eeeadfc69301b5ec1703","false","null","<div style=""align-items: center; display: flex; color: dodgerblue; font-size: 90px""><b>o</b></div>","null","","","","forget_cue","","","","","","","","","","","","","","","",""
"html-keyboard-response","202","532138","0.0-4.0-1.0-0.28","ued272h7t7emtjq","prime","5d21a8a21b06360019082dac","5f60e3c0a3b16e07647b2ff9","5f60eeeadfc69301b5ec1703","false","null","<span style=""color: black; font-size: 48px"">M + N</span>","null","","","","resp_prompt","","","","","","","","","","","","","","","",""
"categorize-image","203","532996","0.0-4.0-1.0-1.28","ued272h7t7emtjq","prime","5d21a8a21b06360019082dac","5f60e3c0a3b16e07647b2ff9","5f60eeeadfc69301b5ec1703","true","853.7599999981467","./Stimuli/SelectedImages/LN/LN9.bmp","76","","","","test","true","M + N","76","switch","LN","LN9.bmp","remember","","77","3","prime1","right","","","",""
"html-keyboard-response","204","534997","0.0-4.0-1.0-3.28","ued272h7t7emtjq","prime","5d21a8a21b06360019082dac","5f60e3c0a3b16e07647b2ff9","5f60eeeadfc69301b5ec1703","false","null","<div style=""align-items: center; display: flex; color: dodgerblue; font-size: 90px""><b>o</b></div>","null","","","","forget_cue","","","","","","","","","","","","","","","",""
"html-keyboard-response","205","535700","0.0-4.0-1.0-0.29","ued272h7t7emtjq","prime","5d21a8a21b06360019082dac","5f60e3c0a3b16e07647b2ff9","5f60eeeadfc69301b5ec1703","false","null","<span style=""color: black; font-size: 48px"">M + N</span>","null","","","","resp_prompt","","","","","","","","","","","","","","","",""
"categorize-image","206","536819","0.0-4.0-1.0-1.29","ued272h7t7emtjq","prime","5d21a8a21b06360019082dac","5f60e3c0a3b16e07647b2ff9","5f60eeeadfc69301b5ec1703","true","1115.675000000978","./Stimuli/SelectedImages/LN/LN150.bmp","76","","","","test","true","M + N","76","switch","LN","LN150.bmp","forget","","78","3","prime1","right","","","",""
"html-keyboard-response","207","538824","0.0-4.0-1.0-3.29","ued272h7t7emtjq","prime","5d21a8a21b06360019082dac","5f60e3c0a3b16e07647b2ff9","5f60eeeadfc69301b5ec1703","false","null","<div style=""align-items: center; display: flex; color: darkorange; font-size: 90px""><b>ø</b></div>","null","","","","forget_cue","","","","","","","","","","","","","","","",""
"html-keyboard-response","208","539530","0.0-4.0-1.0-0.30","ued272h7t7emtjq","prime","5d21a8a21b06360019082dac","5f60e3c0a3b16e07647b2ff9","5f60eeeadfc69301b5ec1703","false","null","<span style=""color: black; font-size: 48px"">M + N</span>","null","","","","resp_prompt","","","","","","","","","","","","","","","",""
"categorize-image","209","540451","0.0-4.0-1.0-1.30","ued272h7t7emtjq","prime","5d21a8a21b06360019082dac","5f60e3c0a3b16e07647b2ff9","5f60eeeadfc69301b5ec1703","true","917.7099999943748","./Stimuli/SelectedImages/SM/SM213.bmp","83","","","","test","true","M + N","83","switch","SM","SM213.bmp","remember","","79","3","prime1","left","","","",""
"html-keyboard-response","210","542456","0.0-4.0-1.0-3.30","ued272h7t7emtjq","prime","5d21a8a21b06360019082dac","5f60e3c0a3b16e07647b2ff9","5f60eeeadfc69301b5ec1703","false","null","<div style=""align-items: center; display: flex; color: dodgerblue; font-size: 90px""><b>o</b></div>","null","","","","forget_cue","","","","","","","","","","","","","","","",""
"html-keyboard-response","211","543161","0.0-4.0-1.0-0.31","ued272h7t7emtjq","prime","5d21a8a21b06360019082dac","5f60e3c0a3b16e07647b2ff9","5f60eeeadfc69301b5ec1703","false","null","<span style=""color: black; font-size: 48px"">M + N</span>","null","","","","resp_prompt","","","","","","","","","","","","","","","",""
"categorize-image","212","543908","0.0-4.0-1.0-1.31","ued272h7t7emtjq","prime","5d21a8a21b06360019082dac","5f60e3c0a3b16e07647b2ff9","5f60eeeadfc69301b5ec1703","true","743.5949999998556","./Stimuli/SelectedImages/SN/SN155.bmp","76","","","","test","true","M + N","76","repetition","SN","SN155.bmp","forget","","80","3","prime1","right","","","",""
"html-keyboard-response","213","545913","0.0-4.0-1.0-3.31","ued272h7t7emtjq","prime","5d21a8a21b06360019082dac","5f60e3c0a3b16e07647b2ff9","5f60eeeadfc69301b5ec1703","false","null","<div style=""align-items: center; display: flex; color: darkorange; font-size: 90px""><b>ø</b></div>","null","","","","forget_cue","","","","","","","","","","","","","","","",""
"html-keyboard-response","214","546620","0.0-4.0-1.0-0.32","ued272h7t7emtjq","prime","5d21a8a21b06360019082dac","5f60e3c0a3b16e07647b2ff9","5f60eeeadfc69301b5ec1703","false","null","<span style=""color: black; font-size: 48px"">N + M</span>","null","","","","resp_prompt","","","","","","","","","","","","","","","",""
"categorize-image","215","547435","0.0-4.0-1.0-1.32","ued272h7t7emtjq","prime","5d21a8a21b06360019082dac","5f60e3c0a3b16e07647b2ff9","5f60eeeadfc69301b5ec1703","true","812.165000003064","./Stimuli/SelectedImages/LN/LN128.bmp","83","","","","test","true","N + M","83","repetition","LN","LN128.bmp","remember","","81","3","prime1","left","","","",""
"html-keyboard-response","216","549440","0.0-4.0-1.0-3.32","ued272h7t7emtjq","prime","5d21a8a21b06360019082dac","5f60e3c0a3b16e07647b2ff9","5f60eeeadfc69301b5ec1703","false","null","<div style=""align-items: center; display: flex; color: dodgerblue; font-size: 90px""><b>o</b></div>","null","","","","forget_cue","","","","","","","","","","","","","","","",""
"html-keyboard-response","217","550146","0.0-4.0-1.0-0.33","ued272h7t7emtjq","prime","5d21a8a21b06360019082dac","5f60e3c0a3b16e07647b2ff9","5f60eeeadfc69301b5ec1703","false","null","<span style=""color: black; font-size: 48px"">N + M</span>","null","","","","resp_prompt","","","","","","","","","","","","","","","",""
"categorize-image","218","551179","0.0-4.0-1.0-1.33","ued272h7t7emtjq","prime","5d21a8a21b06360019082dac","5f60e3c0a3b16e07647b2ff9","5f60eeeadfc69301b5ec1703","true","1029.645000002347","./Stimuli/SelectedImages/SN/SN64.bmp","83","","","","test","true","N + M","83","repetition","SN","SN64.bmp","remember","","82","3","prime1","left","","","",""
"html-keyboard-response","219","553181","0.0-4.0-1.0-3.33","ued272h7t7emtjq","prime","5d21a8a21b06360019082dac","5f60e3c0a3b16e07647b2ff9","5f60eeeadfc69301b5ec1703","false","null","<div style=""align-items: center; display: flex; color: dodgerblue; font-size: 90px""><b>o</b></div>","null","","","","forget_cue","","","","","","","","","","","","","","","",""
"html-keyboard-response","220","553887","0.0-4.0-1.0-0.34","ued272h7t7emtjq","prime","5d21a8a21b06360019082dac","5f60e3c0a3b16e07647b2ff9","5f60eeeadfc69301b5ec1703","false","null","<span style=""color: black; font-size: 48px"">N + M</span>","null","","","","resp_prompt","","","","","","","","","","","","","","","",""
"categorize-image","221","554587","0.0-4.0-1.0-1.34","ued272h7t7emtjq","prime","5d21a8a21b06360019082dac","5f60e3c0a3b16e07647b2ff9","5f60eeeadfc69301b5ec1703","true","697.3300000027521","./Stimuli/SelectedImages/LM/LM179.bmp","76","","","","test","true","N + M","76","switch","LM","LM179.bmp","remember","","83","3","prime1","right","","","",""
"html-keyboard-response","222","556589","0.0-4.0-1.0-3.34","ued272h7t7emtjq","prime","5d21a8a21b06360019082dac","5f60e3c0a3b16e07647b2ff9","5f60eeeadfc69301b5ec1703","false","null","<div style=""align-items: center; display: flex; color: dodgerblue; font-size: 90px""><b>o</b></div>","null","","","","forget_cue","","","","","","","","","","","","","","","",""
"html-keyboard-response","223","557293","0.0-4.0-1.0-0.35","ued272h7t7emtjq","prime","5d21a8a21b06360019082dac","5f60e3c0a3b16e07647b2ff9","5f60eeeadfc69301b5ec1703","false","null","<span style=""color: black; font-size: 48px"">M + N</span>","null","","","","resp_prompt","","","","","","","","","","","","","","","",""
"categorize-image","224","558162","0.0-4.0-1.0-1.35","ued272h7t7emtjq","prime","5d21a8a21b06360019082dac","5f60e3c0a3b16e07647b2ff9","5f60eeeadfc69301b5ec1703","true","866.1199999987148","./Stimuli/SelectedImages/SM/SM148.bmp","83","","","","test","true","M + N","83","switch","SM","SM148.bmp","forget","","84","3","prime1","left","","","",""
"html-keyboard-response","225","560164","0.0-4.0-1.0-3.35","ued272h7t7emtjq","prime","5d21a8a21b06360019082dac","5f60e3c0a3b16e07647b2ff9","5f60eeeadfc69301b5ec1703","false","null","<div style=""align-items: center; display: flex; color: darkorange; font-size: 90px""><b>ø</b></div>","null","","","","forget_cue","","","","","","","","","","","","","","","",""
"html-keyboard-response","226","560867","0.0-4.0-1.0-0.36","ued272h7t7emtjq","prime","5d21a8a21b06360019082dac","5f60e3c0a3b16e07647b2ff9","5f60eeeadfc69301b5ec1703","false","null","<span style=""color: black; font-size: 48px"">N + M</span>","null","","","","resp_prompt","","","","","","","","","","","","","","","",""
"categorize-image","227","561667","0.0-4.0-1.0-1.36","ued272h7t7emtjq","prime","5d21a8a21b06360019082dac","5f60e3c0a3b16e07647b2ff9","5f60eeeadfc69301b5ec1703","true","796.4250000003958","./Stimuli/SelectedImages/SN/SN52.bmp","83","","","","test","true","N + M","83","repetition","SN","SN52.bmp","remember","","85","3","prime1","left","","","",""
"html-keyboard-response","228","563673","0.0-4.0-1.0-3.36","ued272h7t7emtjq","prime","5d21a8a21b06360019082dac","5f60e3c0a3b16e07647b2ff9","5f60eeeadfc69301b5ec1703","false","null","<div style=""align-items: center; display: flex; color: dodgerblue; font-size: 90px""><b>o</b></div>","null","","","","forget_cue","","","","","","","","","","","","","","","",""
"html-keyboard-response","229","564377","0.0-4.0-1.0-0.37","ued272h7t7emtjq","prime","5d21a8a21b06360019082dac","5f60e3c0a3b16e07647b2ff9","5f60eeeadfc69301b5ec1703","false","null","<span style=""color: black; font-size: 48px"">N + M</span>","null","","","","resp_prompt","","","","","","","","","","","","","","","",""
"categorize-image","230","565107","0.0-4.0-1.0-1.37","ued272h7t7emtjq","prime","5d21a8a21b06360019082dac","5f60e3c0a3b16e07647b2ff9","5f60eeeadfc69301b5ec1703","true","726.8649999969639","./Stimuli/SelectedImages/SM/SM106.bmp","76","","","","test","true","N + M","76","switch","SM","SM106.bmp","forget","","86","3","prime1","right","","","",""
"html-keyboard-response","231","567113","0.0-4.0-1.0-3.37","ued272h7t7emtjq","prime","5d21a8a21b06360019082dac","5f60e3c0a3b16e07647b2ff9","5f60eeeadfc69301b5ec1703","false","null","<div style=""align-items: center; display: flex; color: darkorange; font-size: 90px""><b>ø</b></div>","null","","","","forget_cue","","","","","","","","","","","","","","","",""
"html-keyboard-response","232","567819","0.0-4.0-1.0-0.38","ued272h7t7emtjq","prime","5d21a8a21b06360019082dac","5f60e3c0a3b16e07647b2ff9","5f60eeeadfc69301b5ec1703","false","null","<span style=""color: black; font-size: 48px"">M + N</span>","null","","","","resp_prompt","","","","","","","","","","","","","","","",""
"categorize-image","233","568650","0.0-4.0-1.0-1.38","ued272h7t7emtjq","prime","5d21a8a21b06360019082dac","5f60e3c0a3b16e07647b2ff9","5f60eeeadfc69301b5ec1703","true","828.294999999227","./Stimuli/SelectedImages/SN/SN27.bmp","76","","","","test","true","M + N","76","switch","SN","SN27.bmp","remember","","87","3","prime1","right","","","",""
"html-keyboard-response","234","570656","0.0-4.0-1.0-3.38","ued272h7t7emtjq","prime","5d21a8a21b06360019082dac","5f60e3c0a3b16e07647b2ff9","5f60eeeadfc69301b5ec1703","false","null","<div style=""align-items: center; display: flex; color: dodgerblue; font-size: 90px""><b>o</b></div>","null","","","","forget_cue","","","","","","","","","","","","","","","",""
"html-keyboard-response","235","571362","0.0-4.0-1.0-0.39","ued272h7t7emtjq","prime","5d21a8a21b06360019082dac","5f60e3c0a3b16e07647b2ff9","5f60eeeadfc69301b5ec1703","false","null","<span style=""color: black; font-size: 48px"">N + M</span>","null","","","","resp_prompt","","","","","","","","","","","","","","","",""
"categorize-image","236","572363","0.0-4.0-1.0-1.39","ued272h7t7emtjq","prime","5d21a8a21b06360019082dac","5f60e3c0a3b16e07647b2ff9","5f60eeeadfc69301b5ec1703","true","996.9550000022864","./Stimuli/SelectedImages/SM/SM195.bmp","76","","","","test","true","N + M","76","repetition","SM","SM195.bmp","forget","","88","3","prime1","right","","","",""
"html-keyboard-response","237","574364","0.0-4.0-1.0-3.39","ued272h7t7emtjq","prime","5d21a8a21b06360019082dac","5f60e3c0a3b16e07647b2ff9","5f60eeeadfc69301b5ec1703","false","null","<div style=""align-items: center; display: flex; color: darkorange; font-size: 90px""><b>ø</b></div>","null","","","","forget_cue","","","","","","","","","","","","","","","",""
"html-keyboard-response","238","575067","0.0-4.0-1.0-0.40","ued272h7t7emtjq","prime","5d21a8a21b06360019082dac","5f60e3c0a3b16e07647b2ff9","5f60eeeadfc69301b5ec1703","false","null","<span style=""color: black; font-size: 48px"">N + M</span>","null","","","","resp_prompt","","","","","","","","","","","","","","","",""
"categorize-image","239","575811","0.0-4.0-1.0-1.40","ued272h7t7emtjq","prime","5d21a8a21b06360019082dac","5f60e3c0a3b16e07647b2ff9","5f60eeeadfc69301b5ec1703","true","740.669999999227","./Stimuli/SelectedImages/SM/SM205.bmp","76","","","","test","true","N + M","76","repetition","SM","SM205.bmp","remember","","89","3","prime1","right","","","",""
"html-keyboard-response","240","577814","0.0-4.0-1.0-3.40","ued272h7t7emtjq","prime","5d21a8a21b06360019082dac","5f60e3c0a3b16e07647b2ff9","5f60eeeadfc69301b5ec1703","false","null","<div style=""align-items: center; display: flex; color: dodgerblue; font-size: 90px""><b>o</b></div>","null","","","","forget_cue","","","","","","","","","","","","","","","",""
"html-keyboard-response","241","578521","0.0-4.0-1.0-0.41","ued272h7t7emtjq","prime","5d21a8a21b06360019082dac","5f60e3c0a3b16e07647b2ff9","5f60eeeadfc69301b5ec1703","false","null","<span style=""color: black; font-size: 48px"">M + N</span>","null","","","","resp_prompt","","","","","","","","","","","","","","","",""
"categorize-image","242","579179","0.0-4.0-1.0-1.41","ued272h7t7emtjq","prime","5d21a8a21b06360019082dac","5f60e3c0a3b16e07647b2ff9","5f60eeeadfc69301b5ec1703","true","654.4399999985471","./Stimuli/SelectedImages/SM/SM207.bmp","83","","","","test","true","M + N","83","repetition","SM","SM207.bmp","remember","","90","3","prime1","left","","","",""
"html-keyboard-response","243","581181","0.0-4.0-1.0-3.41","ued272h7t7emtjq","prime","5d21a8a21b06360019082dac","5f60e3c0a3b16e07647b2ff9","5f60eeeadfc69301b5ec1703","false","null","<div style=""align-items: center; display: flex; color: dodgerblue; font-size: 90px""><b>o</b></div>","null","","","","forget_cue","","","","","","","","","","","","","","","",""
"html-keyboard-response","244","581887","0.0-4.0-1.0-0.42","ued272h7t7emtjq","prime","5d21a8a21b06360019082dac","5f60e3c0a3b16e07647b2ff9","5f60eeeadfc69301b5ec1703","false","null","<span style=""color: black; font-size: 48px"">N + M</span>","null","","","","resp_prompt","","","","","","","","","","","","","","","",""
"categorize-image","245","582818","0.0-4.0-1.0-1.42","ued272h7t7emtjq","prime","5d21a8a21b06360019082dac","5f60e3c0a3b16e07647b2ff9","5f60eeeadfc69301b5ec1703","true","927.6600000011967","./Stimuli/SelectedImages/LN/LN13.bmp","83","","","","test","true","N + M","83","switch","LN","LN13.bmp","remember","","91","3","prime1","left","","","",""
"html-keyboard-response","246","584822","0.0-4.0-1.0-3.42","ued272h7t7emtjq","prime","5d21a8a21b06360019082dac","5f60e3c0a3b16e07647b2ff9","5f60eeeadfc69301b5ec1703","false","null","<div style=""align-items: center; display: flex; color: dodgerblue; font-size: 90px""><b>o</b></div>","null","","","","forget_cue","","","","","","","","","","","","","","","",""
"html-keyboard-response","247","585525","0.0-4.0-1.0-0.43","ued272h7t7emtjq","prime","5d21a8a21b06360019082dac","5f60e3c0a3b16e07647b2ff9","5f60eeeadfc69301b5ec1703","false","null","<span style=""color: black; font-size: 48px"">M + N</span>","null","","","","resp_prompt","","","","","","","","","","","","","","","",""
"categorize-image","248","586771","0.0-4.0-1.0-1.43","ued272h7t7emtjq","prime","5d21a8a21b06360019082dac","5f60e3c0a3b16e07647b2ff9","5f60eeeadfc69301b5ec1703","true","1243.1150000048801","./Stimuli/SelectedImages/LM/LM59.bmp","83","","","","test","true","M + N","83","repetition","LM","LM59.bmp","forget","","92","3","prime1","left","","","",""
"html-keyboard-response","249","588772","0.0-4.0-1.0-3.43","ued272h7t7emtjq","prime","5d21a8a21b06360019082dac","5f60e3c0a3b16e07647b2ff9","5f60eeeadfc69301b5ec1703","false","null","<div style=""align-items: center; display: flex; color: darkorange; font-size: 90px""><b>ø</b></div>","null","","","","forget_cue","","","","","","","","","","","","","","","",""
"html-keyboard-response","250","589478","0.0-4.0-1.0-0.44","ued272h7t7emtjq","prime","5d21a8a21b06360019082dac","5f60e3c0a3b16e07647b2ff9","5f60eeeadfc69301b5ec1703","false","null","<span style=""color: black; font-size: 48px"">M + N</span>","null","","","","resp_prompt","","","","","","","","","","","","","","","",""
"categorize-image","251","590346","0.0-4.0-1.0-1.44","ued272h7t7emtjq","prime","5d21a8a21b06360019082dac","5f60e3c0a3b16e07647b2ff9","5f60eeeadfc69301b5ec1703","true","864.9000000006054","./Stimuli/SelectedImages/SN/SN93.bmp","76","","","","test","true","M + N","76","switch","SN","SN93.bmp","forget","","93","3","prime1","right","","","",""
"html-keyboard-response","252","592351","0.0-4.0-1.0-3.44","ued272h7t7emtjq","prime","5d21a8a21b06360019082dac","5f60e3c0a3b16e07647b2ff9","5f60eeeadfc69301b5ec1703","false","null","<div style=""align-items: center; display: flex; color: darkorange; font-size: 90px""><b>ø</b></div>","null","","","","forget_cue","","","","","","","","","","","","","","","",""
