"trial_type","trial_index","time_elapsed","internal_node_id","subject","exp_part","prolific_PID","study_ID","session_ID","use","rt","stimulus","key_press","button_pressed","responses","question_order","trial_part","correct","resp_map","correct_resp","probe_condition","category","image","forget_condition","list","trial_num","block_num","block","response","test_part","n_span","sequence","num_spaces"
"pavlovia","0","6","0.0-0.0","w8pvzv2bjxa1xrt","","5768dabf8e454c000133a60b","5f60e3c0a3b16e07647b2ff9","5f60eedec0acc9010ee2e3f7","false","","","","","","","","","","","","","","","","","","","","","","",""
"html-keyboard-response","1","7429","0.0-1.0-0.0-0.0","w8pvzv2bjxa1xrt","welcome","5768dabf8e454c000133a60b","5f60e3c0a3b16e07647b2ff9","5f60eedec0acc9010ee2e3f7","false","7419.944999972358","<div align=left>Dear participant, <br> thank you for participating in an online study of the Cognition, Action, and Sustainability Unit of the University of Freiburg! <br> <br>The aim of this study is to examine our ability to remember previously learned information. <br>Our goal is to find out, whether our memory improves, when we only remember information that is relevant to us. <br>The experiment will take about 35 minutes to complete. <br> <br>Please, note that you can only participate in this study if you are using a device with a keyboard (PC, Laptop etc.) <br>and not if you are using a mobile device such as a tablet or smartphone.<br> <br>Press 'SPACE' to proceed to the experiment. </div>","32","","","","","","","","","","","","","","","","","","","",""
"html-keyboard-response","2","9030","0.0-1.0-0.0-1.0","w8pvzv2bjxa1xrt","welcome","5768dabf8e454c000133a60b","5f60e3c0a3b16e07647b2ff9","5f60eedec0acc9010ee2e3f7","false","1598.154999956023","<div align=left><strong> Time Course of this experiment: </strong> <br><br> <strong> 1.</strong>  First, please fill in some information regarding your demographic data. <br><br> <strong> 2.</strong>  Next, your task will be to classify everyday objects. <br>In addition, you will be asked to remember certain objects and recall them later. <br>Working on these tasks requires your undivided attention and concentration.<br>It is therefore essential that you eliminate any sources of distraction in your  <br>environment and ensure that you will not be disturbed. <br><br><strong> 3.</strong>  At the end of the experiment, you will be asked to answer a few additional questions. <br> <br><strong> Important:</strong> After finishing the experiment, only close the browser window <br> by clicking on the 'end the experiment'-button when you are asked to do so. <br>Closing the browser window prematurely will make the allocation of your participation credit impossible. <br><br> Press 'SPACE' to start the experiment. </div>","32","","","","","","","","","","","","","","","","","","","",""
"html-button-response","3","13323","0.0-1.0-0.0-2.0","w8pvzv2bjxa1xrt","welcome","5768dabf8e454c000133a60b","5f60e3c0a3b16e07647b2ff9","5f60eedec0acc9010ee2e3f7","true","4288.765000004787","<div align=left><strong> Informed consent </strong>  <br>The aim of our research is to better understand human behavior and mental processes. <br>In the following study your behavior (e.g. choices, reaction times) will be studied. <br> <br><strong> Voluntariness and Anonymity </strong> <br>Your participation in this study is  <strong> voluntary</strong>.<br>You may withdraw your consent to participate at any time without providing a reason for doing so and without fear of prejudice. <br><br>As no personal data will be collected, <strong>your data and your person cannot be connected after data collection</strong> – the data-set is anonymous. <br>Respectively, deletion of your data will not be possible after data collection has been completed, as we cannot retrace your data-set.<br>The results and anonymized data collected in this study will be published as a scientific publication. <br>This will happen in an <strong>anonymized format</strong>, so that no data can be traced back to a specific person. <br> <br>The anonymized data of this study will be made available to other researchers and/or in a data archive on the Internet as a means of transparency and to enable subsequent re-use. By doing so, this study follows the recommendations of the Deutsche Forschungsgemeinschaft (DFG, German Research Foundation) and Deutsche Gesellschaft für Psychologie (DGPS, German Psychological Society) regarding quality assurance in research.<br>If you have any questions now or after the experiment, please contact our team (experiments@cs.uni-freiburg.de).<br><br><br>I hereby declare, that I understand the above described conditions of participation and I agree to participate under these conditions. <br><br> </div>","","0","","","","","","","","","","","","","","","","","","",""
"html-keyboard-response","4","17209","0.0-1.0-0.0-3.0","w8pvzv2bjxa1xrt","welcome","5768dabf8e454c000133a60b","5f60e3c0a3b16e07647b2ff9","5f60eedec0acc9010ee2e3f7","false","3884.2249999870546","<div align=left><strong> General information concerning the experiment </strong>  <br> <br>Please follow the instructions:<ol> <li><strong> Do not leave this tab (your browser window) during the experiment and do not reload this tab! </strong>  <br>If you do switch tabs/windows during the experiment (to check your mail or visit another website, for example), <br>the experiment will end automatically and you will <strong>not receive credit</strong> for your participation. <br>Repeated participation or resumption of the experiment is impossible.</li> <br><li>Please close all other programs for the duration of your participation. </li> <br><li>Please mute or turn off your phone and put it out of your reach. </li> <br><li>Please also take off any disturbing accessories (such as wristwatches, bracelets, etc.). </li> <br><li>If you have music playing in the background, please turn it off now. </li> <br></ol>Thank you! <br>Press 'SPACE' to continue. </div>","32","","","","","","","","","","","","","","","","","","","",""
"survey-text","5","20077","0.0-1.0-1.0-0.0","w8pvzv2bjxa1xrt","demographics","5768dabf8e454c000133a60b","5f60e3c0a3b16e07647b2ff9","5f60eedec0acc9010ee2e3f7","true","2856.67500004638","","","","{""age"":""29""}","","","","","","","","","","","","","","","","","",""
"survey-multi-choice","6","28355","0.0-1.0-1.0-1.0","w8pvzv2bjxa1xrt","demographics","5768dabf8e454c000133a60b","5f60e3c0a3b16e07647b2ff9","5f60eedec0acc9010ee2e3f7","true","8275.415000040084","","","","{""gender"":""male"",""school"":""others"",""education"":""Completed university degree or equivalent""}","[0,1,2]","","","","","","","","","","","","","","","","",""
"html-keyboard-response","7","136086","0.0-1.0-2.0","w8pvzv2bjxa1xrt","instructions","5768dabf8e454c000133a60b","5f60e3c0a3b16e07647b2ff9","5f60eedec0acc9010ee2e3f7","false","107727.39000001457","<div align=left> The experiment is now about to start: <br> <br>In the following part, you will be presented pictures of everyday objects. <br>Your first task is to <strong>classify these objects. </strong> <br> <br> You will classify them either as mechanical or non-mechanical objects. <br> <br>Objects that include any kind of technical mechanism (for example, wheels, switches, levers, <br> electronic components) fall under the category of <strong>mechanical</strong> objects. <br>Only objects without any kind of technical mechanism should be classified as <strong>non-mechanical</strong>. <br><br>Press 'SPACE' to continue. </div>","32","","","","","","","","","","","","","","","","","","","",""
"html-keyboard-response","8","227956","0.0-2.0-0.0","w8pvzv2bjxa1xrt","instructions","5768dabf8e454c000133a60b","5f60e3c0a3b16e07647b2ff9","5f60eedec0acc9010ee2e3f7","false","91868.50500002038","<div align=justify>You will classify the objects using the <strong>'S'</strong> and the <strong>'L'</strong> keys on your keyboard.<br>For doing so, please place your <strong>left index finger</strong> on the <strong>'S'</strong> key and place your <strong>right index finger</strong> on the <strong>'L'</strong> key. <br><br> Each trial starts with an instruction, indicating which key ('S'/'L') you need to press to classify <br>the object as mechanical (letter M) or non-mechanical (letter N).<br>The instruction <strong>M + N</strong> indicates that, in the current trial, by pressing the left key ('S') you classify the displayed object as mechanical (M) <br> and by pressing the right key ('L') you classify the object as non-mechanical (N). <br>The instruction <strong>N + M</strong> on the other hand indicates that by pressing the left key ('S') you classify the displayed object as non-mechanical (N) <br> and by pressing the right key ('L') you classify the object as mechanical (M). <br><br>Please press the key corresponding to the correct classification as fast as possible as soon as the object is displayed and try to avoid making mistakes.<br>If you do not respond within a 2 second window, a corresponding feedback will be displayed and the next trial will start.<br> The experiment is divided into multiple blocks to give you the opportunity to take a break after each block. <br>First, you can now practice this task. <br><br>Please place your <strong>LEFT INDEX FINGER</strong> on the 'S' key and your <strong>RIGHT INDEX FINGER</strong> on the 'L' key now. <br><br>Press SPACE to continue.</div>","32","","","","","","","","","","","","","","","","","","","",""
"html-keyboard-response","9","233431","0.0-2.0-1.0","w8pvzv2bjxa1xrt","instructions","5768dabf8e454c000133a60b","5f60e3c0a3b16e07647b2ff9","5f60eedec0acc9010ee2e3f7","false","5471.674999978859","<div align=left> You will now have time to practice this task.<br><br>Remember: <br> <br><li>Please place your index fingers on the <strong>'S'</strong> and <strong>'L'</strong> keys <br>to respond as fast and accurately as possible.</li><li>Every picture can be classified as either mechanical or non-mechanical.</li><li>If you do not respond in time or commit an error, you will receive a corresponding feedback. </li><li> Please try to respond as <strong> fast </strong> and as <strong> accurately as possible </strong> .<br><li>To ensure optimal results, please minimize distractions and stay focused. </li><br><br>Press SPACE to continue.</div>","32","","","","","","","","","","","","","","","","","","","",""
"html-keyboard-response","10","234144","0.0-2.0-2.0-0.0","w8pvzv2bjxa1xrt","practice_no_cue","5768dabf8e454c000133a60b","5f60e3c0a3b16e07647b2ff9","5f60eedec0acc9010ee2e3f7","false","null","<span style=""color: black; font-size: 48px"">M + N</span>","null","","","","resp_prompt","","","","","","","","","","","","","","","",""
"categorize-image","11","235982","0.0-2.0-2.0-1.0","w8pvzv2bjxa1xrt","practice_no_cue","5768dabf8e454c000133a60b","5f60e3c0a3b16e07647b2ff9","5f60eedec0acc9010ee2e3f7","true","1321.0349999717437","./Stimuli/ImagesPractice/LM147.jpg","83","","","","test","true","M + N","83","","LM","LM147.jpg","forget","old","1","1","start","left","","","",""
"html-keyboard-response","12","236696","0.0-2.0-2.0-0.1","w8pvzv2bjxa1xrt","practice_no_cue","5768dabf8e454c000133a60b","5f60e3c0a3b16e07647b2ff9","5f60eedec0acc9010ee2e3f7","false","null","<span style=""color: black; font-size: 48px"">M + N</span>","null","","","","resp_prompt","","","","","","","","","","","","","","","",""
"categorize-image","13","238542","0.0-2.0-2.0-1.1","w8pvzv2bjxa1xrt","practice_no_cue","5768dabf8e454c000133a60b","5f60e3c0a3b16e07647b2ff9","5f60eedec0acc9010ee2e3f7","true","1333.5349999833852","./Stimuli/ImagesPractice/SM35.jpg","76","","","","test","false","M + N","83","","SM","SM35.jpg","remember","old","2","1","start","right","","","",""
"html-keyboard-response","14","239256","0.0-2.0-2.0-0.2","w8pvzv2bjxa1xrt","practice_no_cue","5768dabf8e454c000133a60b","5f60e3c0a3b16e07647b2ff9","5f60eedec0acc9010ee2e3f7","false","null","<span style=""color: black; font-size: 48px"">M + N</span>","null","","","","resp_prompt","","","","","","","","","","","","","","","",""
"categorize-image","15","240335","0.0-2.0-2.0-1.2","w8pvzv2bjxa1xrt","practice_no_cue","5768dabf8e454c000133a60b","5f60e3c0a3b16e07647b2ff9","5f60eedec0acc9010ee2e3f7","true","574.3650000076741","./Stimuli/ImagesPractice/SN205.jpg","76","","","","test","true","M + N","76","","SN","SN205.jpg","forget","old","3","1","start","right","","","",""
"html-keyboard-response","16","241040","0.0-2.0-2.0-0.3","w8pvzv2bjxa1xrt","practice_no_cue","5768dabf8e454c000133a60b","5f60e3c0a3b16e07647b2ff9","5f60eedec0acc9010ee2e3f7","false","null","<span style=""color: black; font-size: 48px"">N + M</span>","null","","","","resp_prompt","","","","","","","","","","","","","","","",""
"categorize-image","17","242232","0.0-2.0-2.0-1.3","w8pvzv2bjxa1xrt","practice_no_cue","5768dabf8e454c000133a60b","5f60e3c0a3b16e07647b2ff9","5f60eedec0acc9010ee2e3f7","true","687.9649999900721","./Stimuli/ImagesPractice/LM55.jpg","83","","","","test","false","N + M","76","","LM","LM55.jpg","remember","old","4","1","start","left","","","",""
"html-keyboard-response","18","242942","0.0-2.0-2.0-0.4","w8pvzv2bjxa1xrt","practice_no_cue","5768dabf8e454c000133a60b","5f60e3c0a3b16e07647b2ff9","5f60eedec0acc9010ee2e3f7","false","null","<span style=""color: black; font-size: 48px"">M + N</span>","null","","","","resp_prompt","","","","","","","","","","","","","","","",""
"categorize-image","19","244252","0.0-2.0-2.0-1.4","w8pvzv2bjxa1xrt","practice_no_cue","5768dabf8e454c000133a60b","5f60e3c0a3b16e07647b2ff9","5f60eedec0acc9010ee2e3f7","true","805.3400000208057","./Stimuli/ImagesPractice/LM224.jpg","83","","","","test","true","M + N","83","","LM","LM224.jpg","remember","old","5","1","start","left","","","",""
"html-keyboard-response","20","244957","0.0-2.0-2.0-0.5","w8pvzv2bjxa1xrt","practice_no_cue","5768dabf8e454c000133a60b","5f60e3c0a3b16e07647b2ff9","5f60eedec0acc9010ee2e3f7","false","null","<span style=""color: black; font-size: 48px"">N + M</span>","null","","","","resp_prompt","","","","","","","","","","","","","","","",""
"categorize-image","21","247207","0.0-2.0-2.0-1.5","w8pvzv2bjxa1xrt","practice_no_cue","5768dabf8e454c000133a60b","5f60e3c0a3b16e07647b2ff9","5f60eedec0acc9010ee2e3f7","true","1746.2800000212155","./Stimuli/ImagesPractice/SM37.jpg","83","","","","test","false","N + M","76","","SM","SM37.jpg","remember","old","6","1","start","left","","","",""
"html-keyboard-response","22","247912","0.0-2.0-2.0-0.6","w8pvzv2bjxa1xrt","practice_no_cue","5768dabf8e454c000133a60b","5f60e3c0a3b16e07647b2ff9","5f60eedec0acc9010ee2e3f7","false","null","<span style=""color: black; font-size: 48px"">N + M</span>","null","","","","resp_prompt","","","","","","","","","","","","","","","",""
"categorize-image","23","250017","0.0-2.0-2.0-1.6","w8pvzv2bjxa1xrt","practice_no_cue","5768dabf8e454c000133a60b","5f60e3c0a3b16e07647b2ff9","5f60eedec0acc9010ee2e3f7","true","1592.9699999978766","./Stimuli/ImagesPractice/SM62.jpg","76","","","","test","true","N + M","76","","SM","SM62.jpg","forget","old","7","1","start","right","","","",""
"html-keyboard-response","24","250730","0.0-2.0-2.0-0.7","w8pvzv2bjxa1xrt","practice_no_cue","5768dabf8e454c000133a60b","5f60e3c0a3b16e07647b2ff9","5f60eedec0acc9010ee2e3f7","false","null","<span style=""color: black; font-size: 48px"">N + M</span>","null","","","","resp_prompt","","","","","","","","","","","","","","","",""
"categorize-image","25","252381","0.0-2.0-2.0-1.7","w8pvzv2bjxa1xrt","practice_no_cue","5768dabf8e454c000133a60b","5f60e3c0a3b16e07647b2ff9","5f60eedec0acc9010ee2e3f7","true","1144.6850000065751","./Stimuli/ImagesPractice/SM97.jpg","76","","","","test","true","N + M","76","","SM","SM97.jpg","forget","old","8","1","start","right","","","",""
"html-keyboard-response","26","253095","0.0-2.0-2.0-0.8","w8pvzv2bjxa1xrt","practice_no_cue","5768dabf8e454c000133a60b","5f60e3c0a3b16e07647b2ff9","5f60eedec0acc9010ee2e3f7","false","null","<span style=""color: black; font-size: 48px"">M + N</span>","null","","","","resp_prompt","","","","","","","","","","","","","","","",""
"categorize-image","27","254570","0.0-2.0-2.0-1.8","w8pvzv2bjxa1xrt","practice_no_cue","5768dabf8e454c000133a60b","5f60e3c0a3b16e07647b2ff9","5f60eedec0acc9010ee2e3f7","true","969.0149999805726","./Stimuli/ImagesPractice/SN221.jpg","76","","","","test","true","M + N","76","","SN","SN221.jpg","remember","old","9","1","start","right","","","",""
"html-keyboard-response","28","255283","0.0-2.0-2.0-0.9","w8pvzv2bjxa1xrt","practice_no_cue","5768dabf8e454c000133a60b","5f60e3c0a3b16e07647b2ff9","5f60eedec0acc9010ee2e3f7","false","null","<span style=""color: black; font-size: 48px"">M + N</span>","null","","","","resp_prompt","","","","","","","","","","","","","","","",""
"categorize-image","29","256936","0.0-2.0-2.0-1.9","w8pvzv2bjxa1xrt","practice_no_cue","5768dabf8e454c000133a60b","5f60e3c0a3b16e07647b2ff9","5f60eedec0acc9010ee2e3f7","true","1140.480000001844","./Stimuli/ImagesPractice/LN109.jpg","76","","","","test","true","M + N","76","","LN","LN109.jpg","forget","old","10","1","start","right","","","",""
"html-keyboard-response","30","257649","0.0-2.0-2.0-0.10","w8pvzv2bjxa1xrt","practice_no_cue","5768dabf8e454c000133a60b","5f60e3c0a3b16e07647b2ff9","5f60eedec0acc9010ee2e3f7","false","null","<span style=""color: black; font-size: 48px"">N + M</span>","null","","","","resp_prompt","","","","","","","","","","","","","","","",""
"categorize-image","31","259369","0.0-2.0-2.0-1.10","w8pvzv2bjxa1xrt","practice_no_cue","5768dabf8e454c000133a60b","5f60e3c0a3b16e07647b2ff9","5f60eedec0acc9010ee2e3f7","true","1207.9749999684282","./Stimuli/ImagesPractice/LN15.jpg","83","","","","test","true","N + M","83","","LN","LN15.jpg","remember","old","11","1","start","left","","","",""
"html-keyboard-response","32","260082","0.0-2.0-2.0-0.11","w8pvzv2bjxa1xrt","practice_no_cue","5768dabf8e454c000133a60b","5f60e3c0a3b16e07647b2ff9","5f60eedec0acc9010ee2e3f7","false","null","<span style=""color: black; font-size: 48px"">N + M</span>","null","","","","resp_prompt","","","","","","","","","","","","","","","",""
"categorize-image","33","261848","0.0-2.0-2.0-1.11","w8pvzv2bjxa1xrt","practice_no_cue","5768dabf8e454c000133a60b","5f60e3c0a3b16e07647b2ff9","5f60eedec0acc9010ee2e3f7","true","1260.9299999894574","./Stimuli/ImagesPractice/SM61.jpg","83","","","","test","false","N + M","76","","SM","SM61.jpg","forget","old","12","1","start","left","","","",""
"html-keyboard-response","34","262553","0.0-2.0-2.0-0.12","w8pvzv2bjxa1xrt","practice_no_cue","5768dabf8e454c000133a60b","5f60e3c0a3b16e07647b2ff9","5f60eedec0acc9010ee2e3f7","false","null","<span style=""color: black; font-size: 48px"">N + M</span>","null","","","","resp_prompt","","","","","","","","","","","","","","","",""
"categorize-image","35","264258","0.0-2.0-2.0-1.12","w8pvzv2bjxa1xrt","practice_no_cue","5768dabf8e454c000133a60b","5f60e3c0a3b16e07647b2ff9","5f60eedec0acc9010ee2e3f7","true","1192.4099999596365","./Stimuli/ImagesPractice/LM230.jpg","76","","","","test","true","N + M","76","","LM","LM230.jpg","forget","old","13","1","start","right","","","",""
"html-keyboard-response","36","264964","0.0-2.0-2.0-0.13","w8pvzv2bjxa1xrt","practice_no_cue","5768dabf8e454c000133a60b","5f60e3c0a3b16e07647b2ff9","5f60eedec0acc9010ee2e3f7","false","null","<span style=""color: black; font-size: 48px"">N + M</span>","null","","","","resp_prompt","","","","","","","","","","","","","","","",""
"categorize-image","37","266619","0.0-2.0-2.0-1.13","w8pvzv2bjxa1xrt","practice_no_cue","5768dabf8e454c000133a60b","5f60e3c0a3b16e07647b2ff9","5f60eedec0acc9010ee2e3f7","true","1142.180000024382","./Stimuli/ImagesPractice/SN76.jpg","83","","","","test","true","N + M","83","","SN","SN76.jpg","remember","old","14","1","start","left","","","",""
"html-keyboard-response","38","267332","0.0-2.0-2.0-0.14","w8pvzv2bjxa1xrt","practice_no_cue","5768dabf8e454c000133a60b","5f60e3c0a3b16e07647b2ff9","5f60eedec0acc9010ee2e3f7","false","null","<span style=""color: black; font-size: 48px"">M + N</span>","null","","","","resp_prompt","","","","","","","","","","","","","","","",""
"categorize-image","39","268557","0.0-2.0-2.0-1.14","w8pvzv2bjxa1xrt","practice_no_cue","5768dabf8e454c000133a60b","5f60e3c0a3b16e07647b2ff9","5f60eedec0acc9010ee2e3f7","true","720.2200000174344","./Stimuli/ImagesPractice/SN222.jpg","76","","","","test","true","M + N","76","","SN","SN222.jpg","remember","old","15","1","start","right","","","",""
"html-keyboard-response","40","269272","0.0-2.0-2.0-0.15","w8pvzv2bjxa1xrt","practice_no_cue","5768dabf8e454c000133a60b","5f60e3c0a3b16e07647b2ff9","5f60eedec0acc9010ee2e3f7","false","null","<span style=""color: black; font-size: 48px"">M + N</span>","null","","","","resp_prompt","","","","","","","","","","","","","","","",""
"categorize-image","41","270313","0.0-2.0-2.0-1.15","w8pvzv2bjxa1xrt","practice_no_cue","5768dabf8e454c000133a60b","5f60e3c0a3b16e07647b2ff9","5f60eedec0acc9010ee2e3f7","true","528.8300000247546","./Stimuli/ImagesPractice/LN17.jpg","76","","","","test","true","M + N","76","","LN","LN17.jpg","forget","old","16","1","start","right","","","",""
"html-keyboard-response","42","277752","0.0-2.0-3.0","w8pvzv2bjxa1xrt","break","5768dabf8e454c000133a60b","5f60e3c0a3b16e07647b2ff9","5f60eedec0acc9010ee2e3f7","false","7445.239999971818","<p style='font-size: 32px;'>Break</><br><br><br><br><br><p style='font-size: 24px;'>In the last block, you committed 4 errors and did not respond in time on 0 trials.
</p><p style='font-size: 24px;'>Try to respond as fast and accurately as possible in the next block as well! </p><p style='font-size: 24px;'>Press SPACE to continue.</p>","32","","","","","","","","","","","","","","","","","","","",""
"html-keyboard-response","43","281277","0.0-2.0-4.0","w8pvzv2bjxa1xrt","instructions","5768dabf8e454c000133a60b","5f60e3c0a3b16e07647b2ff9","5f60eedec0acc9010ee2e3f7","false","3522.85499998834","<div align=left> Great!<br><br>Are you ready to continue?<br><br>If you want to reread the instructions and redo the practice trials, <br>please press „Z“. <br><br>Press SPACE to CONTINUE with the experiment when you are ready. </div>","32","","","","","","","","","","","","","","","","","","","",""
"html-keyboard-response","44","342982","0.0-3.0-0.0","w8pvzv2bjxa1xrt","instructions","5768dabf8e454c000133a60b","5f60e3c0a3b16e07647b2ff9","5f60eedec0acc9010ee2e3f7","false","61690.27500000084","<div align=left>Great!<br> <strong>Attention</strong>! You will now receive a second, additional task! <br><br>To this point it was you <strong>first task</strong> to correctly <strong>classify objects</strong>. <br><br>As mentioned in the beginning, we aim to examine how well humans can remember previously learned information.<br>We would like to find out whether our memory improves if we only remember information that is relevant to us. <br><br>Therefore, your <strong>second task</strong> will be to <strong>remember</strong> the pictures you are to categorize. <br> After the learning phase, there will be a memory test phase, in which you will be asked to indicate whether you have seen a picture before or not. <br>Some, but not all pictures shown in the learning phase will appear in the memory test phase.<br>After classifying a picture, you will be told whether you should remember it for the memory test phase or not. <br>Thus, some pictures can be forgotten, whereas others have to be remembered. <br><br>Note: From now on, feedback will only be displayed if you responded incorrectly or not in time.<br><br>Press SPACE to continue.</div>","32","","","","","","","","","","","","","","","","","","","",""
"html-keyboard-response","45","348161","0.0-3.0-1.0","w8pvzv2bjxa1xrt","instructions","5768dabf8e454c000133a60b","5f60e3c0a3b16e07647b2ff9","5f60eedec0acc9010ee2e3f7","false","5177.614999993239","<div align=left>In the following part, you will thus have to remember only some pictures. <br>Immediately after seeing and classifying the picture, a symbol will be displayed, indicating whether you should remember or forget the previous picture. <br><br>A <span style='color: dodgerblue; font-size: 28px'>O</span> indicates REMEMBER. That means, you have to remember this picture, because it will be tested later. <br><br>A <span style='color: darkorange; font-size:28px'>Ø</span> indicates FORGET. You do not have to remember this picture. <br><br> As you will have to remember a lot of pictures, it will be hard for you to remember all of them. <br>It will put you at an advantage if you instantly forget the pictures you are not asked to remember. <br> This will make it easier for you to remember the pictures that will be tested afterwards. <br><br>Press SPACE to continue.</div>","32","","","","","","","","","","","","","","","","","","","",""
"html-keyboard-response","46","350473","0.0-3.0-2.0","w8pvzv2bjxa1xrt","instructions","5768dabf8e454c000133a60b","5f60e3c0a3b16e07647b2ff9","5f60eedec0acc9010ee2e3f7","false","2309.019999986049","<div align=left> Now you have the chance to practice both tasks together.<br><br>Remember: <br> <br><li>Please place your index fingers on the <strong>'S'</strong> and <strong>'L'</strong> keys <br>to respond as fast and accurately as possible.</li><li>Every picture can be classified as either mechanical or non-mechanical.</li><li>If you do not respond in time or commit an error, you will receive a corresponding feedback. <br>Please try to respond as <strong> fast </strong> and as <strong> accurately as possible </strong>.</li><li> Please remember only the to-be-remembered <span style='color: dodgerblue; font-size: 28px'>O</span> pictures. <br></li><li> Please minimize distractions and stay focused. </li><br><br>Press SPACE to START</div>","32","","","","","","","","","","","","","","","","","","","",""
"html-keyboard-response","47","351179","0.0-3.0-3.0-0.0","w8pvzv2bjxa1xrt","practice_cue","5768dabf8e454c000133a60b","5f60e3c0a3b16e07647b2ff9","5f60eedec0acc9010ee2e3f7","false","null","<span style=""color: black; font-size: 48px"">N + M</span>","null","","","","resp_prompt","","","","","","","","","","","","","","","",""
"categorize-image","48","352317","0.0-3.0-3.0-1.0","w8pvzv2bjxa1xrt","practice_cue","5768dabf8e454c000133a60b","5f60e3c0a3b16e07647b2ff9","5f60eedec0acc9010ee2e3f7","true","1131.1149999964982","./Stimuli/ImagesPractice/SN76.jpg","83","","","","test","true","N + M","83","","SN","SN76.jpg","remember","old","17","2","practice_forget","left","","","",""
"html-keyboard-response","49","354325","0.0-3.0-3.0-3.0","w8pvzv2bjxa1xrt","practice_cue","5768dabf8e454c000133a60b","5f60e3c0a3b16e07647b2ff9","5f60eedec0acc9010ee2e3f7","false","null","<div style=""align-items: center; display: flex; color: dodgerblue; font-size: 90px""><b>o</b></div>","null","","","","forget_cue","","","","","","","","","","","","","","","",""
"html-keyboard-response","50","355038","0.0-3.0-3.0-0.1","w8pvzv2bjxa1xrt","practice_cue","5768dabf8e454c000133a60b","5f60e3c0a3b16e07647b2ff9","5f60eedec0acc9010ee2e3f7","false","null","<span style=""color: black; font-size: 48px"">M + N</span>","null","","","","resp_prompt","","","","","","","","","","","","","","","",""
"categorize-image","51","356603","0.0-3.0-3.0-1.1","w8pvzv2bjxa1xrt","practice_cue","5768dabf8e454c000133a60b","5f60e3c0a3b16e07647b2ff9","5f60eedec0acc9010ee2e3f7","true","1559.4450000207871","./Stimuli/ImagesPractice/LN109.jpg","76","","","","test","true","M + N","76","","LN","LN109.jpg","forget","old","18","2","practice_forget","right","","","",""
"html-keyboard-response","52","358619","0.0-3.0-3.0-3.1","w8pvzv2bjxa1xrt","practice_cue","5768dabf8e454c000133a60b","5f60e3c0a3b16e07647b2ff9","5f60eedec0acc9010ee2e3f7","false","null","<div style=""align-items: center; display: flex; color: darkorange; font-size: 90px""><b>ø</b></div>","null","","","","forget_cue","","","","","","","","","","","","","","","",""
"html-keyboard-response","53","359322","0.0-3.0-3.0-0.2","w8pvzv2bjxa1xrt","practice_cue","5768dabf8e454c000133a60b","5f60e3c0a3b16e07647b2ff9","5f60eedec0acc9010ee2e3f7","false","null","<span style=""color: black; font-size: 48px"">N + M</span>","null","","","","resp_prompt","","","","","","","","","","","","","","","",""
"categorize-image","54","360923","0.0-3.0-3.0-1.2","w8pvzv2bjxa1xrt","practice_cue","5768dabf8e454c000133a60b","5f60e3c0a3b16e07647b2ff9","5f60eedec0acc9010ee2e3f7","true","1594.3149999948218","./Stimuli/ImagesPractice/LM230.jpg","76","","","","test","true","N + M","76","","LM","LM230.jpg","forget","old","19","2","practice_forget","right","","","",""
"html-keyboard-response","55","362931","0.0-3.0-3.0-3.2","w8pvzv2bjxa1xrt","practice_cue","5768dabf8e454c000133a60b","5f60e3c0a3b16e07647b2ff9","5f60eedec0acc9010ee2e3f7","false","null","<div style=""align-items: center; display: flex; color: darkorange; font-size: 90px""><b>ø</b></div>","null","","","","forget_cue","","","","","","","","","","","","","","","",""
"html-keyboard-response","56","363644","0.0-3.0-3.0-0.3","w8pvzv2bjxa1xrt","practice_cue","5768dabf8e454c000133a60b","5f60e3c0a3b16e07647b2ff9","5f60eedec0acc9010ee2e3f7","false","null","<span style=""color: black; font-size: 48px"">M + N</span>","null","","","","resp_prompt","","","","","","","","","","","","","","","",""
"categorize-image","57","364894","0.0-3.0-3.0-1.3","w8pvzv2bjxa1xrt","practice_cue","5768dabf8e454c000133a60b","5f60e3c0a3b16e07647b2ff9","5f60eedec0acc9010ee2e3f7","true","1243.5999999870546","./Stimuli/ImagesPractice/LM224.jpg","83","","","","test","true","M + N","83","","LM","LM224.jpg","remember","old","20","2","practice_forget","left","","","",""
"html-keyboard-response","58","366909","0.0-3.0-3.0-3.3","w8pvzv2bjxa1xrt","practice_cue","5768dabf8e454c000133a60b","5f60e3c0a3b16e07647b2ff9","5f60eedec0acc9010ee2e3f7","false","null","<div style=""align-items: center; display: flex; color: dodgerblue; font-size: 90px""><b>o</b></div>","null","","","","forget_cue","","","","","","","","","","","","","","","",""
"html-keyboard-response","59","367626","0.0-3.0-3.0-0.4","w8pvzv2bjxa1xrt","practice_cue","5768dabf8e454c000133a60b","5f60e3c0a3b16e07647b2ff9","5f60eedec0acc9010ee2e3f7","false","null","<span style=""color: black; font-size: 48px"">M + N</span>","null","","","","resp_prompt","","","","","","","","","","","","","","","",""
"categorize-image","60","369197","0.0-3.0-3.0-1.4","w8pvzv2bjxa1xrt","practice_cue","5768dabf8e454c000133a60b","5f60e3c0a3b16e07647b2ff9","5f60eedec0acc9010ee2e3f7","true","1564.200000022538","./Stimuli/ImagesPractice/SN221.jpg","76","","","","test","true","M + N","76","","SN","SN221.jpg","remember","old","21","2","practice_forget","right","","","",""
"html-keyboard-response","61","371212","0.0-3.0-3.0-3.4","w8pvzv2bjxa1xrt","practice_cue","5768dabf8e454c000133a60b","5f60e3c0a3b16e07647b2ff9","5f60eedec0acc9010ee2e3f7","false","null","<div style=""align-items: center; display: flex; color: dodgerblue; font-size: 90px""><b>o</b></div>","null","","","","forget_cue","","","","","","","","","","","","","","","",""
"html-keyboard-response","62","371918","0.0-3.0-3.0-0.5","w8pvzv2bjxa1xrt","practice_cue","5768dabf8e454c000133a60b","5f60e3c0a3b16e07647b2ff9","5f60eedec0acc9010ee2e3f7","false","null","<span style=""color: black; font-size: 48px"">N + M</span>","null","","","","resp_prompt","","","","","","","","","","","","","","","",""
"categorize-image","63","373836","0.0-3.0-3.0-1.5","w8pvzv2bjxa1xrt","practice_cue","5768dabf8e454c000133a60b","5f60e3c0a3b16e07647b2ff9","5f60eedec0acc9010ee2e3f7","true","1911.7650000262074","./Stimuli/ImagesPractice/SM62.jpg","76","","","","test","true","N + M","76","","SM","SM62.jpg","forget","old","22","2","practice_forget","right","","","",""
"html-keyboard-response","64","375851","0.0-3.0-3.0-3.5","w8pvzv2bjxa1xrt","practice_cue","5768dabf8e454c000133a60b","5f60e3c0a3b16e07647b2ff9","5f60eedec0acc9010ee2e3f7","false","null","<div style=""align-items: center; display: flex; color: darkorange; font-size: 90px""><b>ø</b></div>","null","","","","forget_cue","","","","","","","","","","","","","","","",""
"html-keyboard-response","65","376556","0.0-3.0-3.0-0.6","w8pvzv2bjxa1xrt","practice_cue","5768dabf8e454c000133a60b","5f60e3c0a3b16e07647b2ff9","5f60eedec0acc9010ee2e3f7","false","null","<span style=""color: black; font-size: 48px"">M + N</span>","null","","","","resp_prompt","","","","","","","","","","","","","","","",""
"categorize-image","66","377773","0.0-3.0-3.0-1.6","w8pvzv2bjxa1xrt","practice_cue","5768dabf8e454c000133a60b","5f60e3c0a3b16e07647b2ff9","5f60eedec0acc9010ee2e3f7","true","1210.480000008829","./Stimuli/ImagesPractice/SN205.jpg","76","","","","test","true","M + N","76","","SN","SN205.jpg","forget","old","23","2","practice_forget","right","","","",""
"html-keyboard-response","67","379789","0.0-3.0-3.0-3.6","w8pvzv2bjxa1xrt","practice_cue","5768dabf8e454c000133a60b","5f60e3c0a3b16e07647b2ff9","5f60eedec0acc9010ee2e3f7","false","null","<div style=""align-items: center; display: flex; color: darkorange; font-size: 90px""><b>ø</b></div>","null","","","","forget_cue","","","","","","","","","","","","","","","",""
"html-keyboard-response","68","380493","0.0-3.0-3.0-0.7","w8pvzv2bjxa1xrt","practice_cue","5768dabf8e454c000133a60b","5f60e3c0a3b16e07647b2ff9","5f60eedec0acc9010ee2e3f7","false","null","<span style=""color: black; font-size: 48px"">M + N</span>","null","","","","resp_prompt","","","","","","","","","","","","","","","",""
"categorize-image","69","381895","0.0-3.0-3.0-1.7","w8pvzv2bjxa1xrt","practice_cue","5768dabf8e454c000133a60b","5f60e3c0a3b16e07647b2ff9","5f60eedec0acc9010ee2e3f7","true","1394.994999980554","./Stimuli/ImagesPractice/SM35.jpg","83","","","","test","true","M + N","83","","SM","SM35.jpg","remember","old","24","2","practice_forget","left","","","",""
"html-keyboard-response","70","383904","0.0-3.0-3.0-3.7","w8pvzv2bjxa1xrt","practice_cue","5768dabf8e454c000133a60b","5f60e3c0a3b16e07647b2ff9","5f60eedec0acc9010ee2e3f7","false","null","<div style=""align-items: center; display: flex; color: dodgerblue; font-size: 90px""><b>o</b></div>","null","","","","forget_cue","","","","","","","","","","","","","","","",""
"html-keyboard-response","71","384618","0.0-3.0-3.0-0.8","w8pvzv2bjxa1xrt","practice_cue","5768dabf8e454c000133a60b","5f60e3c0a3b16e07647b2ff9","5f60eedec0acc9010ee2e3f7","false","null","<span style=""color: black; font-size: 48px"">M + N</span>","null","","","","resp_prompt","","","","","","","","","","","","","","","",""
"categorize-image","72","386016","0.0-3.0-3.0-1.8","w8pvzv2bjxa1xrt","practice_cue","5768dabf8e454c000133a60b","5f60e3c0a3b16e07647b2ff9","5f60eedec0acc9010ee2e3f7","true","1390.1099999784492","./Stimuli/ImagesPractice/LM147.jpg","83","","","","test","true","M + N","83","","LM","LM147.jpg","forget","old","25","2","practice_forget","left","","","",""
"html-keyboard-response","73","388030","0.0-3.0-3.0-3.8","w8pvzv2bjxa1xrt","practice_cue","5768dabf8e454c000133a60b","5f60e3c0a3b16e07647b2ff9","5f60eedec0acc9010ee2e3f7","false","null","<div style=""align-items: center; display: flex; color: darkorange; font-size: 90px""><b>ø</b></div>","null","","","","forget_cue","","","","","","","","","","","","","","","",""
"html-keyboard-response","74","388737","0.0-3.0-3.0-0.9","w8pvzv2bjxa1xrt","practice_cue","5768dabf8e454c000133a60b","5f60e3c0a3b16e07647b2ff9","5f60eedec0acc9010ee2e3f7","false","null","<span style=""color: black; font-size: 48px"">N + M</span>","null","","","","resp_prompt","","","","","","","","","","","","","","","",""
"categorize-image","75","390758","0.0-3.0-3.0-1.9","w8pvzv2bjxa1xrt","practice_cue","5768dabf8e454c000133a60b","5f60e3c0a3b16e07647b2ff9","5f60eedec0acc9010ee2e3f7","true","null","./Stimuli/ImagesPractice/SM61.jpg","null","","","","test","false","N + M","76","","SM","SM61.jpg","forget","old","26","2","practice_forget","too_slow","","","",""
"html-keyboard-response","76","391275","0.0-3.0-3.0-2.9-0.9","w8pvzv2bjxa1xrt","practice_cue","5768dabf8e454c000133a60b","5f60e3c0a3b16e07647b2ff9","5f60eedec0acc9010ee2e3f7","false","null","<span style=""color: red; font-size: 48px"">Too slow!</span>","null","","","","feedback","","","","","","","","","","","","","","","",""
"html-keyboard-response","77","393293","0.0-3.0-3.0-3.9","w8pvzv2bjxa1xrt","practice_cue","5768dabf8e454c000133a60b","5f60e3c0a3b16e07647b2ff9","5f60eedec0acc9010ee2e3f7","false","null","<div style=""align-items: center; display: flex; color: darkorange; font-size: 90px""><b>ø</b></div>","null","","","","forget_cue","","","","","","","","","","","","","","","",""
"html-keyboard-response","78","394014","0.0-3.0-3.0-0.10","w8pvzv2bjxa1xrt","practice_cue","5768dabf8e454c000133a60b","5f60e3c0a3b16e07647b2ff9","5f60eedec0acc9010ee2e3f7","false","null","<span style=""color: black; font-size: 48px"">M + N</span>","null","","","","resp_prompt","","","","","","","","","","","","","","","",""
"categorize-image","79","395171","0.0-3.0-3.0-1.10","w8pvzv2bjxa1xrt","practice_cue","5768dabf8e454c000133a60b","5f60e3c0a3b16e07647b2ff9","5f60eedec0acc9010ee2e3f7","true","1149.12000001641","./Stimuli/ImagesPractice/LN17.jpg","76","","","","test","true","M + N","76","","LN","LN17.jpg","forget","old","27","2","practice_forget","right","","","",""
"html-keyboard-response","80","397179","0.0-3.0-3.0-3.10","w8pvzv2bjxa1xrt","practice_cue","5768dabf8e454c000133a60b","5f60e3c0a3b16e07647b2ff9","5f60eedec0acc9010ee2e3f7","false","null","<div style=""align-items: center; display: flex; color: darkorange; font-size: 90px""><b>ø</b></div>","null","","","","forget_cue","","","","","","","","","","","","","","","",""
"html-keyboard-response","81","397892","0.0-3.0-3.0-0.11","w8pvzv2bjxa1xrt","practice_cue","5768dabf8e454c000133a60b","5f60e3c0a3b16e07647b2ff9","5f60eedec0acc9010ee2e3f7","false","null","<span style=""color: black; font-size: 48px"">N + M</span>","null","","","","resp_prompt","","","","","","","","","","","","","","","",""
"categorize-image","82","399244","0.0-3.0-3.0-1.11","w8pvzv2bjxa1xrt","practice_cue","5768dabf8e454c000133a60b","5f60e3c0a3b16e07647b2ff9","5f60eedec0acc9010ee2e3f7","true","1345.1299999724142","./Stimuli/ImagesPractice/SM37.jpg","76","","","","test","true","N + M","76","","SM","SM37.jpg","remember","old","28","2","practice_forget","right","","","",""
"html-keyboard-response","83","401259","0.0-3.0-3.0-3.11","w8pvzv2bjxa1xrt","practice_cue","5768dabf8e454c000133a60b","5f60e3c0a3b16e07647b2ff9","5f60eedec0acc9010ee2e3f7","false","null","<div style=""align-items: center; display: flex; color: dodgerblue; font-size: 90px""><b>o</b></div>","null","","","","forget_cue","","","","","","","","","","","","","","","",""
"html-keyboard-response","84","401972","0.0-3.0-3.0-0.12","w8pvzv2bjxa1xrt","practice_cue","5768dabf8e454c000133a60b","5f60e3c0a3b16e07647b2ff9","5f60eedec0acc9010ee2e3f7","false","null","<span style=""color: black; font-size: 48px"">M + N</span>","null","","","","resp_prompt","","","","","","","","","","","","","","","",""
"categorize-image","85","402849","0.0-3.0-3.0-1.12","w8pvzv2bjxa1xrt","practice_cue","5768dabf8e454c000133a60b","5f60e3c0a3b16e07647b2ff9","5f60eedec0acc9010ee2e3f7","true","870.9100000560284","./Stimuli/ImagesPractice/SN222.jpg","76","","","","test","true","M + N","76","","SN","SN222.jpg","remember","old","29","2","practice_forget","right","","","",""
"html-keyboard-response","86","404863","0.0-3.0-3.0-3.12","w8pvzv2bjxa1xrt","practice_cue","5768dabf8e454c000133a60b","5f60e3c0a3b16e07647b2ff9","5f60eedec0acc9010ee2e3f7","false","null","<div style=""align-items: center; display: flex; color: dodgerblue; font-size: 90px""><b>o</b></div>","null","","","","forget_cue","","","","","","","","","","","","","","","",""
"html-keyboard-response","87","405577","0.0-3.0-3.0-0.13","w8pvzv2bjxa1xrt","practice_cue","5768dabf8e454c000133a60b","5f60e3c0a3b16e07647b2ff9","5f60eedec0acc9010ee2e3f7","false","null","<span style=""color: black; font-size: 48px"">N + M</span>","null","","","","resp_prompt","","","","","","","","","","","","","","","",""
"categorize-image","88","407040","0.0-3.0-3.0-1.13","w8pvzv2bjxa1xrt","practice_cue","5768dabf8e454c000133a60b","5f60e3c0a3b16e07647b2ff9","5f60eedec0acc9010ee2e3f7","true","1456.9650000194088","./Stimuli/ImagesPractice/LN15.jpg","83","","","","test","true","N + M","83","","LN","LN15.jpg","remember","old","30","2","practice_forget","left","","","",""
"html-keyboard-response","89","409055","0.0-3.0-3.0-3.13","w8pvzv2bjxa1xrt","practice_cue","5768dabf8e454c000133a60b","5f60e3c0a3b16e07647b2ff9","5f60eedec0acc9010ee2e3f7","false","null","<div style=""align-items: center; display: flex; color: dodgerblue; font-size: 90px""><b>o</b></div>","null","","","","forget_cue","","","","","","","","","","","","","","","",""
"html-keyboard-response","90","409761","0.0-3.0-3.0-0.14","w8pvzv2bjxa1xrt","practice_cue","5768dabf8e454c000133a60b","5f60e3c0a3b16e07647b2ff9","5f60eedec0acc9010ee2e3f7","false","null","<span style=""color: black; font-size: 48px"">N + M</span>","null","","","","resp_prompt","","","","","","","","","","","","","","","",""
"categorize-image","91","411326","0.0-3.0-3.0-1.14","w8pvzv2bjxa1xrt","practice_cue","5768dabf8e454c000133a60b","5f60e3c0a3b16e07647b2ff9","5f60eedec0acc9010ee2e3f7","true","1557.790000049863","./Stimuli/ImagesPractice/LM55.jpg","76","","","","test","true","N + M","76","","LM","LM55.jpg","remember","old","31","2","practice_forget","right","","","",""
"html-keyboard-response","92","413342","0.0-3.0-3.0-3.14","w8pvzv2bjxa1xrt","practice_cue","5768dabf8e454c000133a60b","5f60e3c0a3b16e07647b2ff9","5f60eedec0acc9010ee2e3f7","false","null","<div style=""align-items: center; display: flex; color: dodgerblue; font-size: 90px""><b>o</b></div>","null","","","","forget_cue","","","","","","","","","","","","","","","",""
"html-keyboard-response","93","414048","0.0-3.0-3.0-0.15","w8pvzv2bjxa1xrt","practice_cue","5768dabf8e454c000133a60b","5f60e3c0a3b16e07647b2ff9","5f60eedec0acc9010ee2e3f7","false","null","<span style=""color: black; font-size: 48px"">N + M</span>","null","","","","resp_prompt","","","","","","","","","","","","","","","",""
"categorize-image","94","415000","0.0-3.0-3.0-1.15","w8pvzv2bjxa1xrt","practice_cue","5768dabf8e454c000133a60b","5f60e3c0a3b16e07647b2ff9","5f60eedec0acc9010ee2e3f7","true","945.6350000109524","./Stimuli/ImagesPractice/SM97.jpg","76","","","","test","true","N + M","76","","SM","SM97.jpg","forget","old","32","2","practice_forget","right","","","",""
"html-keyboard-response","95","417015","0.0-3.0-3.0-3.15","w8pvzv2bjxa1xrt","practice_cue","5768dabf8e454c000133a60b","5f60e3c0a3b16e07647b2ff9","5f60eedec0acc9010ee2e3f7","false","null","<div style=""align-items: center; display: flex; color: darkorange; font-size: 90px""><b>ø</b></div>","null","","","","forget_cue","","","","","","","","","","","","","","","",""
"html-keyboard-response","96","419533","0.0-3.0-4.0","w8pvzv2bjxa1xrt","break","5768dabf8e454c000133a60b","5f60e3c0a3b16e07647b2ff9","5f60eedec0acc9010ee2e3f7","false","2515.315000026021","<p style='font-size: 32px;'>Break</><br><br><br><br><br><p style='font-size: 24px;'>In the last block, you committed 0 errors and did not respond in time on 1 trials.
</p><p style='font-size: 24px;'>Try to respond as fast and accurately as possible in the next block as well! </p><p style='font-size: 24px;'>Press SPACE to continue.</p>","32","","","","","","","","","","","","","","","","","","","",""
"html-keyboard-response","97","422668","0.0-3.0-5.0","w8pvzv2bjxa1xrt","instructions","5768dabf8e454c000133a60b","5f60e3c0a3b16e07647b2ff9","5f60eedec0acc9010ee2e3f7","false","3130.2400000276975","<div align=left> Now, to practice, we kindly ask you to remember as many of the to-be-remembered pictures<br>of the previous learning phase as possible.<br><br>The pictures you were instructed to remember were the pictures followed by a <span style='color: dodgerblue; font-size: 28px'>O</span>.<br><br>In this memory test phase, you will also see some new pictures.<br>It is your task to remember whether you were presented with this specific picture in this study so far or not.<br>If you recognize an object (you have already seen it in this study), it is an OLD object. <br>If you do not recognize an object (you have NOT seen it in this study), it is a NEW object. <br><strong> Attention</strong>: As already mentioned, <span style='color: darkorange; font-size:28px'>Ø</span>-pictures will <strong>never</strong> appear in this memory test (neither as new objects). <br><br>Press SPACE to continue. </div>","32","","","","","","","","","","","","","","","","","","","",""
"html-keyboard-response","98","458132","0.0-3.0-6.0","w8pvzv2bjxa1xrt","instructions","5768dabf8e454c000133a60b","5f60e3c0a3b16e07647b2ff9","5f60eedec0acc9010ee2e3f7","false","35460.77999996487","<div align=left> M and N no longer will appear on the left/right of the fixation cross. <br>Instead there will be a note at the bottom of the left or right side  <br>indicating which key you should press for an old or new object:  <br> <br>Press the <strong>right</strong> key to classify an object as <strong>old</strong> and press the <strong>left</strong>, to classify an object as <strong>new</strong>.<br>Please classify the objects as new/old by again placing your index finger on the 'S' and 'L' keys <br>and press them accordingly.<br><br><strong>Old:</strong> This object has been presented before. <br><strong>New:</strong> This object has <strong>not</strong> been presented.<br><br>Now please put your right and left index fingers on the 'S' and 'L' keys of your keyboard. <br>Please respond as fast and as accurately as possible!<br><br>Press SPACE to continue. </div>","32","","","","","","","","","","","","","","","","","","","",""
"categorize-image","99","460642","0.0-3.0-7.0-0.0","w8pvzv2bjxa1xrt","practice_recog","5768dabf8e454c000133a60b","5f60e3c0a3b16e07647b2ff9","5f60eedec0acc9010ee2e3f7","true","1993.7250000075437","./Stimuli/ImagesPractice/LM143.jpg","83","","","","test","true","","83","","LM","LM143.jpg","","new","33","3","practice_recog","left","","","",""
"categorize-image","100","463904","0.0-3.0-7.0-0.1","w8pvzv2bjxa1xrt","practice_recog","5768dabf8e454c000133a60b","5f60e3c0a3b16e07647b2ff9","5f60eedec0acc9010ee2e3f7","true","2756.4849999616854","./Stimuli/ImagesPractice/LM55.jpg","76","","","","test","true","","76","","LM","LM55.jpg","","old","34","3","practice_recog","right","","","",""
"categorize-image","101","465983","0.0-3.0-7.0-0.2","w8pvzv2bjxa1xrt","practice_recog","5768dabf8e454c000133a60b","5f60e3c0a3b16e07647b2ff9","5f60eedec0acc9010ee2e3f7","true","1573.5749999876134","./Stimuli/ImagesPractice/SN222.jpg","76","","","","test","true","","76","","SN","SN222.jpg","","old","35","3","practice_recog","right","","","",""
"categorize-image","102","467827","0.0-3.0-7.0-0.3","w8pvzv2bjxa1xrt","practice_recog","5768dabf8e454c000133a60b","5f60e3c0a3b16e07647b2ff9","5f60eedec0acc9010ee2e3f7","true","1338.965000002645","./Stimuli/ImagesPractice/LN72.jpg","83","","","","test","true","","83","","LN","LN72.jpg","","new","36","3","practice_recog","left","","","",""
"categorize-image","103","470144","0.0-3.0-7.0-0.4","w8pvzv2bjxa1xrt","practice_recog","5768dabf8e454c000133a60b","5f60e3c0a3b16e07647b2ff9","5f60eedec0acc9010ee2e3f7","true","1811.855000036303","./Stimuli/ImagesPractice/LN2.jpg","83","","","","test","true","","83","","LN","LN2.jpg","","new","37","3","practice_recog","left","","","",""
"categorize-image","104","471683","0.0-3.0-7.0-0.5","w8pvzv2bjxa1xrt","practice_recog","5768dabf8e454c000133a60b","5f60e3c0a3b16e07647b2ff9","5f60eedec0acc9010ee2e3f7","true","1034.1450000414625","./Stimuli/ImagesPractice/SN76.jpg","76","","","","test","true","","76","","SN","SN76.jpg","","old","38","3","practice_recog","right","","","",""
"categorize-image","105","473254","0.0-3.0-7.0-0.6","w8pvzv2bjxa1xrt","practice_recog","5768dabf8e454c000133a60b","5f60e3c0a3b16e07647b2ff9","5f60eedec0acc9010ee2e3f7","true","1058.3300000289455","./Stimuli/ImagesPractice/SM98.jpg","76","","","","test","false","","83","","SM","SM98.jpg","","new","39","3","practice_recog","right","","","",""
"categorize-image","106","475705","0.0-3.0-7.0-0.7","w8pvzv2bjxa1xrt","practice_recog","5768dabf8e454c000133a60b","5f60e3c0a3b16e07647b2ff9","5f60eedec0acc9010ee2e3f7","true","1947.2550000064075","./Stimuli/ImagesPractice/SN221.jpg","83","","","","test","false","","76","","SN","SN221.jpg","","old","40","3","practice_recog","left","","","",""
"categorize-image","107","477827","0.0-3.0-7.0-0.8","w8pvzv2bjxa1xrt","practice_recog","5768dabf8e454c000133a60b","5f60e3c0a3b16e07647b2ff9","5f60eedec0acc9010ee2e3f7","true","1616.905000002589","./Stimuli/ImagesPractice/LM239.jpg","83","","","","test","true","","83","","LM","LM239.jpg","","new","41","3","practice_recog","left","","","",""
"categorize-image","108","479769","0.0-3.0-7.0-0.9","w8pvzv2bjxa1xrt","practice_recog","5768dabf8e454c000133a60b","5f60e3c0a3b16e07647b2ff9","5f60eedec0acc9010ee2e3f7","true","1426.1049999622628","./Stimuli/ImagesPractice/SM35.jpg","76","","","","test","true","","76","","SM","SM35.jpg","","old","42","3","practice_recog","right","","","",""
"categorize-image","109","481906","0.0-3.0-7.0-0.10","w8pvzv2bjxa1xrt","practice_recog","5768dabf8e454c000133a60b","5f60e3c0a3b16e07647b2ff9","5f60eedec0acc9010ee2e3f7","true","1624.4999999762513","./Stimuli/ImagesPractice/LM224.jpg","76","","","","test","true","","76","","LM","LM224.jpg","","old","43","3","practice_recog","right","","","",""
"categorize-image","110","483395","0.0-3.0-7.0-0.11","w8pvzv2bjxa1xrt","practice_recog","5768dabf8e454c000133a60b","5f60e3c0a3b16e07647b2ff9","5f60eedec0acc9010ee2e3f7","true","983.890000032261","./Stimuli/ImagesPractice/LN4.jpg","83","","","","test","true","","83","","LN","LN4.jpg","","new","44","3","practice_recog","left","","","",""
"categorize-image","111","485532","0.0-3.0-7.0-0.12","w8pvzv2bjxa1xrt","practice_recog","5768dabf8e454c000133a60b","5f60e3c0a3b16e07647b2ff9","5f60eedec0acc9010ee2e3f7","true","1624.9749999842606","./Stimuli/ImagesPractice/SN220.jpg","83","","","","test","true","","83","","SN","SN220.jpg","","new","45","3","practice_recog","left","","","",""
"categorize-image","112","487221","0.0-3.0-7.0-0.13","w8pvzv2bjxa1xrt","practice_recog","5768dabf8e454c000133a60b","5f60e3c0a3b16e07647b2ff9","5f60eedec0acc9010ee2e3f7","true","1183.7649999652058","./Stimuli/ImagesPractice/SN75.jpg","83","","","","test","true","","83","","SN","SN75.jpg","","new","46","3","practice_recog","left","","","",""
"categorize-image","113","488930","0.0-3.0-7.0-0.14","w8pvzv2bjxa1xrt","practice_recog","5768dabf8e454c000133a60b","5f60e3c0a3b16e07647b2ff9","5f60eedec0acc9010ee2e3f7","true","1194.0700000268407","./Stimuli/ImagesPractice/SM37.jpg","76","","","","test","true","","76","","SM","SM37.jpg","","old","47","3","practice_recog","right","","","",""
"categorize-image","114","490399","0.0-3.0-7.0-0.15","w8pvzv2bjxa1xrt","practice_recog","5768dabf8e454c000133a60b","5f60e3c0a3b16e07647b2ff9","5f60eedec0acc9010ee2e3f7","true","957.2550000157207","./Stimuli/ImagesPractice/LN15.jpg","76","","","","test","true","","76","","LN","LN15.jpg","","old","48","3","practice_recog","right","","","",""
"html-keyboard-response","115","493911","0.0-3.0-8.0","w8pvzv2bjxa1xrt","instructions","5768dabf8e454c000133a60b","5f60e3c0a3b16e07647b2ff9","5f60eedec0acc9010ee2e3f7","false","3509.74499998847","<div align=left> Great!<br><br>Are you ready to continue?<br>If you want to reread the instructions and redo the practice trials, please <br>press „Z“.<br><br>You can proceed when you are ready.<br><br>After the presentation of each object, you will receive an instruction whether to <br>remember or to forget the object.<br>We will test your memory of the following pictures only at the very end of <br>the experiment after all learning blocks are completed. <br><br>Press SPACE to CONTINUE when you are ready. </div>","32","","","","","","","","","","","","","","","","","","","",""
"html-keyboard-response","116","496381","0.0-4.0-0.0","w8pvzv2bjxa1xrt","instructions","5768dabf8e454c000133a60b","5f60e3c0a3b16e07647b2ff9","5f60eedec0acc9010ee2e3f7","false","2467.899999988731","<div align=left> The actual experiment is about to start.<br>The practice trials are over!<br><br>Please always respond both fast and accurately!<br><br>Remember: <br> <br><li> Please place your index fingers on the <strong>'S'</strong> and <strong>'L'</strong> keys <br>to respond as fast and accurately as possible.</li><li> Every picture can be classified as either mechanical or non-mechanical.</li><li> If you do not respond in time or commit an error, you will receive a corresponding feedback.<br> Please try to respond as <strong> fast </strong> and as <strong> accurately as possible </strong>.</li><li> Remember the <span style='color: dodgerblue; font-size: 28px'>O</span> pictures. <br></li><li> Please minimize distractions and stay focused. </li><br><br>Press SPACE to START.</div>","32","","","","","","","","","","","","","","","","","","","",""
"html-keyboard-response","117","497087","0.0-4.0-1.0-0.0","w8pvzv2bjxa1xrt","prime","5768dabf8e454c000133a60b","5f60e3c0a3b16e07647b2ff9","5f60eedec0acc9010ee2e3f7","false","null","<span style=""color: black; font-size: 48px"">N + M</span>","null","","","","resp_prompt","","","","","","","","","","","","","","","",""
"categorize-image","118","498391","0.0-4.0-1.0-1.0","w8pvzv2bjxa1xrt","prime","5768dabf8e454c000133a60b","5f60e3c0a3b16e07647b2ff9","5f60eedec0acc9010ee2e3f7","true","1297.2799999988638","./Stimuli/SelectedImages/LN/LN59.bmp","83","","","","test","true","N + M","83","switch","LN","LN59.bmp","remember","","49","3","prime1","left","","","",""
"html-keyboard-response","119","500406","0.0-4.0-1.0-3.0","w8pvzv2bjxa1xrt","prime","5768dabf8e454c000133a60b","5f60e3c0a3b16e07647b2ff9","5f60eedec0acc9010ee2e3f7","false","null","<div style=""align-items: center; display: flex; color: dodgerblue; font-size: 90px""><b>o</b></div>","null","","","","forget_cue","","","","","","","","","","","","","","","",""
"html-keyboard-response","120","501112","0.0-4.0-1.0-0.1","w8pvzv2bjxa1xrt","prime","5768dabf8e454c000133a60b","5f60e3c0a3b16e07647b2ff9","5f60eedec0acc9010ee2e3f7","false","null","<span style=""color: black; font-size: 48px"">M + N</span>","null","","","","resp_prompt","","","","","","","","","","","","","","","",""
"categorize-image","121","502508","0.0-4.0-1.0-1.1","w8pvzv2bjxa1xrt","prime","5768dabf8e454c000133a60b","5f60e3c0a3b16e07647b2ff9","5f60eedec0acc9010ee2e3f7","true","1387.8200000035577","./Stimuli/SelectedImages/SN/SN140.bmp","76","","","","test","true","M + N","76","repetition","SN","SN140.bmp","forget","","50","3","prime1","right","","","",""
"html-keyboard-response","122","504524","0.0-4.0-1.0-3.1","w8pvzv2bjxa1xrt","prime","5768dabf8e454c000133a60b","5f60e3c0a3b16e07647b2ff9","5f60eedec0acc9010ee2e3f7","false","null","<div style=""align-items: center; display: flex; color: darkorange; font-size: 90px""><b>ø</b></div>","null","","","","forget_cue","","","","","","","","","","","","","","","",""
"html-keyboard-response","123","505230","0.0-4.0-1.0-0.2","w8pvzv2bjxa1xrt","prime","5768dabf8e454c000133a60b","5f60e3c0a3b16e07647b2ff9","5f60eedec0acc9010ee2e3f7","false","null","<span style=""color: black; font-size: 48px"">M + N</span>","null","","","","resp_prompt","","","","","","","","","","","","","","","",""
"categorize-image","124","506590","0.0-4.0-1.0-1.2","w8pvzv2bjxa1xrt","prime","5768dabf8e454c000133a60b","5f60e3c0a3b16e07647b2ff9","5f60eedec0acc9010ee2e3f7","true","1351.5849999967031","./Stimuli/SelectedImages/SM/SM76.bmp","83","","","","test","true","M + N","83","switch","SM","SM76.bmp","remember","","51","3","prime1","left","","","",""
"html-keyboard-response","125","508597","0.0-4.0-1.0-3.2","w8pvzv2bjxa1xrt","prime","5768dabf8e454c000133a60b","5f60e3c0a3b16e07647b2ff9","5f60eedec0acc9010ee2e3f7","false","null","<div style=""align-items: center; display: flex; color: dodgerblue; font-size: 90px""><b>o</b></div>","null","","","","forget_cue","","","","","","","","","","","","","","","",""
"html-keyboard-response","126","509311","0.0-4.0-1.0-0.3","w8pvzv2bjxa1xrt","prime","5768dabf8e454c000133a60b","5f60e3c0a3b16e07647b2ff9","5f60eedec0acc9010ee2e3f7","false","null","<span style=""color: black; font-size: 48px"">N + M</span>","null","","","","resp_prompt","","","","","","","","","","","","","","","",""
"categorize-image","127","510575","0.0-4.0-1.0-1.3","w8pvzv2bjxa1xrt","prime","5768dabf8e454c000133a60b","5f60e3c0a3b16e07647b2ff9","5f60eedec0acc9010ee2e3f7","true","1257.0899999700487","./Stimuli/SelectedImages/LM/LM59.bmp","76","","","","test","true","N + M","76","switch","LM","LM59.bmp","forget","","52","3","prime1","right","","","",""
"html-keyboard-response","128","512590","0.0-4.0-1.0-3.3","w8pvzv2bjxa1xrt","prime","5768dabf8e454c000133a60b","5f60e3c0a3b16e07647b2ff9","5f60eedec0acc9010ee2e3f7","false","null","<div style=""align-items: center; display: flex; color: darkorange; font-size: 90px""><b>ø</b></div>","null","","","","forget_cue","","","","","","","","","","","","","","","",""
"html-keyboard-response","129","513297","0.0-4.0-1.0-0.4","w8pvzv2bjxa1xrt","prime","5768dabf8e454c000133a60b","5f60e3c0a3b16e07647b2ff9","5f60eedec0acc9010ee2e3f7","false","null","<span style=""color: black; font-size: 48px"">M + N</span>","null","","","","resp_prompt","","","","","","","","","","","","","","","",""
"categorize-image","130","514791","0.0-4.0-1.0-1.4","w8pvzv2bjxa1xrt","prime","5768dabf8e454c000133a60b","5f60e3c0a3b16e07647b2ff9","5f60eedec0acc9010ee2e3f7","true","1487.299999978859","./Stimuli/SelectedImages/LN/LN150.bmp","76","","","","test","true","M + N","76","switch","LN","LN150.bmp","forget","","53","3","prime1","right","","","",""
"html-keyboard-response","131","516806","0.0-4.0-1.0-3.4","w8pvzv2bjxa1xrt","prime","5768dabf8e454c000133a60b","5f60e3c0a3b16e07647b2ff9","5f60eedec0acc9010ee2e3f7","false","null","<div style=""align-items: center; display: flex; color: darkorange; font-size: 90px""><b>ø</b></div>","null","","","","forget_cue","","","","","","","","","","","","","","","",""
"html-keyboard-response","132","517512","0.0-4.0-1.0-0.5","w8pvzv2bjxa1xrt","prime","5768dabf8e454c000133a60b","5f60e3c0a3b16e07647b2ff9","5f60eedec0acc9010ee2e3f7","false","null","<span style=""color: black; font-size: 48px"">N + M</span>","null","","","","resp_prompt","","","","","","","","","","","","","","","",""
"categorize-image","133","518643","0.0-4.0-1.0-1.5","w8pvzv2bjxa1xrt","prime","5768dabf8e454c000133a60b","5f60e3c0a3b16e07647b2ff9","5f60eedec0acc9010ee2e3f7","true","1124.0300000063144","./Stimuli/SelectedImages/SM/SM213.bmp","76","","","","test","true","N + M","76","switch","SM","SM213.bmp","remember","","54","3","prime1","right","","","",""
"html-keyboard-response","134","520660","0.0-4.0-1.0-3.5","w8pvzv2bjxa1xrt","prime","5768dabf8e454c000133a60b","5f60e3c0a3b16e07647b2ff9","5f60eedec0acc9010ee2e3f7","false","null","<div style=""align-items: center; display: flex; color: dodgerblue; font-size: 90px""><b>o</b></div>","null","","","","forget_cue","","","","","","","","","","","","","","","",""
"html-keyboard-response","135","521365","0.0-4.0-1.0-0.6","w8pvzv2bjxa1xrt","prime","5768dabf8e454c000133a60b","5f60e3c0a3b16e07647b2ff9","5f60eedec0acc9010ee2e3f7","false","null","<span style=""color: black; font-size: 48px"">M + N</span>","null","","","","resp_prompt","","","","","","","","","","","","","","","",""
"categorize-image","136","522224","0.0-4.0-1.0-1.6","w8pvzv2bjxa1xrt","prime","5768dabf8e454c000133a60b","5f60e3c0a3b16e07647b2ff9","5f60eedec0acc9010ee2e3f7","true","851.4149999828078","./Stimuli/SelectedImages/LM/LM58.bmp","83","","","","test","true","M + N","83","switch","LM","LM58.bmp","forget","","55","3","prime1","left","","","",""
"html-keyboard-response","137","524238","0.0-4.0-1.0-3.6","w8pvzv2bjxa1xrt","prime","5768dabf8e454c000133a60b","5f60e3c0a3b16e07647b2ff9","5f60eedec0acc9010ee2e3f7","false","null","<div style=""align-items: center; display: flex; color: darkorange; font-size: 90px""><b>ø</b></div>","null","","","","forget_cue","","","","","","","","","","","","","","","",""
"html-keyboard-response","138","524946","0.0-4.0-1.0-0.7","w8pvzv2bjxa1xrt","prime","5768dabf8e454c000133a60b","5f60e3c0a3b16e07647b2ff9","5f60eedec0acc9010ee2e3f7","false","null","<span style=""color: black; font-size: 48px"">M + N</span>","null","","","","resp_prompt","","","","","","","","","","","","","","","",""
"categorize-image","139","526730","0.0-4.0-1.0-1.7","w8pvzv2bjxa1xrt","prime","5768dabf8e454c000133a60b","5f60e3c0a3b16e07647b2ff9","5f60eedec0acc9010ee2e3f7","true","1777.8950000065379","./Stimuli/SelectedImages/SM/SM106.bmp","83","","","","test","true","M + N","83","repetition","SM","SM106.bmp","remember","","56","3","prime1","left","","","",""
"html-keyboard-response","140","528743","0.0-4.0-1.0-3.7","w8pvzv2bjxa1xrt","prime","5768dabf8e454c000133a60b","5f60e3c0a3b16e07647b2ff9","5f60eedec0acc9010ee2e3f7","false","null","<div style=""align-items: center; display: flex; color: dodgerblue; font-size: 90px""><b>o</b></div>","null","","","","forget_cue","","","","","","","","","","","","","","","",""
"html-keyboard-response","141","529449","0.0-4.0-1.0-0.8","w8pvzv2bjxa1xrt","prime","5768dabf8e454c000133a60b","5f60e3c0a3b16e07647b2ff9","5f60eedec0acc9010ee2e3f7","false","null","<span style=""color: black; font-size: 48px"">N + M</span>","null","","","","resp_prompt","","","","","","","","","","","","","","","",""
"categorize-image","142","530773","0.0-4.0-1.0-1.8","w8pvzv2bjxa1xrt","prime","5768dabf8e454c000133a60b","5f60e3c0a3b16e07647b2ff9","5f60eedec0acc9010ee2e3f7","true","1317.8700000280514","./Stimuli/SelectedImages/LN/LN9.bmp","83","","","","test","true","N + M","83","repetition","LN","LN9.bmp","forget","","57","3","prime1","left","","","",""
"html-keyboard-response","143","532789","0.0-4.0-1.0-3.8","w8pvzv2bjxa1xrt","prime","5768dabf8e454c000133a60b","5f60e3c0a3b16e07647b2ff9","5f60eedec0acc9010ee2e3f7","false","null","<div style=""align-items: center; display: flex; color: darkorange; font-size: 90px""><b>ø</b></div>","null","","","","forget_cue","","","","","","","","","","","","","","","",""
"html-keyboard-response","144","533504","0.0-4.0-1.0-0.9","w8pvzv2bjxa1xrt","prime","5768dabf8e454c000133a60b","5f60e3c0a3b16e07647b2ff9","5f60eedec0acc9010ee2e3f7","false","null","<span style=""color: black; font-size: 48px"">N + M</span>","null","","","","resp_prompt","","","","","","","","","","","","","","","",""
"categorize-image","145","534871","0.0-4.0-1.0-1.9","w8pvzv2bjxa1xrt","prime","5768dabf8e454c000133a60b","5f60e3c0a3b16e07647b2ff9","5f60eedec0acc9010ee2e3f7","true","1360.4499999783002","./Stimuli/SelectedImages/SM/SM195.bmp","76","","","","test","true","N + M","76","repetition","SM","SM195.bmp","remember","","58","3","prime1","right","","","",""
"html-keyboard-response","146","536886","0.0-4.0-1.0-3.9","w8pvzv2bjxa1xrt","prime","5768dabf8e454c000133a60b","5f60e3c0a3b16e07647b2ff9","5f60eedec0acc9010ee2e3f7","false","null","<div style=""align-items: center; display: flex; color: dodgerblue; font-size: 90px""><b>o</b></div>","null","","","","forget_cue","","","","","","","","","","","","","","","",""
"html-keyboard-response","147","537592","0.0-4.0-1.0-0.10","w8pvzv2bjxa1xrt","prime","5768dabf8e454c000133a60b","5f60e3c0a3b16e07647b2ff9","5f60eedec0acc9010ee2e3f7","false","null","<span style=""color: black; font-size: 48px"">M + N</span>","null","","","","resp_prompt","","","","","","","","","","","","","","","",""
"categorize-image","148","539325","0.0-4.0-1.0-1.10","w8pvzv2bjxa1xrt","prime","5768dabf8e454c000133a60b","5f60e3c0a3b16e07647b2ff9","5f60eedec0acc9010ee2e3f7","true","1725.8199999923818","./Stimuli/SelectedImages/SN/SN93.bmp","76","","","","test","true","M + N","76","switch","SN","SN93.bmp","remember","","59","3","prime1","right","","","",""
"html-keyboard-response","149","541339","0.0-4.0-1.0-3.10","w8pvzv2bjxa1xrt","prime","5768dabf8e454c000133a60b","5f60e3c0a3b16e07647b2ff9","5f60eedec0acc9010ee2e3f7","false","null","<div style=""align-items: center; display: flex; color: dodgerblue; font-size: 90px""><b>o</b></div>","null","","","","forget_cue","","","","","","","","","","","","","","","",""
"html-keyboard-response","150","542045","0.0-4.0-1.0-0.11","w8pvzv2bjxa1xrt","prime","5768dabf8e454c000133a60b","5f60e3c0a3b16e07647b2ff9","5f60eedec0acc9010ee2e3f7","false","null","<span style=""color: black; font-size: 48px"">N + M</span>","null","","","","resp_prompt","","","","","","","","","","","","","","","",""
"categorize-image","151","543520","0.0-4.0-1.0-1.11","w8pvzv2bjxa1xrt","prime","5768dabf8e454c000133a60b","5f60e3c0a3b16e07647b2ff9","5f60eedec0acc9010ee2e3f7","true","1467.449999996461","./Stimuli/SelectedImages/SN/SN60.bmp","83","","","","test","true","N + M","83","switch","SN","SN60.bmp","remember","","60","3","prime1","left","","","",""
"html-keyboard-response","152","545534","0.0-4.0-1.0-3.11","w8pvzv2bjxa1xrt","prime","5768dabf8e454c000133a60b","5f60e3c0a3b16e07647b2ff9","5f60eedec0acc9010ee2e3f7","false","null","<div style=""align-items: center; display: flex; color: dodgerblue; font-size: 90px""><b>o</b></div>","null","","","","forget_cue","","","","","","","","","","","","","","","",""
"html-keyboard-response","153","546240","0.0-4.0-1.0-0.12","w8pvzv2bjxa1xrt","prime","5768dabf8e454c000133a60b","5f60e3c0a3b16e07647b2ff9","5f60eedec0acc9010ee2e3f7","false","null","<span style=""color: black; font-size: 48px"">N + M</span>","null","","","","resp_prompt","","","","","","","","","","","","","","","",""
"categorize-image","154","547692","0.0-4.0-1.0-1.12","w8pvzv2bjxa1xrt","prime","5768dabf8e454c000133a60b","5f60e3c0a3b16e07647b2ff9","5f60eedec0acc9010ee2e3f7","true","1445.6650000065565","./Stimuli/SelectedImages/LN/LN82.bmp","83","","","","test","true","N + M","83","repetition","LN","LN82.bmp","remember","","61","3","prime1","left","","","",""
"html-keyboard-response","155","549699","0.0-4.0-1.0-3.12","w8pvzv2bjxa1xrt","prime","5768dabf8e454c000133a60b","5f60e3c0a3b16e07647b2ff9","5f60eedec0acc9010ee2e3f7","false","null","<div style=""align-items: center; display: flex; color: dodgerblue; font-size: 90px""><b>o</b></div>","null","","","","forget_cue","","","","","","","","","","","","","","","",""
"html-keyboard-response","156","550413","0.0-4.0-1.0-0.13","w8pvzv2bjxa1xrt","prime","5768dabf8e454c000133a60b","5f60e3c0a3b16e07647b2ff9","5f60eedec0acc9010ee2e3f7","false","null","<span style=""color: black; font-size: 48px"">N + M</span>","null","","","","resp_prompt","","","","","","","","","","","","","","","",""
"categorize-image","157","552331","0.0-4.0-1.0-1.13","w8pvzv2bjxa1xrt","prime","5768dabf8e454c000133a60b","5f60e3c0a3b16e07647b2ff9","5f60eedec0acc9010ee2e3f7","true","1911.9449999998324","./Stimuli/SelectedImages/LM/LM75.bmp","76","","","","test","true","N + M","76","switch","LM","LM75.bmp","remember","","62","3","prime1","right","","","",""
"html-keyboard-response","158","554347","0.0-4.0-1.0-3.13","w8pvzv2bjxa1xrt","prime","5768dabf8e454c000133a60b","5f60e3c0a3b16e07647b2ff9","5f60eedec0acc9010ee2e3f7","false","null","<div style=""align-items: center; display: flex; color: dodgerblue; font-size: 90px""><b>o</b></div>","null","","","","forget_cue","","","","","","","","","","","","","","","",""
"html-keyboard-response","159","555053","0.0-4.0-1.0-0.14","w8pvzv2bjxa1xrt","prime","5768dabf8e454c000133a60b","5f60e3c0a3b16e07647b2ff9","5f60eedec0acc9010ee2e3f7","false","null","<span style=""color: black; font-size: 48px"">M + N</span>","null","","","","resp_prompt","","","","","","","","","","","","","","","",""
"categorize-image","160","556702","0.0-4.0-1.0-1.14","w8pvzv2bjxa1xrt","prime","5768dabf8e454c000133a60b","5f60e3c0a3b16e07647b2ff9","5f60eedec0acc9010ee2e3f7","true","1642.6399999763817","./Stimuli/SelectedImages/LM/LM167.bmp","83","","","","test","true","M + N","83","switch","LM","LM167.bmp","remember","","63","3","prime1","left","","","",""
"html-keyboard-response","161","558717","0.0-4.0-1.0-3.14","w8pvzv2bjxa1xrt","prime","5768dabf8e454c000133a60b","5f60e3c0a3b16e07647b2ff9","5f60eedec0acc9010ee2e3f7","false","null","<div style=""align-items: center; display: flex; color: dodgerblue; font-size: 90px""><b>o</b></div>","null","","","","forget_cue","","","","","","","","","","","","","","","",""
"html-keyboard-response","162","559422","0.0-4.0-1.0-0.15","w8pvzv2bjxa1xrt","prime","5768dabf8e454c000133a60b","5f60e3c0a3b16e07647b2ff9","5f60eedec0acc9010ee2e3f7","false","null","<span style=""color: black; font-size: 48px"">N + M</span>","null","","","","resp_prompt","","","","","","","","","","","","","","","",""
"categorize-image","163","559961","0.0-4.0-1.0-1.15","w8pvzv2bjxa1xrt","prime","5768dabf8e454c000133a60b","5f60e3c0a3b16e07647b2ff9","5f60eedec0acc9010ee2e3f7","true","532.4450000189245","./Stimuli/SelectedImages/SM/SM108.bmp","76","","","","test","true","N + M","76","repetition","SM","SM108.bmp","remember","","64","3","prime1","right","","","",""
"html-keyboard-response","164","561979","0.0-4.0-1.0-3.15","w8pvzv2bjxa1xrt","prime","5768dabf8e454c000133a60b","5f60e3c0a3b16e07647b2ff9","5f60eedec0acc9010ee2e3f7","false","null","<div style=""align-items: center; display: flex; color: dodgerblue; font-size: 90px""><b>o</b></div>","null","","","","forget_cue","","","","","","","","","","","","","","","",""
"html-keyboard-response","165","562691","0.0-4.0-1.0-0.16","w8pvzv2bjxa1xrt","prime","5768dabf8e454c000133a60b","5f60e3c0a3b16e07647b2ff9","5f60eedec0acc9010ee2e3f7","false","null","<span style=""color: black; font-size: 48px"">N + M</span>","null","","","","resp_prompt","","","","","","","","","","","","","","","",""
"categorize-image","166","563746","0.0-4.0-1.0-1.16","w8pvzv2bjxa1xrt","prime","5768dabf8e454c000133a60b","5f60e3c0a3b16e07647b2ff9","5f60eedec0acc9010ee2e3f7","true","1048.4200000064448","./Stimuli/SelectedImages/LM/LM48.bmp","76","","","","test","true","N + M","76","repetition","LM","LM48.bmp","forget","","65","3","prime1","right","","","",""
"html-keyboard-response","167","565761","0.0-4.0-1.0-3.16","w8pvzv2bjxa1xrt","prime","5768dabf8e454c000133a60b","5f60e3c0a3b16e07647b2ff9","5f60eedec0acc9010ee2e3f7","false","null","<div style=""align-items: center; display: flex; color: darkorange; font-size: 90px""><b>ø</b></div>","null","","","","forget_cue","","","","","","","","","","","","","","","",""
"html-keyboard-response","168","566475","0.0-4.0-1.0-0.17","w8pvzv2bjxa1xrt","prime","5768dabf8e454c000133a60b","5f60e3c0a3b16e07647b2ff9","5f60eedec0acc9010ee2e3f7","false","null","<span style=""color: black; font-size: 48px"">M + N</span>","null","","","","resp_prompt","","","","","","","","","","","","","","","",""
"categorize-image","169","567675","0.0-4.0-1.0-1.17","w8pvzv2bjxa1xrt","prime","5768dabf8e454c000133a60b","5f60e3c0a3b16e07647b2ff9","5f60eedec0acc9010ee2e3f7","true","1195.2049999963492","./Stimuli/SelectedImages/SN/SN128.bmp","76","","","","test","true","M + N","76","switch","SN","SN128.bmp","forget","","66","3","prime1","right","","","",""
"html-keyboard-response","170","569690","0.0-4.0-1.0-3.17","w8pvzv2bjxa1xrt","prime","5768dabf8e454c000133a60b","5f60e3c0a3b16e07647b2ff9","5f60eedec0acc9010ee2e3f7","false","null","<div style=""align-items: center; display: flex; color: darkorange; font-size: 90px""><b>ø</b></div>","null","","","","forget_cue","","","","","","","","","","","","","","","",""
"html-keyboard-response","171","570407","0.0-4.0-1.0-0.18","w8pvzv2bjxa1xrt","prime","5768dabf8e454c000133a60b","5f60e3c0a3b16e07647b2ff9","5f60eedec0acc9010ee2e3f7","false","null","<span style=""color: black; font-size: 48px"">M + N</span>","null","","","","resp_prompt","","","","","","","","","","","","","","","",""
"categorize-image","172","571985","0.0-4.0-1.0-1.18","w8pvzv2bjxa1xrt","prime","5768dabf8e454c000133a60b","5f60e3c0a3b16e07647b2ff9","5f60eedec0acc9010ee2e3f7","true","1570.6200000131503","./Stimuli/SelectedImages/SM/SM74.bmp","83","","","","test","true","M + N","83","switch","SM","SM74.bmp","remember","","67","3","prime1","left","","","",""
"html-keyboard-response","173","574002","0.0-4.0-1.0-3.18","w8pvzv2bjxa1xrt","prime","5768dabf8e454c000133a60b","5f60e3c0a3b16e07647b2ff9","5f60eedec0acc9010ee2e3f7","false","null","<div style=""align-items: center; display: flex; color: dodgerblue; font-size: 90px""><b>o</b></div>","null","","","","forget_cue","","","","","","","","","","","","","","","",""
"html-keyboard-response","174","574716","0.0-4.0-1.0-0.19","w8pvzv2bjxa1xrt","prime","5768dabf8e454c000133a60b","5f60e3c0a3b16e07647b2ff9","5f60eedec0acc9010ee2e3f7","false","null","<span style=""color: black; font-size: 48px"">N + M</span>","null","","","","resp_prompt","","","","","","","","","","","","","","","",""
"categorize-image","175","576735","0.0-4.0-1.0-1.19","w8pvzv2bjxa1xrt","prime","5768dabf8e454c000133a60b","5f60e3c0a3b16e07647b2ff9","5f60eedec0acc9010ee2e3f7","true","null","./Stimuli/SelectedImages/SN/SN18.bmp","null","","","","test","false","N + M","83","switch","SN","SN18.bmp","forget","","68","3","prime1","too_slow","","","",""
"html-keyboard-response","176","577247","0.0-4.0-1.0-2.19-0.19","w8pvzv2bjxa1xrt","prime","5768dabf8e454c000133a60b","5f60e3c0a3b16e07647b2ff9","5f60eedec0acc9010ee2e3f7","false","null","<span style=""color: red; font-size: 48px"">Too slow!</span>","null","","","","feedback","","","","","","","","","","","","","","","",""
"html-keyboard-response","177","579256","0.0-4.0-1.0-3.19","w8pvzv2bjxa1xrt","prime","5768dabf8e454c000133a60b","5f60e3c0a3b16e07647b2ff9","5f60eedec0acc9010ee2e3f7","false","null","<div style=""align-items: center; display: flex; color: darkorange; font-size: 90px""><b>ø</b></div>","null","","","","forget_cue","","","","","","","","","","","","","","","",""
"html-keyboard-response","178","579962","0.0-4.0-1.0-0.20","w8pvzv2bjxa1xrt","prime","5768dabf8e454c000133a60b","5f60e3c0a3b16e07647b2ff9","5f60eedec0acc9010ee2e3f7","false","null","<span style=""color: black; font-size: 48px"">N + M</span>","null","","","","resp_prompt","","","","","","","","","","","","","","","",""
"categorize-image","179","581423","0.0-4.0-1.0-1.20","w8pvzv2bjxa1xrt","prime","5768dabf8e454c000133a60b","5f60e3c0a3b16e07647b2ff9","5f60eedec0acc9010ee2e3f7","true","1454.7049999819137","./Stimuli/SelectedImages/LN/LN12.bmp","83","","","","test","true","N + M","83","repetition","LN","LN12.bmp","remember","","69","3","prime1","left","","","",""
"html-keyboard-response","180","583431","0.0-4.0-1.0-3.20","w8pvzv2bjxa1xrt","prime","5768dabf8e454c000133a60b","5f60e3c0a3b16e07647b2ff9","5f60eedec0acc9010ee2e3f7","false","null","<div style=""align-items: center; display: flex; color: dodgerblue; font-size: 90px""><b>o</b></div>","null","","","","forget_cue","","","","","","","","","","","","","","","",""
"html-keyboard-response","181","584139","0.0-4.0-1.0-0.21","w8pvzv2bjxa1xrt","prime","5768dabf8e454c000133a60b","5f60e3c0a3b16e07647b2ff9","5f60eedec0acc9010ee2e3f7","false","null","<span style=""color: black; font-size: 48px"">M + N</span>","null","","","","resp_prompt","","","","","","","","","","","","","","","",""
"categorize-image","182","585352","0.0-4.0-1.0-1.21","w8pvzv2bjxa1xrt","prime","5768dabf8e454c000133a60b","5f60e3c0a3b16e07647b2ff9","5f60eedec0acc9010ee2e3f7","true","1206.3849999685772","./Stimuli/SelectedImages/LN/LN28.bmp","76","","","","test","true","M + N","76","switch","LN","LN28.bmp","remember","","70","3","prime1","right","","","",""
"html-keyboard-response","183","587367","0.0-4.0-1.0-3.21","w8pvzv2bjxa1xrt","prime","5768dabf8e454c000133a60b","5f60e3c0a3b16e07647b2ff9","5f60eedec0acc9010ee2e3f7","false","null","<div style=""align-items: center; display: flex; color: dodgerblue; font-size: 90px""><b>o</b></div>","null","","","","forget_cue","","","","","","","","","","","","","","","",""
"html-keyboard-response","184","588073","0.0-4.0-1.0-0.22","w8pvzv2bjxa1xrt","prime","5768dabf8e454c000133a60b","5f60e3c0a3b16e07647b2ff9","5f60eedec0acc9010ee2e3f7","false","null","<span style=""color: black; font-size: 48px"">N + M</span>","null","","","","resp_prompt","","","","","","","","","","","","","","","",""
"categorize-image","185","588705","0.0-4.0-1.0-1.22","w8pvzv2bjxa1xrt","prime","5768dabf8e454c000133a60b","5f60e3c0a3b16e07647b2ff9","5f60eedec0acc9010ee2e3f7","true","624.4500000029802","./Stimuli/SelectedImages/LN/LN101.bmp","83","","","","test","true","N + M","83","repetition","LN","LN101.bmp","forget","","71","3","prime1","left","","","",""
"html-keyboard-response","186","590720","0.0-4.0-1.0-3.22","w8pvzv2bjxa1xrt","prime","5768dabf8e454c000133a60b","5f60e3c0a3b16e07647b2ff9","5f60eedec0acc9010ee2e3f7","false","null","<div style=""align-items: center; display: flex; color: darkorange; font-size: 90px""><b>ø</b></div>","null","","","","forget_cue","","","","","","","","","","","","","","","",""
"html-keyboard-response","187","591435","0.0-4.0-1.0-0.23","w8pvzv2bjxa1xrt","prime","5768dabf8e454c000133a60b","5f60e3c0a3b16e07647b2ff9","5f60eedec0acc9010ee2e3f7","false","null","<span style=""color: black; font-size: 48px"">M + N</span>","null","","","","resp_prompt","","","","","","","","","","","","","","","",""
"categorize-image","188","592775","0.0-4.0-1.0-1.23","w8pvzv2bjxa1xrt","prime","5768dabf8e454c000133a60b","5f60e3c0a3b16e07647b2ff9","5f60eedec0acc9010ee2e3f7","true","1333.4049999830313","./Stimuli/SelectedImages/LM/LM235.bmp","76","","","","test","false","M + N","83","repetition","LM","LM235.bmp","forget","","72","3","prime1","right","","","",""
"html-keyboard-response","189","593283","0.0-4.0-1.0-2.23-0.23","w8pvzv2bjxa1xrt","prime","5768dabf8e454c000133a60b","5f60e3c0a3b16e07647b2ff9","5f60eedec0acc9010ee2e3f7","false","null","<span style=""color: red; font-size: 48px"">Error!</span>","null","","","","feedback","","","","","","","","","","","","","","","",""
"html-keyboard-response","190","595293","0.0-4.0-1.0-3.23","w8pvzv2bjxa1xrt","prime","5768dabf8e454c000133a60b","5f60e3c0a3b16e07647b2ff9","5f60eedec0acc9010ee2e3f7","false","null","<div style=""align-items: center; display: flex; color: darkorange; font-size: 90px""><b>ø</b></div>","null","","","","forget_cue","","","","","","","","","","","","","","","",""
"html-keyboard-response","191","596000","0.0-4.0-1.0-0.24","w8pvzv2bjxa1xrt","prime","5768dabf8e454c000133a60b","5f60e3c0a3b16e07647b2ff9","5f60eedec0acc9010ee2e3f7","false","null","<span style=""color: black; font-size: 48px"">N + M</span>","null","","","","resp_prompt","","","","","","","","","","","","","","","",""
"categorize-image","192","597162","0.0-4.0-1.0-1.24","w8pvzv2bjxa1xrt","prime","5768dabf8e454c000133a60b","5f60e3c0a3b16e07647b2ff9","5f60eedec0acc9010ee2e3f7","true","1155.7499999762513","./Stimuli/SelectedImages/SN/SN52.bmp","83","","","","test","true","N + M","83","repetition","SN","SN52.bmp","remember","","73","3","prime1","left","","","",""
"html-keyboard-response","193","599177","0.0-4.0-1.0-3.24","w8pvzv2bjxa1xrt","prime","5768dabf8e454c000133a60b","5f60e3c0a3b16e07647b2ff9","5f60eedec0acc9010ee2e3f7","false","null","<div style=""align-items: center; display: flex; color: dodgerblue; font-size: 90px""><b>o</b></div>","null","","","","forget_cue","","","","","","","","","","","","","","","",""
"html-keyboard-response","194","599885","0.0-4.0-1.0-0.25","w8pvzv2bjxa1xrt","prime","5768dabf8e454c000133a60b","5f60e3c0a3b16e07647b2ff9","5f60eedec0acc9010ee2e3f7","false","null","<span style=""color: black; font-size: 48px"">N + M</span>","null","","","","resp_prompt","","","","","","","","","","","","","","","",""
"categorize-image","195","600864","0.0-4.0-1.0-1.25","w8pvzv2bjxa1xrt","prime","5768dabf8e454c000133a60b","5f60e3c0a3b16e07647b2ff9","5f60eedec0acc9010ee2e3f7","true","972.3050000029616","./Stimuli/SelectedImages/SM/SM184.bmp","76","","","","test","true","N + M","76","repetition","SM","SM184.bmp","forget","","74","3","prime1","right","","","",""
"html-keyboard-response","196","602879","0.0-4.0-1.0-3.25","w8pvzv2bjxa1xrt","prime","5768dabf8e454c000133a60b","5f60e3c0a3b16e07647b2ff9","5f60eedec0acc9010ee2e3f7","false","null","<div style=""align-items: center; display: flex; color: darkorange; font-size: 90px""><b>ø</b></div>","null","","","","forget_cue","","","","","","","","","","","","","","","",""
"html-keyboard-response","197","603592","0.0-4.0-1.0-0.26","w8pvzv2bjxa1xrt","prime","5768dabf8e454c000133a60b","5f60e3c0a3b16e07647b2ff9","5f60eedec0acc9010ee2e3f7","false","null","<span style=""color: black; font-size: 48px"">N + M</span>","null","","","","resp_prompt","","","","","","","","","","","","","","","",""
"categorize-image","198","604194","0.0-4.0-1.0-1.26","w8pvzv2bjxa1xrt","prime","5768dabf8e454c000133a60b","5f60e3c0a3b16e07647b2ff9","5f60eedec0acc9010ee2e3f7","true","594.8349999962375","./Stimuli/SelectedImages/LN/LN42.bmp","83","","","","test","true","N + M","83","switch","LN","LN42.bmp","remember","","75","3","prime1","left","","","",""
"html-keyboard-response","199","606209","0.0-4.0-1.0-3.26","w8pvzv2bjxa1xrt","prime","5768dabf8e454c000133a60b","5f60e3c0a3b16e07647b2ff9","5f60eedec0acc9010ee2e3f7","false","null","<div style=""align-items: center; display: flex; color: dodgerblue; font-size: 90px""><b>o</b></div>","null","","","","forget_cue","","","","","","","","","","","","","","","",""
"html-keyboard-response","200","606915","0.0-4.0-1.0-0.27","w8pvzv2bjxa1xrt","prime","5768dabf8e454c000133a60b","5f60e3c0a3b16e07647b2ff9","5f60eedec0acc9010ee2e3f7","false","null","<span style=""color: black; font-size: 48px"">N + M</span>","null","","","","resp_prompt","","","","","","","","","","","","","","","",""
"categorize-image","201","608357","0.0-4.0-1.0-1.27","w8pvzv2bjxa1xrt","prime","5768dabf8e454c000133a60b","5f60e3c0a3b16e07647b2ff9","5f60eedec0acc9010ee2e3f7","true","1435.1199999800883","./Stimuli/SelectedImages/LM/LM100.bmp","76","","","","test","true","N + M","76","switch","LM","LM100.bmp","remember","","76","3","prime1","right","","","",""
"html-keyboard-response","202","610374","0.0-4.0-1.0-3.27","w8pvzv2bjxa1xrt","prime","5768dabf8e454c000133a60b","5f60e3c0a3b16e07647b2ff9","5f60eedec0acc9010ee2e3f7","false","null","<div style=""align-items: center; display: flex; color: dodgerblue; font-size: 90px""><b>o</b></div>","null","","","","forget_cue","","","","","","","","","","","","","","","",""
"html-keyboard-response","203","611080","0.0-4.0-1.0-0.28","w8pvzv2bjxa1xrt","prime","5768dabf8e454c000133a60b","5f60e3c0a3b16e07647b2ff9","5f60eedec0acc9010ee2e3f7","false","null","<span style=""color: black; font-size: 48px"">N + M</span>","null","","","","resp_prompt","","","","","","","","","","","","","","","",""
"categorize-image","204","611606","0.0-4.0-1.0-1.28","w8pvzv2bjxa1xrt","prime","5768dabf8e454c000133a60b","5f60e3c0a3b16e07647b2ff9","5f60eedec0acc9010ee2e3f7","true","517.3349999822676","./Stimuli/SelectedImages/SM/SM207.bmp","76","","","","test","true","N + M","76","switch","SM","SM207.bmp","remember","","77","3","prime1","right","","","",""
"html-keyboard-response","205","613621","0.0-4.0-1.0-3.28","w8pvzv2bjxa1xrt","prime","5768dabf8e454c000133a60b","5f60e3c0a3b16e07647b2ff9","5f60eedec0acc9010ee2e3f7","false","null","<div style=""align-items: center; display: flex; color: dodgerblue; font-size: 90px""><b>o</b></div>","null","","","","forget_cue","","","","","","","","","","","","","","","",""
"html-keyboard-response","206","614326","0.0-4.0-1.0-0.29","w8pvzv2bjxa1xrt","prime","5768dabf8e454c000133a60b","5f60e3c0a3b16e07647b2ff9","5f60eedec0acc9010ee2e3f7","false","null","<span style=""color: black; font-size: 48px"">M + N</span>","null","","","","resp_prompt","","","","","","","","","","","","","","","",""
"categorize-image","207","614781","0.0-4.0-1.0-1.29","w8pvzv2bjxa1xrt","prime","5768dabf8e454c000133a60b","5f60e3c0a3b16e07647b2ff9","5f60eedec0acc9010ee2e3f7","true","449.4800000102259","./Stimuli/SelectedImages/LM/LM51.bmp","83","","","","test","true","M + N","83","repetition","LM","LM51.bmp","forget","","78","3","prime1","left","","","",""
"html-keyboard-response","208","616795","0.0-4.0-1.0-3.29","w8pvzv2bjxa1xrt","prime","5768dabf8e454c000133a60b","5f60e3c0a3b16e07647b2ff9","5f60eedec0acc9010ee2e3f7","false","null","<div style=""align-items: center; display: flex; color: darkorange; font-size: 90px""><b>ø</b></div>","null","","","","forget_cue","","","","","","","","","","","","","","","",""
"html-keyboard-response","209","617511","0.0-4.0-1.0-0.30","w8pvzv2bjxa1xrt","prime","5768dabf8e454c000133a60b","5f60e3c0a3b16e07647b2ff9","5f60eedec0acc9010ee2e3f7","false","null","<span style=""color: black; font-size: 48px"">N + M</span>","null","","","","resp_prompt","","","","","","","","","","","","","","","",""
"categorize-image","210","618149","0.0-4.0-1.0-1.30","w8pvzv2bjxa1xrt","prime","5768dabf8e454c000133a60b","5f60e3c0a3b16e07647b2ff9","5f60eedec0acc9010ee2e3f7","true","629.659999976866","./Stimuli/SelectedImages/LM/LM216.bmp","76","","","","test","true","N + M","76","repetition","LM","LM216.bmp","remember","","79","3","prime1","right","","","",""
"html-keyboard-response","211","620163","0.0-4.0-1.0-3.30","w8pvzv2bjxa1xrt","prime","5768dabf8e454c000133a60b","5f60e3c0a3b16e07647b2ff9","5f60eedec0acc9010ee2e3f7","false","null","<div style=""align-items: center; display: flex; color: dodgerblue; font-size: 90px""><b>o</b></div>","null","","","","forget_cue","","","","","","","","","","","","","","","",""
"html-keyboard-response","212","620869","0.0-4.0-1.0-0.31","w8pvzv2bjxa1xrt","prime","5768dabf8e454c000133a60b","5f60e3c0a3b16e07647b2ff9","5f60eedec0acc9010ee2e3f7","false","null","<span style=""color: black; font-size: 48px"">N + M</span>","null","","","","resp_prompt","","","","","","","","","","","","","","","",""
"categorize-image","213","621450","0.0-4.0-1.0-1.31","w8pvzv2bjxa1xrt","prime","5768dabf8e454c000133a60b","5f60e3c0a3b16e07647b2ff9","5f60eedec0acc9010ee2e3f7","true","574.1649999981746","./Stimuli/SelectedImages/SM/SM205.bmp","76","","","","test","true","N + M","76","switch","SM","SM205.bmp","forget","","80","3","prime1","right","","","",""
"html-keyboard-response","214","623464","0.0-4.0-1.0-3.31","w8pvzv2bjxa1xrt","prime","5768dabf8e454c000133a60b","5f60e3c0a3b16e07647b2ff9","5f60eedec0acc9010ee2e3f7","false","null","<div style=""align-items: center; display: flex; color: darkorange; font-size: 90px""><b>ø</b></div>","null","","","","forget_cue","","","","","","","","","","","","","","","",""
"html-keyboard-response","215","624173","0.0-4.0-1.0-0.32","w8pvzv2bjxa1xrt","prime","5768dabf8e454c000133a60b","5f60e3c0a3b16e07647b2ff9","5f60eedec0acc9010ee2e3f7","false","null","<span style=""color: black; font-size: 48px"">N + M</span>","null","","","","resp_prompt","","","","","","","","","","","","","","","",""
"categorize-image","216","624805","0.0-4.0-1.0-1.32","w8pvzv2bjxa1xrt","prime","5768dabf8e454c000133a60b","5f60e3c0a3b16e07647b2ff9","5f60eedec0acc9010ee2e3f7","true","626.5099999727681","./Stimuli/SelectedImages/SN/SN240.bmp","83","","","","test","true","N + M","83","switch","SN","SN240.bmp","forget","","81","3","prime1","left","","","",""
"html-keyboard-response","217","626820","0.0-4.0-1.0-3.32","w8pvzv2bjxa1xrt","prime","5768dabf8e454c000133a60b","5f60e3c0a3b16e07647b2ff9","5f60eedec0acc9010ee2e3f7","false","null","<div style=""align-items: center; display: flex; color: darkorange; font-size: 90px""><b>ø</b></div>","null","","","","forget_cue","","","","","","","","","","","","","","","",""
"html-keyboard-response","218","627527","0.0-4.0-1.0-0.33","w8pvzv2bjxa1xrt","prime","5768dabf8e454c000133a60b","5f60e3c0a3b16e07647b2ff9","5f60eedec0acc9010ee2e3f7","false","null","<span style=""color: black; font-size: 48px"">N + M</span>","null","","","","resp_prompt","","","","","","","","","","","","","","","",""
"categorize-image","219","628998","0.0-4.0-1.0-1.33","w8pvzv2bjxa1xrt","prime","5768dabf8e454c000133a60b","5f60e3c0a3b16e07647b2ff9","5f60eedec0acc9010ee2e3f7","true","1463.4949999745004","./Stimuli/SelectedImages/SN/SN181.bmp","83","","","","test","true","N + M","83","repetition","SN","SN181.bmp","forget","","82","3","prime1","left","","","",""
"html-keyboard-response","220","631013","0.0-4.0-1.0-3.33","w8pvzv2bjxa1xrt","prime","5768dabf8e454c000133a60b","5f60e3c0a3b16e07647b2ff9","5f60eedec0acc9010ee2e3f7","false","null","<div style=""align-items: center; display: flex; color: darkorange; font-size: 90px""><b>ø</b></div>","null","","","","forget_cue","","","","","","","","","","","","","","","",""
"html-keyboard-response","221","631721","0.0-4.0-1.0-0.34","w8pvzv2bjxa1xrt","prime","5768dabf8e454c000133a60b","5f60e3c0a3b16e07647b2ff9","5f60eedec0acc9010ee2e3f7","false","null","<span style=""color: black; font-size: 48px"">M + N</span>","null","","","","resp_prompt","","","","","","","","","","","","","","","",""
"categorize-image","222","632887","0.0-4.0-1.0-1.34","w8pvzv2bjxa1xrt","prime","5768dabf8e454c000133a60b","5f60e3c0a3b16e07647b2ff9","5f60eedec0acc9010ee2e3f7","true","1159.6549999667332","./Stimuli/SelectedImages/LM/LM57.bmp","83","","","","test","true","M + N","83","repetition","LM","LM57.bmp","remember","","83","3","prime1","left","","","",""
"html-keyboard-response","223","634902","0.0-4.0-1.0-3.34","w8pvzv2bjxa1xrt","prime","5768dabf8e454c000133a60b","5f60e3c0a3b16e07647b2ff9","5f60eedec0acc9010ee2e3f7","false","null","<div style=""align-items: center; display: flex; color: dodgerblue; font-size: 90px""><b>o</b></div>","null","","","","forget_cue","","","","","","","","","","","","","","","",""
"html-keyboard-response","224","635610","0.0-4.0-1.0-0.35","w8pvzv2bjxa1xrt","prime","5768dabf8e454c000133a60b","5f60e3c0a3b16e07647b2ff9","5f60eedec0acc9010ee2e3f7","false","null","<span style=""color: black; font-size: 48px"">N + M</span>","null","","","","resp_prompt","","","","","","","","","","","","","","","",""
"categorize-image","225","636204","0.0-4.0-1.0-1.35","w8pvzv2bjxa1xrt","prime","5768dabf8e454c000133a60b","5f60e3c0a3b16e07647b2ff9","5f60eedec0acc9010ee2e3f7","true","587.3000000137836","./Stimuli/SelectedImages/LM/LM179.bmp","76","","","","test","true","N + M","76","switch","LM","LM179.bmp","forget","","84","3","prime1","right","","","",""
"html-keyboard-response","226","638219","0.0-4.0-1.0-3.35","w8pvzv2bjxa1xrt","prime","5768dabf8e454c000133a60b","5f60e3c0a3b16e07647b2ff9","5f60eedec0acc9010ee2e3f7","false","null","<div style=""align-items: center; display: flex; color: darkorange; font-size: 90px""><b>ø</b></div>","null","","","","forget_cue","","","","","","","","","","","","","","","",""
"html-keyboard-response","227","638924","0.0-4.0-1.0-0.36","w8pvzv2bjxa1xrt","prime","5768dabf8e454c000133a60b","5f60e3c0a3b16e07647b2ff9","5f60eedec0acc9010ee2e3f7","false","null","<span style=""color: black; font-size: 48px"">M + N</span>","null","","","","resp_prompt","","","","","","","","","","","","","","","",""
"categorize-image","228","640950","0.0-4.0-1.0-1.36","w8pvzv2bjxa1xrt","prime","5768dabf8e454c000133a60b","5f60e3c0a3b16e07647b2ff9","5f60eedec0acc9010ee2e3f7","true","null","./Stimuli/SelectedImages/LN/LN92.bmp","null","","","","test","false","M + N","76","repetition","LN","LN92.bmp","remember","","85","3","prime1","too_slow","","","",""
"html-keyboard-response","229","641467","0.0-4.0-1.0-2.36-0.36","w8pvzv2bjxa1xrt","prime","5768dabf8e454c000133a60b","5f60e3c0a3b16e07647b2ff9","5f60eedec0acc9010ee2e3f7","false","null","<span style=""color: red; font-size: 48px"">Too slow!</span>","null","","","","feedback","","","","","","","","","","","","","","","",""
"html-keyboard-response","230","643477","0.0-4.0-1.0-3.36","w8pvzv2bjxa1xrt","prime","5768dabf8e454c000133a60b","5f60e3c0a3b16e07647b2ff9","5f60eedec0acc9010ee2e3f7","false","null","<div style=""align-items: center; display: flex; color: dodgerblue; font-size: 90px""><b>o</b></div>","null","","","","forget_cue","","","","","","","","","","","","","","","",""
"html-keyboard-response","231","644182","0.0-4.0-1.0-0.37","w8pvzv2bjxa1xrt","prime","5768dabf8e454c000133a60b","5f60e3c0a3b16e07647b2ff9","5f60eedec0acc9010ee2e3f7","false","null","<span style=""color: black; font-size: 48px"">M + N</span>","null","","","","resp_prompt","","","","","","","","","","","","","","","",""
"categorize-image","232","645202","0.0-4.0-1.0-1.37","w8pvzv2bjxa1xrt","prime","5768dabf8e454c000133a60b","5f60e3c0a3b16e07647b2ff9","5f60eedec0acc9010ee2e3f7","true","1013.1650000112131","./Stimuli/SelectedImages/LN/LN13.bmp","76","","","","test","true","M + N","76","repetition","LN","LN13.bmp","remember","","86","3","prime1","right","","","",""
"html-keyboard-response","233","647209","0.0-4.0-1.0-3.37","w8pvzv2bjxa1xrt","prime","5768dabf8e454c000133a60b","5f60e3c0a3b16e07647b2ff9","5f60eedec0acc9010ee2e3f7","false","null","<div style=""align-items: center; display: flex; color: dodgerblue; font-size: 90px""><b>o</b></div>","null","","","","forget_cue","","","","","","","","","","","","","","","",""
"html-keyboard-response","234","647915","0.0-4.0-1.0-0.38","w8pvzv2bjxa1xrt","prime","5768dabf8e454c000133a60b","5f60e3c0a3b16e07647b2ff9","5f60eedec0acc9010ee2e3f7","false","null","<span style=""color: black; font-size: 48px"">N + M</span>","null","","","","resp_prompt","","","","","","","","","","","","","","","",""
"categorize-image","235","648916","0.0-4.0-1.0-1.38","w8pvzv2bjxa1xrt","prime","5768dabf8e454c000133a60b","5f60e3c0a3b16e07647b2ff9","5f60eedec0acc9010ee2e3f7","true","994.3600000115111","./Stimuli/SelectedImages/LM/LM103.bmp","76","","","","test","true","N + M","76","repetition","LM","LM103.bmp","remember","","87","3","prime1","right","","","",""
"html-keyboard-response","236","650931","0.0-4.0-1.0-3.38","w8pvzv2bjxa1xrt","prime","5768dabf8e454c000133a60b","5f60e3c0a3b16e07647b2ff9","5f60eedec0acc9010ee2e3f7","false","null","<div style=""align-items: center; display: flex; color: dodgerblue; font-size: 90px""><b>o</b></div>","null","","","","forget_cue","","","","","","","","","","","","","","","",""
"html-keyboard-response","237","651644","0.0-4.0-1.0-0.39","w8pvzv2bjxa1xrt","prime","5768dabf8e454c000133a60b","5f60e3c0a3b16e07647b2ff9","5f60eedec0acc9010ee2e3f7","false","null","<span style=""color: black; font-size: 48px"">M + N</span>","null","","","","resp_prompt","","","","","","","","","","","","","","","",""
"categorize-image","238","652275","0.0-4.0-1.0-1.39","w8pvzv2bjxa1xrt","prime","5768dabf8e454c000133a60b","5f60e3c0a3b16e07647b2ff9","5f60eedec0acc9010ee2e3f7","true","624.10000001546","./Stimuli/SelectedImages/LN/LN128.bmp","76","","","","test","true","M + N","76","switch","LN","LN128.bmp","remember","","88","3","prime1","right","","","",""
"html-keyboard-response","239","654290","0.0-4.0-1.0-3.39","w8pvzv2bjxa1xrt","prime","5768dabf8e454c000133a60b","5f60e3c0a3b16e07647b2ff9","5f60eedec0acc9010ee2e3f7","false","null","<div style=""align-items: center; display: flex; color: dodgerblue; font-size: 90px""><b>o</b></div>","null","","","","forget_cue","","","","","","","","","","","","","","","",""
"html-keyboard-response","240","654996","0.0-4.0-1.0-0.40","w8pvzv2bjxa1xrt","prime","5768dabf8e454c000133a60b","5f60e3c0a3b16e07647b2ff9","5f60eedec0acc9010ee2e3f7","false","null","<span style=""color: black; font-size: 48px"">N + M</span>","null","","","","resp_prompt","","","","","","","","","","","","","","","",""
"categorize-image","241","655716","0.0-4.0-1.0-1.40","w8pvzv2bjxa1xrt","prime","5768dabf8e454c000133a60b","5f60e3c0a3b16e07647b2ff9","5f60eedec0acc9010ee2e3f7","true","712.7899999613874","./Stimuli/SelectedImages/SM/SM148.bmp","76","","","","test","true","N + M","76","repetition","SM","SM148.bmp","forget","","89","3","prime1","right","","","",""
"html-keyboard-response","242","657731","0.0-4.0-1.0-3.40","w8pvzv2bjxa1xrt","prime","5768dabf8e454c000133a60b","5f60e3c0a3b16e07647b2ff9","5f60eedec0acc9010ee2e3f7","false","null","<div style=""align-items: center; display: flex; color: darkorange; font-size: 90px""><b>ø</b></div>","null","","","","forget_cue","","","","","","","","","","","","","","","",""
"html-keyboard-response","243","658437","0.0-4.0-1.0-0.41","w8pvzv2bjxa1xrt","prime","5768dabf8e454c000133a60b","5f60e3c0a3b16e07647b2ff9","5f60eedec0acc9010ee2e3f7","false","null","<span style=""color: black; font-size: 48px"">M + N</span>","null","","","","resp_prompt","","","","","","","","","","","","","","","",""
"categorize-image","244","659439","0.0-4.0-1.0-1.41","w8pvzv2bjxa1xrt","prime","5768dabf8e454c000133a60b","5f60e3c0a3b16e07647b2ff9","5f60eedec0acc9010ee2e3f7","true","996.5349999838509","./Stimuli/SelectedImages/SM/SM24.bmp","83","","","","test","true","M + N","83","repetition","SM","SM24.bmp","remember","","90","3","prime1","left","","","",""
"html-keyboard-response","245","661454","0.0-4.0-1.0-3.41","w8pvzv2bjxa1xrt","prime","5768dabf8e454c000133a60b","5f60e3c0a3b16e07647b2ff9","5f60eedec0acc9010ee2e3f7","false","null","<div style=""align-items: center; display: flex; color: dodgerblue; font-size: 90px""><b>o</b></div>","null","","","","forget_cue","","","","","","","","","","","","","","","",""
"html-keyboard-response","246","662162","0.0-4.0-1.0-0.42","w8pvzv2bjxa1xrt","prime","5768dabf8e454c000133a60b","5f60e3c0a3b16e07647b2ff9","5f60eedec0acc9010ee2e3f7","false","null","<span style=""color: black; font-size: 48px"">M + N</span>","null","","","","resp_prompt","","","","","","","","","","","","","","","",""
"categorize-image","247","662850","0.0-4.0-1.0-1.42","w8pvzv2bjxa1xrt","prime","5768dabf8e454c000133a60b","5f60e3c0a3b16e07647b2ff9","5f60eedec0acc9010ee2e3f7","true","680.9849999845028","./Stimuli/SelectedImages/LM/LM150.bmp","83","","","","test","true","M + N","83","repetition","LM","LM150.bmp","remember","","91","3","prime1","left","","","",""
"html-keyboard-response","248","664858","0.0-4.0-1.0-3.42","w8pvzv2bjxa1xrt","prime","5768dabf8e454c000133a60b","5f60e3c0a3b16e07647b2ff9","5f60eedec0acc9010ee2e3f7","false","null","<div style=""align-items: center; display: flex; color: dodgerblue; font-size: 90px""><b>o</b></div>","null","","","","forget_cue","","","","","","","","","","","","","","","",""
"html-keyboard-response","249","665572","0.0-4.0-1.0-0.43","w8pvzv2bjxa1xrt","prime","5768dabf8e454c000133a60b","5f60e3c0a3b16e07647b2ff9","5f60eedec0acc9010ee2e3f7","false","null","<span style=""color: black; font-size: 48px"">M + N</span>","null","","","","resp_prompt","","","","","","","","","","","","","","","",""
"categorize-image","250","666180","0.0-4.0-1.0-1.43","w8pvzv2bjxa1xrt","prime","5768dabf8e454c000133a60b","5f60e3c0a3b16e07647b2ff9","5f60eedec0acc9010ee2e3f7","true","601.349999953527","./Stimuli/SelectedImages/SM/SM17.bmp","83","","","","test","true","M + N","83","repetition","SM","SM17.bmp","forget","","92","3","prime1","left","","","",""
"html-keyboard-response","251","668195","0.0-4.0-1.0-3.43","w8pvzv2bjxa1xrt","prime","5768dabf8e454c000133a60b","5f60e3c0a3b16e07647b2ff9","5f60eedec0acc9010ee2e3f7","false","null","<div style=""align-items: center; display: flex; color: darkorange; font-size: 90px""><b>ø</b></div>","null","","","","forget_cue","","","","","","","","","","","","","","","",""
"html-keyboard-response","252","668902","0.0-4.0-1.0-0.44","w8pvzv2bjxa1xrt","prime","5768dabf8e454c000133a60b","5f60e3c0a3b16e07647b2ff9","5f60eedec0acc9010ee2e3f7","false","null","<span style=""color: black; font-size: 48px"">M + N</span>","null","","","","resp_prompt","","","","","","","","","","","","","","","",""
