"trial_type","trial_index","time_elapsed","internal_node_id","subject","exp_part","prolific_PID","study_ID","session_ID","use","rt","stimulus","key_press","button_pressed","responses","question_order","trial_part","correct","resp_map","correct_resp","probe_condition","category","image","forget_condition","list","trial_num","block_num","block","response","test_part","n_span","sequence","num_spaces"
"pavlovia","0","5","0.0-0.0","v5se8wubxo5mepu","","5ce031fc7f65ee001a985a6b","5f60e3c0a3b16e07647b2ff9","5f675c34c4568e0566460c44","false","","","","","","","","","","","","","","","","","","","","","","",""
"html-keyboard-response","1","1783634","0.0-1.0-0.0-0.0","v5se8wubxo5mepu","welcome","5ce031fc7f65ee001a985a6b","5f60e3c0a3b16e07647b2ff9","5f675c34c4568e0566460c44","false","1783624.4250000454","<div align=left>Dear participant, <br> thank you for participating in an online study of the Cognition, Action, and Sustainability Unit of the University of Freiburg! <br> <br>The aim of this study is to examine our ability to remember previously learned information. <br>Our goal is to find out, whether our memory improves, when we only remember information that is relevant to us. <br>The experiment will take about 35 minutes to complete. <br> <br>Please, note that you can only participate in this study if you are using a device with a keyboard (PC, Laptop etc.) <br>and not if you are using a mobile device such as a tablet or smartphone.<br> <br>Press 'SPACE' to proceed to the experiment. </div>","32","","","","","","","","","","","","","","","","","","","",""
"html-keyboard-response","2","1815984","0.0-1.0-0.0-1.0","v5se8wubxo5mepu","welcome","5ce031fc7f65ee001a985a6b","5f60e3c0a3b16e07647b2ff9","5f675c34c4568e0566460c44","false","32342.089999932796","<div align=left><strong> Time Course of this experiment: </strong> <br><br> <strong> 1.</strong>  First, please fill in some information regarding your demographic data. <br><br> <strong> 2.</strong>  Next, your task will be to classify everyday objects. <br>In addition, you will be asked to remember certain objects and recall them later. <br>Working on these tasks requires your undivided attention and concentration.<br>It is therefore essential that you eliminate any sources of distraction in your  <br>environment and ensure that you will not be disturbed. <br><br><strong> 3.</strong>  At the end of the experiment, you will be asked to answer a few additional questions. <br> <br><strong> Important:</strong> After finishing the experiment, only close the browser window <br> by clicking on the 'end the experiment'-button when you are asked to do so. <br>Closing the browser window prematurely will make the allocation of your participation credit impossible. <br><br> Press 'SPACE' to start the experiment. </div>","32","","","","","","","","","","","","","","","","","","","",""
"html-button-response","3","1819648","0.0-1.0-0.0-2.0","v5se8wubxo5mepu","welcome","5ce031fc7f65ee001a985a6b","5f60e3c0a3b16e07647b2ff9","5f675c34c4568e0566460c44","true","3659.2599999858066","<div align=left><strong> Informed consent </strong>  <br>The aim of our research is to better understand human behavior and mental processes. <br>In the following study your behavior (e.g. choices, reaction times) will be studied. <br> <br><strong> Voluntariness and Anonymity </strong> <br>Your participation in this study is  <strong> voluntary</strong>.<br>You may withdraw your consent to participate at any time without providing a reason for doing so and without fear of prejudice. <br><br>As no personal data will be collected, <strong>your data and your person cannot be connected after data collection</strong> – the data-set is anonymous. <br>Respectively, deletion of your data will not be possible after data collection has been completed, as we cannot retrace your data-set.<br>The results and anonymized data collected in this study will be published as a scientific publication. <br>This will happen in an <strong>anonymized format</strong>, so that no data can be traced back to a specific person. <br> <br>The anonymized data of this study will be made available to other researchers and/or in a data archive on the Internet as a means of transparency and to enable subsequent re-use. By doing so, this study follows the recommendations of the Deutsche Forschungsgemeinschaft (DFG, German Research Foundation) and Deutsche Gesellschaft für Psychologie (DGPS, German Psychological Society) regarding quality assurance in research.<br>If you have any questions now or after the experiment, please contact our team (experiments@cs.uni-freiburg.de).<br><br><br>I hereby declare, that I understand the above described conditions of participation and I agree to participate under these conditions. <br><br> </div>","","0","","","","","","","","","","","","","","","","","","",""
"html-keyboard-response","4","1844707","0.0-1.0-0.0-3.0","v5se8wubxo5mepu","welcome","5ce031fc7f65ee001a985a6b","5f60e3c0a3b16e07647b2ff9","5f675c34c4568e0566460c44","false","25057.054999982938","<div align=left><strong> General information concerning the experiment </strong>  <br> <br>Please follow the instructions:<ol> <li><strong> Do not leave this tab (your browser window) during the experiment and do not reload this tab! </strong>  <br>If you do switch tabs/windows during the experiment (to check your mail or visit another website, for example), <br>the experiment will end automatically and you will <strong>not receive credit</strong> for your participation. <br>Repeated participation or resumption of the experiment is impossible.</li> <br><li>Please close all other programs for the duration of your participation. </li> <br><li>Please mute or turn off your phone and put it out of your reach. </li> <br><li>Please also take off any disturbing accessories (such as wristwatches, bracelets, etc.). </li> <br><li>If you have music playing in the background, please turn it off now. </li> <br></ol>Thank you! <br>Press 'SPACE' to continue. </div>","32","","","","","","","","","","","","","","","","","","","",""
"survey-text","5","1848138","0.0-1.0-1.0-0.0","v5se8wubxo5mepu","demographics","5ce031fc7f65ee001a985a6b","5f60e3c0a3b16e07647b2ff9","5f675c34c4568e0566460c44","true","3418.595000053756","","","","{""age"":""21""}","","","","","","","","","","","","","","","","","",""
"survey-multi-choice","6","1854662","0.0-1.0-1.0-1.0","v5se8wubxo5mepu","demographics","5ce031fc7f65ee001a985a6b","5f60e3c0a3b16e07647b2ff9","5f675c34c4568e0566460c44","true","6520.955000072718","","","","{""gender"":""female"",""school"":""high school"",""education"":""High school graduate, diploma or equivalent""}","[0,1,2]","","","","","","","","","","","","","","","","",""
"html-keyboard-response","7","1864391","0.0-1.0-2.0","v5se8wubxo5mepu","instructions","5ce031fc7f65ee001a985a6b","5f60e3c0a3b16e07647b2ff9","5f675c34c4568e0566460c44","false","9726.269999984652","<div align=left> The experiment is now about to start: <br> <br>In the following part, you will be presented pictures of everyday objects. <br>Your first task is to <strong>classify these objects. </strong> <br> <br> You will classify them either as mechanical or non-mechanical objects. <br> <br>Objects that include any kind of technical mechanism (for example, wheels, switches, levers, <br> electronic components) fall under the category of <strong>mechanical</strong> objects. <br>Only objects without any kind of technical mechanism should be classified as <strong>non-mechanical</strong>. <br><br>Press 'SPACE' to continue. </div>","32","","","","","","","","","","","","","","","","","","","",""
"html-keyboard-response","8","1951743","0.0-2.0-0.0","v5se8wubxo5mepu","instructions","5ce031fc7f65ee001a985a6b","5f60e3c0a3b16e07647b2ff9","5f675c34c4568e0566460c44","false","87348.30499999225","<div align=justify>You will classify the objects using the <strong>'S'</strong> and the <strong>'L'</strong> keys on your keyboard.<br>For doing so, please place your <strong>left index finger</strong> on the <strong>'S'</strong> key and place your <strong>right index finger</strong> on the <strong>'L'</strong> key. <br><br> Each trial starts with an instruction, indicating which key ('S'/'L') you need to press to classify <br>the object as mechanical (letter M) or non-mechanical (letter N).<br>The instruction <strong>M + N</strong> indicates that, in the current trial, by pressing the left key ('S') you classify the displayed object as mechanical (M) <br> and by pressing the right key ('L') you classify the object as non-mechanical (N). <br>The instruction <strong>N + M</strong> on the other hand indicates that by pressing the left key ('S') you classify the displayed object as non-mechanical (N) <br> and by pressing the right key ('L') you classify the object as mechanical (M). <br><br>Please press the key corresponding to the correct classification as fast as possible as soon as the object is displayed and try to avoid making mistakes.<br>If you do not respond within a 2 second window, a corresponding feedback will be displayed and the next trial will start.<br> The experiment is divided into multiple blocks to give you the opportunity to take a break after each block. <br>First, you can now practice this task. <br><br>Please place your <strong>LEFT INDEX FINGER</strong> on the 'S' key and your <strong>RIGHT INDEX FINGER</strong> on the 'L' key now. <br><br>Press SPACE to continue.</div>","32","","","","","","","","","","","","","","","","","","","",""
"html-keyboard-response","9","1959347","0.0-2.0-1.0","v5se8wubxo5mepu","instructions","5ce031fc7f65ee001a985a6b","5f60e3c0a3b16e07647b2ff9","5f675c34c4568e0566460c44","false","7600.764999981038","<div align=left> You will now have time to practice this task.<br><br>Remember: <br> <br><li>Please place your index fingers on the <strong>'S'</strong> and <strong>'L'</strong> keys <br>to respond as fast and accurately as possible.</li><li>Every picture can be classified as either mechanical or non-mechanical.</li><li>If you do not respond in time or commit an error, you will receive a corresponding feedback. </li><li> Please try to respond as <strong> fast </strong> and as <strong> accurately as possible </strong> .<br><li>To ensure optimal results, please minimize distractions and stay focused. </li><br><br>Press SPACE to continue.</div>","32","","","","","","","","","","","","","","","","","","","",""
"html-keyboard-response","10","1960052","0.0-2.0-2.0-0.0","v5se8wubxo5mepu","practice_no_cue","5ce031fc7f65ee001a985a6b","5f60e3c0a3b16e07647b2ff9","5f675c34c4568e0566460c44","false","null","<span style=""color: black; font-size: 48px"">M + N</span>","null","","","","resp_prompt","","","","","","","","","","","","","","","",""
"categorize-image","11","1961335","0.0-2.0-2.0-1.0","v5se8wubxo5mepu","practice_no_cue","5ce031fc7f65ee001a985a6b","5f60e3c0a3b16e07647b2ff9","5f675c34c4568e0566460c44","true","774.4149999925867","./Stimuli/ImagesPractice/SN221.jpg","83","","","","test","false","M + N","76","","SN","SN221.jpg","remember","old","1","1","start","left","","","",""
"html-keyboard-response","12","1962037","0.0-2.0-2.0-0.1","v5se8wubxo5mepu","practice_no_cue","5ce031fc7f65ee001a985a6b","5f60e3c0a3b16e07647b2ff9","5f675c34c4568e0566460c44","false","null","<span style=""color: black; font-size: 48px"">N + M</span>","null","","","","resp_prompt","","","","","","","","","","","","","","","",""
"categorize-image","13","1962896","0.0-2.0-2.0-1.1","v5se8wubxo5mepu","practice_no_cue","5ce031fc7f65ee001a985a6b","5f60e3c0a3b16e07647b2ff9","5f675c34c4568e0566460c44","true","354.5000000158325","./Stimuli/ImagesPractice/SM61.jpg","76","","","","test","true","N + M","76","","SM","SM61.jpg","remember","old","2","1","start","right","","","",""
"html-keyboard-response","14","1963599","0.0-2.0-2.0-0.2","v5se8wubxo5mepu","practice_no_cue","5ce031fc7f65ee001a985a6b","5f60e3c0a3b16e07647b2ff9","5f675c34c4568e0566460c44","false","null","<span style=""color: black; font-size: 48px"">M + N</span>","null","","","","resp_prompt","","","","","","","","","","","","","","","",""
"categorize-image","15","1965534","0.0-2.0-2.0-1.2","v5se8wubxo5mepu","practice_no_cue","5ce031fc7f65ee001a985a6b","5f60e3c0a3b16e07647b2ff9","5f675c34c4568e0566460c44","true","1430.6949999881908","./Stimuli/ImagesPractice/LM230.jpg","76","","","","test","false","M + N","83","","LM","LM230.jpg","forget","old","3","1","start","right","","","",""
"html-keyboard-response","16","1966238","0.0-2.0-2.0-0.3","v5se8wubxo5mepu","practice_no_cue","5ce031fc7f65ee001a985a6b","5f60e3c0a3b16e07647b2ff9","5f675c34c4568e0566460c44","false","null","<span style=""color: black; font-size: 48px"">M + N</span>","null","","","","resp_prompt","","","","","","","","","","","","","","","",""
"categorize-image","17","1967239","0.0-2.0-2.0-1.3","v5se8wubxo5mepu","practice_no_cue","5ce031fc7f65ee001a985a6b","5f60e3c0a3b16e07647b2ff9","5f675c34c4568e0566460c44","true","495.24000007659197","./Stimuli/ImagesPractice/LN72.jpg","83","","","","test","false","M + N","76","","LN","LN72.jpg","remember","old","4","1","start","left","","","",""
"html-keyboard-response","18","1967941","0.0-2.0-2.0-0.4","v5se8wubxo5mepu","practice_no_cue","5ce031fc7f65ee001a985a6b","5f60e3c0a3b16e07647b2ff9","5f675c34c4568e0566460c44","false","null","<span style=""color: black; font-size: 48px"">N + M</span>","null","","","","resp_prompt","","","","","","","","","","","","","","","",""
"categorize-image","19","1969107","0.0-2.0-2.0-1.4","v5se8wubxo5mepu","practice_no_cue","5ce031fc7f65ee001a985a6b","5f60e3c0a3b16e07647b2ff9","5f675c34c4568e0566460c44","true","660.6550000142306","./Stimuli/ImagesPractice/LN2.jpg","76","","","","test","false","N + M","83","","LN","LN2.jpg","forget","old","5","1","start","right","","","",""
"html-keyboard-response","20","1969811","0.0-2.0-2.0-0.5","v5se8wubxo5mepu","practice_no_cue","5ce031fc7f65ee001a985a6b","5f60e3c0a3b16e07647b2ff9","5f675c34c4568e0566460c44","false","null","<span style=""color: black; font-size: 48px"">N + M</span>","null","","","","resp_prompt","","","","","","","","","","","","","","","",""
"categorize-image","21","1971142","0.0-2.0-2.0-1.5","v5se8wubxo5mepu","practice_no_cue","5ce031fc7f65ee001a985a6b","5f60e3c0a3b16e07647b2ff9","5f675c34c4568e0566460c44","true","825.6950000068173","./Stimuli/ImagesPractice/LM239.jpg","83","","","","test","false","N + M","76","","LM","LM239.jpg","remember","old","6","1","start","left","","","",""
"html-keyboard-response","22","1971845","0.0-2.0-2.0-0.6","v5se8wubxo5mepu","practice_no_cue","5ce031fc7f65ee001a985a6b","5f60e3c0a3b16e07647b2ff9","5f675c34c4568e0566460c44","false","null","<span style=""color: black; font-size: 48px"">N + M</span>","null","","","","resp_prompt","","","","","","","","","","","","","","","",""
"categorize-image","23","1972764","0.0-2.0-2.0-1.6","v5se8wubxo5mepu","practice_no_cue","5ce031fc7f65ee001a985a6b","5f60e3c0a3b16e07647b2ff9","5f675c34c4568e0566460c44","true","414.5150000695139","./Stimuli/ImagesPractice/LN17.jpg","76","","","","test","false","N + M","83","","LN","LN17.jpg","remember","old","7","1","start","right","","","",""
"html-keyboard-response","24","1973466","0.0-2.0-2.0-0.7","v5se8wubxo5mepu","practice_no_cue","5ce031fc7f65ee001a985a6b","5f60e3c0a3b16e07647b2ff9","5f675c34c4568e0566460c44","false","null","<span style=""color: black; font-size: 48px"">M + N</span>","null","","","","resp_prompt","","","","","","","","","","","","","","","",""
"categorize-image","25","1974026","0.0-2.0-2.0-1.7","v5se8wubxo5mepu","practice_no_cue","5ce031fc7f65ee001a985a6b","5f60e3c0a3b16e07647b2ff9","5f675c34c4568e0566460c44","true","54.50500000733882","./Stimuli/ImagesPractice/SM97.jpg","76","","","","test","false","M + N","83","","SM","SM97.jpg","forget","old","8","1","start","right","","","",""
"html-keyboard-response","26","1974729","0.0-2.0-2.0-0.8","v5se8wubxo5mepu","practice_no_cue","5ce031fc7f65ee001a985a6b","5f60e3c0a3b16e07647b2ff9","5f675c34c4568e0566460c44","false","null","<span style=""color: black; font-size: 48px"">N + M</span>","null","","","","resp_prompt","","","","","","","","","","","","","","","",""
"categorize-image","27","1976201","0.0-2.0-2.0-1.8","v5se8wubxo5mepu","practice_no_cue","5ce031fc7f65ee001a985a6b","5f60e3c0a3b16e07647b2ff9","5f675c34c4568e0566460c44","true","966.3400000426918","./Stimuli/ImagesPractice/LN109.jpg","76","","","","test","false","N + M","83","","LN","LN109.jpg","forget","old","9","1","start","right","","","",""
"html-keyboard-response","28","1976902","0.0-2.0-2.0-0.9","v5se8wubxo5mepu","practice_no_cue","5ce031fc7f65ee001a985a6b","5f60e3c0a3b16e07647b2ff9","5f675c34c4568e0566460c44","false","null","<span style=""color: black; font-size: 48px"">M + N</span>","null","","","","resp_prompt","","","","","","","","","","","","","","","",""
"categorize-image","29","1978806","0.0-2.0-2.0-1.9","v5se8wubxo5mepu","practice_no_cue","5ce031fc7f65ee001a985a6b","5f60e3c0a3b16e07647b2ff9","5f675c34c4568e0566460c44","true","1399.089999962598","./Stimuli/ImagesPractice/SM98.jpg","83","","","","test","true","M + N","83","","SM","SM98.jpg","forget","old","10","1","start","left","","","",""
"html-keyboard-response","30","1979508","0.0-2.0-2.0-0.10","v5se8wubxo5mepu","practice_no_cue","5ce031fc7f65ee001a985a6b","5f60e3c0a3b16e07647b2ff9","5f675c34c4568e0566460c44","false","null","<span style=""color: black; font-size: 48px"">N + M</span>","null","","","","resp_prompt","","","","","","","","","","","","","","","",""
"categorize-image","31","1981399","0.0-2.0-2.0-1.10","v5se8wubxo5mepu","practice_no_cue","5ce031fc7f65ee001a985a6b","5f60e3c0a3b16e07647b2ff9","5f675c34c4568e0566460c44","true","1386.1799999140203","./Stimuli/ImagesPractice/SN76.jpg","83","","","","test","true","N + M","83","","SN","SN76.jpg","remember","old","11","1","start","left","","","",""
"html-keyboard-response","32","1982102","0.0-2.0-2.0-0.11","v5se8wubxo5mepu","practice_no_cue","5ce031fc7f65ee001a985a6b","5f60e3c0a3b16e07647b2ff9","5f675c34c4568e0566460c44","false","null","<span style=""color: black; font-size: 48px"">M + N</span>","null","","","","resp_prompt","","","","","","","","","","","","","","","",""
"categorize-image","33","1983334","0.0-2.0-2.0-1.11","v5se8wubxo5mepu","practice_no_cue","5ce031fc7f65ee001a985a6b","5f60e3c0a3b16e07647b2ff9","5f675c34c4568e0566460c44","true","726.6349999699742","./Stimuli/ImagesPractice/SN205.jpg","76","","","","test","true","M + N","76","","SN","SN205.jpg","forget","old","12","1","start","right","","","",""
"html-keyboard-response","34","1984037","0.0-2.0-2.0-0.12","v5se8wubxo5mepu","practice_no_cue","5ce031fc7f65ee001a985a6b","5f60e3c0a3b16e07647b2ff9","5f675c34c4568e0566460c44","false","null","<span style=""color: black; font-size: 48px"">M + N</span>","null","","","","resp_prompt","","","","","","","","","","","","","","","",""
"categorize-image","35","1985009","0.0-2.0-2.0-1.12","v5se8wubxo5mepu","practice_no_cue","5ce031fc7f65ee001a985a6b","5f60e3c0a3b16e07647b2ff9","5f675c34c4568e0566460c44","true","465.37999995052814","./Stimuli/ImagesPractice/SN75.jpg","76","","","","test","true","M + N","76","","SN","SN75.jpg","remember","old","13","1","start","right","","","",""
"html-keyboard-response","36","1985711","0.0-2.0-2.0-0.13","v5se8wubxo5mepu","practice_no_cue","5ce031fc7f65ee001a985a6b","5f60e3c0a3b16e07647b2ff9","5f675c34c4568e0566460c44","false","null","<span style=""color: black; font-size: 48px"">N + M</span>","null","","","","resp_prompt","","","","","","","","","","","","","","","",""
"categorize-image","37","1986830","0.0-2.0-2.0-1.13","v5se8wubxo5mepu","practice_no_cue","5ce031fc7f65ee001a985a6b","5f60e3c0a3b16e07647b2ff9","5f675c34c4568e0566460c44","true","614.1050000442192","./Stimuli/ImagesPractice/LM143.jpg","83","","","","test","false","N + M","76","","LM","LM143.jpg","forget","old","14","1","start","left","","","",""
"html-keyboard-response","38","1987532","0.0-2.0-2.0-0.14","v5se8wubxo5mepu","practice_no_cue","5ce031fc7f65ee001a985a6b","5f60e3c0a3b16e07647b2ff9","5f675c34c4568e0566460c44","false","null","<span style=""color: black; font-size: 48px"">N + M</span>","null","","","","resp_prompt","","","","","","","","","","","","","","","",""
"categorize-image","39","1988044","0.0-2.0-2.0-1.14","v5se8wubxo5mepu","practice_no_cue","5ce031fc7f65ee001a985a6b","5f60e3c0a3b16e07647b2ff9","5f675c34c4568e0566460c44","true","8.015000028535724","./Stimuli/ImagesPractice/LN4.jpg","76","","","","test","false","N + M","83","","LN","LN4.jpg","forget","old","15","1","start","right","","","",""
"html-keyboard-response","40","1988747","0.0-2.0-2.0-0.15","v5se8wubxo5mepu","practice_no_cue","5ce031fc7f65ee001a985a6b","5f60e3c0a3b16e07647b2ff9","5f675c34c4568e0566460c44","false","null","<span style=""color: black; font-size: 48px"">M + N</span>","null","","","","resp_prompt","","","","","","","","","","","","","","","",""
"categorize-image","41","1990084","0.0-2.0-2.0-1.15","v5se8wubxo5mepu","practice_no_cue","5ce031fc7f65ee001a985a6b","5f60e3c0a3b16e07647b2ff9","5f675c34c4568e0566460c44","true","832.325000083074","./Stimuli/ImagesPractice/SN220.jpg","76","","","","test","true","M + N","76","","SN","SN220.jpg","remember","old","16","1","start","right","","","",""
"html-keyboard-response","42","1996415","0.0-2.0-3.0","v5se8wubxo5mepu","break","5ce031fc7f65ee001a985a6b","5f60e3c0a3b16e07647b2ff9","5f675c34c4568e0566460c44","false","6325.3399999812245","<p style='font-size: 32px;'>Break</><br><br><br><br><br><p style='font-size: 24px;'>In the last block, you committed 10 errors and did not respond in time on 0 trials.
</p><p style='font-size: 24px;'>Try to respond as fast and accurately as possible in the next block as well! </p><p style='font-size: 24px;'>Press SPACE to continue.</p>","32","","","","","","","","","","","","","","","","","","","",""
"html-keyboard-response","43","1999394","0.0-2.0-4.0","v5se8wubxo5mepu","instructions","5ce031fc7f65ee001a985a6b","5f60e3c0a3b16e07647b2ff9","5f675c34c4568e0566460c44","false","2977.459999965504","<div align=left> Great!<br><br>Are you ready to continue?<br><br>If you want to reread the instructions and redo the practice trials, <br>please press „Z“. <br><br>Press SPACE to CONTINUE with the experiment when you are ready. </div>","32","","","","","","","","","","","","","","","","","","","",""
"html-keyboard-response","44","2012424","0.0-3.0-0.0","v5se8wubxo5mepu","instructions","5ce031fc7f65ee001a985a6b","5f60e3c0a3b16e07647b2ff9","5f675c34c4568e0566460c44","false","13025.209999992512","<div align=left>Great!<br> <strong>Attention</strong>! You will now receive a second, additional task! <br><br>To this point it was you <strong>first task</strong> to correctly <strong>classify objects</strong>. <br><br>As mentioned in the beginning, we aim to examine how well humans can remember previously learned information.<br>We would like to find out whether our memory improves if we only remember information that is relevant to us. <br><br>Therefore, your <strong>second task</strong> will be to <strong>remember</strong> the pictures you are to categorize. <br> After the learning phase, there will be a memory test phase, in which you will be asked to indicate whether you have seen a picture before or not. <br>Some, but not all pictures shown in the learning phase will appear in the memory test phase.<br>After classifying a picture, you will be told whether you should remember it for the memory test phase or not. <br>Thus, some pictures can be forgotten, whereas others have to be remembered. <br><br>Note: From now on, feedback will only be displayed if you responded incorrectly or not in time.<br><br>Press SPACE to continue.</div>","32","","","","","","","","","","","","","","","","","","","",""
"html-keyboard-response","45","2029866","0.0-3.0-1.0","v5se8wubxo5mepu","instructions","5ce031fc7f65ee001a985a6b","5f60e3c0a3b16e07647b2ff9","5f675c34c4568e0566460c44","false","17440.63000008464","<div align=left>In the following part, you will thus have to remember only some pictures. <br>Immediately after seeing and classifying the picture, a symbol will be displayed, indicating whether you should remember or forget the previous picture. <br><br>A <span style='color: dodgerblue; font-size: 28px'>O</span> indicates REMEMBER. That means, you have to remember this picture, because it will be tested later. <br><br>A <span style='color: darkorange; font-size:28px'>Ø</span> indicates FORGET. You do not have to remember this picture. <br><br> As you will have to remember a lot of pictures, it will be hard for you to remember all of them. <br>It will put you at an advantage if you instantly forget the pictures you are not asked to remember. <br> This will make it easier for you to remember the pictures that will be tested afterwards. <br><br>Press SPACE to continue.</div>","32","","","","","","","","","","","","","","","","","","","",""
"html-keyboard-response","46","2032892","0.0-3.0-2.0","v5se8wubxo5mepu","instructions","5ce031fc7f65ee001a985a6b","5f60e3c0a3b16e07647b2ff9","5f675c34c4568e0566460c44","false","3023.9049999509007","<div align=left> Now you have the chance to practice both tasks together.<br><br>Remember: <br> <br><li>Please place your index fingers on the <strong>'S'</strong> and <strong>'L'</strong> keys <br>to respond as fast and accurately as possible.</li><li>Every picture can be classified as either mechanical or non-mechanical.</li><li>If you do not respond in time or commit an error, you will receive a corresponding feedback. <br>Please try to respond as <strong> fast </strong> and as <strong> accurately as possible </strong>.</li><li> Please remember only the to-be-remembered <span style='color: dodgerblue; font-size: 28px'>O</span> pictures. <br></li><li> Please minimize distractions and stay focused. </li><br><br>Press SPACE to START</div>","32","","","","","","","","","","","","","","","","","","","",""
"html-keyboard-response","47","2033593","0.0-3.0-3.0-0.0","v5se8wubxo5mepu","practice_cue","5ce031fc7f65ee001a985a6b","5f60e3c0a3b16e07647b2ff9","5f675c34c4568e0566460c44","false","null","<span style=""color: black; font-size: 48px"">M + N</span>","null","","","","resp_prompt","","","","","","","","","","","","","","","",""
"categorize-image","48","2034198","0.0-3.0-3.0-1.0","v5se8wubxo5mepu","practice_cue","5ce031fc7f65ee001a985a6b","5f60e3c0a3b16e07647b2ff9","5f675c34c4568e0566460c44","true","595.2950000064448","./Stimuli/ImagesPractice/SN220.jpg","76","","","","test","true","M + N","76","","SN","SN220.jpg","remember","old","17","2","practice_forget","right","","","",""
"html-keyboard-response","49","2036201","0.0-3.0-3.0-3.0","v5se8wubxo5mepu","practice_cue","5ce031fc7f65ee001a985a6b","5f60e3c0a3b16e07647b2ff9","5f675c34c4568e0566460c44","false","null","<div style=""align-items: center; display: flex; color: dodgerblue; font-size: 90px""><b>o</b></div>","null","","","","forget_cue","","","","","","","","","","","","","","","",""
"html-keyboard-response","50","2036904","0.0-3.0-3.0-0.1","v5se8wubxo5mepu","practice_cue","5ce031fc7f65ee001a985a6b","5f60e3c0a3b16e07647b2ff9","5f675c34c4568e0566460c44","false","null","<span style=""color: black; font-size: 48px"">M + N</span>","null","","","","resp_prompt","","","","","","","","","","","","","","","",""
"categorize-image","51","2037798","0.0-3.0-3.0-1.1","v5se8wubxo5mepu","practice_cue","5ce031fc7f65ee001a985a6b","5f60e3c0a3b16e07647b2ff9","5f675c34c4568e0566460c44","true","887.7599999541417","./Stimuli/ImagesPractice/SN75.jpg","83","","","","test","false","M + N","76","","SN","SN75.jpg","remember","old","18","2","practice_forget","left","","","",""
"html-keyboard-response","52","2038301","0.0-3.0-3.0-2.1-0.1","v5se8wubxo5mepu","practice_cue","5ce031fc7f65ee001a985a6b","5f60e3c0a3b16e07647b2ff9","5f675c34c4568e0566460c44","false","null","<span style=""color: red; font-size: 48px"">Error!</span>","null","","","","feedback","","","","","","","","","","","","","","","",""
"html-keyboard-response","53","2040304","0.0-3.0-3.0-3.1","v5se8wubxo5mepu","practice_cue","5ce031fc7f65ee001a985a6b","5f60e3c0a3b16e07647b2ff9","5f675c34c4568e0566460c44","false","null","<div style=""align-items: center; display: flex; color: dodgerblue; font-size: 90px""><b>o</b></div>","null","","","","forget_cue","","","","","","","","","","","","","","","",""
"html-keyboard-response","54","2041008","0.0-3.0-3.0-0.2","v5se8wubxo5mepu","practice_cue","5ce031fc7f65ee001a985a6b","5f60e3c0a3b16e07647b2ff9","5f675c34c4568e0566460c44","false","null","<span style=""color: black; font-size: 48px"">N + M</span>","null","","","","resp_prompt","","","","","","","","","","","","","","","",""
"categorize-image","55","2041792","0.0-3.0-3.0-1.2","v5se8wubxo5mepu","practice_cue","5ce031fc7f65ee001a985a6b","5f60e3c0a3b16e07647b2ff9","5f675c34c4568e0566460c44","true","777.2699999623001","./Stimuli/ImagesPractice/LN17.jpg","76","","","","test","false","N + M","83","","LN","LN17.jpg","remember","old","19","2","practice_forget","right","","","",""
"html-keyboard-response","56","2042295","0.0-3.0-3.0-2.2-0.2","v5se8wubxo5mepu","practice_cue","5ce031fc7f65ee001a985a6b","5f60e3c0a3b16e07647b2ff9","5f675c34c4568e0566460c44","false","null","<span style=""color: red; font-size: 48px"">Error!</span>","null","","","","feedback","","","","","","","","","","","","","","","",""
"html-keyboard-response","57","2044298","0.0-3.0-3.0-3.2","v5se8wubxo5mepu","practice_cue","5ce031fc7f65ee001a985a6b","5f60e3c0a3b16e07647b2ff9","5f675c34c4568e0566460c44","false","null","<div style=""align-items: center; display: flex; color: dodgerblue; font-size: 90px""><b>o</b></div>","null","","","","forget_cue","","","","","","","","","","","","","","","",""
"html-keyboard-response","58","2045001","0.0-3.0-3.0-0.3","v5se8wubxo5mepu","practice_cue","5ce031fc7f65ee001a985a6b","5f60e3c0a3b16e07647b2ff9","5f675c34c4568e0566460c44","false","null","<span style=""color: black; font-size: 48px"">N + M</span>","null","","","","resp_prompt","","","","","","","","","","","","","","","",""
"categorize-image","59","2045650","0.0-3.0-3.0-1.3","v5se8wubxo5mepu","practice_cue","5ce031fc7f65ee001a985a6b","5f60e3c0a3b16e07647b2ff9","5f675c34c4568e0566460c44","true","640.4249999905005","./Stimuli/ImagesPractice/LN2.jpg","83","","","","test","true","N + M","83","","LN","LN2.jpg","forget","old","20","2","practice_forget","left","","","",""
"html-keyboard-response","60","2047653","0.0-3.0-3.0-3.3","v5se8wubxo5mepu","practice_cue","5ce031fc7f65ee001a985a6b","5f60e3c0a3b16e07647b2ff9","5f675c34c4568e0566460c44","false","null","<div style=""align-items: center; display: flex; color: darkorange; font-size: 90px""><b>ø</b></div>","null","","","","forget_cue","","","","","","","","","","","","","","","",""
"html-keyboard-response","61","2048357","0.0-3.0-3.0-0.4","v5se8wubxo5mepu","practice_cue","5ce031fc7f65ee001a985a6b","5f60e3c0a3b16e07647b2ff9","5f675c34c4568e0566460c44","false","null","<span style=""color: black; font-size: 48px"">N + M</span>","null","","","","resp_prompt","","","","","","","","","","","","","","","",""
"categorize-image","62","2049224","0.0-3.0-3.0-1.4","v5se8wubxo5mepu","practice_cue","5ce031fc7f65ee001a985a6b","5f60e3c0a3b16e07647b2ff9","5f675c34c4568e0566460c44","true","860.1400000043213","./Stimuli/ImagesPractice/LM143.jpg","76","","","","test","true","N + M","76","","LM","LM143.jpg","forget","old","21","2","practice_forget","right","","","",""
"html-keyboard-response","63","2051228","0.0-3.0-3.0-3.4","v5se8wubxo5mepu","practice_cue","5ce031fc7f65ee001a985a6b","5f60e3c0a3b16e07647b2ff9","5f675c34c4568e0566460c44","false","null","<div style=""align-items: center; display: flex; color: darkorange; font-size: 90px""><b>ø</b></div>","null","","","","forget_cue","","","","","","","","","","","","","","","",""
"html-keyboard-response","64","2051930","0.0-3.0-3.0-0.5","v5se8wubxo5mepu","practice_cue","5ce031fc7f65ee001a985a6b","5f60e3c0a3b16e07647b2ff9","5f675c34c4568e0566460c44","false","null","<span style=""color: black; font-size: 48px"">N + M</span>","null","","","","resp_prompt","","","","","","","","","","","","","","","",""
"categorize-image","65","2052774","0.0-3.0-3.0-1.5","v5se8wubxo5mepu","practice_cue","5ce031fc7f65ee001a985a6b","5f60e3c0a3b16e07647b2ff9","5f675c34c4568e0566460c44","true","836.7749999742955","./Stimuli/ImagesPractice/LN4.jpg","83","","","","test","true","N + M","83","","LN","LN4.jpg","forget","old","22","2","practice_forget","left","","","",""
"html-keyboard-response","66","2054777","0.0-3.0-3.0-3.5","v5se8wubxo5mepu","practice_cue","5ce031fc7f65ee001a985a6b","5f60e3c0a3b16e07647b2ff9","5f675c34c4568e0566460c44","false","null","<div style=""align-items: center; display: flex; color: darkorange; font-size: 90px""><b>ø</b></div>","null","","","","forget_cue","","","","","","","","","","","","","","","",""
"html-keyboard-response","67","2055480","0.0-3.0-3.0-0.6","v5se8wubxo5mepu","practice_cue","5ce031fc7f65ee001a985a6b","5f60e3c0a3b16e07647b2ff9","5f675c34c4568e0566460c44","false","null","<span style=""color: black; font-size: 48px"">M + N</span>","null","","","","resp_prompt","","","","","","","","","","","","","","","",""
"categorize-image","68","2056182","0.0-3.0-3.0-1.6","v5se8wubxo5mepu","practice_cue","5ce031fc7f65ee001a985a6b","5f60e3c0a3b16e07647b2ff9","5f675c34c4568e0566460c44","true","695.049999980256","./Stimuli/ImagesPractice/LN72.jpg","76","","","","test","true","M + N","76","","LN","LN72.jpg","remember","old","23","2","practice_forget","right","","","",""
"html-keyboard-response","69","2058187","0.0-3.0-3.0-3.6","v5se8wubxo5mepu","practice_cue","5ce031fc7f65ee001a985a6b","5f60e3c0a3b16e07647b2ff9","5f675c34c4568e0566460c44","false","null","<div style=""align-items: center; display: flex; color: dodgerblue; font-size: 90px""><b>o</b></div>","null","","","","forget_cue","","","","","","","","","","","","","","","",""
"html-keyboard-response","70","2058889","0.0-3.0-3.0-0.7","v5se8wubxo5mepu","practice_cue","5ce031fc7f65ee001a985a6b","5f60e3c0a3b16e07647b2ff9","5f675c34c4568e0566460c44","false","null","<span style=""color: black; font-size: 48px"">N + M</span>","null","","","","resp_prompt","","","","","","","","","","","","","","","",""
"categorize-image","71","2059516","0.0-3.0-3.0-1.7","v5se8wubxo5mepu","practice_cue","5ce031fc7f65ee001a985a6b","5f60e3c0a3b16e07647b2ff9","5f675c34c4568e0566460c44","true","617.8099999669939","./Stimuli/ImagesPractice/SN76.jpg","76","","","","test","false","N + M","83","","SN","SN76.jpg","remember","old","24","2","practice_forget","right","","","",""
"html-keyboard-response","72","2060020","0.0-3.0-3.0-2.7-0.7","v5se8wubxo5mepu","practice_cue","5ce031fc7f65ee001a985a6b","5f60e3c0a3b16e07647b2ff9","5f675c34c4568e0566460c44","false","null","<span style=""color: red; font-size: 48px"">Error!</span>","null","","","","feedback","","","","","","","","","","","","","","","",""
"html-keyboard-response","73","2062022","0.0-3.0-3.0-3.7","v5se8wubxo5mepu","practice_cue","5ce031fc7f65ee001a985a6b","5f60e3c0a3b16e07647b2ff9","5f675c34c4568e0566460c44","false","null","<div style=""align-items: center; display: flex; color: dodgerblue; font-size: 90px""><b>o</b></div>","null","","","","forget_cue","","","","","","","","","","","","","","","",""
"html-keyboard-response","74","2062724","0.0-3.0-3.0-0.8","v5se8wubxo5mepu","practice_cue","5ce031fc7f65ee001a985a6b","5f60e3c0a3b16e07647b2ff9","5f675c34c4568e0566460c44","false","null","<span style=""color: black; font-size: 48px"">M + N</span>","null","","","","resp_prompt","","","","","","","","","","","","","","","",""
"categorize-image","75","2063310","0.0-3.0-3.0-1.8","v5se8wubxo5mepu","practice_cue","5ce031fc7f65ee001a985a6b","5f60e3c0a3b16e07647b2ff9","5f675c34c4568e0566460c44","true","578.0950000043958","./Stimuli/ImagesPractice/SM97.jpg","83","","","","test","true","M + N","83","","SM","SM97.jpg","forget","old","25","2","practice_forget","left","","","",""
"html-keyboard-response","76","2065313","0.0-3.0-3.0-3.8","v5se8wubxo5mepu","practice_cue","5ce031fc7f65ee001a985a6b","5f60e3c0a3b16e07647b2ff9","5f675c34c4568e0566460c44","false","null","<div style=""align-items: center; display: flex; color: darkorange; font-size: 90px""><b>ø</b></div>","null","","","","forget_cue","","","","","","","","","","","","","","","",""
"html-keyboard-response","77","2066016","0.0-3.0-3.0-0.9","v5se8wubxo5mepu","practice_cue","5ce031fc7f65ee001a985a6b","5f60e3c0a3b16e07647b2ff9","5f675c34c4568e0566460c44","false","null","<span style=""color: black; font-size: 48px"">M + N</span>","null","","","","resp_prompt","","","","","","","","","","","","","","","",""
"categorize-image","78","2066615","0.0-3.0-3.0-1.9","v5se8wubxo5mepu","practice_cue","5ce031fc7f65ee001a985a6b","5f60e3c0a3b16e07647b2ff9","5f675c34c4568e0566460c44","true","586.0600000014529","./Stimuli/ImagesPractice/SN205.jpg","76","","","","test","true","M + N","76","","SN","SN205.jpg","forget","old","26","2","practice_forget","right","","","",""
"html-keyboard-response","79","2068619","0.0-3.0-3.0-3.9","v5se8wubxo5mepu","practice_cue","5ce031fc7f65ee001a985a6b","5f60e3c0a3b16e07647b2ff9","5f675c34c4568e0566460c44","false","null","<div style=""align-items: center; display: flex; color: darkorange; font-size: 90px""><b>ø</b></div>","null","","","","forget_cue","","","","","","","","","","","","","","","",""
"html-keyboard-response","80","2069322","0.0-3.0-3.0-0.10","v5se8wubxo5mepu","practice_cue","5ce031fc7f65ee001a985a6b","5f60e3c0a3b16e07647b2ff9","5f675c34c4568e0566460c44","false","null","<span style=""color: black; font-size: 48px"">M + N</span>","null","","","","resp_prompt","","","","","","","","","","","","","","","",""
"categorize-image","81","2069970","0.0-3.0-3.0-1.10","v5se8wubxo5mepu","practice_cue","5ce031fc7f65ee001a985a6b","5f60e3c0a3b16e07647b2ff9","5f675c34c4568e0566460c44","true","642.2850000672042","./Stimuli/ImagesPractice/SM98.jpg","83","","","","test","true","M + N","83","","SM","SM98.jpg","forget","old","27","2","practice_forget","left","","","",""
"html-keyboard-response","82","2071973","0.0-3.0-3.0-3.10","v5se8wubxo5mepu","practice_cue","5ce031fc7f65ee001a985a6b","5f60e3c0a3b16e07647b2ff9","5f675c34c4568e0566460c44","false","null","<div style=""align-items: center; display: flex; color: darkorange; font-size: 90px""><b>ø</b></div>","null","","","","forget_cue","","","","","","","","","","","","","","","",""
"html-keyboard-response","83","2072675","0.0-3.0-3.0-0.11","v5se8wubxo5mepu","practice_cue","5ce031fc7f65ee001a985a6b","5f60e3c0a3b16e07647b2ff9","5f675c34c4568e0566460c44","false","null","<span style=""color: black; font-size: 48px"">N + M</span>","null","","","","resp_prompt","","","","","","","","","","","","","","","",""
"categorize-image","84","2073314","0.0-3.0-3.0-1.11","v5se8wubxo5mepu","practice_cue","5ce031fc7f65ee001a985a6b","5f60e3c0a3b16e07647b2ff9","5f675c34c4568e0566460c44","true","631.7399999825284","./Stimuli/ImagesPractice/LM239.jpg","76","","","","test","true","N + M","76","","LM","LM239.jpg","remember","old","28","2","practice_forget","right","","","",""
"html-keyboard-response","85","2075319","0.0-3.0-3.0-3.11","v5se8wubxo5mepu","practice_cue","5ce031fc7f65ee001a985a6b","5f60e3c0a3b16e07647b2ff9","5f675c34c4568e0566460c44","false","null","<div style=""align-items: center; display: flex; color: dodgerblue; font-size: 90px""><b>o</b></div>","null","","","","forget_cue","","","","","","","","","","","","","","","",""
"html-keyboard-response","86","2076022","0.0-3.0-3.0-0.12","v5se8wubxo5mepu","practice_cue","5ce031fc7f65ee001a985a6b","5f60e3c0a3b16e07647b2ff9","5f675c34c4568e0566460c44","false","null","<span style=""color: black; font-size: 48px"">M + N</span>","null","","","","resp_prompt","","","","","","","","","","","","","","","",""
"categorize-image","87","2076548","0.0-3.0-3.0-1.12","v5se8wubxo5mepu","practice_cue","5ce031fc7f65ee001a985a6b","5f60e3c0a3b16e07647b2ff9","5f675c34c4568e0566460c44","true","518.9950000494719","./Stimuli/ImagesPractice/LM230.jpg","83","","","","test","true","M + N","83","","LM","LM230.jpg","forget","old","29","2","practice_forget","left","","","",""
"html-keyboard-response","88","2078551","0.0-3.0-3.0-3.12","v5se8wubxo5mepu","practice_cue","5ce031fc7f65ee001a985a6b","5f60e3c0a3b16e07647b2ff9","5f675c34c4568e0566460c44","false","null","<div style=""align-items: center; display: flex; color: darkorange; font-size: 90px""><b>ø</b></div>","null","","","","forget_cue","","","","","","","","","","","","","","","",""
"html-keyboard-response","89","2079254","0.0-3.0-3.0-0.13","v5se8wubxo5mepu","practice_cue","5ce031fc7f65ee001a985a6b","5f60e3c0a3b16e07647b2ff9","5f675c34c4568e0566460c44","false","null","<span style=""color: black; font-size: 48px"">N + M</span>","null","","","","resp_prompt","","","","","","","","","","","","","","","",""
"categorize-image","90","2079954","0.0-3.0-3.0-1.13","v5se8wubxo5mepu","practice_cue","5ce031fc7f65ee001a985a6b","5f60e3c0a3b16e07647b2ff9","5f675c34c4568e0566460c44","true","695.9349999669939","./Stimuli/ImagesPractice/SM61.jpg","76","","","","test","true","N + M","76","","SM","SM61.jpg","remember","old","30","2","practice_forget","right","","","",""
"html-keyboard-response","91","2081956","0.0-3.0-3.0-3.13","v5se8wubxo5mepu","practice_cue","5ce031fc7f65ee001a985a6b","5f60e3c0a3b16e07647b2ff9","5f675c34c4568e0566460c44","false","null","<div style=""align-items: center; display: flex; color: dodgerblue; font-size: 90px""><b>o</b></div>","null","","","","forget_cue","","","","","","","","","","","","","","","",""
"html-keyboard-response","92","2082658","0.0-3.0-3.0-0.14","v5se8wubxo5mepu","practice_cue","5ce031fc7f65ee001a985a6b","5f60e3c0a3b16e07647b2ff9","5f675c34c4568e0566460c44","false","null","<span style=""color: black; font-size: 48px"">N + M</span>","null","","","","resp_prompt","","","","","","","","","","","","","","","",""
"categorize-image","93","2083265","0.0-3.0-3.0-1.14","v5se8wubxo5mepu","practice_cue","5ce031fc7f65ee001a985a6b","5f60e3c0a3b16e07647b2ff9","5f675c34c4568e0566460c44","true","601.894999970682","./Stimuli/ImagesPractice/LN109.jpg","76","","","","test","false","N + M","83","","LN","LN109.jpg","forget","old","31","2","practice_forget","right","","","",""
"html-keyboard-response","94","2083768","0.0-3.0-3.0-2.14-0.14","v5se8wubxo5mepu","practice_cue","5ce031fc7f65ee001a985a6b","5f60e3c0a3b16e07647b2ff9","5f675c34c4568e0566460c44","false","null","<span style=""color: red; font-size: 48px"">Error!</span>","null","","","","feedback","","","","","","","","","","","","","","","",""
"html-keyboard-response","95","2085770","0.0-3.0-3.0-3.14","v5se8wubxo5mepu","practice_cue","5ce031fc7f65ee001a985a6b","5f60e3c0a3b16e07647b2ff9","5f675c34c4568e0566460c44","false","null","<div style=""align-items: center; display: flex; color: darkorange; font-size: 90px""><b>ø</b></div>","null","","","","forget_cue","","","","","","","","","","","","","","","",""
"html-keyboard-response","96","2086472","0.0-3.0-3.0-0.15","v5se8wubxo5mepu","practice_cue","5ce031fc7f65ee001a985a6b","5f60e3c0a3b16e07647b2ff9","5f675c34c4568e0566460c44","false","null","<span style=""color: black; font-size: 48px"">M + N</span>","null","","","","resp_prompt","","","","","","","","","","","","","","","",""
"categorize-image","97","2086929","0.0-3.0-3.0-1.15","v5se8wubxo5mepu","practice_cue","5ce031fc7f65ee001a985a6b","5f60e3c0a3b16e07647b2ff9","5f675c34c4568e0566460c44","true","447.4649999756366","./Stimuli/ImagesPractice/SN221.jpg","76","","","","test","true","M + N","76","","SN","SN221.jpg","remember","old","32","2","practice_forget","right","","","",""
"html-keyboard-response","98","2088932","0.0-3.0-3.0-3.15","v5se8wubxo5mepu","practice_cue","5ce031fc7f65ee001a985a6b","5f60e3c0a3b16e07647b2ff9","5f675c34c4568e0566460c44","false","null","<div style=""align-items: center; display: flex; color: dodgerblue; font-size: 90px""><b>o</b></div>","null","","","","forget_cue","","","","","","","","","","","","","","","",""
"html-keyboard-response","99","2091074","0.0-3.0-4.0","v5se8wubxo5mepu","break","5ce031fc7f65ee001a985a6b","5f60e3c0a3b16e07647b2ff9","5f675c34c4568e0566460c44","false","2139.9299999466166","<p style='font-size: 32px;'>Break</><br><br><br><br><br><p style='font-size: 24px;'>In the last block, you committed 4 errors and did not respond in time on 0 trials.
</p><p style='font-size: 24px;'>Try to respond as fast and accurately as possible in the next block as well! </p><p style='font-size: 24px;'>Press SPACE to continue.</p>","32","","","","","","","","","","","","","","","","","","","",""
"html-keyboard-response","100","2092212","0.0-3.0-5.0","v5se8wubxo5mepu","instructions","5ce031fc7f65ee001a985a6b","5f60e3c0a3b16e07647b2ff9","5f675c34c4568e0566460c44","false","1135.054999962449","<div align=left> Now, to practice, we kindly ask you to remember as many of the to-be-remembered pictures<br>of the previous learning phase as possible.<br><br>The pictures you were instructed to remember were the pictures followed by a <span style='color: dodgerblue; font-size: 28px'>O</span>.<br><br>In this memory test phase, you will also see some new pictures.<br>It is your task to remember whether you were presented with this specific picture in this study so far or not.<br>If you recognize an object (you have already seen it in this study), it is an OLD object. <br>If you do not recognize an object (you have NOT seen it in this study), it is a NEW object. <br><strong> Attention</strong>: As already mentioned, <span style='color: darkorange; font-size:28px'>Ø</span>-pictures will <strong>never</strong> appear in this memory test (neither as new objects). <br><br>Press SPACE to continue. </div>","32","","","","","","","","","","","","","","","","","","","",""
"html-keyboard-response","101","2093175","0.0-3.0-6.0","v5se8wubxo5mepu","instructions","5ce031fc7f65ee001a985a6b","5f60e3c0a3b16e07647b2ff9","5f675c34c4568e0566460c44","false","959.8349999869242","<div align=left> M and N no longer will appear on the left/right of the fixation cross. <br>Instead there will be a note at the bottom of the left or right side  <br>indicating which key you should press for an old or new object:  <br> <br>Press the <strong>right</strong> key to classify an object as <strong>old</strong> and press the <strong>left</strong>, to classify an object as <strong>new</strong>.<br>Please classify the objects as new/old by again placing your index finger on the 'S' and 'L' keys <br>and press them accordingly.<br><br><strong>Old:</strong> This object has been presented before. <br><strong>New:</strong> This object has <strong>not</strong> been presented.<br><br>Now please put your right and left index fingers on the 'S' and 'L' keys of your keyboard. <br>Please respond as fast and as accurately as possible!<br><br>Press SPACE to continue. </div>","32","","","","","","","","","","","","","","","","","","","",""
"categorize-image","102","2095830","0.0-3.0-7.0-0.0","v5se8wubxo5mepu","practice_recog","5ce031fc7f65ee001a985a6b","5f60e3c0a3b16e07647b2ff9","5f675c34c4568e0566460c44","true","2147.125000017695","./Stimuli/ImagesPractice/LM224.jpg","76","","","","test","true","","76","","LM","LM224.jpg","","new","33","3","practice_recog","right","","","",""
"categorize-image","103","2097269","0.0-3.0-7.0-0.1","v5se8wubxo5mepu","practice_recog","5ce031fc7f65ee001a985a6b","5f60e3c0a3b16e07647b2ff9","5f675c34c4568e0566460c44","true","934.1349999886006","./Stimuli/ImagesPractice/SN222.jpg","76","","","","test","true","","76","","SN","SN222.jpg","","new","34","3","practice_recog","right","","","",""
"categorize-image","104","2098464","0.0-3.0-7.0-0.2","v5se8wubxo5mepu","practice_recog","5ce031fc7f65ee001a985a6b","5f60e3c0a3b16e07647b2ff9","5f675c34c4568e0566460c44","true","690.0900000473484","./Stimuli/ImagesPractice/LM239.jpg","83","","","","test","true","","83","","LM","LM239.jpg","","old","35","3","practice_recog","left","","","",""
"categorize-image","105","2099823","0.0-3.0-7.0-0.3","v5se8wubxo5mepu","practice_recog","5ce031fc7f65ee001a985a6b","5f60e3c0a3b16e07647b2ff9","5f675c34c4568e0566460c44","true","854.700000025332","./Stimuli/ImagesPractice/LM55.jpg","76","","","","test","true","","76","","LM","LM55.jpg","","new","36","3","practice_recog","right","","","",""
"categorize-image","106","2101152","0.0-3.0-7.0-0.4","v5se8wubxo5mepu","practice_recog","5ce031fc7f65ee001a985a6b","5f60e3c0a3b16e07647b2ff9","5f675c34c4568e0566460c44","true","823.6399999586865","./Stimuli/ImagesPractice/SM61.jpg","83","","","","test","true","","83","","SM","SM61.jpg","","old","37","3","practice_recog","left","","","",""
"categorize-image","107","2102359","0.0-3.0-7.0-0.5","v5se8wubxo5mepu","practice_recog","5ce031fc7f65ee001a985a6b","5f60e3c0a3b16e07647b2ff9","5f675c34c4568e0566460c44","true","701.035000034608","./Stimuli/ImagesPractice/SN76.jpg","83","","","","test","true","","83","","SN","SN76.jpg","","old","38","3","practice_recog","left","","","",""
"categorize-image","108","2103725","0.0-3.0-7.0-0.6","v5se8wubxo5mepu","practice_recog","5ce031fc7f65ee001a985a6b","5f60e3c0a3b16e07647b2ff9","5f675c34c4568e0566460c44","true","860.1400000043213","./Stimuli/ImagesPractice/SM62.jpg","76","","","","test","true","","76","","SM","SM62.jpg","","new","39","3","practice_recog","right","","","",""
"categorize-image","109","2104840","0.0-3.0-7.0-0.7","v5se8wubxo5mepu","practice_recog","5ce031fc7f65ee001a985a6b","5f60e3c0a3b16e07647b2ff9","5f675c34c4568e0566460c44","true","610.4500000365078","./Stimuli/ImagesPractice/SN220.jpg","83","","","","test","true","","83","","SN","SN220.jpg","","old","40","3","practice_recog","left","","","",""
"categorize-image","110","2106030","0.0-3.0-7.0-0.8","v5se8wubxo5mepu","practice_recog","5ce031fc7f65ee001a985a6b","5f60e3c0a3b16e07647b2ff9","5f675c34c4568e0566460c44","true","683.8599999900907","./Stimuli/ImagesPractice/LN72.jpg","83","","","","test","true","","83","","LN","LN72.jpg","","old","41","3","practice_recog","left","","","",""
"categorize-image","111","2107129","0.0-3.0-7.0-0.9","v5se8wubxo5mepu","practice_recog","5ce031fc7f65ee001a985a6b","5f60e3c0a3b16e07647b2ff9","5f675c34c4568e0566460c44","true","593.2550000725314","./Stimuli/ImagesPractice/LN17.jpg","83","","","","test","true","","83","","LN","LN17.jpg","","old","42","3","practice_recog","left","","","",""
"categorize-image","112","2108327","0.0-3.0-7.0-0.10","v5se8wubxo5mepu","practice_recog","5ce031fc7f65ee001a985a6b","5f60e3c0a3b16e07647b2ff9","5f675c34c4568e0566460c44","true","692.1100000618026","./Stimuli/ImagesPractice/SM37.jpg","76","","","","test","true","","76","","SM","SM37.jpg","","new","43","3","practice_recog","right","","","",""
"categorize-image","113","2109447","0.0-3.0-7.0-0.11","v5se8wubxo5mepu","practice_recog","5ce031fc7f65ee001a985a6b","5f60e3c0a3b16e07647b2ff9","5f675c34c4568e0566460c44","true","615.9250000491738","./Stimuli/ImagesPractice/SN75.jpg","83","","","","test","true","","83","","SN","SN75.jpg","","old","44","3","practice_recog","left","","","",""
"categorize-image","114","2110447","0.0-3.0-7.0-0.12","v5se8wubxo5mepu","practice_recog","5ce031fc7f65ee001a985a6b","5f60e3c0a3b16e07647b2ff9","5f675c34c4568e0566460c44","true","494.9150000466034","./Stimuli/ImagesPractice/SN221.jpg","83","","","","test","true","","83","","SN","SN221.jpg","","old","45","3","practice_recog","left","","","",""
"categorize-image","115","2111824","0.0-3.0-7.0-0.13","v5se8wubxo5mepu","practice_recog","5ce031fc7f65ee001a985a6b","5f60e3c0a3b16e07647b2ff9","5f675c34c4568e0566460c44","true","872.4850000580773","./Stimuli/ImagesPractice/LN15.jpg","83","","","","test","false","","76","","LN","LN15.jpg","","new","46","3","practice_recog","left","","","",""
"categorize-image","116","2113234","0.0-3.0-7.0-0.14","v5se8wubxo5mepu","practice_recog","5ce031fc7f65ee001a985a6b","5f60e3c0a3b16e07647b2ff9","5f675c34c4568e0566460c44","true","904.0249999379739","./Stimuli/ImagesPractice/SM35.jpg","76","","","","test","true","","76","","SM","SM35.jpg","","new","47","3","practice_recog","right","","","",""
"categorize-image","117","2114368","0.0-3.0-7.0-0.15","v5se8wubxo5mepu","practice_recog","5ce031fc7f65ee001a985a6b","5f60e3c0a3b16e07647b2ff9","5f675c34c4568e0566460c44","true","628.8799999747425","./Stimuli/ImagesPractice/LM147.jpg","83","","","","test","false","","76","","LM","LM147.jpg","","new","48","3","practice_recog","left","","","",""
"html-keyboard-response","118","2115956","0.0-3.0-8.0","v5se8wubxo5mepu","instructions","5ce031fc7f65ee001a985a6b","5f60e3c0a3b16e07647b2ff9","5f675c34c4568e0566460c44","false","1584.0249999891967","<div align=left> Great!<br><br>Are you ready to continue?<br>If you want to reread the instructions and redo the practice trials, please <br>press „Z“.<br><br>You can proceed when you are ready.<br><br>After the presentation of each object, you will receive an instruction whether to <br>remember or to forget the object.<br>We will test your memory of the following pictures only at the very end of <br>the experiment after all learning blocks are completed. <br><br>Press SPACE to CONTINUE when you are ready. </div>","32","","","","","","","","","","","","","","","","","","","",""
"html-keyboard-response","119","2116682","0.0-4.0-0.0","v5se8wubxo5mepu","instructions","5ce031fc7f65ee001a985a6b","5f60e3c0a3b16e07647b2ff9","5f675c34c4568e0566460c44","false","722.0949999755248","<div align=left> The actual experiment is about to start.<br>The practice trials are over!<br><br>Please always respond both fast and accurately!<br><br>Remember: <br> <br><li> Please place your index fingers on the <strong>'S'</strong> and <strong>'L'</strong> keys <br>to respond as fast and accurately as possible.</li><li> Every picture can be classified as either mechanical or non-mechanical.</li><li> If you do not respond in time or commit an error, you will receive a corresponding feedback.<br> Please try to respond as <strong> fast </strong> and as <strong> accurately as possible </strong>.</li><li> Remember the <span style='color: dodgerblue; font-size: 28px'>O</span> pictures. <br></li><li> Please minimize distractions and stay focused. </li><br><br>Press SPACE to START.</div>","32","","","","","","","","","","","","","","","","","","","",""
"html-keyboard-response","120","2117384","0.0-4.0-1.0-0.0","v5se8wubxo5mepu","prime","5ce031fc7f65ee001a985a6b","5f60e3c0a3b16e07647b2ff9","5f675c34c4568e0566460c44","false","null","<span style=""color: black; font-size: 48px"">N + M</span>","null","","","","resp_prompt","","","","","","","","","","","","","","","",""
"categorize-image","121","2117987","0.0-4.0-1.0-1.0","v5se8wubxo5mepu","prime","5ce031fc7f65ee001a985a6b","5f60e3c0a3b16e07647b2ff9","5f675c34c4568e0566460c44","true","595.3150000423193","./Stimuli/SelectedImages/LN/LN28.bmp","76","","","","test","false","N + M","83","switch","LN","LN28.bmp","forget","","49","3","prime1","right","","","",""
"html-keyboard-response","122","2118491","0.0-4.0-1.0-2.0-0.0","v5se8wubxo5mepu","prime","5ce031fc7f65ee001a985a6b","5f60e3c0a3b16e07647b2ff9","5f675c34c4568e0566460c44","false","null","<span style=""color: red; font-size: 48px"">Error!</span>","null","","","","feedback","","","","","","","","","","","","","","","",""
"html-keyboard-response","123","2120493","0.0-4.0-1.0-3.0","v5se8wubxo5mepu","prime","5ce031fc7f65ee001a985a6b","5f60e3c0a3b16e07647b2ff9","5f675c34c4568e0566460c44","false","null","<div style=""align-items: center; display: flex; color: darkorange; font-size: 90px""><b>ø</b></div>","null","","","","forget_cue","","","","","","","","","","","","","","","",""
"html-keyboard-response","124","2121197","0.0-4.0-1.0-0.1","v5se8wubxo5mepu","prime","5ce031fc7f65ee001a985a6b","5f60e3c0a3b16e07647b2ff9","5f675c34c4568e0566460c44","false","null","<span style=""color: black; font-size: 48px"">M + N</span>","null","","","","resp_prompt","","","","","","","","","","","","","","","",""
"categorize-image","125","2121678","0.0-4.0-1.0-1.1","v5se8wubxo5mepu","prime","5ce031fc7f65ee001a985a6b","5f60e3c0a3b16e07647b2ff9","5f675c34c4568e0566460c44","true","473.79999991972","./Stimuli/SelectedImages/SM/SM184.bmp","83","","","","test","true","M + N","83","switch","SM","SM184.bmp","forget","","50","3","prime1","left","","","",""
"html-keyboard-response","126","2123681","0.0-4.0-1.0-3.1","v5se8wubxo5mepu","prime","5ce031fc7f65ee001a985a6b","5f60e3c0a3b16e07647b2ff9","5f675c34c4568e0566460c44","false","null","<div style=""align-items: center; display: flex; color: darkorange; font-size: 90px""><b>ø</b></div>","null","","","","forget_cue","","","","","","","","","","","","","","","",""
"html-keyboard-response","127","2124383","0.0-4.0-1.0-0.2","v5se8wubxo5mepu","prime","5ce031fc7f65ee001a985a6b","5f60e3c0a3b16e07647b2ff9","5f675c34c4568e0566460c44","false","null","<span style=""color: black; font-size: 48px"">M + N</span>","null","","","","resp_prompt","","","","","","","","","","","","","","","",""
"categorize-image","128","2124866","0.0-4.0-1.0-1.2","v5se8wubxo5mepu","prime","5ce031fc7f65ee001a985a6b","5f60e3c0a3b16e07647b2ff9","5f675c34c4568e0566460c44","true","474.8899999540299","./Stimuli/SelectedImages/SN/SN60.bmp","76","","","","test","true","M + N","76","repetition","SN","SN60.bmp","remember","","51","3","prime1","right","","","",""
"html-keyboard-response","129","2126868","0.0-4.0-1.0-3.2","v5se8wubxo5mepu","prime","5ce031fc7f65ee001a985a6b","5f60e3c0a3b16e07647b2ff9","5f675c34c4568e0566460c44","false","null","<div style=""align-items: center; display: flex; color: dodgerblue; font-size: 90px""><b>o</b></div>","null","","","","forget_cue","","","","","","","","","","","","","","","",""
"html-keyboard-response","130","2127571","0.0-4.0-1.0-0.3","v5se8wubxo5mepu","prime","5ce031fc7f65ee001a985a6b","5f60e3c0a3b16e07647b2ff9","5f675c34c4568e0566460c44","false","null","<span style=""color: black; font-size: 48px"">M + N</span>","null","","","","resp_prompt","","","","","","","","","","","","","","","",""
"categorize-image","131","2129010","0.0-4.0-1.0-1.3","v5se8wubxo5mepu","prime","5ce031fc7f65ee001a985a6b","5f60e3c0a3b16e07647b2ff9","5f675c34c4568e0566460c44","true","1432.4950000736862","./Stimuli/SelectedImages/LN/LN177.bmp","76","","","","test","true","M + N","76","repetition","LN","LN177.bmp","remember","","52","3","prime1","right","","","",""
"html-keyboard-response","132","2131014","0.0-4.0-1.0-3.3","v5se8wubxo5mepu","prime","5ce031fc7f65ee001a985a6b","5f60e3c0a3b16e07647b2ff9","5f675c34c4568e0566460c44","false","null","<div style=""align-items: center; display: flex; color: dodgerblue; font-size: 90px""><b>o</b></div>","null","","","","forget_cue","","","","","","","","","","","","","","","",""
"html-keyboard-response","133","2131717","0.0-4.0-1.0-0.4","v5se8wubxo5mepu","prime","5ce031fc7f65ee001a985a6b","5f60e3c0a3b16e07647b2ff9","5f675c34c4568e0566460c44","false","null","<span style=""color: black; font-size: 48px"">M + N</span>","null","","","","resp_prompt","","","","","","","","","","","","","","","",""
"categorize-image","134","2132351","0.0-4.0-1.0-1.4","v5se8wubxo5mepu","prime","5ce031fc7f65ee001a985a6b","5f60e3c0a3b16e07647b2ff9","5f675c34c4568e0566460c44","true","625.9350000182167","./Stimuli/SelectedImages/LM/LM150.bmp","83","","","","test","true","M + N","83","repetition","LM","LM150.bmp","forget","","53","3","prime1","left","","","",""
"html-keyboard-response","135","2134355","0.0-4.0-1.0-3.4","v5se8wubxo5mepu","prime","5ce031fc7f65ee001a985a6b","5f60e3c0a3b16e07647b2ff9","5f675c34c4568e0566460c44","false","null","<div style=""align-items: center; display: flex; color: darkorange; font-size: 90px""><b>ø</b></div>","null","","","","forget_cue","","","","","","","","","","","","","","","",""
"html-keyboard-response","136","2135057","0.0-4.0-1.0-0.5","v5se8wubxo5mepu","prime","5ce031fc7f65ee001a985a6b","5f60e3c0a3b16e07647b2ff9","5f675c34c4568e0566460c44","false","null","<span style=""color: black; font-size: 48px"">M + N</span>","null","","","","resp_prompt","","","","","","","","","","","","","","","",""
"categorize-image","137","2135766","0.0-4.0-1.0-1.5","v5se8wubxo5mepu","prime","5ce031fc7f65ee001a985a6b","5f60e3c0a3b16e07647b2ff9","5f675c34c4568e0566460c44","true","700.1600000075996","./Stimuli/SelectedImages/SM/SM24.bmp","83","","","","test","true","M + N","83","switch","SM","SM24.bmp","forget","","54","3","prime1","left","","","",""
"html-keyboard-response","138","2137769","0.0-4.0-1.0-3.5","v5se8wubxo5mepu","prime","5ce031fc7f65ee001a985a6b","5f60e3c0a3b16e07647b2ff9","5f675c34c4568e0566460c44","false","null","<div style=""align-items: center; display: flex; color: darkorange; font-size: 90px""><b>ø</b></div>","null","","","","forget_cue","","","","","","","","","","","","","","","",""
"html-keyboard-response","139","2138472","0.0-4.0-1.0-0.6","v5se8wubxo5mepu","prime","5ce031fc7f65ee001a985a6b","5f60e3c0a3b16e07647b2ff9","5f675c34c4568e0566460c44","false","null","<span style=""color: black; font-size: 48px"">M + N</span>","null","","","","resp_prompt","","","","","","","","","","","","","","","",""
"categorize-image","140","2139194","0.0-4.0-1.0-1.6","v5se8wubxo5mepu","prime","5ce031fc7f65ee001a985a6b","5f60e3c0a3b16e07647b2ff9","5f675c34c4568e0566460c44","true","715.3549999929965","./Stimuli/SelectedImages/LM/LM58.bmp","83","","","","test","true","M + N","83","switch","LM","LM58.bmp","remember","","55","3","prime1","left","","","",""
"html-keyboard-response","141","2141197","0.0-4.0-1.0-3.6","v5se8wubxo5mepu","prime","5ce031fc7f65ee001a985a6b","5f60e3c0a3b16e07647b2ff9","5f675c34c4568e0566460c44","false","null","<div style=""align-items: center; display: flex; color: dodgerblue; font-size: 90px""><b>o</b></div>","null","","","","forget_cue","","","","","","","","","","","","","","","",""
"html-keyboard-response","142","2141902","0.0-4.0-1.0-0.7","v5se8wubxo5mepu","prime","5ce031fc7f65ee001a985a6b","5f60e3c0a3b16e07647b2ff9","5f675c34c4568e0566460c44","false","null","<span style=""color: black; font-size: 48px"">N + M</span>","null","","","","resp_prompt","","","","","","","","","","","","","","","",""
"categorize-image","143","2142901","0.0-4.0-1.0-1.7","v5se8wubxo5mepu","prime","5ce031fc7f65ee001a985a6b","5f60e3c0a3b16e07647b2ff9","5f675c34c4568e0566460c44","true","993.3000000892207","./Stimuli/SelectedImages/SM/SM195.bmp","76","","","","test","true","N + M","76","repetition","SM","SM195.bmp","remember","","56","3","prime1","right","","","",""
"html-keyboard-response","144","2144905","0.0-4.0-1.0-3.7","v5se8wubxo5mepu","prime","5ce031fc7f65ee001a985a6b","5f60e3c0a3b16e07647b2ff9","5f675c34c4568e0566460c44","false","null","<div style=""align-items: center; display: flex; color: dodgerblue; font-size: 90px""><b>o</b></div>","null","","","","forget_cue","","","","","","","","","","","","","","","",""
"html-keyboard-response","145","2145607","0.0-4.0-1.0-0.8","v5se8wubxo5mepu","prime","5ce031fc7f65ee001a985a6b","5f60e3c0a3b16e07647b2ff9","5f675c34c4568e0566460c44","false","null","<span style=""color: black; font-size: 48px"">M + N</span>","null","","","","resp_prompt","","","","","","","","","","","","","","","",""
"categorize-image","146","2146304","0.0-4.0-1.0-1.8","v5se8wubxo5mepu","prime","5ce031fc7f65ee001a985a6b","5f60e3c0a3b16e07647b2ff9","5f675c34c4568e0566460c44","true","690.6449999660254","./Stimuli/SelectedImages/LN/LN82.bmp","76","","","","test","true","M + N","76","switch","LN","LN82.bmp","remember","","57","3","prime1","right","","","",""
"html-keyboard-response","147","2148307","0.0-4.0-1.0-3.8","v5se8wubxo5mepu","prime","5ce031fc7f65ee001a985a6b","5f60e3c0a3b16e07647b2ff9","5f675c34c4568e0566460c44","false","null","<div style=""align-items: center; display: flex; color: dodgerblue; font-size: 90px""><b>o</b></div>","null","","","","forget_cue","","","","","","","","","","","","","","","",""
"html-keyboard-response","148","2149010","0.0-4.0-1.0-0.9","v5se8wubxo5mepu","prime","5ce031fc7f65ee001a985a6b","5f60e3c0a3b16e07647b2ff9","5f675c34c4568e0566460c44","false","null","<span style=""color: black; font-size: 48px"">M + N</span>","null","","","","resp_prompt","","","","","","","","","","","","","","","",""
"categorize-image","149","2149831","0.0-4.0-1.0-1.9","v5se8wubxo5mepu","prime","5ce031fc7f65ee001a985a6b","5f60e3c0a3b16e07647b2ff9","5f675c34c4568e0566460c44","true","814.6949999500066","./Stimuli/SelectedImages/LM/LM179.bmp","83","","","","test","true","M + N","83","switch","LM","LM179.bmp","remember","","58","3","prime1","left","","","",""
"html-keyboard-response","150","2151834","0.0-4.0-1.0-3.9","v5se8wubxo5mepu","prime","5ce031fc7f65ee001a985a6b","5f60e3c0a3b16e07647b2ff9","5f675c34c4568e0566460c44","false","null","<div style=""align-items: center; display: flex; color: dodgerblue; font-size: 90px""><b>o</b></div>","null","","","","forget_cue","","","","","","","","","","","","","","","",""
"html-keyboard-response","151","2152537","0.0-4.0-1.0-0.10","v5se8wubxo5mepu","prime","5ce031fc7f65ee001a985a6b","5f60e3c0a3b16e07647b2ff9","5f675c34c4568e0566460c44","false","null","<span style=""color: black; font-size: 48px"">N + M</span>","null","","","","resp_prompt","","","","","","","","","","","","","","","",""
"categorize-image","152","2153125","0.0-4.0-1.0-1.10","v5se8wubxo5mepu","prime","5ce031fc7f65ee001a985a6b","5f60e3c0a3b16e07647b2ff9","5f675c34c4568e0566460c44","true","579.8449999419972","./Stimuli/SelectedImages/SN/SN64.bmp","76","","","","test","false","N + M","83","repetition","SN","SN64.bmp","remember","","59","3","prime1","right","","","",""
"html-keyboard-response","153","2153628","0.0-4.0-1.0-2.10-0.10","v5se8wubxo5mepu","prime","5ce031fc7f65ee001a985a6b","5f60e3c0a3b16e07647b2ff9","5f675c34c4568e0566460c44","false","null","<span style=""color: red; font-size: 48px"">Error!</span>","null","","","","feedback","","","","","","","","","","","","","","","",""
"html-keyboard-response","154","2155632","0.0-4.0-1.0-3.10","v5se8wubxo5mepu","prime","5ce031fc7f65ee001a985a6b","5f60e3c0a3b16e07647b2ff9","5f675c34c4568e0566460c44","false","null","<div style=""align-items: center; display: flex; color: dodgerblue; font-size: 90px""><b>o</b></div>","null","","","","forget_cue","","","","","","","","","","","","","","","",""
"html-keyboard-response","155","2156335","0.0-4.0-1.0-0.11","v5se8wubxo5mepu","prime","5ce031fc7f65ee001a985a6b","5f60e3c0a3b16e07647b2ff9","5f675c34c4568e0566460c44","false","null","<span style=""color: black; font-size: 48px"">N + M</span>","null","","","","resp_prompt","","","","","","","","","","","","","","","",""
"categorize-image","156","2156894","0.0-4.0-1.0-1.11","v5se8wubxo5mepu","prime","5ce031fc7f65ee001a985a6b","5f60e3c0a3b16e07647b2ff9","5f675c34c4568e0566460c44","true","551.7149999504909","./Stimuli/SelectedImages/LM/LM103.bmp","83","","","","test","false","N + M","76","switch","LM","LM103.bmp","forget","","60","3","prime1","left","","","",""
"html-keyboard-response","157","2157398","0.0-4.0-1.0-2.11-0.11","v5se8wubxo5mepu","prime","5ce031fc7f65ee001a985a6b","5f60e3c0a3b16e07647b2ff9","5f675c34c4568e0566460c44","false","null","<span style=""color: red; font-size: 48px"">Error!</span>","null","","","","feedback","","","","","","","","","","","","","","","",""
"html-keyboard-response","158","2159401","0.0-4.0-1.0-3.11","v5se8wubxo5mepu","prime","5ce031fc7f65ee001a985a6b","5f60e3c0a3b16e07647b2ff9","5f675c34c4568e0566460c44","false","null","<div style=""align-items: center; display: flex; color: darkorange; font-size: 90px""><b>ø</b></div>","null","","","","forget_cue","","","","","","","","","","","","","","","",""
"html-keyboard-response","159","2160104","0.0-4.0-1.0-0.12","v5se8wubxo5mepu","prime","5ce031fc7f65ee001a985a6b","5f60e3c0a3b16e07647b2ff9","5f675c34c4568e0566460c44","false","null","<span style=""color: black; font-size: 48px"">N + M</span>","null","","","","resp_prompt","","","","","","","","","","","","","","","",""
"categorize-image","160","2160785","0.0-4.0-1.0-1.12","v5se8wubxo5mepu","prime","5ce031fc7f65ee001a985a6b","5f60e3c0a3b16e07647b2ff9","5f675c34c4568e0566460c44","true","672.60500008706","./Stimuli/SelectedImages/LN/LN59.bmp","76","","","","test","false","N + M","83","switch","LN","LN59.bmp","remember","","61","3","prime1","right","","","",""
"html-keyboard-response","161","2161289","0.0-4.0-1.0-2.12-0.12","v5se8wubxo5mepu","prime","5ce031fc7f65ee001a985a6b","5f60e3c0a3b16e07647b2ff9","5f675c34c4568e0566460c44","false","null","<span style=""color: red; font-size: 48px"">Error!</span>","null","","","","feedback","","","","","","","","","","","","","","","",""
"html-keyboard-response","162","2163292","0.0-4.0-1.0-3.12","v5se8wubxo5mepu","prime","5ce031fc7f65ee001a985a6b","5f60e3c0a3b16e07647b2ff9","5f675c34c4568e0566460c44","false","null","<div style=""align-items: center; display: flex; color: dodgerblue; font-size: 90px""><b>o</b></div>","null","","","","forget_cue","","","","","","","","","","","","","","","",""
"html-keyboard-response","163","2163994","0.0-4.0-1.0-0.13","v5se8wubxo5mepu","prime","5ce031fc7f65ee001a985a6b","5f60e3c0a3b16e07647b2ff9","5f675c34c4568e0566460c44","false","null","<span style=""color: black; font-size: 48px"">N + M</span>","null","","","","resp_prompt","","","","","","","","","","","","","","","",""
"categorize-image","164","2164610","0.0-4.0-1.0-1.13","v5se8wubxo5mepu","prime","5ce031fc7f65ee001a985a6b","5f60e3c0a3b16e07647b2ff9","5f675c34c4568e0566460c44","true","609.7399999853224","./Stimuli/SelectedImages/SN/SN49.bmp","76","","","","test","false","N + M","83","repetition","SN","SN49.bmp","forget","","62","3","prime1","right","","","",""
"html-keyboard-response","165","2165116","0.0-4.0-1.0-2.13-0.13","v5se8wubxo5mepu","prime","5ce031fc7f65ee001a985a6b","5f60e3c0a3b16e07647b2ff9","5f675c34c4568e0566460c44","false","null","<span style=""color: red; font-size: 48px"">Error!</span>","null","","","","feedback","","","","","","","","","","","","","","","",""
"html-keyboard-response","166","2167119","0.0-4.0-1.0-3.13","v5se8wubxo5mepu","prime","5ce031fc7f65ee001a985a6b","5f60e3c0a3b16e07647b2ff9","5f675c34c4568e0566460c44","false","null","<div style=""align-items: center; display: flex; color: darkorange; font-size: 90px""><b>ø</b></div>","null","","","","forget_cue","","","","","","","","","","","","","","","",""
"html-keyboard-response","167","2167822","0.0-4.0-1.0-0.14","v5se8wubxo5mepu","prime","5ce031fc7f65ee001a985a6b","5f60e3c0a3b16e07647b2ff9","5f675c34c4568e0566460c44","false","null","<span style=""color: black; font-size: 48px"">N + M</span>","null","","","","resp_prompt","","","","","","","","","","","","","","","",""
"categorize-image","168","2168506","0.0-4.0-1.0-1.14","v5se8wubxo5mepu","prime","5ce031fc7f65ee001a985a6b","5f60e3c0a3b16e07647b2ff9","5f675c34c4568e0566460c44","true","677.7700000675395","./Stimuli/SelectedImages/SM/SM213.bmp","83","","","","test","false","N + M","76","switch","SM","SM213.bmp","forget","","63","3","prime1","left","","","",""
"html-keyboard-response","169","2169010","0.0-4.0-1.0-2.14-0.14","v5se8wubxo5mepu","prime","5ce031fc7f65ee001a985a6b","5f60e3c0a3b16e07647b2ff9","5f675c34c4568e0566460c44","false","null","<span style=""color: red; font-size: 48px"">Error!</span>","null","","","","feedback","","","","","","","","","","","","","","","",""
"html-keyboard-response","170","2171012","0.0-4.0-1.0-3.14","v5se8wubxo5mepu","prime","5ce031fc7f65ee001a985a6b","5f60e3c0a3b16e07647b2ff9","5f675c34c4568e0566460c44","false","null","<div style=""align-items: center; display: flex; color: darkorange; font-size: 90px""><b>ø</b></div>","null","","","","forget_cue","","","","","","","","","","","","","","","",""
"html-keyboard-response","171","2171714","0.0-4.0-1.0-0.15","v5se8wubxo5mepu","prime","5ce031fc7f65ee001a985a6b","5f60e3c0a3b16e07647b2ff9","5f675c34c4568e0566460c44","false","null","<span style=""color: black; font-size: 48px"">M + N</span>","null","","","","resp_prompt","","","","","","","","","","","","","","","",""
"categorize-image","172","2172530","0.0-4.0-1.0-1.15","v5se8wubxo5mepu","prime","5ce031fc7f65ee001a985a6b","5f60e3c0a3b16e07647b2ff9","5f675c34c4568e0566460c44","true","809.0949999168515","./Stimuli/SelectedImages/SM/SM108.bmp","83","","","","test","true","M + N","83","repetition","SM","SM108.bmp","forget","","64","3","prime1","left","","","",""
"html-keyboard-response","173","2174533","0.0-4.0-1.0-3.15","v5se8wubxo5mepu","prime","5ce031fc7f65ee001a985a6b","5f60e3c0a3b16e07647b2ff9","5f675c34c4568e0566460c44","false","null","<div style=""align-items: center; display: flex; color: darkorange; font-size: 90px""><b>ø</b></div>","null","","","","forget_cue","","","","","","","","","","","","","","","",""
"html-keyboard-response","174","2175237","0.0-4.0-1.0-0.16","v5se8wubxo5mepu","prime","5ce031fc7f65ee001a985a6b","5f60e3c0a3b16e07647b2ff9","5f675c34c4568e0566460c44","false","null","<span style=""color: black; font-size: 48px"">N + M</span>","null","","","","resp_prompt","","","","","","","","","","","","","","","",""
"categorize-image","175","2176287","0.0-4.0-1.0-1.16","v5se8wubxo5mepu","prime","5ce031fc7f65ee001a985a6b","5f60e3c0a3b16e07647b2ff9","5f675c34c4568e0566460c44","true","1042.6600000355393","./Stimuli/SelectedImages/LM/LM48.bmp","76","","","","test","true","N + M","76","switch","LM","LM48.bmp","remember","","65","3","prime1","right","","","",""
"html-keyboard-response","176","2178291","0.0-4.0-1.0-3.16","v5se8wubxo5mepu","prime","5ce031fc7f65ee001a985a6b","5f60e3c0a3b16e07647b2ff9","5f675c34c4568e0566460c44","false","null","<div style=""align-items: center; display: flex; color: dodgerblue; font-size: 90px""><b>o</b></div>","null","","","","forget_cue","","","","","","","","","","","","","","","",""
"html-keyboard-response","177","2178993","0.0-4.0-1.0-0.17","v5se8wubxo5mepu","prime","5ce031fc7f65ee001a985a6b","5f60e3c0a3b16e07647b2ff9","5f675c34c4568e0566460c44","false","null","<span style=""color: black; font-size: 48px"">N + M</span>","null","","","","resp_prompt","","","","","","","","","","","","","","","",""
"categorize-image","178","2179911","0.0-4.0-1.0-1.17","v5se8wubxo5mepu","prime","5ce031fc7f65ee001a985a6b","5f60e3c0a3b16e07647b2ff9","5f675c34c4568e0566460c44","true","910.2349999593571","./Stimuli/SelectedImages/SN/SN111.bmp","83","","","","test","true","N + M","83","switch","SN","SN111.bmp","forget","","66","3","prime1","left","","","",""
"html-keyboard-response","179","2181915","0.0-4.0-1.0-3.17","v5se8wubxo5mepu","prime","5ce031fc7f65ee001a985a6b","5f60e3c0a3b16e07647b2ff9","5f675c34c4568e0566460c44","false","null","<div style=""align-items: center; display: flex; color: darkorange; font-size: 90px""><b>ø</b></div>","null","","","","forget_cue","","","","","","","","","","","","","","","",""
"html-keyboard-response","180","2182618","0.0-4.0-1.0-0.18","v5se8wubxo5mepu","prime","5ce031fc7f65ee001a985a6b","5f60e3c0a3b16e07647b2ff9","5f675c34c4568e0566460c44","false","null","<span style=""color: black; font-size: 48px"">N + M</span>","null","","","","resp_prompt","","","","","","","","","","","","","","","",""
"categorize-image","181","2184000","0.0-4.0-1.0-1.18","v5se8wubxo5mepu","prime","5ce031fc7f65ee001a985a6b","5f60e3c0a3b16e07647b2ff9","5f675c34c4568e0566460c44","true","1374.225000035949","./Stimuli/SelectedImages/LM/LM167.bmp","83","","","","test","false","N + M","76","switch","LM","LM167.bmp","forget","","67","3","prime1","left","","","",""
"html-keyboard-response","182","2184503","0.0-4.0-1.0-2.18-0.18","v5se8wubxo5mepu","prime","5ce031fc7f65ee001a985a6b","5f60e3c0a3b16e07647b2ff9","5f675c34c4568e0566460c44","false","null","<span style=""color: red; font-size: 48px"">Error!</span>","null","","","","feedback","","","","","","","","","","","","","","","",""
"html-keyboard-response","183","2186506","0.0-4.0-1.0-3.18","v5se8wubxo5mepu","prime","5ce031fc7f65ee001a985a6b","5f60e3c0a3b16e07647b2ff9","5f675c34c4568e0566460c44","false","null","<div style=""align-items: center; display: flex; color: darkorange; font-size: 90px""><b>ø</b></div>","null","","","","forget_cue","","","","","","","","","","","","","","","",""
"html-keyboard-response","184","2187208","0.0-4.0-1.0-0.19","v5se8wubxo5mepu","prime","5ce031fc7f65ee001a985a6b","5f60e3c0a3b16e07647b2ff9","5f675c34c4568e0566460c44","false","null","<span style=""color: black; font-size: 48px"">N + M</span>","null","","","","resp_prompt","","","","","","","","","","","","","","","",""
"categorize-image","185","2188113","0.0-4.0-1.0-1.19","v5se8wubxo5mepu","prime","5ce031fc7f65ee001a985a6b","5f60e3c0a3b16e07647b2ff9","5f675c34c4568e0566460c44","true","899.0399999311194","./Stimuli/SelectedImages/LM/LM51.bmp","76","","","","test","true","N + M","76","repetition","LM","LM51.bmp","remember","","68","3","prime1","right","","","",""
"html-keyboard-response","186","2190117","0.0-4.0-1.0-3.19","v5se8wubxo5mepu","prime","5ce031fc7f65ee001a985a6b","5f60e3c0a3b16e07647b2ff9","5f675c34c4568e0566460c44","false","null","<div style=""align-items: center; display: flex; color: dodgerblue; font-size: 90px""><b>o</b></div>","null","","","","forget_cue","","","","","","","","","","","","","","","",""
"html-keyboard-response","187","2190820","0.0-4.0-1.0-0.20","v5se8wubxo5mepu","prime","5ce031fc7f65ee001a985a6b","5f60e3c0a3b16e07647b2ff9","5f675c34c4568e0566460c44","false","null","<span style=""color: black; font-size: 48px"">M + N</span>","null","","","","resp_prompt","","","","","","","","","","","","","","","",""
"categorize-image","188","2191395","0.0-4.0-1.0-1.20","v5se8wubxo5mepu","prime","5ce031fc7f65ee001a985a6b","5f60e3c0a3b16e07647b2ff9","5f675c34c4568e0566460c44","true","567.3300001071766","./Stimuli/SelectedImages/SN/SN187.bmp","76","","","","test","true","M + N","76","repetition","SN","SN187.bmp","forget","","69","3","prime1","right","","","",""
"html-keyboard-response","189","2193397","0.0-4.0-1.0-3.20","v5se8wubxo5mepu","prime","5ce031fc7f65ee001a985a6b","5f60e3c0a3b16e07647b2ff9","5f675c34c4568e0566460c44","false","null","<div style=""align-items: center; display: flex; color: darkorange; font-size: 90px""><b>ø</b></div>","null","","","","forget_cue","","","","","","","","","","","","","","","",""
"html-keyboard-response","190","2194101","0.0-4.0-1.0-0.21","v5se8wubxo5mepu","prime","5ce031fc7f65ee001a985a6b","5f60e3c0a3b16e07647b2ff9","5f675c34c4568e0566460c44","false","null","<span style=""color: black; font-size: 48px"">M + N</span>","null","","","","resp_prompt","","","","","","","","","","","","","","","",""
"categorize-image","191","2195201","0.0-4.0-1.0-1.21","v5se8wubxo5mepu","prime","5ce031fc7f65ee001a985a6b","5f60e3c0a3b16e07647b2ff9","5f675c34c4568e0566460c44","true","1092.3750000074506","./Stimuli/SelectedImages/LN/LN92.bmp","76","","","","test","true","M + N","76","switch","LN","LN92.bmp","forget","","70","3","prime1","right","","","",""
"html-keyboard-response","192","2197205","0.0-4.0-1.0-3.21","v5se8wubxo5mepu","prime","5ce031fc7f65ee001a985a6b","5f60e3c0a3b16e07647b2ff9","5f675c34c4568e0566460c44","false","null","<div style=""align-items: center; display: flex; color: darkorange; font-size: 90px""><b>ø</b></div>","null","","","","forget_cue","","","","","","","","","","","","","","","",""
"html-keyboard-response","193","2197908","0.0-4.0-1.0-0.22","v5se8wubxo5mepu","prime","5ce031fc7f65ee001a985a6b","5f60e3c0a3b16e07647b2ff9","5f675c34c4568e0566460c44","false","null","<span style=""color: black; font-size: 48px"">N + M</span>","null","","","","resp_prompt","","","","","","","","","","","","","","","",""
"categorize-image","194","2198512","0.0-4.0-1.0-1.22","v5se8wubxo5mepu","prime","5ce031fc7f65ee001a985a6b","5f60e3c0a3b16e07647b2ff9","5f675c34c4568e0566460c44","true","598.7650000024587","./Stimuli/SelectedImages/SM/SM76.bmp","83","","","","test","false","N + M","76","switch","SM","SM76.bmp","forget","","71","3","prime1","left","","","",""
"html-keyboard-response","195","2199015","0.0-4.0-1.0-2.22-0.22","v5se8wubxo5mepu","prime","5ce031fc7f65ee001a985a6b","5f60e3c0a3b16e07647b2ff9","5f675c34c4568e0566460c44","false","null","<span style=""color: red; font-size: 48px"">Error!</span>","null","","","","feedback","","","","","","","","","","","","","","","",""
"html-keyboard-response","196","2201018","0.0-4.0-1.0-3.22","v5se8wubxo5mepu","prime","5ce031fc7f65ee001a985a6b","5f60e3c0a3b16e07647b2ff9","5f675c34c4568e0566460c44","false","null","<div style=""align-items: center; display: flex; color: darkorange; font-size: 90px""><b>ø</b></div>","null","","","","forget_cue","","","","","","","","","","","","","","","",""
"html-keyboard-response","197","2201721","0.0-4.0-1.0-0.23","v5se8wubxo5mepu","prime","5ce031fc7f65ee001a985a6b","5f60e3c0a3b16e07647b2ff9","5f675c34c4568e0566460c44","false","null","<span style=""color: black; font-size: 48px"">N + M</span>","null","","","","resp_prompt","","","","","","","","","","","","","","","",""
"categorize-image","198","2202464","0.0-4.0-1.0-1.23","v5se8wubxo5mepu","prime","5ce031fc7f65ee001a985a6b","5f60e3c0a3b16e07647b2ff9","5f675c34c4568e0566460c44","true","735.4899999918416","./Stimuli/SelectedImages/SN/SN128.bmp","76","","","","test","false","N + M","83","switch","SN","SN128.bmp","remember","","72","3","prime1","right","","","",""
"html-keyboard-response","199","2202967","0.0-4.0-1.0-2.23-0.23","v5se8wubxo5mepu","prime","5ce031fc7f65ee001a985a6b","5f60e3c0a3b16e07647b2ff9","5f675c34c4568e0566460c44","false","null","<span style=""color: red; font-size: 48px"">Error!</span>","null","","","","feedback","","","","","","","","","","","","","","","",""
"html-keyboard-response","200","2204970","0.0-4.0-1.0-3.23","v5se8wubxo5mepu","prime","5ce031fc7f65ee001a985a6b","5f60e3c0a3b16e07647b2ff9","5f675c34c4568e0566460c44","false","null","<div style=""align-items: center; display: flex; color: dodgerblue; font-size: 90px""><b>o</b></div>","null","","","","forget_cue","","","","","","","","","","","","","","","",""
"html-keyboard-response","201","2205672","0.0-4.0-1.0-0.24","v5se8wubxo5mepu","prime","5ce031fc7f65ee001a985a6b","5f60e3c0a3b16e07647b2ff9","5f675c34c4568e0566460c44","false","null","<span style=""color: black; font-size: 48px"">M + N</span>","null","","","","resp_prompt","","","","","","","","","","","","","","","",""
"categorize-image","202","2206456","0.0-4.0-1.0-1.24","v5se8wubxo5mepu","prime","5ce031fc7f65ee001a985a6b","5f60e3c0a3b16e07647b2ff9","5f675c34c4568e0566460c44","true","777.1199999842793","./Stimuli/SelectedImages/LN/LN42.bmp","83","","","","test","false","M + N","76","switch","LN","LN42.bmp","remember","","73","3","prime1","left","","","",""
"html-keyboard-response","203","2206959","0.0-4.0-1.0-2.24-0.24","v5se8wubxo5mepu","prime","5ce031fc7f65ee001a985a6b","5f60e3c0a3b16e07647b2ff9","5f675c34c4568e0566460c44","false","null","<span style=""color: red; font-size: 48px"">Error!</span>","null","","","","feedback","","","","","","","","","","","","","","","",""
"html-keyboard-response","204","2208962","0.0-4.0-1.0-3.24","v5se8wubxo5mepu","prime","5ce031fc7f65ee001a985a6b","5f60e3c0a3b16e07647b2ff9","5f675c34c4568e0566460c44","false","null","<div style=""align-items: center; display: flex; color: dodgerblue; font-size: 90px""><b>o</b></div>","null","","","","forget_cue","","","","","","","","","","","","","","","",""
"html-keyboard-response","205","2209666","0.0-4.0-1.0-0.25","v5se8wubxo5mepu","prime","5ce031fc7f65ee001a985a6b","5f60e3c0a3b16e07647b2ff9","5f675c34c4568e0566460c44","false","null","<span style=""color: black; font-size: 48px"">N + M</span>","null","","","","resp_prompt","","","","","","","","","","","","","","","",""
"categorize-image","206","2210749","0.0-4.0-1.0-1.25","v5se8wubxo5mepu","prime","5ce031fc7f65ee001a985a6b","5f60e3c0a3b16e07647b2ff9","5f675c34c4568e0566460c44","true","1076.465000049211","./Stimuli/SelectedImages/LN/LN150.bmp","76","","","","test","false","N + M","83","switch","LN","LN150.bmp","remember","","74","3","prime1","right","","","",""
"html-keyboard-response","207","2211252","0.0-4.0-1.0-2.25-0.25","v5se8wubxo5mepu","prime","5ce031fc7f65ee001a985a6b","5f60e3c0a3b16e07647b2ff9","5f675c34c4568e0566460c44","false","null","<span style=""color: red; font-size: 48px"">Error!</span>","null","","","","feedback","","","","","","","","","","","","","","","",""
"html-keyboard-response","208","2213254","0.0-4.0-1.0-3.25","v5se8wubxo5mepu","prime","5ce031fc7f65ee001a985a6b","5f60e3c0a3b16e07647b2ff9","5f675c34c4568e0566460c44","false","null","<div style=""align-items: center; display: flex; color: dodgerblue; font-size: 90px""><b>o</b></div>","null","","","","forget_cue","","","","","","","","","","","","","","","",""
"html-keyboard-response","209","2213957","0.0-4.0-1.0-0.26","v5se8wubxo5mepu","prime","5ce031fc7f65ee001a985a6b","5f60e3c0a3b16e07647b2ff9","5f675c34c4568e0566460c44","false","null","<span style=""color: black; font-size: 48px"">M + N</span>","null","","","","resp_prompt","","","","","","","","","","","","","","","",""
"categorize-image","210","2214511","0.0-4.0-1.0-1.26","v5se8wubxo5mepu","prime","5ce031fc7f65ee001a985a6b","5f60e3c0a3b16e07647b2ff9","5f675c34c4568e0566460c44","true","546.3699999963865","./Stimuli/SelectedImages/LM/LM216.bmp","83","","","","test","true","M + N","83","switch","LM","LM216.bmp","forget","","75","3","prime1","left","","","",""
"html-keyboard-response","211","2216514","0.0-4.0-1.0-3.26","v5se8wubxo5mepu","prime","5ce031fc7f65ee001a985a6b","5f60e3c0a3b16e07647b2ff9","5f675c34c4568e0566460c44","false","null","<div style=""align-items: center; display: flex; color: darkorange; font-size: 90px""><b>ø</b></div>","null","","","","forget_cue","","","","","","","","","","","","","","","",""
"html-keyboard-response","212","2217216","0.0-4.0-1.0-0.27","v5se8wubxo5mepu","prime","5ce031fc7f65ee001a985a6b","5f60e3c0a3b16e07647b2ff9","5f675c34c4568e0566460c44","false","null","<span style=""color: black; font-size: 48px"">M + N</span>","null","","","","resp_prompt","","","","","","","","","","","","","","","",""
"categorize-image","213","2217762","0.0-4.0-1.0-1.27","v5se8wubxo5mepu","prime","5ce031fc7f65ee001a985a6b","5f60e3c0a3b16e07647b2ff9","5f675c34c4568e0566460c44","true","539.0650000190362","./Stimuli/SelectedImages/SN/SN140.bmp","76","","","","test","true","M + N","76","switch","SN","SN140.bmp","remember","","76","3","prime1","right","","","",""
"html-keyboard-response","214","2219764","0.0-4.0-1.0-3.27","v5se8wubxo5mepu","prime","5ce031fc7f65ee001a985a6b","5f60e3c0a3b16e07647b2ff9","5f675c34c4568e0566460c44","false","null","<div style=""align-items: center; display: flex; color: dodgerblue; font-size: 90px""><b>o</b></div>","null","","","","forget_cue","","","","","","","","","","","","","","","",""
"html-keyboard-response","215","2220467","0.0-4.0-1.0-0.28","v5se8wubxo5mepu","prime","5ce031fc7f65ee001a985a6b","5f60e3c0a3b16e07647b2ff9","5f675c34c4568e0566460c44","false","null","<span style=""color: black; font-size: 48px"">M + N</span>","null","","","","resp_prompt","","","","","","","","","","","","","","","",""
"categorize-image","216","2221536","0.0-4.0-1.0-1.28","v5se8wubxo5mepu","prime","5ce031fc7f65ee001a985a6b","5f60e3c0a3b16e07647b2ff9","5f675c34c4568e0566460c44","true","1061.4749999949709","./Stimuli/SelectedImages/SN/SN18.bmp","76","","","","test","true","M + N","76","switch","SN","SN18.bmp","forget","","77","3","prime1","right","","","",""
"html-keyboard-response","217","2223540","0.0-4.0-1.0-3.28","v5se8wubxo5mepu","prime","5ce031fc7f65ee001a985a6b","5f60e3c0a3b16e07647b2ff9","5f675c34c4568e0566460c44","false","null","<div style=""align-items: center; display: flex; color: darkorange; font-size: 90px""><b>ø</b></div>","null","","","","forget_cue","","","","","","","","","","","","","","","",""
"html-keyboard-response","218","2224243","0.0-4.0-1.0-0.29","v5se8wubxo5mepu","prime","5ce031fc7f65ee001a985a6b","5f60e3c0a3b16e07647b2ff9","5f675c34c4568e0566460c44","false","null","<span style=""color: black; font-size: 48px"">N + M</span>","null","","","","resp_prompt","","","","","","","","","","","","","","","",""
"categorize-image","219","2225172","0.0-4.0-1.0-1.29","v5se8wubxo5mepu","prime","5ce031fc7f65ee001a985a6b","5f60e3c0a3b16e07647b2ff9","5f675c34c4568e0566460c44","true","921.6849999502301","./Stimuli/SelectedImages/SN/SN27.bmp","83","","","","test","true","N + M","83","repetition","SN","SN27.bmp","forget","","78","3","prime1","left","","","",""
"html-keyboard-response","220","2227176","0.0-4.0-1.0-3.29","v5se8wubxo5mepu","prime","5ce031fc7f65ee001a985a6b","5f60e3c0a3b16e07647b2ff9","5f675c34c4568e0566460c44","false","null","<div style=""align-items: center; display: flex; color: darkorange; font-size: 90px""><b>ø</b></div>","null","","","","forget_cue","","","","","","","","","","","","","","","",""
"html-keyboard-response","221","2227878","0.0-4.0-1.0-0.30","v5se8wubxo5mepu","prime","5ce031fc7f65ee001a985a6b","5f60e3c0a3b16e07647b2ff9","5f675c34c4568e0566460c44","false","null","<span style=""color: black; font-size: 48px"">M + N</span>","null","","","","resp_prompt","","","","","","","","","","","","","","","",""
"categorize-image","222","2228422","0.0-4.0-1.0-1.30","v5se8wubxo5mepu","prime","5ce031fc7f65ee001a985a6b","5f60e3c0a3b16e07647b2ff9","5f675c34c4568e0566460c44","true","539.0100000659004","./Stimuli/SelectedImages/SN/SN93.bmp","76","","","","test","true","M + N","76","repetition","SN","SN93.bmp","remember","","79","3","prime1","right","","","",""
"html-keyboard-response","223","2230425","0.0-4.0-1.0-3.30","v5se8wubxo5mepu","prime","5ce031fc7f65ee001a985a6b","5f60e3c0a3b16e07647b2ff9","5f675c34c4568e0566460c44","false","null","<div style=""align-items: center; display: flex; color: dodgerblue; font-size: 90px""><b>o</b></div>","null","","","","forget_cue","","","","","","","","","","","","","","","",""
"html-keyboard-response","224","2231128","0.0-4.0-1.0-0.31","v5se8wubxo5mepu","prime","5ce031fc7f65ee001a985a6b","5f60e3c0a3b16e07647b2ff9","5f675c34c4568e0566460c44","false","null","<span style=""color: black; font-size: 48px"">N + M</span>","null","","","","resp_prompt","","","","","","","","","","","","","","","",""
"categorize-image","225","2231942","0.0-4.0-1.0-1.31","v5se8wubxo5mepu","prime","5ce031fc7f65ee001a985a6b","5f60e3c0a3b16e07647b2ff9","5f675c34c4568e0566460c44","true","807.4050000868738","./Stimuli/SelectedImages/LM/LM235.bmp","83","","","","test","false","N + M","76","repetition","LM","LM235.bmp","remember","","80","3","prime1","left","","","",""
"html-keyboard-response","226","2232446","0.0-4.0-1.0-2.31-0.31","v5se8wubxo5mepu","prime","5ce031fc7f65ee001a985a6b","5f60e3c0a3b16e07647b2ff9","5f675c34c4568e0566460c44","false","null","<span style=""color: red; font-size: 48px"">Error!</span>","null","","","","feedback","","","","","","","","","","","","","","","",""
"html-keyboard-response","227","2234448","0.0-4.0-1.0-3.31","v5se8wubxo5mepu","prime","5ce031fc7f65ee001a985a6b","5f60e3c0a3b16e07647b2ff9","5f675c34c4568e0566460c44","false","null","<div style=""align-items: center; display: flex; color: dodgerblue; font-size: 90px""><b>o</b></div>","null","","","","forget_cue","","","","","","","","","","","","","","","",""
"html-keyboard-response","228","2235151","0.0-4.0-1.0-0.32","v5se8wubxo5mepu","prime","5ce031fc7f65ee001a985a6b","5f60e3c0a3b16e07647b2ff9","5f675c34c4568e0566460c44","false","null","<span style=""color: black; font-size: 48px"">M + N</span>","null","","","","resp_prompt","","","","","","","","","","","","","","","",""
"categorize-image","229","2235757","0.0-4.0-1.0-1.32","v5se8wubxo5mepu","prime","5ce031fc7f65ee001a985a6b","5f60e3c0a3b16e07647b2ff9","5f675c34c4568e0566460c44","true","599.2199999745935","./Stimuli/SelectedImages/SM/SM106.bmp","83","","","","test","true","M + N","83","repetition","SM","SM106.bmp","forget","","81","3","prime1","left","","","",""
"html-keyboard-response","230","2237761","0.0-4.0-1.0-3.32","v5se8wubxo5mepu","prime","5ce031fc7f65ee001a985a6b","5f60e3c0a3b16e07647b2ff9","5f675c34c4568e0566460c44","false","null","<div style=""align-items: center; display: flex; color: darkorange; font-size: 90px""><b>ø</b></div>","null","","","","forget_cue","","","","","","","","","","","","","","","",""
"html-keyboard-response","231","2238463","0.0-4.0-1.0-0.33","v5se8wubxo5mepu","prime","5ce031fc7f65ee001a985a6b","5f60e3c0a3b16e07647b2ff9","5f675c34c4568e0566460c44","false","null","<span style=""color: black; font-size: 48px"">N + M</span>","null","","","","resp_prompt","","","","","","","","","","","","","","","",""
"categorize-image","232","2239226","0.0-4.0-1.0-1.33","v5se8wubxo5mepu","prime","5ce031fc7f65ee001a985a6b","5f60e3c0a3b16e07647b2ff9","5f675c34c4568e0566460c44","true","754.190000006929","./Stimuli/SelectedImages/LN/LN9.bmp","76","","","","test","false","N + M","83","repetition","LN","LN9.bmp","remember","","82","3","prime1","right","","","",""
"html-keyboard-response","233","2239730","0.0-4.0-1.0-2.33-0.33","v5se8wubxo5mepu","prime","5ce031fc7f65ee001a985a6b","5f60e3c0a3b16e07647b2ff9","5f675c34c4568e0566460c44","false","null","<span style=""color: red; font-size: 48px"">Error!</span>","null","","","","feedback","","","","","","","","","","","","","","","",""
"html-keyboard-response","234","2241733","0.0-4.0-1.0-3.33","v5se8wubxo5mepu","prime","5ce031fc7f65ee001a985a6b","5f60e3c0a3b16e07647b2ff9","5f675c34c4568e0566460c44","false","null","<div style=""align-items: center; display: flex; color: dodgerblue; font-size: 90px""><b>o</b></div>","null","","","","forget_cue","","","","","","","","","","","","","","","",""
"html-keyboard-response","235","2242436","0.0-4.0-1.0-0.34","v5se8wubxo5mepu","prime","5ce031fc7f65ee001a985a6b","5f60e3c0a3b16e07647b2ff9","5f675c34c4568e0566460c44","false","null","<span style=""color: black; font-size: 48px"">M + N</span>","null","","","","resp_prompt","","","","","","","","","","","","","","","",""
"categorize-image","236","2243410","0.0-4.0-1.0-1.34","v5se8wubxo5mepu","prime","5ce031fc7f65ee001a985a6b","5f60e3c0a3b16e07647b2ff9","5f675c34c4568e0566460c44","true","967.0400000177324","./Stimuli/SelectedImages/LM/LM59.bmp","83","","","","test","true","M + N","83","repetition","LM","LM59.bmp","remember","","83","3","prime1","left","","","",""
"html-keyboard-response","237","2245412","0.0-4.0-1.0-3.34","v5se8wubxo5mepu","prime","5ce031fc7f65ee001a985a6b","5f60e3c0a3b16e07647b2ff9","5f675c34c4568e0566460c44","false","null","<div style=""align-items: center; display: flex; color: dodgerblue; font-size: 90px""><b>o</b></div>","null","","","","forget_cue","","","","","","","","","","","","","","","",""
"html-keyboard-response","238","2246116","0.0-4.0-1.0-0.35","v5se8wubxo5mepu","prime","5ce031fc7f65ee001a985a6b","5f60e3c0a3b16e07647b2ff9","5f675c34c4568e0566460c44","false","null","<span style=""color: black; font-size: 48px"">M + N</span>","null","","","","resp_prompt","","","","","","","","","","","","","","","",""
"categorize-image","239","2246682","0.0-4.0-1.0-1.35","v5se8wubxo5mepu","prime","5ce031fc7f65ee001a985a6b","5f60e3c0a3b16e07647b2ff9","5f675c34c4568e0566460c44","true","559.1900000581518","./Stimuli/SelectedImages/SM/SM78.bmp","83","","","","test","true","M + N","83","switch","SM","SM78.bmp","remember","","84","3","prime1","left","","","",""
"html-keyboard-response","240","2248686","0.0-4.0-1.0-3.35","v5se8wubxo5mepu","prime","5ce031fc7f65ee001a985a6b","5f60e3c0a3b16e07647b2ff9","5f675c34c4568e0566460c44","false","null","<div style=""align-items: center; display: flex; color: dodgerblue; font-size: 90px""><b>o</b></div>","null","","","","forget_cue","","","","","","","","","","","","","","","",""
"html-keyboard-response","241","2249388","0.0-4.0-1.0-0.36","v5se8wubxo5mepu","prime","5ce031fc7f65ee001a985a6b","5f60e3c0a3b16e07647b2ff9","5f675c34c4568e0566460c44","false","null","<span style=""color: black; font-size: 48px"">M + N</span>","null","","","","resp_prompt","","","","","","","","","","","","","","","",""
"categorize-image","242","2249863","0.0-4.0-1.0-1.36","v5se8wubxo5mepu","prime","5ce031fc7f65ee001a985a6b","5f60e3c0a3b16e07647b2ff9","5f675c34c4568e0566460c44","true","469.4100000197068","./Stimuli/SelectedImages/SM/SM74.bmp","83","","","","test","true","M + N","83","switch","SM","SM74.bmp","remember","","85","3","prime1","left","","","",""
"html-keyboard-response","243","2251867","0.0-4.0-1.0-3.36","v5se8wubxo5mepu","prime","5ce031fc7f65ee001a985a6b","5f60e3c0a3b16e07647b2ff9","5f675c34c4568e0566460c44","false","null","<div style=""align-items: center; display: flex; color: dodgerblue; font-size: 90px""><b>o</b></div>","null","","","","forget_cue","","","","","","","","","","","","","","","",""
"html-keyboard-response","244","2252569","0.0-4.0-1.0-0.37","v5se8wubxo5mepu","prime","5ce031fc7f65ee001a985a6b","5f60e3c0a3b16e07647b2ff9","5f675c34c4568e0566460c44","false","null","<span style=""color: black; font-size: 48px"">M + N</span>","null","","","","resp_prompt","","","","","","","","","","","","","","","",""
"categorize-image","245","2253180","0.0-4.0-1.0-1.37","v5se8wubxo5mepu","prime","5ce031fc7f65ee001a985a6b","5f60e3c0a3b16e07647b2ff9","5f675c34c4568e0566460c44","true","604.2499999748543","./Stimuli/SelectedImages/LN/LN131.bmp","76","","","","test","true","M + N","76","repetition","LN","LN131.bmp","forget","","86","3","prime1","right","","","",""
"html-keyboard-response","246","2255183","0.0-4.0-1.0-3.37","v5se8wubxo5mepu","prime","5ce031fc7f65ee001a985a6b","5f60e3c0a3b16e07647b2ff9","5f675c34c4568e0566460c44","false","null","<div style=""align-items: center; display: flex; color: darkorange; font-size: 90px""><b>ø</b></div>","null","","","","forget_cue","","","","","","","","","","","","","","","",""
"html-keyboard-response","247","2255885","0.0-4.0-1.0-0.38","v5se8wubxo5mepu","prime","5ce031fc7f65ee001a985a6b","5f60e3c0a3b16e07647b2ff9","5f675c34c4568e0566460c44","false","null","<span style=""color: black; font-size: 48px"">N + M</span>","null","","","","resp_prompt","","","","","","","","","","","","","","","",""
"categorize-image","248","2256483","0.0-4.0-1.0-1.38","v5se8wubxo5mepu","prime","5ce031fc7f65ee001a985a6b","5f60e3c0a3b16e07647b2ff9","5f675c34c4568e0566460c44","true","592.8400000557303","./Stimuli/SelectedImages/SN/SN182.bmp","76","","","","test","false","N + M","83","switch","SN","SN182.bmp","forget","","87","3","prime1","right","","","",""
"html-keyboard-response","249","2256986","0.0-4.0-1.0-2.38-0.38","v5se8wubxo5mepu","prime","5ce031fc7f65ee001a985a6b","5f60e3c0a3b16e07647b2ff9","5f675c34c4568e0566460c44","false","null","<span style=""color: red; font-size: 48px"">Error!</span>","null","","","","feedback","","","","","","","","","","","","","","","",""
"html-keyboard-response","250","2258989","0.0-4.0-1.0-3.38","v5se8wubxo5mepu","prime","5ce031fc7f65ee001a985a6b","5f60e3c0a3b16e07647b2ff9","5f675c34c4568e0566460c44","false","null","<div style=""align-items: center; display: flex; color: darkorange; font-size: 90px""><b>ø</b></div>","null","","","","forget_cue","","","","","","","","","","","","","","","",""
"html-keyboard-response","251","2259692","0.0-4.0-1.0-0.39","v5se8wubxo5mepu","prime","5ce031fc7f65ee001a985a6b","5f60e3c0a3b16e07647b2ff9","5f675c34c4568e0566460c44","false","null","<span style=""color: black; font-size: 48px"">N + M</span>","null","","","","resp_prompt","","","","","","","","","","","","","","","",""
"categorize-image","252","2260382","0.0-4.0-1.0-1.39","v5se8wubxo5mepu","prime","5ce031fc7f65ee001a985a6b","5f60e3c0a3b16e07647b2ff9","5f675c34c4568e0566460c44","true","683.0249999184161","./Stimuli/SelectedImages/SN/SN155.bmp","83","","","","test","true","N + M","83","switch","SN","SN155.bmp","remember","","88","3","prime1","left","","","",""
