"trial_type","trial_index","time_elapsed","internal_node_id","subject","exp_part","prolific_PID","study_ID","session_ID","use","rt","stimulus","key_press","button_pressed","responses","question_order","trial_part","correct","resp_map","correct_resp","probe_condition","category","image","forget_condition","list","trial_num","block_num","block","response","test_part","n_span","sequence","num_spaces"
"pavlovia","0","3","0.0-0.0","mjuxgc86wmn6zea","","5f39ee73389f375afc195b0d","5f60e3c0a3b16e07647b2ff9","5f60ea2e0af8b60009dba220","false","","","","","","","","","","","","","","","","","","","","","","",""
"html-keyboard-response","1","20312","0.0-1.0-0.0-0.0","mjuxgc86wmn6zea","welcome","5f39ee73389f375afc195b0d","5f60e3c0a3b16e07647b2ff9","5f60ea2e0af8b60009dba220","false","20308.44499997329","<div align=left>Dear participant, <br> thank you for participating in an online study of the Cognition, Action, and Sustainability Unit of the University of Freiburg! <br> <br>The aim of this study is to examine our ability to remember previously learned information. <br>Our goal is to find out, whether our memory improves, when we only remember information that is relevant to us. <br>The experiment will take about 35 minutes to complete. <br> <br>Please, note that you can only participate in this study if you are using a device with a keyboard (PC, Laptop etc.) <br>and not if you are using a mobile device such as a tablet or smartphone.<br> <br>Press 'SPACE' to proceed to the experiment. </div>","32","","","","","","","","","","","","","","","","","","","",""
"html-keyboard-response","2","61619","0.0-1.0-0.0-1.0","mjuxgc86wmn6zea","welcome","5f39ee73389f375afc195b0d","5f60e3c0a3b16e07647b2ff9","5f60ea2e0af8b60009dba220","false","41306.13499996252","<div align=left><strong> Time Course of this experiment: </strong> <br><br> <strong> 1.</strong>  First, please fill in some information regarding your demographic data. <br><br> <strong> 2.</strong>  Next, your task will be to classify everyday objects. <br>In addition, you will be asked to remember certain objects and recall them later. <br>Working on these tasks requires your undivided attention and concentration.<br>It is therefore essential that you eliminate any sources of distraction in your  <br>environment and ensure that you will not be disturbed. <br><br><strong> 3.</strong>  At the end of the experiment, you will be asked to answer a few additional questions. <br> <br><strong> Important:</strong> After finishing the experiment, only close the browser window <br> by clicking on the 'end the experiment'-button when you are asked to do so. <br>Closing the browser window prematurely will make the allocation of your participation credit impossible. <br><br> Press 'SPACE' to start the experiment. </div>","32","","","","","","","","","","","","","","","","","","","",""
"html-button-response","3","67574","0.0-1.0-0.0-2.0","mjuxgc86wmn6zea","welcome","5f39ee73389f375afc195b0d","5f60e3c0a3b16e07647b2ff9","5f60ea2e0af8b60009dba220","true","5953.834999992978","<div align=left><strong> Informed consent </strong>  <br>The aim of our research is to better understand human behavior and mental processes. <br>In the following study your behavior (e.g. choices, reaction times) will be studied. <br> <br><strong> Voluntariness and Anonymity </strong> <br>Your participation in this study is  <strong> voluntary</strong>.<br>You may withdraw your consent to participate at any time without providing a reason for doing so and without fear of prejudice. <br><br>As no personal data will be collected, <strong>your data and your person cannot be connected after data collection</strong> – the data-set is anonymous. <br>Respectively, deletion of your data will not be possible after data collection has been completed, as we cannot retrace your data-set.<br>The results and anonymized data collected in this study will be published as a scientific publication. <br>This will happen in an <strong>anonymized format</strong>, so that no data can be traced back to a specific person. <br> <br>The anonymized data of this study will be made available to other researchers and/or in a data archive on the Internet as a means of transparency and to enable subsequent re-use. By doing so, this study follows the recommendations of the Deutsche Forschungsgemeinschaft (DFG, German Research Foundation) and Deutsche Gesellschaft für Psychologie (DGPS, German Psychological Society) regarding quality assurance in research.<br>If you have any questions now or after the experiment, please contact our team (experiments@cs.uni-freiburg.de).<br><br><br>I hereby declare, that I understand the above described conditions of participation and I agree to participate under these conditions. <br><br> </div>","","0","","","","","","","","","","","","","","","","","","",""
"html-keyboard-response","4","84775","0.0-1.0-0.0-3.0","mjuxgc86wmn6zea","welcome","5f39ee73389f375afc195b0d","5f60e3c0a3b16e07647b2ff9","5f60ea2e0af8b60009dba220","false","17199.674999981653","<div align=left><strong> General information concerning the experiment </strong>  <br> <br>Please follow the instructions:<ol> <li><strong> Do not leave this tab (your browser window) during the experiment and do not reload this tab! </strong>  <br>If you do switch tabs/windows during the experiment (to check your mail or visit another website, for example), <br>the experiment will end automatically and you will <strong>not receive credit</strong> for your participation. <br>Repeated participation or resumption of the experiment is impossible.</li> <br><li>Please close all other programs for the duration of your participation. </li> <br><li>Please mute or turn off your phone and put it out of your reach. </li> <br><li>Please also take off any disturbing accessories (such as wristwatches, bracelets, etc.). </li> <br><li>If you have music playing in the background, please turn it off now. </li> <br></ol>Thank you! <br>Press 'SPACE' to continue. </div>","32","","","","","","","","","","","","","","","","","","","",""
"survey-text","5","87835","0.0-1.0-1.0-0.0","mjuxgc86wmn6zea","demographics","5f39ee73389f375afc195b0d","5f60e3c0a3b16e07647b2ff9","5f60ea2e0af8b60009dba220","true","3056.9200000027195","","","","{""age"":""26""}","","","","","","","","","","","","","","","","","",""
"survey-multi-choice","6","119368","0.0-1.0-1.0-1.0","mjuxgc86wmn6zea","demographics","5f39ee73389f375afc195b0d","5f60e3c0a3b16e07647b2ff9","5f60ea2e0af8b60009dba220","true","31531.25","","","","{""gender"":""male"",""school"":""others"",""education"":""Completed university degree or equivalent""}","[0,1,2]","","","","","","","","","","","","","","","","",""
"html-keyboard-response","7","135417","0.0-1.0-2.0","mjuxgc86wmn6zea","instructions","5f39ee73389f375afc195b0d","5f60e3c0a3b16e07647b2ff9","5f60ea2e0af8b60009dba220","false","16047.810000018217","<div align=left> The experiment is now about to start: <br> <br>In the following part, you will be presented pictures of everyday objects. <br>Your first task is to <strong>classify these objects. </strong> <br> <br> You will classify them either as mechanical or non-mechanical objects. <br> <br>Objects that include any kind of technical mechanism (for example, wheels, switches, levers, <br> electronic components) fall under the category of <strong>mechanical</strong> objects. <br>Only objects without any kind of technical mechanism should be classified as <strong>non-mechanical</strong>. <br><br>Press 'SPACE' to continue. </div>","32","","","","","","","","","","","","","","","","","","","",""
"html-keyboard-response","8","180275","0.0-2.0-0.0","mjuxgc86wmn6zea","instructions","5f39ee73389f375afc195b0d","5f60e3c0a3b16e07647b2ff9","5f60ea2e0af8b60009dba220","false","44856.889999995474","<div align=justify>You will classify the objects using the <strong>'S'</strong> and the <strong>'L'</strong> keys on your keyboard.<br>For doing so, please place your <strong>left index finger</strong> on the <strong>'S'</strong> key and place your <strong>right index finger</strong> on the <strong>'L'</strong> key. <br><br> Each trial starts with an instruction, indicating which key ('S'/'L') you need to press to classify <br>the object as mechanical (letter M) or non-mechanical (letter N).<br>The instruction <strong>M + N</strong> indicates that, in the current trial, by pressing the left key ('S') you classify the displayed object as mechanical (M) <br> and by pressing the right key ('L') you classify the object as non-mechanical (N). <br>The instruction <strong>N + M</strong> on the other hand indicates that by pressing the left key ('S') you classify the displayed object as non-mechanical (N) <br> and by pressing the right key ('L') you classify the object as mechanical (M). <br><br>Please press the key corresponding to the correct classification as fast as possible as soon as the object is displayed and try to avoid making mistakes.<br>If you do not respond within a 2 second window, a corresponding feedback will be displayed and the next trial will start.<br> The experiment is divided into multiple blocks to give you the opportunity to take a break after each block. <br>First, you can now practice this task. <br><br>Please place your <strong>LEFT INDEX FINGER</strong> on the 'S' key and your <strong>RIGHT INDEX FINGER</strong> on the 'L' key now. <br><br>Press SPACE to continue.</div>","32","","","","","","","","","","","","","","","","","","","",""
"html-keyboard-response","9","185640","0.0-2.0-1.0","mjuxgc86wmn6zea","instructions","5f39ee73389f375afc195b0d","5f60e3c0a3b16e07647b2ff9","5f60ea2e0af8b60009dba220","false","5364.700000034645","<div align=left> You will now have time to practice this task.<br><br>Remember: <br> <br><li>Please place your index fingers on the <strong>'S'</strong> and <strong>'L'</strong> keys <br>to respond as fast and accurately as possible.</li><li>Every picture can be classified as either mechanical or non-mechanical.</li><li>If you do not respond in time or commit an error, you will receive a corresponding feedback. </li><li> Please try to respond as <strong> fast </strong> and as <strong> accurately as possible </strong> .<br><li>To ensure optimal results, please minimize distractions and stay focused. </li><br><br>Press SPACE to continue.</div>","32","","","","","","","","","","","","","","","","","","","",""
"html-keyboard-response","10","186342","0.0-2.0-2.0-0.0","mjuxgc86wmn6zea","practice_no_cue","5f39ee73389f375afc195b0d","5f60e3c0a3b16e07647b2ff9","5f60ea2e0af8b60009dba220","false","null","<span style=""color: black; font-size: 48px"">N + M</span>","null","","","","resp_prompt","","","","","","","","","","","","","","","",""
"categorize-image","11","188134","0.0-2.0-2.0-1.0","mjuxgc86wmn6zea","practice_no_cue","5f39ee73389f375afc195b0d","5f60e3c0a3b16e07647b2ff9","5f60ea2e0af8b60009dba220","true","1289.8500000010245","./Stimuli/ImagesPractice/LN2.jpg","83","","","","test","true","N + M","83","","LN","LN2.jpg","remember","old","1","1","start","left","","","",""
"html-keyboard-response","12","188836","0.0-2.0-2.0-0.1","mjuxgc86wmn6zea","practice_no_cue","5f39ee73389f375afc195b0d","5f60e3c0a3b16e07647b2ff9","5f60ea2e0af8b60009dba220","false","null","<span style=""color: black; font-size: 48px"">M + N</span>","null","","","","resp_prompt","","","","","","","","","","","","","","","",""
"categorize-image","13","189991","0.0-2.0-2.0-1.1","mjuxgc86wmn6zea","practice_no_cue","5f39ee73389f375afc195b0d","5f60e3c0a3b16e07647b2ff9","5f60ea2e0af8b60009dba220","true","654.0149999782443","./Stimuli/ImagesPractice/SM98.jpg","83","","","","test","true","M + N","83","","SM","SM98.jpg","remember","old","2","1","start","left","","","",""
"html-keyboard-response","14","190693","0.0-2.0-2.0-0.2","mjuxgc86wmn6zea","practice_no_cue","5f39ee73389f375afc195b0d","5f60e3c0a3b16e07647b2ff9","5f60ea2e0af8b60009dba220","false","null","<span style=""color: black; font-size: 48px"">M + N</span>","null","","","","resp_prompt","","","","","","","","","","","","","","","",""
"categorize-image","15","191899","0.0-2.0-2.0-1.2","mjuxgc86wmn6zea","practice_no_cue","5f39ee73389f375afc195b0d","5f60e3c0a3b16e07647b2ff9","5f60ea2e0af8b60009dba220","true","704.4449999812059","./Stimuli/ImagesPractice/LN15.jpg","76","","","","test","true","M + N","76","","LN","LN15.jpg","remember","old","3","1","start","right","","","",""
"html-keyboard-response","16","192600","0.0-2.0-2.0-0.3","mjuxgc86wmn6zea","practice_no_cue","5f39ee73389f375afc195b0d","5f60e3c0a3b16e07647b2ff9","5f60ea2e0af8b60009dba220","false","null","<span style=""color: black; font-size: 48px"">M + N</span>","null","","","","resp_prompt","","","","","","","","","","","","","","","",""
"categorize-image","17","193795","0.0-2.0-2.0-1.3","mjuxgc86wmn6zea","practice_no_cue","5f39ee73389f375afc195b0d","5f60e3c0a3b16e07647b2ff9","5f60ea2e0af8b60009dba220","true","693.230000033509","./Stimuli/ImagesPractice/SM97.jpg","83","","","","test","true","M + N","83","","SM","SM97.jpg","remember","old","4","1","start","left","","","",""
"html-keyboard-response","18","194497","0.0-2.0-2.0-0.4","mjuxgc86wmn6zea","practice_no_cue","5f39ee73389f375afc195b0d","5f60e3c0a3b16e07647b2ff9","5f60ea2e0af8b60009dba220","false","null","<span style=""color: black; font-size: 48px"">N + M</span>","null","","","","resp_prompt","","","","","","","","","","","","","","","",""
"categorize-image","19","195707","0.0-2.0-2.0-1.4","mjuxgc86wmn6zea","practice_no_cue","5f39ee73389f375afc195b0d","5f60e3c0a3b16e07647b2ff9","5f60ea2e0af8b60009dba220","true","709.7200000425801","./Stimuli/ImagesPractice/SN205.jpg","83","","","","test","true","N + M","83","","SN","SN205.jpg","remember","old","5","1","start","left","","","",""
"html-keyboard-response","20","196410","0.0-2.0-2.0-0.5","mjuxgc86wmn6zea","practice_no_cue","5f39ee73389f375afc195b0d","5f60e3c0a3b16e07647b2ff9","5f60ea2e0af8b60009dba220","false","null","<span style=""color: black; font-size: 48px"">M + N</span>","null","","","","resp_prompt","","","","","","","","","","","","","","","",""
"categorize-image","21","197810","0.0-2.0-2.0-1.5","mjuxgc86wmn6zea","practice_no_cue","5f39ee73389f375afc195b0d","5f60e3c0a3b16e07647b2ff9","5f60ea2e0af8b60009dba220","true","898.9249999867752","./Stimuli/ImagesPractice/LN4.jpg","76","","","","test","true","M + N","76","","LN","LN4.jpg","forget","old","6","1","start","right","","","",""
"html-keyboard-response","22","198511","0.0-2.0-2.0-0.6","mjuxgc86wmn6zea","practice_no_cue","5f39ee73389f375afc195b0d","5f60e3c0a3b16e07647b2ff9","5f60ea2e0af8b60009dba220","false","null","<span style=""color: black; font-size: 48px"">M + N</span>","null","","","","resp_prompt","","","","","","","","","","","","","","","",""
"categorize-image","23","199738","0.0-2.0-2.0-1.6","mjuxgc86wmn6zea","practice_no_cue","5f39ee73389f375afc195b0d","5f60e3c0a3b16e07647b2ff9","5f60ea2e0af8b60009dba220","true","724.8999999719672","./Stimuli/ImagesPractice/SN221.jpg","76","","","","test","true","M + N","76","","SN","SN221.jpg","forget","old","7","1","start","right","","","",""
"html-keyboard-response","24","200439","0.0-2.0-2.0-0.7","mjuxgc86wmn6zea","practice_no_cue","5f39ee73389f375afc195b0d","5f60e3c0a3b16e07647b2ff9","5f60ea2e0af8b60009dba220","false","null","<span style=""color: black; font-size: 48px"">N + M</span>","null","","","","resp_prompt","","","","","","","","","","","","","","","",""
"categorize-image","25","201784","0.0-2.0-2.0-1.7","mjuxgc86wmn6zea","practice_no_cue","5f39ee73389f375afc195b0d","5f60e3c0a3b16e07647b2ff9","5f60ea2e0af8b60009dba220","true","842.8699999931268","./Stimuli/ImagesPractice/SM35.jpg","76","","","","test","true","N + M","76","","SM","SM35.jpg","forget","old","8","1","start","right","","","",""
"html-keyboard-response","26","202485","0.0-2.0-2.0-0.8","mjuxgc86wmn6zea","practice_no_cue","5f39ee73389f375afc195b0d","5f60e3c0a3b16e07647b2ff9","5f60ea2e0af8b60009dba220","false","null","<span style=""color: black; font-size: 48px"">N + M</span>","null","","","","resp_prompt","","","","","","","","","","","","","","","",""
"categorize-image","27","203613","0.0-2.0-2.0-1.8","mjuxgc86wmn6zea","practice_no_cue","5f39ee73389f375afc195b0d","5f60e3c0a3b16e07647b2ff9","5f60ea2e0af8b60009dba220","true","626.5549999661744","./Stimuli/ImagesPractice/LM230.jpg","76","","","","test","true","N + M","76","","LM","LM230.jpg","forget","old","9","1","start","right","","","",""
"html-keyboard-response","28","204314","0.0-2.0-2.0-0.9","mjuxgc86wmn6zea","practice_no_cue","5f39ee73389f375afc195b0d","5f60e3c0a3b16e07647b2ff9","5f60ea2e0af8b60009dba220","false","null","<span style=""color: black; font-size: 48px"">N + M</span>","null","","","","resp_prompt","","","","","","","","","","","","","","","",""
"categorize-image","29","205465","0.0-2.0-2.0-1.9","mjuxgc86wmn6zea","practice_no_cue","5f39ee73389f375afc195b0d","5f60e3c0a3b16e07647b2ff9","5f60ea2e0af8b60009dba220","true","648.819999943953","./Stimuli/ImagesPractice/LM55.jpg","76","","","","test","true","N + M","76","","LM","LM55.jpg","remember","old","10","1","start","right","","","",""
"html-keyboard-response","30","206166","0.0-2.0-2.0-0.10","mjuxgc86wmn6zea","practice_no_cue","5f39ee73389f375afc195b0d","5f60e3c0a3b16e07647b2ff9","5f60ea2e0af8b60009dba220","false","null","<span style=""color: black; font-size: 48px"">N + M</span>","null","","","","resp_prompt","","","","","","","","","","","","","","","",""
"categorize-image","31","207250","0.0-2.0-2.0-1.10","mjuxgc86wmn6zea","practice_no_cue","5f39ee73389f375afc195b0d","5f60e3c0a3b16e07647b2ff9","5f60ea2e0af8b60009dba220","true","582.6300000189804","./Stimuli/ImagesPractice/SN76.jpg","83","","","","test","true","N + M","83","","SN","SN76.jpg","forget","old","11","1","start","left","","","",""
"html-keyboard-response","32","207951","0.0-2.0-2.0-0.11","mjuxgc86wmn6zea","practice_no_cue","5f39ee73389f375afc195b0d","5f60e3c0a3b16e07647b2ff9","5f60ea2e0af8b60009dba220","false","null","<span style=""color: black; font-size: 48px"">M + N</span>","null","","","","resp_prompt","","","","","","","","","","","","","","","",""
"categorize-image","33","209087","0.0-2.0-2.0-1.11","mjuxgc86wmn6zea","practice_no_cue","5f39ee73389f375afc195b0d","5f60e3c0a3b16e07647b2ff9","5f60ea2e0af8b60009dba220","true","634.8250000155531","./Stimuli/ImagesPractice/LM224.jpg","83","","","","test","true","M + N","83","","LM","LM224.jpg","remember","old","12","1","start","left","","","",""
"html-keyboard-response","34","209789","0.0-2.0-2.0-0.12","mjuxgc86wmn6zea","practice_no_cue","5f39ee73389f375afc195b0d","5f60e3c0a3b16e07647b2ff9","5f60ea2e0af8b60009dba220","false","null","<span style=""color: black; font-size: 48px"">N + M</span>","null","","","","resp_prompt","","","","","","","","","","","","","","","",""
"categorize-image","35","210872","0.0-2.0-2.0-1.12","mjuxgc86wmn6zea","practice_no_cue","5f39ee73389f375afc195b0d","5f60e3c0a3b16e07647b2ff9","5f60ea2e0af8b60009dba220","true","581.1749999993481","./Stimuli/ImagesPractice/SN75.jpg","83","","","","test","true","N + M","83","","SN","SN75.jpg","forget","old","13","1","start","left","","","",""
"html-keyboard-response","36","211573","0.0-2.0-2.0-0.13","mjuxgc86wmn6zea","practice_no_cue","5f39ee73389f375afc195b0d","5f60e3c0a3b16e07647b2ff9","5f60ea2e0af8b60009dba220","false","null","<span style=""color: black; font-size: 48px"">M + N</span>","null","","","","resp_prompt","","","","","","","","","","","","","","","",""
"categorize-image","37","212642","0.0-2.0-2.0-1.13","mjuxgc86wmn6zea","practice_no_cue","5f39ee73389f375afc195b0d","5f60e3c0a3b16e07647b2ff9","5f60ea2e0af8b60009dba220","true","567.0549999922514","./Stimuli/ImagesPractice/LM147.jpg","83","","","","test","true","M + N","83","","LM","LM147.jpg","forget","old","14","1","start","left","","","",""
"html-keyboard-response","38","213343","0.0-2.0-2.0-0.14","mjuxgc86wmn6zea","practice_no_cue","5f39ee73389f375afc195b0d","5f60e3c0a3b16e07647b2ff9","5f60ea2e0af8b60009dba220","false","null","<span style=""color: black; font-size: 48px"">N + M</span>","null","","","","resp_prompt","","","","","","","","","","","","","","","",""
"categorize-image","39","214443","0.0-2.0-2.0-1.14","mjuxgc86wmn6zea","practice_no_cue","5f39ee73389f375afc195b0d","5f60e3c0a3b16e07647b2ff9","5f60ea2e0af8b60009dba220","true","598.18000002997","./Stimuli/ImagesPractice/LM239.jpg","83","","","","test","false","N + M","76","","LM","LM239.jpg","remember","old","15","1","start","left","","","",""
"html-keyboard-response","40","215145","0.0-2.0-2.0-0.15","mjuxgc86wmn6zea","practice_no_cue","5f39ee73389f375afc195b0d","5f60e3c0a3b16e07647b2ff9","5f60ea2e0af8b60009dba220","false","null","<span style=""color: black; font-size: 48px"">M + N</span>","null","","","","resp_prompt","","","","","","","","","","","","","","","",""
"categorize-image","41","216403","0.0-2.0-2.0-1.15","mjuxgc86wmn6zea","practice_no_cue","5f39ee73389f375afc195b0d","5f60e3c0a3b16e07647b2ff9","5f60ea2e0af8b60009dba220","true","756.7550000385381","./Stimuli/ImagesPractice/LM143.jpg","83","","","","test","true","M + N","83","","LM","LM143.jpg","forget","old","16","1","start","left","","","",""
"html-keyboard-response","42","223217","0.0-2.0-3.0","mjuxgc86wmn6zea","break","5f39ee73389f375afc195b0d","5f60e3c0a3b16e07647b2ff9","5f60ea2e0af8b60009dba220","false","6812.934999994468","<p style='font-size: 32px;'>Break</><br><br><br><br><br><p style='font-size: 24px;'>In the last block, you committed 1 errors and did not respond in time on 0 trials.
</p><p style='font-size: 24px;'>Try to respond as fast and accurately as possible in the next block as well! </p><p style='font-size: 24px;'>Press SPACE to continue.</p>","32","","","","","","","","","","","","","","","","","","","",""
"html-keyboard-response","43","228034","0.0-2.0-4.0","mjuxgc86wmn6zea","instructions","5f39ee73389f375afc195b0d","5f60e3c0a3b16e07647b2ff9","5f60ea2e0af8b60009dba220","false","4816.070000000764","<div align=left> Great!<br><br>Are you ready to continue?<br><br>If you want to reread the instructions and redo the practice trials, <br>please press „Z“. <br><br>Press SPACE to CONTINUE with the experiment when you are ready. </div>","32","","","","","","","","","","","","","","","","","","","",""
"html-keyboard-response","44","265977","0.0-3.0-0.0","mjuxgc86wmn6zea","instructions","5f39ee73389f375afc195b0d","5f60e3c0a3b16e07647b2ff9","5f60ea2e0af8b60009dba220","false","37941.87499996042","<div align=left>Great!<br> <strong>Attention</strong>! You will now receive a second, additional task! <br><br>To this point it was you <strong>first task</strong> to correctly <strong>classify objects</strong>. <br><br>As mentioned in the beginning, we aim to examine how well humans can remember previously learned information.<br>We would like to find out whether our memory improves if we only remember information that is relevant to us. <br><br>Therefore, your <strong>second task</strong> will be to <strong>remember</strong> the pictures you are to categorize. <br> After the learning phase, there will be a memory test phase, in which you will be asked to indicate whether you have seen a picture before or not. <br>Some, but not all pictures shown in the learning phase will appear in the memory test phase.<br>After classifying a picture, you will be told whether you should remember it for the memory test phase or not. <br>Thus, some pictures can be forgotten, whereas others have to be remembered. <br><br>Note: From now on, feedback will only be displayed if you responded incorrectly or not in time.<br><br>Press SPACE to continue.</div>","32","","","","","","","","","","","","","","","","","","","",""
"html-keyboard-response","45","295151","0.0-3.0-1.0","mjuxgc86wmn6zea","instructions","5f39ee73389f375afc195b0d","5f60e3c0a3b16e07647b2ff9","5f60ea2e0af8b60009dba220","false","29173.52499999106","<div align=left>In the following part, you will thus have to remember only some pictures. <br>Immediately after seeing and classifying the picture, a symbol will be displayed, indicating whether you should remember or forget the previous picture. <br><br>A <span style='color: dodgerblue; font-size: 28px'>O</span> indicates REMEMBER. That means, you have to remember this picture, because it will be tested later. <br><br>A <span style='color: darkorange; font-size:28px'>Ø</span> indicates FORGET. You do not have to remember this picture. <br><br> As you will have to remember a lot of pictures, it will be hard for you to remember all of them. <br>It will put you at an advantage if you instantly forget the pictures you are not asked to remember. <br> This will make it easier for you to remember the pictures that will be tested afterwards. <br><br>Press SPACE to continue.</div>","32","","","","","","","","","","","","","","","","","","","",""
"html-keyboard-response","46","313721","0.0-3.0-2.0","mjuxgc86wmn6zea","instructions","5f39ee73389f375afc195b0d","5f60e3c0a3b16e07647b2ff9","5f60ea2e0af8b60009dba220","false","18569.144999957643","<div align=left> Now you have the chance to practice both tasks together.<br><br>Remember: <br> <br><li>Please place your index fingers on the <strong>'S'</strong> and <strong>'L'</strong> keys <br>to respond as fast and accurately as possible.</li><li>Every picture can be classified as either mechanical or non-mechanical.</li><li>If you do not respond in time or commit an error, you will receive a corresponding feedback. <br>Please try to respond as <strong> fast </strong> and as <strong> accurately as possible </strong>.</li><li> Please remember only the to-be-remembered <span style='color: dodgerblue; font-size: 28px'>O</span> pictures. <br></li><li> Please minimize distractions and stay focused. </li><br><br>Press SPACE to START</div>","32","","","","","","","","","","","","","","","","","","","",""
"html-keyboard-response","47","314423","0.0-3.0-3.0-0.0","mjuxgc86wmn6zea","practice_cue","5f39ee73389f375afc195b0d","5f60e3c0a3b16e07647b2ff9","5f60ea2e0af8b60009dba220","false","null","<span style=""color: black; font-size: 48px"">M + N</span>","null","","","","resp_prompt","","","","","","","","","","","","","","","",""
"categorize-image","48","314941","0.0-3.0-3.0-1.0","mjuxgc86wmn6zea","practice_cue","5f39ee73389f375afc195b0d","5f60e3c0a3b16e07647b2ff9","5f60ea2e0af8b60009dba220","true","513.7100000283681","./Stimuli/ImagesPractice/LN15.jpg","76","","","","test","true","M + N","76","","LN","LN15.jpg","remember","old","17","2","practice_forget","right","","","",""
"html-keyboard-response","49","316942","0.0-3.0-3.0-3.0","mjuxgc86wmn6zea","practice_cue","5f39ee73389f375afc195b0d","5f60e3c0a3b16e07647b2ff9","5f60ea2e0af8b60009dba220","false","null","<div style=""align-items: center; display: flex; color: dodgerblue; font-size: 90px""><b>o</b></div>","null","","","","forget_cue","","","","","","","","","","","","","","","",""
"html-keyboard-response","50","317643","0.0-3.0-3.0-0.1","mjuxgc86wmn6zea","practice_cue","5f39ee73389f375afc195b0d","5f60e3c0a3b16e07647b2ff9","5f60ea2e0af8b60009dba220","false","null","<span style=""color: black; font-size: 48px"">M + N</span>","null","","","","resp_prompt","","","","","","","","","","","","","","","",""
"categorize-image","51","318329","0.0-3.0-3.0-1.1","mjuxgc86wmn6zea","practice_cue","5f39ee73389f375afc195b0d","5f60e3c0a3b16e07647b2ff9","5f60ea2e0af8b60009dba220","true","683.06999997003","./Stimuli/ImagesPractice/SN221.jpg","76","","","","test","true","M + N","76","","SN","SN221.jpg","forget","old","18","2","practice_forget","right","","","",""
"html-keyboard-response","52","320330","0.0-3.0-3.0-3.1","mjuxgc86wmn6zea","practice_cue","5f39ee73389f375afc195b0d","5f60e3c0a3b16e07647b2ff9","5f60ea2e0af8b60009dba220","false","null","<div style=""align-items: center; display: flex; color: darkorange; font-size: 90px""><b>ø</b></div>","null","","","","forget_cue","","","","","","","","","","","","","","","",""
"html-keyboard-response","53","321031","0.0-3.0-3.0-0.2","mjuxgc86wmn6zea","practice_cue","5f39ee73389f375afc195b0d","5f60e3c0a3b16e07647b2ff9","5f60ea2e0af8b60009dba220","false","null","<span style=""color: black; font-size: 48px"">M + N</span>","null","","","","resp_prompt","","","","","","","","","","","","","","","",""
"categorize-image","54","321607","0.0-3.0-3.0-1.2","mjuxgc86wmn6zea","practice_cue","5f39ee73389f375afc195b0d","5f60e3c0a3b16e07647b2ff9","5f60ea2e0af8b60009dba220","true","572.4249999620952","./Stimuli/ImagesPractice/LM224.jpg","83","","","","test","true","M + N","83","","LM","LM224.jpg","remember","old","19","2","practice_forget","left","","","",""
"html-keyboard-response","55","323608","0.0-3.0-3.0-3.2","mjuxgc86wmn6zea","practice_cue","5f39ee73389f375afc195b0d","5f60e3c0a3b16e07647b2ff9","5f60ea2e0af8b60009dba220","false","null","<div style=""align-items: center; display: flex; color: dodgerblue; font-size: 90px""><b>o</b></div>","null","","","","forget_cue","","","","","","","","","","","","","","","",""
"html-keyboard-response","56","324309","0.0-3.0-3.0-0.3","mjuxgc86wmn6zea","practice_cue","5f39ee73389f375afc195b0d","5f60e3c0a3b16e07647b2ff9","5f60ea2e0af8b60009dba220","false","null","<span style=""color: black; font-size: 48px"">M + N</span>","null","","","","resp_prompt","","","","","","","","","","","","","","","",""
"categorize-image","57","324986","0.0-3.0-3.0-1.3","mjuxgc86wmn6zea","practice_cue","5f39ee73389f375afc195b0d","5f60e3c0a3b16e07647b2ff9","5f60ea2e0af8b60009dba220","true","674.2149999481626","./Stimuli/ImagesPractice/LM143.jpg","83","","","","test","true","M + N","83","","LM","LM143.jpg","forget","old","20","2","practice_forget","left","","","",""
"html-keyboard-response","58","326987","0.0-3.0-3.0-3.3","mjuxgc86wmn6zea","practice_cue","5f39ee73389f375afc195b0d","5f60e3c0a3b16e07647b2ff9","5f60ea2e0af8b60009dba220","false","null","<div style=""align-items: center; display: flex; color: darkorange; font-size: 90px""><b>ø</b></div>","null","","","","forget_cue","","","","","","","","","","","","","","","",""
"html-keyboard-response","59","327688","0.0-3.0-3.0-0.4","mjuxgc86wmn6zea","practice_cue","5f39ee73389f375afc195b0d","5f60e3c0a3b16e07647b2ff9","5f60ea2e0af8b60009dba220","false","null","<span style=""color: black; font-size: 48px"">N + M</span>","null","","","","resp_prompt","","","","","","","","","","","","","","","",""
"categorize-image","60","328431","0.0-3.0-3.0-1.4","mjuxgc86wmn6zea","practice_cue","5f39ee73389f375afc195b0d","5f60e3c0a3b16e07647b2ff9","5f60ea2e0af8b60009dba220","true","738.7899999739602","./Stimuli/ImagesPractice/LM239.jpg","76","","","","test","true","N + M","76","","LM","LM239.jpg","remember","old","21","2","practice_forget","right","","","",""
"html-keyboard-response","61","330432","0.0-3.0-3.0-3.4","mjuxgc86wmn6zea","practice_cue","5f39ee73389f375afc195b0d","5f60e3c0a3b16e07647b2ff9","5f60ea2e0af8b60009dba220","false","null","<div style=""align-items: center; display: flex; color: dodgerblue; font-size: 90px""><b>o</b></div>","null","","","","forget_cue","","","","","","","","","","","","","","","",""
"html-keyboard-response","62","331133","0.0-3.0-3.0-0.5","mjuxgc86wmn6zea","practice_cue","5f39ee73389f375afc195b0d","5f60e3c0a3b16e07647b2ff9","5f60ea2e0af8b60009dba220","false","null","<span style=""color: black; font-size: 48px"">N + M</span>","null","","","","resp_prompt","","","","","","","","","","","","","","","",""
"categorize-image","63","331877","0.0-3.0-3.0-1.5","mjuxgc86wmn6zea","practice_cue","5f39ee73389f375afc195b0d","5f60e3c0a3b16e07647b2ff9","5f60ea2e0af8b60009dba220","true","741.0900000249967","./Stimuli/ImagesPractice/SN205.jpg","83","","","","test","true","N + M","83","","SN","SN205.jpg","remember","old","22","2","practice_forget","left","","","",""
"html-keyboard-response","64","333878","0.0-3.0-3.0-3.5","mjuxgc86wmn6zea","practice_cue","5f39ee73389f375afc195b0d","5f60e3c0a3b16e07647b2ff9","5f60ea2e0af8b60009dba220","false","null","<div style=""align-items: center; display: flex; color: dodgerblue; font-size: 90px""><b>o</b></div>","null","","","","forget_cue","","","","","","","","","","","","","","","",""
"html-keyboard-response","65","334579","0.0-3.0-3.0-0.6","mjuxgc86wmn6zea","practice_cue","5f39ee73389f375afc195b0d","5f60e3c0a3b16e07647b2ff9","5f60ea2e0af8b60009dba220","false","null","<span style=""color: black; font-size: 48px"">M + N</span>","null","","","","resp_prompt","","","","","","","","","","","","","","","",""
"categorize-image","66","335229","0.0-3.0-3.0-1.6","mjuxgc86wmn6zea","practice_cue","5f39ee73389f375afc195b0d","5f60e3c0a3b16e07647b2ff9","5f60ea2e0af8b60009dba220","true","646.0950000328012","./Stimuli/ImagesPractice/LM147.jpg","83","","","","test","true","M + N","83","","LM","LM147.jpg","forget","old","23","2","practice_forget","left","","","",""
"html-keyboard-response","67","337230","0.0-3.0-3.0-3.6","mjuxgc86wmn6zea","practice_cue","5f39ee73389f375afc195b0d","5f60e3c0a3b16e07647b2ff9","5f60ea2e0af8b60009dba220","false","null","<div style=""align-items: center; display: flex; color: darkorange; font-size: 90px""><b>ø</b></div>","null","","","","forget_cue","","","","","","","","","","","","","","","",""
"html-keyboard-response","68","337932","0.0-3.0-3.0-0.7","mjuxgc86wmn6zea","practice_cue","5f39ee73389f375afc195b0d","5f60e3c0a3b16e07647b2ff9","5f60ea2e0af8b60009dba220","false","null","<span style=""color: black; font-size: 48px"">N + M</span>","null","","","","resp_prompt","","","","","","","","","","","","","","","",""
"categorize-image","69","338749","0.0-3.0-3.0-1.7","mjuxgc86wmn6zea","practice_cue","5f39ee73389f375afc195b0d","5f60e3c0a3b16e07647b2ff9","5f60ea2e0af8b60009dba220","true","814.7299999836832","./Stimuli/ImagesPractice/LN2.jpg","83","","","","test","true","N + M","83","","LN","LN2.jpg","remember","old","24","2","practice_forget","left","","","",""
"html-keyboard-response","70","340751","0.0-3.0-3.0-3.7","mjuxgc86wmn6zea","practice_cue","5f39ee73389f375afc195b0d","5f60e3c0a3b16e07647b2ff9","5f60ea2e0af8b60009dba220","false","null","<div style=""align-items: center; display: flex; color: dodgerblue; font-size: 90px""><b>o</b></div>","null","","","","forget_cue","","","","","","","","","","","","","","","",""
"html-keyboard-response","71","341452","0.0-3.0-3.0-0.8","mjuxgc86wmn6zea","practice_cue","5f39ee73389f375afc195b0d","5f60e3c0a3b16e07647b2ff9","5f60ea2e0af8b60009dba220","false","null","<span style=""color: black; font-size: 48px"">M + N</span>","null","","","","resp_prompt","","","","","","","","","","","","","","","",""
"categorize-image","72","342183","0.0-3.0-3.0-1.8","mjuxgc86wmn6zea","practice_cue","5f39ee73389f375afc195b0d","5f60e3c0a3b16e07647b2ff9","5f60ea2e0af8b60009dba220","true","727.080000040587","./Stimuli/ImagesPractice/SM97.jpg","83","","","","test","true","M + N","83","","SM","SM97.jpg","remember","old","25","2","practice_forget","left","","","",""
"html-keyboard-response","73","344184","0.0-3.0-3.0-3.8","mjuxgc86wmn6zea","practice_cue","5f39ee73389f375afc195b0d","5f60e3c0a3b16e07647b2ff9","5f60ea2e0af8b60009dba220","false","null","<div style=""align-items: center; display: flex; color: dodgerblue; font-size: 90px""><b>o</b></div>","null","","","","forget_cue","","","","","","","","","","","","","","","",""
"html-keyboard-response","74","344885","0.0-3.0-3.0-0.9","mjuxgc86wmn6zea","practice_cue","5f39ee73389f375afc195b0d","5f60e3c0a3b16e07647b2ff9","5f60ea2e0af8b60009dba220","false","null","<span style=""color: black; font-size: 48px"">N + M</span>","null","","","","resp_prompt","","","","","","","","","","","","","","","",""
"categorize-image","75","345715","0.0-3.0-3.0-1.9","mjuxgc86wmn6zea","practice_cue","5f39ee73389f375afc195b0d","5f60e3c0a3b16e07647b2ff9","5f60ea2e0af8b60009dba220","true","827.0550000015646","./Stimuli/ImagesPractice/LM230.jpg","76","","","","test","true","N + M","76","","LM","LM230.jpg","forget","old","26","2","practice_forget","right","","","",""
"html-keyboard-response","76","347717","0.0-3.0-3.0-3.9","mjuxgc86wmn6zea","practice_cue","5f39ee73389f375afc195b0d","5f60e3c0a3b16e07647b2ff9","5f60ea2e0af8b60009dba220","false","null","<div style=""align-items: center; display: flex; color: darkorange; font-size: 90px""><b>ø</b></div>","null","","","","forget_cue","","","","","","","","","","","","","","","",""
"html-keyboard-response","77","348418","0.0-3.0-3.0-0.10","mjuxgc86wmn6zea","practice_cue","5f39ee73389f375afc195b0d","5f60e3c0a3b16e07647b2ff9","5f60ea2e0af8b60009dba220","false","null","<span style=""color: black; font-size: 48px"">N + M</span>","null","","","","resp_prompt","","","","","","","","","","","","","","","",""
"categorize-image","78","348948","0.0-3.0-3.0-1.10","mjuxgc86wmn6zea","practice_cue","5f39ee73389f375afc195b0d","5f60e3c0a3b16e07647b2ff9","5f60ea2e0af8b60009dba220","true","525.7950000232086","./Stimuli/ImagesPractice/SN76.jpg","83","","","","test","true","N + M","83","","SN","SN76.jpg","forget","old","27","2","practice_forget","left","","","",""
"html-keyboard-response","79","350950","0.0-3.0-3.0-3.10","mjuxgc86wmn6zea","practice_cue","5f39ee73389f375afc195b0d","5f60e3c0a3b16e07647b2ff9","5f60ea2e0af8b60009dba220","false","null","<div style=""align-items: center; display: flex; color: darkorange; font-size: 90px""><b>ø</b></div>","null","","","","forget_cue","","","","","","","","","","","","","","","",""
"html-keyboard-response","80","351651","0.0-3.0-3.0-0.11","mjuxgc86wmn6zea","practice_cue","5f39ee73389f375afc195b0d","5f60e3c0a3b16e07647b2ff9","5f60ea2e0af8b60009dba220","false","null","<span style=""color: black; font-size: 48px"">N + M</span>","null","","","","resp_prompt","","","","","","","","","","","","","","","",""
"categorize-image","81","352970","0.0-3.0-3.0-1.11","mjuxgc86wmn6zea","practice_cue","5f39ee73389f375afc195b0d","5f60e3c0a3b16e07647b2ff9","5f60ea2e0af8b60009dba220","true","1315.0199999799952","./Stimuli/ImagesPractice/SM35.jpg","76","","","","test","true","N + M","76","","SM","SM35.jpg","forget","old","28","2","practice_forget","right","","","",""
"html-keyboard-response","82","354972","0.0-3.0-3.0-3.11","mjuxgc86wmn6zea","practice_cue","5f39ee73389f375afc195b0d","5f60e3c0a3b16e07647b2ff9","5f60ea2e0af8b60009dba220","false","null","<div style=""align-items: center; display: flex; color: darkorange; font-size: 90px""><b>ø</b></div>","null","","","","forget_cue","","","","","","","","","","","","","","","",""
"html-keyboard-response","83","355674","0.0-3.0-3.0-0.12","mjuxgc86wmn6zea","practice_cue","5f39ee73389f375afc195b0d","5f60e3c0a3b16e07647b2ff9","5f60ea2e0af8b60009dba220","false","null","<span style=""color: black; font-size: 48px"">N + M</span>","null","","","","resp_prompt","","","","","","","","","","","","","","","",""
"categorize-image","84","356596","0.0-3.0-3.0-1.12","mjuxgc86wmn6zea","practice_cue","5f39ee73389f375afc195b0d","5f60e3c0a3b16e07647b2ff9","5f60ea2e0af8b60009dba220","true","919.7200000053272","./Stimuli/ImagesPractice/SN75.jpg","83","","","","test","true","N + M","83","","SN","SN75.jpg","forget","old","29","2","practice_forget","left","","","",""
"html-keyboard-response","85","358597","0.0-3.0-3.0-3.12","mjuxgc86wmn6zea","practice_cue","5f39ee73389f375afc195b0d","5f60e3c0a3b16e07647b2ff9","5f60ea2e0af8b60009dba220","false","null","<div style=""align-items: center; display: flex; color: darkorange; font-size: 90px""><b>ø</b></div>","null","","","","forget_cue","","","","","","","","","","","","","","","",""
"html-keyboard-response","86","359298","0.0-3.0-3.0-0.13","mjuxgc86wmn6zea","practice_cue","5f39ee73389f375afc195b0d","5f60e3c0a3b16e07647b2ff9","5f60ea2e0af8b60009dba220","false","null","<span style=""color: black; font-size: 48px"">N + M</span>","null","","","","resp_prompt","","","","","","","","","","","","","","","",""
"categorize-image","87","360146","0.0-3.0-3.0-1.13","mjuxgc86wmn6zea","practice_cue","5f39ee73389f375afc195b0d","5f60e3c0a3b16e07647b2ff9","5f60ea2e0af8b60009dba220","true","843.7200000043958","./Stimuli/ImagesPractice/LM55.jpg","76","","","","test","true","N + M","76","","LM","LM55.jpg","remember","old","30","2","practice_forget","right","","","",""
"html-keyboard-response","88","362146","0.0-3.0-3.0-3.13","mjuxgc86wmn6zea","practice_cue","5f39ee73389f375afc195b0d","5f60e3c0a3b16e07647b2ff9","5f60ea2e0af8b60009dba220","false","null","<div style=""align-items: center; display: flex; color: dodgerblue; font-size: 90px""><b>o</b></div>","null","","","","forget_cue","","","","","","","","","","","","","","","",""
"html-keyboard-response","89","362849","0.0-3.0-3.0-0.14","mjuxgc86wmn6zea","practice_cue","5f39ee73389f375afc195b0d","5f60e3c0a3b16e07647b2ff9","5f60ea2e0af8b60009dba220","false","null","<span style=""color: black; font-size: 48px"">M + N</span>","null","","","","resp_prompt","","","","","","","","","","","","","","","",""
"categorize-image","90","363541","0.0-3.0-3.0-1.14","mjuxgc86wmn6zea","practice_cue","5f39ee73389f375afc195b0d","5f60e3c0a3b16e07647b2ff9","5f60ea2e0af8b60009dba220","true","689.0449999482371","./Stimuli/ImagesPractice/LN4.jpg","76","","","","test","true","M + N","76","","LN","LN4.jpg","forget","old","31","2","practice_forget","right","","","",""
"html-keyboard-response","91","365542","0.0-3.0-3.0-3.14","mjuxgc86wmn6zea","practice_cue","5f39ee73389f375afc195b0d","5f60e3c0a3b16e07647b2ff9","5f60ea2e0af8b60009dba220","false","null","<div style=""align-items: center; display: flex; color: darkorange; font-size: 90px""><b>ø</b></div>","null","","","","forget_cue","","","","","","","","","","","","","","","",""
"html-keyboard-response","92","366243","0.0-3.0-3.0-0.15","mjuxgc86wmn6zea","practice_cue","5f39ee73389f375afc195b0d","5f60e3c0a3b16e07647b2ff9","5f60ea2e0af8b60009dba220","false","null","<span style=""color: black; font-size: 48px"">M + N</span>","null","","","","resp_prompt","","","","","","","","","","","","","","","",""
"categorize-image","93","366924","0.0-3.0-3.0-1.15","mjuxgc86wmn6zea","practice_cue","5f39ee73389f375afc195b0d","5f60e3c0a3b16e07647b2ff9","5f60ea2e0af8b60009dba220","true","677.3099999991246","./Stimuli/ImagesPractice/SM98.jpg","83","","","","test","true","M + N","83","","SM","SM98.jpg","remember","old","32","2","practice_forget","left","","","",""
"html-keyboard-response","94","368924","0.0-3.0-3.0-3.15","mjuxgc86wmn6zea","practice_cue","5f39ee73389f375afc195b0d","5f60e3c0a3b16e07647b2ff9","5f60ea2e0af8b60009dba220","false","null","<div style=""align-items: center; display: flex; color: dodgerblue; font-size: 90px""><b>o</b></div>","null","","","","forget_cue","","","","","","","","","","","","","","","",""
"html-keyboard-response","95","373873","0.0-3.0-4.0","mjuxgc86wmn6zea","break","5f39ee73389f375afc195b0d","5f60e3c0a3b16e07647b2ff9","5f60ea2e0af8b60009dba220","false","4947.834999999031","<p style='font-size: 32px;'>Break</><br><br><br><br><br><p style='font-size: 24px;'>In the last block, you committed 0 errors and did not respond in time on 0 trials.
</p><p style='font-size: 24px;'>Try to respond as fast and accurately as possible in the next block as well! </p><p style='font-size: 24px;'>Press SPACE to continue.</p>","32","","","","","","","","","","","","","","","","","","","",""
"html-keyboard-response","96","438921","0.0-3.0-5.0","mjuxgc86wmn6zea","instructions","5f39ee73389f375afc195b0d","5f60e3c0a3b16e07647b2ff9","5f60ea2e0af8b60009dba220","false","65047.10999998497","<div align=left> Now, to practice, we kindly ask you to remember as many of the to-be-remembered pictures<br>of the previous learning phase as possible.<br><br>The pictures you were instructed to remember were the pictures followed by a <span style='color: dodgerblue; font-size: 28px'>O</span>.<br><br>In this memory test phase, you will also see some new pictures.<br>It is your task to remember whether you were presented with this specific picture in this study so far or not.<br>If you recognize an object (you have already seen it in this study), it is an OLD object. <br>If you do not recognize an object (you have NOT seen it in this study), it is a NEW object. <br><strong> Attention</strong>: As already mentioned, <span style='color: darkorange; font-size:28px'>Ø</span>-pictures will <strong>never</strong> appear in this memory test (neither as new objects). <br><br>Press SPACE to continue. </div>","32","","","","","","","","","","","","","","","","","","","",""
"html-keyboard-response","97","495221","0.0-3.0-6.0","mjuxgc86wmn6zea","instructions","5f39ee73389f375afc195b0d","5f60e3c0a3b16e07647b2ff9","5f60ea2e0af8b60009dba220","false","56299.19999995036","<div align=left> M and N no longer will appear on the left/right of the fixation cross. <br>Instead there will be a note at the bottom of the left or right side  <br>indicating which key you should press for an old or new object:  <br> <br>Press the <strong>right</strong> key to classify an object as <strong>old</strong> and press the <strong>left</strong>, to classify an object as <strong>new</strong>.<br>Please classify the objects as new/old by again placing your index finger on the 'S' and 'L' keys <br>and press them accordingly.<br><br><strong>Old:</strong> This object has been presented before. <br><strong>New:</strong> This object has <strong>not</strong> been presented.<br><br>Now please put your right and left index fingers on the 'S' and 'L' keys of your keyboard. <br>Please respond as fast and as accurately as possible!<br><br>Press SPACE to continue. </div>","32","","","","","","","","","","","","","","","","","","","",""
"categorize-image","98","496741","0.0-3.0-7.0-0.0","mjuxgc86wmn6zea","practice_recog","5f39ee73389f375afc195b0d","5f60e3c0a3b16e07647b2ff9","5f60ea2e0af8b60009dba220","true","1018.0099999997765","./Stimuli/ImagesPractice/LN15.jpg","83","","","","test","true","","83","","LN","LN15.jpg","","old","33","3","practice_recog","left","","","",""
"categorize-image","99","498632","0.0-3.0-7.0-0.1","mjuxgc86wmn6zea","practice_recog","5f39ee73389f375afc195b0d","5f60e3c0a3b16e07647b2ff9","5f60ea2e0af8b60009dba220","true","1388.9150000177324","./Stimuli/ImagesPractice/LM239.jpg","83","","","","test","true","","83","","LM","LM239.jpg","","old","34","3","practice_recog","left","","","",""
"categorize-image","100","500221","0.0-3.0-7.0-0.2","mjuxgc86wmn6zea","practice_recog","5f39ee73389f375afc195b0d","5f60e3c0a3b16e07647b2ff9","5f60ea2e0af8b60009dba220","true","1088.0799999576993","./Stimuli/ImagesPractice/SM97.jpg","83","","","","test","true","","83","","SM","SM97.jpg","","old","35","3","practice_recog","left","","","",""
"categorize-image","101","501600","0.0-3.0-7.0-0.3","mjuxgc86wmn6zea","practice_recog","5f39ee73389f375afc195b0d","5f60e3c0a3b16e07647b2ff9","5f60ea2e0af8b60009dba220","true","877.4500000290573","./Stimuli/ImagesPractice/LN109.jpg","76","","","","test","true","","76","","LN","LN109.jpg","","new","36","3","practice_recog","right","","","",""
"categorize-image","102","503017","0.0-3.0-7.0-0.4","mjuxgc86wmn6zea","practice_recog","5f39ee73389f375afc195b0d","5f60e3c0a3b16e07647b2ff9","5f60ea2e0af8b60009dba220","true","915.8450000104494","./Stimuli/ImagesPractice/SM61.jpg","76","","","","test","true","","76","","SM","SM61.jpg","","new","37","3","practice_recog","right","","","",""
"categorize-image","103","504350","0.0-3.0-7.0-0.5","mjuxgc86wmn6zea","practice_recog","5f39ee73389f375afc195b0d","5f60e3c0a3b16e07647b2ff9","5f60ea2e0af8b60009dba220","true","831.5549999824725","./Stimuli/ImagesPractice/LM55.jpg","83","","","","test","true","","83","","LM","LM55.jpg","","old","38","3","practice_recog","left","","","",""
"categorize-image","104","505679","0.0-3.0-7.0-0.6","mjuxgc86wmn6zea","practice_recog","5f39ee73389f375afc195b0d","5f60e3c0a3b16e07647b2ff9","5f60ea2e0af8b60009dba220","true","826.8200000165962","./Stimuli/ImagesPractice/SN205.jpg","83","","","","test","true","","83","","SN","SN205.jpg","","old","39","3","practice_recog","left","","","",""
"categorize-image","105","506962","0.0-3.0-7.0-0.7","mjuxgc86wmn6zea","practice_recog","5f39ee73389f375afc195b0d","5f60e3c0a3b16e07647b2ff9","5f60ea2e0af8b60009dba220","true","782.2800000431016","./Stimuli/ImagesPractice/SM37.jpg","76","","","","test","true","","76","","SM","SM37.jpg","","new","40","3","practice_recog","right","","","",""
"categorize-image","106","508378","0.0-3.0-7.0-0.8","mjuxgc86wmn6zea","practice_recog","5f39ee73389f375afc195b0d","5f60e3c0a3b16e07647b2ff9","5f60ea2e0af8b60009dba220","true","914.8549999808893","./Stimuli/ImagesPractice/SM98.jpg","83","","","","test","true","","83","","SM","SM98.jpg","","old","41","3","practice_recog","left","","","",""
"categorize-image","107","510077","0.0-3.0-7.0-0.9","mjuxgc86wmn6zea","practice_recog","5f39ee73389f375afc195b0d","5f60e3c0a3b16e07647b2ff9","5f60ea2e0af8b60009dba220","true","1196.819999953732","./Stimuli/ImagesPractice/LN17.jpg","76","","","","test","true","","76","","LN","LN17.jpg","","new","42","3","practice_recog","right","","","",""
"categorize-image","108","511445","0.0-3.0-7.0-0.10","mjuxgc86wmn6zea","practice_recog","5f39ee73389f375afc195b0d","5f60e3c0a3b16e07647b2ff9","5f60ea2e0af8b60009dba220","true","866.8000000179745","./Stimuli/ImagesPractice/LN72.jpg","76","","","","test","true","","76","","LN","LN72.jpg","","new","43","3","practice_recog","right","","","",""
"categorize-image","109","512902","0.0-3.0-7.0-0.11","mjuxgc86wmn6zea","practice_recog","5f39ee73389f375afc195b0d","5f60e3c0a3b16e07647b2ff9","5f60ea2e0af8b60009dba220","true","956.6849999828264","./Stimuli/ImagesPractice/SM62.jpg","76","","","","test","true","","76","","SM","SM62.jpg","","new","44","3","practice_recog","right","","","",""
"categorize-image","110","514239","0.0-3.0-7.0-0.12","mjuxgc86wmn6zea","practice_recog","5f39ee73389f375afc195b0d","5f60e3c0a3b16e07647b2ff9","5f60ea2e0af8b60009dba220","true","834.6899999887682","./Stimuli/ImagesPractice/SN220.jpg","76","","","","test","true","","76","","SN","SN220.jpg","","new","45","3","practice_recog","right","","","",""
"categorize-image","111","515400","0.0-3.0-7.0-0.13","mjuxgc86wmn6zea","practice_recog","5f39ee73389f375afc195b0d","5f60e3c0a3b16e07647b2ff9","5f60ea2e0af8b60009dba220","true","659.5700000179932","./Stimuli/ImagesPractice/LN2.jpg","83","","","","test","true","","83","","LN","LN2.jpg","","old","46","3","practice_recog","left","","","",""
"categorize-image","112","516545","0.0-3.0-7.0-0.14","mjuxgc86wmn6zea","practice_recog","5f39ee73389f375afc195b0d","5f60e3c0a3b16e07647b2ff9","5f60ea2e0af8b60009dba220","true","642.9149999748915","./Stimuli/ImagesPractice/LM224.jpg","83","","","","test","true","","83","","LM","LM224.jpg","","old","47","3","practice_recog","left","","","",""
"categorize-image","113","517932","0.0-3.0-7.0-0.15","mjuxgc86wmn6zea","practice_recog","5f39ee73389f375afc195b0d","5f60e3c0a3b16e07647b2ff9","5f60ea2e0af8b60009dba220","true","886.4049999974668","./Stimuli/ImagesPractice/SN222.jpg","76","","","","test","true","","76","","SN","SN222.jpg","","new","48","3","practice_recog","right","","","",""
"html-keyboard-response","114","540850","0.0-3.0-8.0","mjuxgc86wmn6zea","instructions","5f39ee73389f375afc195b0d","5f60e3c0a3b16e07647b2ff9","5f60ea2e0af8b60009dba220","false","22916.729999997187","<div align=left> Great!<br><br>Are you ready to continue?<br>If you want to reread the instructions and redo the practice trials, please <br>press „Z“.<br><br>You can proceed when you are ready.<br><br>After the presentation of each object, you will receive an instruction whether to <br>remember or to forget the object.<br>We will test your memory of the following pictures only at the very end of <br>the experiment after all learning blocks are completed. <br><br>Press SPACE to CONTINUE when you are ready. </div>","32","","","","","","","","","","","","","","","","","","","",""
"html-keyboard-response","115","570026","0.0-4.0-0.0","mjuxgc86wmn6zea","instructions","5f39ee73389f375afc195b0d","5f60e3c0a3b16e07647b2ff9","5f60ea2e0af8b60009dba220","false","29175.400000007357","<div align=left> The actual experiment is about to start.<br>The practice trials are over!<br><br>Please always respond both fast and accurately!<br><br>Remember: <br> <br><li> Please place your index fingers on the <strong>'S'</strong> and <strong>'L'</strong> keys <br>to respond as fast and accurately as possible.</li><li> Every picture can be classified as either mechanical or non-mechanical.</li><li> If you do not respond in time or commit an error, you will receive a corresponding feedback.<br> Please try to respond as <strong> fast </strong> and as <strong> accurately as possible </strong>.</li><li> Remember the <span style='color: dodgerblue; font-size: 28px'>O</span> pictures. <br></li><li> Please minimize distractions and stay focused. </li><br><br>Press SPACE to START.</div>","32","","","","","","","","","","","","","","","","","","","",""
"html-keyboard-response","116","570727","0.0-4.0-1.0-0.0","mjuxgc86wmn6zea","prime","5f39ee73389f375afc195b0d","5f60e3c0a3b16e07647b2ff9","5f60ea2e0af8b60009dba220","false","null","<span style=""color: black; font-size: 48px"">M + N</span>","null","","","","resp_prompt","","","","","","","","","","","","","","","",""
"categorize-image","117","571443","0.0-4.0-1.0-1.0","mjuxgc86wmn6zea","prime","5f39ee73389f375afc195b0d","5f60e3c0a3b16e07647b2ff9","5f60ea2e0af8b60009dba220","true","711.9349999702536","./Stimuli/SelectedImages/LN/LN149.bmp","76","","","","test","true","M + N","76","repetition","LN","LN149.bmp","remember","","49","3","prime1","right","","","",""
"html-keyboard-response","118","573445","0.0-4.0-1.0-3.0","mjuxgc86wmn6zea","prime","5f39ee73389f375afc195b0d","5f60e3c0a3b16e07647b2ff9","5f60ea2e0af8b60009dba220","false","null","<div style=""align-items: center; display: flex; color: dodgerblue; font-size: 90px""><b>o</b></div>","null","","","","forget_cue","","","","","","","","","","","","","","","",""
"html-keyboard-response","119","574146","0.0-4.0-1.0-0.1","mjuxgc86wmn6zea","prime","5f39ee73389f375afc195b0d","5f60e3c0a3b16e07647b2ff9","5f60ea2e0af8b60009dba220","false","null","<span style=""color: black; font-size: 48px"">N + M</span>","null","","","","resp_prompt","","","","","","","","","","","","","","","",""
"categorize-image","120","574906","0.0-4.0-1.0-1.1","mjuxgc86wmn6zea","prime","5f39ee73389f375afc195b0d","5f60e3c0a3b16e07647b2ff9","5f60ea2e0af8b60009dba220","true","756.4600000041537","./Stimuli/SelectedImages/LN/LN177.bmp","83","","","","test","true","N + M","83","switch","LN","LN177.bmp","forget","","50","3","prime1","left","","","",""
"html-keyboard-response","121","576908","0.0-4.0-1.0-3.1","mjuxgc86wmn6zea","prime","5f39ee73389f375afc195b0d","5f60e3c0a3b16e07647b2ff9","5f60ea2e0af8b60009dba220","false","null","<div style=""align-items: center; display: flex; color: darkorange; font-size: 90px""><b>ø</b></div>","null","","","","forget_cue","","","","","","","","","","","","","","","",""
"html-keyboard-response","122","577609","0.0-4.0-1.0-0.2","mjuxgc86wmn6zea","prime","5f39ee73389f375afc195b0d","5f60e3c0a3b16e07647b2ff9","5f60ea2e0af8b60009dba220","false","null","<span style=""color: black; font-size: 48px"">M + N</span>","null","","","","resp_prompt","","","","","","","","","","","","","","","",""
"categorize-image","123","578685","0.0-4.0-1.0-1.2","mjuxgc86wmn6zea","prime","5f39ee73389f375afc195b0d","5f60e3c0a3b16e07647b2ff9","5f60ea2e0af8b60009dba220","true","1072.3349999752827","./Stimuli/SelectedImages/LM/LM150.bmp","83","","","","test","true","M + N","83","repetition","LM","LM150.bmp","remember","","51","3","prime1","left","","","",""
"html-keyboard-response","124","580687","0.0-4.0-1.0-3.2","mjuxgc86wmn6zea","prime","5f39ee73389f375afc195b0d","5f60e3c0a3b16e07647b2ff9","5f60ea2e0af8b60009dba220","false","null","<div style=""align-items: center; display: flex; color: dodgerblue; font-size: 90px""><b>o</b></div>","null","","","","forget_cue","","","","","","","","","","","","","","","",""
"html-keyboard-response","125","581387","0.0-4.0-1.0-0.3","mjuxgc86wmn6zea","prime","5f39ee73389f375afc195b0d","5f60e3c0a3b16e07647b2ff9","5f60ea2e0af8b60009dba220","false","null","<span style=""color: black; font-size: 48px"">M + N</span>","null","","","","resp_prompt","","","","","","","","","","","","","","","",""
"categorize-image","126","582111","0.0-4.0-1.0-1.3","mjuxgc86wmn6zea","prime","5f39ee73389f375afc195b0d","5f60e3c0a3b16e07647b2ff9","5f60ea2e0af8b60009dba220","true","721.6699999989942","./Stimuli/SelectedImages/SN/SN140.bmp","76","","","","test","true","M + N","76","repetition","SN","SN140.bmp","remember","","52","3","prime1","right","","","",""
"html-keyboard-response","127","584112","0.0-4.0-1.0-3.3","mjuxgc86wmn6zea","prime","5f39ee73389f375afc195b0d","5f60e3c0a3b16e07647b2ff9","5f60ea2e0af8b60009dba220","false","null","<div style=""align-items: center; display: flex; color: dodgerblue; font-size: 90px""><b>o</b></div>","null","","","","forget_cue","","","","","","","","","","","","","","","",""
"html-keyboard-response","128","584813","0.0-4.0-1.0-0.4","mjuxgc86wmn6zea","prime","5f39ee73389f375afc195b0d","5f60e3c0a3b16e07647b2ff9","5f60ea2e0af8b60009dba220","false","null","<span style=""color: black; font-size: 48px"">M + N</span>","null","","","","resp_prompt","","","","","","","","","","","","","","","",""
"categorize-image","129","585643","0.0-4.0-1.0-1.4","mjuxgc86wmn6zea","prime","5f39ee73389f375afc195b0d","5f60e3c0a3b16e07647b2ff9","5f60ea2e0af8b60009dba220","true","827.5900000007823","./Stimuli/SelectedImages/LN/LN9.bmp","76","","","","test","true","M + N","76","repetition","LN","LN9.bmp","remember","","53","3","prime1","right","","","",""
"html-keyboard-response","130","587644","0.0-4.0-1.0-3.4","mjuxgc86wmn6zea","prime","5f39ee73389f375afc195b0d","5f60e3c0a3b16e07647b2ff9","5f60ea2e0af8b60009dba220","false","null","<div style=""align-items: center; display: flex; color: dodgerblue; font-size: 90px""><b>o</b></div>","null","","","","forget_cue","","","","","","","","","","","","","","","",""
"html-keyboard-response","131","588345","0.0-4.0-1.0-0.5","mjuxgc86wmn6zea","prime","5f39ee73389f375afc195b0d","5f60e3c0a3b16e07647b2ff9","5f60ea2e0af8b60009dba220","false","null","<span style=""color: black; font-size: 48px"">M + N</span>","null","","","","resp_prompt","","","","","","","","","","","","","","","",""
"categorize-image","132","589061","0.0-4.0-1.0-1.5","mjuxgc86wmn6zea","prime","5f39ee73389f375afc195b0d","5f60e3c0a3b16e07647b2ff9","5f60ea2e0af8b60009dba220","true","713.3250000188127","./Stimuli/SelectedImages/LN/LN101.bmp","76","","","","test","true","M + N","76","switch","LN","LN101.bmp","remember","","54","3","prime1","right","","","",""
"html-keyboard-response","133","591062","0.0-4.0-1.0-3.5","mjuxgc86wmn6zea","prime","5f39ee73389f375afc195b0d","5f60e3c0a3b16e07647b2ff9","5f60ea2e0af8b60009dba220","false","null","<div style=""align-items: center; display: flex; color: dodgerblue; font-size: 90px""><b>o</b></div>","null","","","","forget_cue","","","","","","","","","","","","","","","",""
"html-keyboard-response","134","591763","0.0-4.0-1.0-0.6","mjuxgc86wmn6zea","prime","5f39ee73389f375afc195b0d","5f60e3c0a3b16e07647b2ff9","5f60ea2e0af8b60009dba220","false","null","<span style=""color: black; font-size: 48px"">N + M</span>","null","","","","resp_prompt","","","","","","","","","","","","","","","",""
"categorize-image","135","593002","0.0-4.0-1.0-1.6","mjuxgc86wmn6zea","prime","5f39ee73389f375afc195b0d","5f60e3c0a3b16e07647b2ff9","5f60ea2e0af8b60009dba220","true","1234.9750000284985","./Stimuli/SelectedImages/SM/SM74.bmp","76","","","","test","true","N + M","76","switch","SM","SM74.bmp","forget","","55","3","prime1","right","","","",""
"html-keyboard-response","136","595003","0.0-4.0-1.0-3.6","mjuxgc86wmn6zea","prime","5f39ee73389f375afc195b0d","5f60e3c0a3b16e07647b2ff9","5f60ea2e0af8b60009dba220","false","null","<div style=""align-items: center; display: flex; color: darkorange; font-size: 90px""><b>ø</b></div>","null","","","","forget_cue","","","","","","","","","","","","","","","",""
"html-keyboard-response","137","595704","0.0-4.0-1.0-0.7","mjuxgc86wmn6zea","prime","5f39ee73389f375afc195b0d","5f60e3c0a3b16e07647b2ff9","5f60ea2e0af8b60009dba220","false","null","<span style=""color: black; font-size: 48px"">N + M</span>","null","","","","resp_prompt","","","","","","","","","","","","","","","",""
"categorize-image","138","597070","0.0-4.0-1.0-1.7","mjuxgc86wmn6zea","prime","5f39ee73389f375afc195b0d","5f60e3c0a3b16e07647b2ff9","5f60ea2e0af8b60009dba220","true","1364.0800000284798","./Stimuli/SelectedImages/SM/SM17.bmp","76","","","","test","true","N + M","76","repetition","SM","SM17.bmp","remember","","56","3","prime1","right","","","",""
"html-keyboard-response","139","599071","0.0-4.0-1.0-3.7","mjuxgc86wmn6zea","prime","5f39ee73389f375afc195b0d","5f60e3c0a3b16e07647b2ff9","5f60ea2e0af8b60009dba220","false","null","<div style=""align-items: center; display: flex; color: dodgerblue; font-size: 90px""><b>o</b></div>","null","","","","forget_cue","","","","","","","","","","","","","","","",""
"html-keyboard-response","140","599772","0.0-4.0-1.0-0.8","mjuxgc86wmn6zea","prime","5f39ee73389f375afc195b0d","5f60e3c0a3b16e07647b2ff9","5f60ea2e0af8b60009dba220","false","null","<span style=""color: black; font-size: 48px"">M + N</span>","null","","","","resp_prompt","","","","","","","","","","","","","","","",""
"categorize-image","141","600580","0.0-4.0-1.0-1.8","mjuxgc86wmn6zea","prime","5f39ee73389f375afc195b0d","5f60e3c0a3b16e07647b2ff9","5f60ea2e0af8b60009dba220","true","804.0749999927357","./Stimuli/SelectedImages/SM/SM184.bmp","83","","","","test","true","M + N","83","switch","SM","SM184.bmp","forget","","57","3","prime1","left","","","",""
"html-keyboard-response","142","602581","0.0-4.0-1.0-3.8","mjuxgc86wmn6zea","prime","5f39ee73389f375afc195b0d","5f60e3c0a3b16e07647b2ff9","5f60ea2e0af8b60009dba220","false","null","<div style=""align-items: center; display: flex; color: darkorange; font-size: 90px""><b>ø</b></div>","null","","","","forget_cue","","","","","","","","","","","","","","","",""
"html-keyboard-response","143","603283","0.0-4.0-1.0-0.9","mjuxgc86wmn6zea","prime","5f39ee73389f375afc195b0d","5f60e3c0a3b16e07647b2ff9","5f60ea2e0af8b60009dba220","false","null","<span style=""color: black; font-size: 48px"">N + M</span>","null","","","","resp_prompt","","","","","","","","","","","","","","","",""
"categorize-image","144","604182","0.0-4.0-1.0-1.9","mjuxgc86wmn6zea","prime","5f39ee73389f375afc195b0d","5f60e3c0a3b16e07647b2ff9","5f60ea2e0af8b60009dba220","true","895.4950000043027","./Stimuli/SelectedImages/SM/SM24.bmp","76","","","","test","true","N + M","76","switch","SM","SM24.bmp","forget","","58","3","prime1","right","","","",""
"html-keyboard-response","145","606183","0.0-4.0-1.0-3.9","mjuxgc86wmn6zea","prime","5f39ee73389f375afc195b0d","5f60e3c0a3b16e07647b2ff9","5f60ea2e0af8b60009dba220","false","null","<div style=""align-items: center; display: flex; color: darkorange; font-size: 90px""><b>ø</b></div>","null","","","","forget_cue","","","","","","","","","","","","","","","",""
"html-keyboard-response","146","606885","0.0-4.0-1.0-0.10","mjuxgc86wmn6zea","prime","5f39ee73389f375afc195b0d","5f60e3c0a3b16e07647b2ff9","5f60ea2e0af8b60009dba220","false","null","<span style=""color: black; font-size: 48px"">M + N</span>","null","","","","resp_prompt","","","","","","","","","","","","","","","",""
"categorize-image","147","607935","0.0-4.0-1.0-1.10","mjuxgc86wmn6zea","prime","5f39ee73389f375afc195b0d","5f60e3c0a3b16e07647b2ff9","5f60ea2e0af8b60009dba220","true","1047.5399999995716","./Stimuli/SelectedImages/SM/SM78.bmp","83","","","","test","true","M + N","83","switch","SM","SM78.bmp","forget","","59","3","prime1","left","","","",""
"html-keyboard-response","148","609936","0.0-4.0-1.0-3.10","mjuxgc86wmn6zea","prime","5f39ee73389f375afc195b0d","5f60e3c0a3b16e07647b2ff9","5f60ea2e0af8b60009dba220","false","null","<div style=""align-items: center; display: flex; color: darkorange; font-size: 90px""><b>ø</b></div>","null","","","","forget_cue","","","","","","","","","","","","","","","",""
"html-keyboard-response","149","610638","0.0-4.0-1.0-0.11","mjuxgc86wmn6zea","prime","5f39ee73389f375afc195b0d","5f60e3c0a3b16e07647b2ff9","5f60ea2e0af8b60009dba220","false","null","<span style=""color: black; font-size: 48px"">M + N</span>","null","","","","resp_prompt","","","","","","","","","","","","","","","",""
"categorize-image","150","611417","0.0-4.0-1.0-1.11","mjuxgc86wmn6zea","prime","5f39ee73389f375afc195b0d","5f60e3c0a3b16e07647b2ff9","5f60ea2e0af8b60009dba220","true","776.3100000447594","./Stimuli/SelectedImages/SN/SN93.bmp","76","","","","test","true","M + N","76","switch","SN","SN93.bmp","forget","","60","3","prime1","right","","","",""
"html-keyboard-response","151","613418","0.0-4.0-1.0-3.11","mjuxgc86wmn6zea","prime","5f39ee73389f375afc195b0d","5f60e3c0a3b16e07647b2ff9","5f60ea2e0af8b60009dba220","false","null","<div style=""align-items: center; display: flex; color: darkorange; font-size: 90px""><b>ø</b></div>","null","","","","forget_cue","","","","","","","","","","","","","","","",""
"html-keyboard-response","152","614120","0.0-4.0-1.0-0.12","mjuxgc86wmn6zea","prime","5f39ee73389f375afc195b0d","5f60e3c0a3b16e07647b2ff9","5f60ea2e0af8b60009dba220","false","null","<span style=""color: black; font-size: 48px"">N + M</span>","null","","","","resp_prompt","","","","","","","","","","","","","","","",""
"categorize-image","153","615005","0.0-4.0-1.0-1.12","mjuxgc86wmn6zea","prime","5f39ee73389f375afc195b0d","5f60e3c0a3b16e07647b2ff9","5f60ea2e0af8b60009dba220","true","882.0599999744445","./Stimuli/SelectedImages/LM/LM48.bmp","76","","","","test","true","N + M","76","switch","LM","LM48.bmp","remember","","61","3","prime1","right","","","",""
"html-keyboard-response","154","617007","0.0-4.0-1.0-3.12","mjuxgc86wmn6zea","prime","5f39ee73389f375afc195b0d","5f60e3c0a3b16e07647b2ff9","5f60ea2e0af8b60009dba220","false","null","<div style=""align-items: center; display: flex; color: dodgerblue; font-size: 90px""><b>o</b></div>","null","","","","forget_cue","","","","","","","","","","","","","","","",""
"html-keyboard-response","155","617708","0.0-4.0-1.0-0.13","mjuxgc86wmn6zea","prime","5f39ee73389f375afc195b0d","5f60e3c0a3b16e07647b2ff9","5f60ea2e0af8b60009dba220","false","null","<span style=""color: black; font-size: 48px"">N + M</span>","null","","","","resp_prompt","","","","","","","","","","","","","","","",""
"categorize-image","156","618531","0.0-4.0-1.0-1.13","mjuxgc86wmn6zea","prime","5f39ee73389f375afc195b0d","5f60e3c0a3b16e07647b2ff9","5f60ea2e0af8b60009dba220","true","819.4599999696948","./Stimuli/SelectedImages/SN/SN52.bmp","83","","","","test","true","N + M","83","repetition","SN","SN52.bmp","forget","","62","3","prime1","left","","","",""
"html-keyboard-response","157","620532","0.0-4.0-1.0-3.13","mjuxgc86wmn6zea","prime","5f39ee73389f375afc195b0d","5f60e3c0a3b16e07647b2ff9","5f60ea2e0af8b60009dba220","false","null","<div style=""align-items: center; display: flex; color: darkorange; font-size: 90px""><b>ø</b></div>","null","","","","forget_cue","","","","","","","","","","","","","","","",""
"html-keyboard-response","158","621233","0.0-4.0-1.0-0.14","mjuxgc86wmn6zea","prime","5f39ee73389f375afc195b0d","5f60e3c0a3b16e07647b2ff9","5f60ea2e0af8b60009dba220","false","null","<span style=""color: black; font-size: 48px"">N + M</span>","null","","","","resp_prompt","","","","","","","","","","","","","","","",""
"categorize-image","159","622001","0.0-4.0-1.0-1.14","mjuxgc86wmn6zea","prime","5f39ee73389f375afc195b0d","5f60e3c0a3b16e07647b2ff9","5f60ea2e0af8b60009dba220","true","763.2599999778904","./Stimuli/SelectedImages/SN/SN155.bmp","83","","","","test","true","N + M","83","switch","SN","SN155.bmp","remember","","63","3","prime1","left","","","",""
"html-keyboard-response","160","624002","0.0-4.0-1.0-3.14","mjuxgc86wmn6zea","prime","5f39ee73389f375afc195b0d","5f60e3c0a3b16e07647b2ff9","5f60ea2e0af8b60009dba220","false","null","<div style=""align-items: center; display: flex; color: dodgerblue; font-size: 90px""><b>o</b></div>","null","","","","forget_cue","","","","","","","","","","","","","","","",""
"html-keyboard-response","161","624703","0.0-4.0-1.0-0.15","mjuxgc86wmn6zea","prime","5f39ee73389f375afc195b0d","5f60e3c0a3b16e07647b2ff9","5f60ea2e0af8b60009dba220","false","null","<span style=""color: black; font-size: 48px"">N + M</span>","null","","","","resp_prompt","","","","","","","","","","","","","","","",""
"categorize-image","162","625552","0.0-4.0-1.0-1.15","mjuxgc86wmn6zea","prime","5f39ee73389f375afc195b0d","5f60e3c0a3b16e07647b2ff9","5f60ea2e0af8b60009dba220","true","844.7249999735504","./Stimuli/SelectedImages/LN/LN92.bmp","83","","","","test","true","N + M","83","repetition","LN","LN92.bmp","forget","","64","3","prime1","left","","","",""
"html-keyboard-response","163","627553","0.0-4.0-1.0-3.15","mjuxgc86wmn6zea","prime","5f39ee73389f375afc195b0d","5f60e3c0a3b16e07647b2ff9","5f60ea2e0af8b60009dba220","false","null","<div style=""align-items: center; display: flex; color: darkorange; font-size: 90px""><b>ø</b></div>","null","","","","forget_cue","","","","","","","","","","","","","","","",""
"html-keyboard-response","164","628255","0.0-4.0-1.0-0.16","mjuxgc86wmn6zea","prime","5f39ee73389f375afc195b0d","5f60e3c0a3b16e07647b2ff9","5f60ea2e0af8b60009dba220","false","null","<span style=""color: black; font-size: 48px"">N + M</span>","null","","","","resp_prompt","","","","","","","","","","","","","","","",""
"categorize-image","165","629204","0.0-4.0-1.0-1.16","mjuxgc86wmn6zea","prime","5f39ee73389f375afc195b0d","5f60e3c0a3b16e07647b2ff9","5f60ea2e0af8b60009dba220","true","945.5799999996088","./Stimuli/SelectedImages/LM/LM167.bmp","76","","","","test","true","N + M","76","repetition","LM","LM167.bmp","remember","","65","3","prime1","right","","","",""
"html-keyboard-response","166","631205","0.0-4.0-1.0-3.16","mjuxgc86wmn6zea","prime","5f39ee73389f375afc195b0d","5f60e3c0a3b16e07647b2ff9","5f60ea2e0af8b60009dba220","false","null","<div style=""align-items: center; display: flex; color: dodgerblue; font-size: 90px""><b>o</b></div>","null","","","","forget_cue","","","","","","","","","","","","","","","",""
"html-keyboard-response","167","631906","0.0-4.0-1.0-0.17","mjuxgc86wmn6zea","prime","5f39ee73389f375afc195b0d","5f60e3c0a3b16e07647b2ff9","5f60ea2e0af8b60009dba220","false","null","<span style=""color: black; font-size: 48px"">N + M</span>","null","","","","resp_prompt","","","","","","","","","","","","","","","",""
"categorize-image","168","632924","0.0-4.0-1.0-1.17","mjuxgc86wmn6zea","prime","5f39ee73389f375afc195b0d","5f60e3c0a3b16e07647b2ff9","5f60ea2e0af8b60009dba220","true","1014.4299999810755","./Stimuli/SelectedImages/LM/LM57.bmp","76","","","","test","true","N + M","76","repetition","LM","LM57.bmp","forget","","66","3","prime1","right","","","",""
"html-keyboard-response","169","634925","0.0-4.0-1.0-3.17","mjuxgc86wmn6zea","prime","5f39ee73389f375afc195b0d","5f60e3c0a3b16e07647b2ff9","5f60ea2e0af8b60009dba220","false","null","<div style=""align-items: center; display: flex; color: darkorange; font-size: 90px""><b>ø</b></div>","null","","","","forget_cue","","","","","","","","","","","","","","","",""
"html-keyboard-response","170","635627","0.0-4.0-1.0-0.18","mjuxgc86wmn6zea","prime","5f39ee73389f375afc195b0d","5f60e3c0a3b16e07647b2ff9","5f60ea2e0af8b60009dba220","false","null","<span style=""color: black; font-size: 48px"">N + M</span>","null","","","","resp_prompt","","","","","","","","","","","","","","","",""
"categorize-image","171","636356","0.0-4.0-1.0-1.18","mjuxgc86wmn6zea","prime","5f39ee73389f375afc195b0d","5f60e3c0a3b16e07647b2ff9","5f60ea2e0af8b60009dba220","true","725.9249999769963","./Stimuli/SelectedImages/LN/LN13.bmp","83","","","","test","true","N + M","83","repetition","LN","LN13.bmp","remember","","67","3","prime1","left","","","",""
"html-keyboard-response","172","638357","0.0-4.0-1.0-3.18","mjuxgc86wmn6zea","prime","5f39ee73389f375afc195b0d","5f60e3c0a3b16e07647b2ff9","5f60ea2e0af8b60009dba220","false","null","<div style=""align-items: center; display: flex; color: dodgerblue; font-size: 90px""><b>o</b></div>","null","","","","forget_cue","","","","","","","","","","","","","","","",""
"html-keyboard-response","173","639059","0.0-4.0-1.0-0.19","mjuxgc86wmn6zea","prime","5f39ee73389f375afc195b0d","5f60e3c0a3b16e07647b2ff9","5f60ea2e0af8b60009dba220","false","null","<span style=""color: black; font-size: 48px"">M + N</span>","null","","","","resp_prompt","","","","","","","","","","","","","","","",""
"categorize-image","174","640107","0.0-4.0-1.0-1.19","mjuxgc86wmn6zea","prime","5f39ee73389f375afc195b0d","5f60e3c0a3b16e07647b2ff9","5f60ea2e0af8b60009dba220","true","1044.7949999943376","./Stimuli/SelectedImages/SM/SM108.bmp","83","","","","test","true","M + N","83","repetition","SM","SM108.bmp","forget","","68","3","prime1","left","","","",""
"html-keyboard-response","175","642109","0.0-4.0-1.0-3.19","mjuxgc86wmn6zea","prime","5f39ee73389f375afc195b0d","5f60e3c0a3b16e07647b2ff9","5f60ea2e0af8b60009dba220","false","null","<div style=""align-items: center; display: flex; color: darkorange; font-size: 90px""><b>ø</b></div>","null","","","","forget_cue","","","","","","","","","","","","","","","",""
"html-keyboard-response","176","642810","0.0-4.0-1.0-0.20","mjuxgc86wmn6zea","prime","5f39ee73389f375afc195b0d","5f60e3c0a3b16e07647b2ff9","5f60ea2e0af8b60009dba220","false","null","<span style=""color: black; font-size: 48px"">M + N</span>","null","","","","resp_prompt","","","","","","","","","","","","","","","",""
"categorize-image","177","643661","0.0-4.0-1.0-1.20","mjuxgc86wmn6zea","prime","5f39ee73389f375afc195b0d","5f60e3c0a3b16e07647b2ff9","5f60ea2e0af8b60009dba220","true","847.2450000117533","./Stimuli/SelectedImages/LM/LM209.bmp","83","","","","test","true","M + N","83","switch","LM","LM209.bmp","remember","","69","3","prime1","left","","","",""
"html-keyboard-response","178","645662","0.0-4.0-1.0-3.20","mjuxgc86wmn6zea","prime","5f39ee73389f375afc195b0d","5f60e3c0a3b16e07647b2ff9","5f60ea2e0af8b60009dba220","false","null","<div style=""align-items: center; display: flex; color: dodgerblue; font-size: 90px""><b>o</b></div>","null","","","","forget_cue","","","","","","","","","","","","","","","",""
"html-keyboard-response","179","646364","0.0-4.0-1.0-0.21","mjuxgc86wmn6zea","prime","5f39ee73389f375afc195b0d","5f60e3c0a3b16e07647b2ff9","5f60ea2e0af8b60009dba220","false","null","<span style=""color: black; font-size: 48px"">N + M</span>","null","","","","resp_prompt","","","","","","","","","","","","","","","",""
"categorize-image","180","647056","0.0-4.0-1.0-1.21","mjuxgc86wmn6zea","prime","5f39ee73389f375afc195b0d","5f60e3c0a3b16e07647b2ff9","5f60ea2e0af8b60009dba220","true","688.3899999666028","./Stimuli/SelectedImages/SN/SN49.bmp","83","","","","test","true","N + M","83","repetition","SN","SN49.bmp","forget","","70","3","prime1","left","","","",""
"html-keyboard-response","181","649058","0.0-4.0-1.0-3.21","mjuxgc86wmn6zea","prime","5f39ee73389f375afc195b0d","5f60e3c0a3b16e07647b2ff9","5f60ea2e0af8b60009dba220","false","null","<div style=""align-items: center; display: flex; color: darkorange; font-size: 90px""><b>ø</b></div>","null","","","","forget_cue","","","","","","","","","","","","","","","",""
"html-keyboard-response","182","649760","0.0-4.0-1.0-0.22","mjuxgc86wmn6zea","prime","5f39ee73389f375afc195b0d","5f60e3c0a3b16e07647b2ff9","5f60ea2e0af8b60009dba220","false","null","<span style=""color: black; font-size: 48px"">N + M</span>","null","","","","resp_prompt","","","","","","","","","","","","","","","",""
"categorize-image","183","650433","0.0-4.0-1.0-1.22","mjuxgc86wmn6zea","prime","5f39ee73389f375afc195b0d","5f60e3c0a3b16e07647b2ff9","5f60ea2e0af8b60009dba220","true","670.685000019148","./Stimuli/SelectedImages/LN/LN111.bmp","83","","","","test","true","N + M","83","switch","LN","LN111.bmp","forget","","71","3","prime1","left","","","",""
"html-keyboard-response","184","652434","0.0-4.0-1.0-3.22","mjuxgc86wmn6zea","prime","5f39ee73389f375afc195b0d","5f60e3c0a3b16e07647b2ff9","5f60ea2e0af8b60009dba220","false","null","<div style=""align-items: center; display: flex; color: darkorange; font-size: 90px""><b>ø</b></div>","null","","","","forget_cue","","","","","","","","","","","","","","","",""
"html-keyboard-response","185","653135","0.0-4.0-1.0-0.23","mjuxgc86wmn6zea","prime","5f39ee73389f375afc195b0d","5f60e3c0a3b16e07647b2ff9","5f60ea2e0af8b60009dba220","false","null","<span style=""color: black; font-size: 48px"">M + N</span>","null","","","","resp_prompt","","","","","","","","","","","","","","","",""
"categorize-image","186","654346","0.0-4.0-1.0-1.23","mjuxgc86wmn6zea","prime","5f39ee73389f375afc195b0d","5f60e3c0a3b16e07647b2ff9","5f60ea2e0af8b60009dba220","true","1208.5300000035204","./Stimuli/SelectedImages/LN/LN131.bmp","76","","","","test","true","M + N","76","switch","LN","LN131.bmp","forget","","72","3","prime1","right","","","",""
"html-keyboard-response","187","656347","0.0-4.0-1.0-3.23","mjuxgc86wmn6zea","prime","5f39ee73389f375afc195b0d","5f60e3c0a3b16e07647b2ff9","5f60ea2e0af8b60009dba220","false","null","<div style=""align-items: center; display: flex; color: darkorange; font-size: 90px""><b>ø</b></div>","null","","","","forget_cue","","","","","","","","","","","","","","","",""
"html-keyboard-response","188","657048","0.0-4.0-1.0-0.24","mjuxgc86wmn6zea","prime","5f39ee73389f375afc195b0d","5f60e3c0a3b16e07647b2ff9","5f60ea2e0af8b60009dba220","false","null","<span style=""color: black; font-size: 48px"">M + N</span>","null","","","","resp_prompt","","","","","","","","","","","","","","","",""
"categorize-image","189","657727","0.0-4.0-1.0-1.24","mjuxgc86wmn6zea","prime","5f39ee73389f375afc195b0d","5f60e3c0a3b16e07647b2ff9","5f60ea2e0af8b60009dba220","true","676.9149999599904","./Stimuli/SelectedImages/SN/SN187.bmp","76","","","","test","true","M + N","76","repetition","SN","SN187.bmp","remember","","73","3","prime1","right","","","",""
"html-keyboard-response","190","659728","0.0-4.0-1.0-3.24","mjuxgc86wmn6zea","prime","5f39ee73389f375afc195b0d","5f60e3c0a3b16e07647b2ff9","5f60ea2e0af8b60009dba220","false","null","<div style=""align-items: center; display: flex; color: dodgerblue; font-size: 90px""><b>o</b></div>","null","","","","forget_cue","","","","","","","","","","","","","","","",""
"html-keyboard-response","191","660429","0.0-4.0-1.0-0.25","mjuxgc86wmn6zea","prime","5f39ee73389f375afc195b0d","5f60e3c0a3b16e07647b2ff9","5f60ea2e0af8b60009dba220","false","null","<span style=""color: black; font-size: 48px"">M + N</span>","null","","","","resp_prompt","","","","","","","","","","","","","","","",""
"categorize-image","192","661270","0.0-4.0-1.0-1.25","mjuxgc86wmn6zea","prime","5f39ee73389f375afc195b0d","5f60e3c0a3b16e07647b2ff9","5f60ea2e0af8b60009dba220","true","837.0949999662116","./Stimuli/SelectedImages/LM/LM58.bmp","83","","","","test","true","M + N","83","switch","LM","LM58.bmp","remember","","74","3","prime1","left","","","",""
"html-keyboard-response","193","663270","0.0-4.0-1.0-3.25","mjuxgc86wmn6zea","prime","5f39ee73389f375afc195b0d","5f60e3c0a3b16e07647b2ff9","5f60ea2e0af8b60009dba220","false","null","<div style=""align-items: center; display: flex; color: dodgerblue; font-size: 90px""><b>o</b></div>","null","","","","forget_cue","","","","","","","","","","","","","","","",""
"html-keyboard-response","194","663972","0.0-4.0-1.0-0.26","mjuxgc86wmn6zea","prime","5f39ee73389f375afc195b0d","5f60e3c0a3b16e07647b2ff9","5f60ea2e0af8b60009dba220","false","null","<span style=""color: black; font-size: 48px"">N + M</span>","null","","","","resp_prompt","","","","","","","","","","","","","","","",""
"categorize-image","195","664878","0.0-4.0-1.0-1.26","mjuxgc86wmn6zea","prime","5f39ee73389f375afc195b0d","5f60e3c0a3b16e07647b2ff9","5f60ea2e0af8b60009dba220","true","902.9500000178814","./Stimuli/SelectedImages/SN/SN179.bmp","83","","","","test","true","N + M","83","repetition","SN","SN179.bmp","remember","","75","3","prime1","left","","","",""
"html-keyboard-response","196","666878","0.0-4.0-1.0-3.26","mjuxgc86wmn6zea","prime","5f39ee73389f375afc195b0d","5f60e3c0a3b16e07647b2ff9","5f60ea2e0af8b60009dba220","false","null","<div style=""align-items: center; display: flex; color: dodgerblue; font-size: 90px""><b>o</b></div>","null","","","","forget_cue","","","","","","","","","","","","","","","",""
"html-keyboard-response","197","667580","0.0-4.0-1.0-0.27","mjuxgc86wmn6zea","prime","5f39ee73389f375afc195b0d","5f60e3c0a3b16e07647b2ff9","5f60ea2e0af8b60009dba220","false","null","<span style=""color: black; font-size: 48px"">M + N</span>","null","","","","resp_prompt","","","","","","","","","","","","","","","",""
"categorize-image","198","668377","0.0-4.0-1.0-1.27","mjuxgc86wmn6zea","prime","5f39ee73389f375afc195b0d","5f60e3c0a3b16e07647b2ff9","5f60ea2e0af8b60009dba220","true","794.5600000093691","./Stimuli/SelectedImages/LM/LM51.bmp","83","","","","test","true","M + N","83","repetition","LM","LM51.bmp","forget","","76","3","prime1","left","","","",""
"html-keyboard-response","199","670378","0.0-4.0-1.0-3.27","mjuxgc86wmn6zea","prime","5f39ee73389f375afc195b0d","5f60e3c0a3b16e07647b2ff9","5f60ea2e0af8b60009dba220","false","null","<div style=""align-items: center; display: flex; color: darkorange; font-size: 90px""><b>ø</b></div>","null","","","","forget_cue","","","","","","","","","","","","","","","",""
"html-keyboard-response","200","671079","0.0-4.0-1.0-0.28","mjuxgc86wmn6zea","prime","5f39ee73389f375afc195b0d","5f60e3c0a3b16e07647b2ff9","5f60ea2e0af8b60009dba220","false","null","<span style=""color: black; font-size: 48px"">M + N</span>","null","","","","resp_prompt","","","","","","","","","","","","","","","",""
"categorize-image","201","671912","0.0-4.0-1.0-1.28","mjuxgc86wmn6zea","prime","5f39ee73389f375afc195b0d","5f60e3c0a3b16e07647b2ff9","5f60ea2e0af8b60009dba220","true","829.7700000111945","./Stimuli/SelectedImages/LM/LM75.bmp","83","","","","test","true","M + N","83","repetition","LM","LM75.bmp","remember","","77","3","prime1","left","","","",""
"html-keyboard-response","202","673914","0.0-4.0-1.0-3.28","mjuxgc86wmn6zea","prime","5f39ee73389f375afc195b0d","5f60e3c0a3b16e07647b2ff9","5f60ea2e0af8b60009dba220","false","null","<div style=""align-items: center; display: flex; color: dodgerblue; font-size: 90px""><b>o</b></div>","null","","","","forget_cue","","","","","","","","","","","","","","","",""
"html-keyboard-response","203","674616","0.0-4.0-1.0-0.29","mjuxgc86wmn6zea","prime","5f39ee73389f375afc195b0d","5f60e3c0a3b16e07647b2ff9","5f60ea2e0af8b60009dba220","false","null","<span style=""color: black; font-size: 48px"">M + N</span>","null","","","","resp_prompt","","","","","","","","","","","","","","","",""
"categorize-image","204","675270","0.0-4.0-1.0-1.29","mjuxgc86wmn6zea","prime","5f39ee73389f375afc195b0d","5f60e3c0a3b16e07647b2ff9","5f60ea2e0af8b60009dba220","true","650.9749999968335","./Stimuli/SelectedImages/LN/LN42.bmp","76","","","","test","true","M + N","76","switch","LN","LN42.bmp","forget","","78","3","prime1","right","","","",""
"html-keyboard-response","205","677271","0.0-4.0-1.0-3.29","mjuxgc86wmn6zea","prime","5f39ee73389f375afc195b0d","5f60e3c0a3b16e07647b2ff9","5f60ea2e0af8b60009dba220","false","null","<div style=""align-items: center; display: flex; color: darkorange; font-size: 90px""><b>ø</b></div>","null","","","","forget_cue","","","","","","","","","","","","","","","",""
"html-keyboard-response","206","677973","0.0-4.0-1.0-0.30","mjuxgc86wmn6zea","prime","5f39ee73389f375afc195b0d","5f60e3c0a3b16e07647b2ff9","5f60ea2e0af8b60009dba220","false","null","<span style=""color: black; font-size: 48px"">M + N</span>","null","","","","resp_prompt","","","","","","","","","","","","","","","",""
"categorize-image","207","678769","0.0-4.0-1.0-1.30","mjuxgc86wmn6zea","prime","5f39ee73389f375afc195b0d","5f60e3c0a3b16e07647b2ff9","5f60ea2e0af8b60009dba220","true","792.1149999601766","./Stimuli/SelectedImages/LM/LM100.bmp","83","","","","test","true","M + N","83","switch","LM","LM100.bmp","forget","","79","3","prime1","left","","","",""
"html-keyboard-response","208","680769","0.0-4.0-1.0-3.30","mjuxgc86wmn6zea","prime","5f39ee73389f375afc195b0d","5f60e3c0a3b16e07647b2ff9","5f60ea2e0af8b60009dba220","false","null","<div style=""align-items: center; display: flex; color: darkorange; font-size: 90px""><b>ø</b></div>","null","","","","forget_cue","","","","","","","","","","","","","","","",""
"html-keyboard-response","209","681470","0.0-4.0-1.0-0.31","mjuxgc86wmn6zea","prime","5f39ee73389f375afc195b0d","5f60e3c0a3b16e07647b2ff9","5f60ea2e0af8b60009dba220","false","null","<span style=""color: black; font-size: 48px"">M + N</span>","null","","","","resp_prompt","","","","","","","","","","","","","","","",""
"categorize-image","210","682243","0.0-4.0-1.0-1.31","mjuxgc86wmn6zea","prime","5f39ee73389f375afc195b0d","5f60e3c0a3b16e07647b2ff9","5f60ea2e0af8b60009dba220","true","771.1199999903329","./Stimuli/SelectedImages/SM/SM73.bmp","83","","","","test","true","M + N","83","repetition","SM","SM73.bmp","remember","","80","3","prime1","left","","","",""
"html-keyboard-response","211","684245","0.0-4.0-1.0-3.31","mjuxgc86wmn6zea","prime","5f39ee73389f375afc195b0d","5f60e3c0a3b16e07647b2ff9","5f60ea2e0af8b60009dba220","false","null","<div style=""align-items: center; display: flex; color: dodgerblue; font-size: 90px""><b>o</b></div>","null","","","","forget_cue","","","","","","","","","","","","","","","",""
"html-keyboard-response","212","684945","0.0-4.0-1.0-0.32","mjuxgc86wmn6zea","prime","5f39ee73389f375afc195b0d","5f60e3c0a3b16e07647b2ff9","5f60ea2e0af8b60009dba220","false","null","<span style=""color: black; font-size: 48px"">M + N</span>","null","","","","resp_prompt","","","","","","","","","","","","","","","",""
"categorize-image","213","685516","0.0-4.0-1.0-1.32","mjuxgc86wmn6zea","prime","5f39ee73389f375afc195b0d","5f60e3c0a3b16e07647b2ff9","5f60ea2e0af8b60009dba220","true","568.0000000284053","./Stimuli/SelectedImages/LM/LM216.bmp","83","","","","test","true","M + N","83","repetition","LM","LM216.bmp","forget","","81","3","prime1","left","","","",""
"html-keyboard-response","214","687519","0.0-4.0-1.0-3.32","mjuxgc86wmn6zea","prime","5f39ee73389f375afc195b0d","5f60e3c0a3b16e07647b2ff9","5f60ea2e0af8b60009dba220","false","null","<div style=""align-items: center; display: flex; color: darkorange; font-size: 90px""><b>ø</b></div>","null","","","","forget_cue","","","","","","","","","","","","","","","",""
"html-keyboard-response","215","688220","0.0-4.0-1.0-0.33","mjuxgc86wmn6zea","prime","5f39ee73389f375afc195b0d","5f60e3c0a3b16e07647b2ff9","5f60ea2e0af8b60009dba220","false","null","<span style=""color: black; font-size: 48px"">N + M</span>","null","","","","resp_prompt","","","","","","","","","","","","","","","",""
"categorize-image","216","689507","0.0-4.0-1.0-1.33","mjuxgc86wmn6zea","prime","5f39ee73389f375afc195b0d","5f60e3c0a3b16e07647b2ff9","5f60ea2e0af8b60009dba220","true","1285.009999992326","./Stimuli/SelectedImages/LM/LM179.bmp","76","","","","test","true","N + M","76","switch","LM","LM179.bmp","remember","","82","3","prime1","right","","","",""
"html-keyboard-response","217","691509","0.0-4.0-1.0-3.33","mjuxgc86wmn6zea","prime","5f39ee73389f375afc195b0d","5f60e3c0a3b16e07647b2ff9","5f60ea2e0af8b60009dba220","false","null","<div style=""align-items: center; display: flex; color: dodgerblue; font-size: 90px""><b>o</b></div>","null","","","","forget_cue","","","","","","","","","","","","","","","",""
"html-keyboard-response","218","692210","0.0-4.0-1.0-0.34","mjuxgc86wmn6zea","prime","5f39ee73389f375afc195b0d","5f60e3c0a3b16e07647b2ff9","5f60ea2e0af8b60009dba220","false","null","<span style=""color: black; font-size: 48px"">N + M</span>","null","","","","resp_prompt","","","","","","","","","","","","","","","",""
"categorize-image","219","692938","0.0-4.0-1.0-1.34","mjuxgc86wmn6zea","prime","5f39ee73389f375afc195b0d","5f60e3c0a3b16e07647b2ff9","5f60ea2e0af8b60009dba220","true","724.5200000470504","./Stimuli/SelectedImages/SM/SM148.bmp","76","","","","test","true","N + M","76","switch","SM","SM148.bmp","remember","","83","3","prime1","right","","","",""
"html-keyboard-response","220","694939","0.0-4.0-1.0-3.34","mjuxgc86wmn6zea","prime","5f39ee73389f375afc195b0d","5f60e3c0a3b16e07647b2ff9","5f60ea2e0af8b60009dba220","false","null","<div style=""align-items: center; display: flex; color: dodgerblue; font-size: 90px""><b>o</b></div>","null","","","","forget_cue","","","","","","","","","","","","","","","",""
"html-keyboard-response","221","695641","0.0-4.0-1.0-0.35","mjuxgc86wmn6zea","prime","5f39ee73389f375afc195b0d","5f60e3c0a3b16e07647b2ff9","5f60ea2e0af8b60009dba220","false","null","<span style=""color: black; font-size: 48px"">N + M</span>","null","","","","resp_prompt","","","","","","","","","","","","","","","",""
"categorize-image","222","696335","0.0-4.0-1.0-1.35","mjuxgc86wmn6zea","prime","5f39ee73389f375afc195b0d","5f60e3c0a3b16e07647b2ff9","5f60ea2e0af8b60009dba220","true","692.6899999962188","./Stimuli/SelectedImages/LM/LM129.bmp","76","","","","test","true","N + M","76","repetition","LM","LM129.bmp","forget","","84","3","prime1","right","","","",""
"html-keyboard-response","223","698336","0.0-4.0-1.0-3.35","mjuxgc86wmn6zea","prime","5f39ee73389f375afc195b0d","5f60e3c0a3b16e07647b2ff9","5f60ea2e0af8b60009dba220","false","null","<div style=""align-items: center; display: flex; color: darkorange; font-size: 90px""><b>ø</b></div>","null","","","","forget_cue","","","","","","","","","","","","","","","",""
"html-keyboard-response","224","699037","0.0-4.0-1.0-0.36","mjuxgc86wmn6zea","prime","5f39ee73389f375afc195b0d","5f60e3c0a3b16e07647b2ff9","5f60ea2e0af8b60009dba220","false","null","<span style=""color: black; font-size: 48px"">N + M</span>","null","","","","resp_prompt","","","","","","","","","","","","","","","",""
"categorize-image","225","699634","0.0-4.0-1.0-1.36","mjuxgc86wmn6zea","prime","5f39ee73389f375afc195b0d","5f60e3c0a3b16e07647b2ff9","5f60ea2e0af8b60009dba220","true","593.5749999480322","./Stimuli/SelectedImages/SN/SN111.bmp","83","","","","test","true","N + M","83","switch","SN","SN111.bmp","forget","","85","3","prime1","left","","","",""
"html-keyboard-response","226","701635","0.0-4.0-1.0-3.36","mjuxgc86wmn6zea","prime","5f39ee73389f375afc195b0d","5f60e3c0a3b16e07647b2ff9","5f60ea2e0af8b60009dba220","false","null","<div style=""align-items: center; display: flex; color: darkorange; font-size: 90px""><b>ø</b></div>","null","","","","forget_cue","","","","","","","","","","","","","","","",""
"html-keyboard-response","227","702336","0.0-4.0-1.0-0.37","mjuxgc86wmn6zea","prime","5f39ee73389f375afc195b0d","5f60e3c0a3b16e07647b2ff9","5f60ea2e0af8b60009dba220","false","null","<span style=""color: black; font-size: 48px"">N + M</span>","null","","","","resp_prompt","","","","","","","","","","","","","","","",""
"categorize-image","228","703311","0.0-4.0-1.0-1.37","mjuxgc86wmn6zea","prime","5f39ee73389f375afc195b0d","5f60e3c0a3b16e07647b2ff9","5f60ea2e0af8b60009dba220","true","971.3999999803491","./Stimuli/SelectedImages/LM/LM103.bmp","76","","","","test","true","N + M","76","switch","LM","LM103.bmp","forget","","86","3","prime1","right","","","",""
"html-keyboard-response","229","705312","0.0-4.0-1.0-3.37","mjuxgc86wmn6zea","prime","5f39ee73389f375afc195b0d","5f60e3c0a3b16e07647b2ff9","5f60ea2e0af8b60009dba220","false","null","<div style=""align-items: center; display: flex; color: darkorange; font-size: 90px""><b>ø</b></div>","null","","","","forget_cue","","","","","","","","","","","","","","","",""
"html-keyboard-response","230","706014","0.0-4.0-1.0-0.38","mjuxgc86wmn6zea","prime","5f39ee73389f375afc195b0d","5f60e3c0a3b16e07647b2ff9","5f60ea2e0af8b60009dba220","false","null","<span style=""color: black; font-size: 48px"">M + N</span>","null","","","","resp_prompt","","","","","","","","","","","","","","","",""
"categorize-image","231","706730","0.0-4.0-1.0-1.38","mjuxgc86wmn6zea","prime","5f39ee73389f375afc195b0d","5f60e3c0a3b16e07647b2ff9","5f60ea2e0af8b60009dba220","true","713.4749999968335","./Stimuli/SelectedImages/SN/SN182.bmp","76","","","","test","true","M + N","76","repetition","SN","SN182.bmp","forget","","87","3","prime1","right","","","",""
"html-keyboard-response","232","708731","0.0-4.0-1.0-3.38","mjuxgc86wmn6zea","prime","5f39ee73389f375afc195b0d","5f60e3c0a3b16e07647b2ff9","5f60ea2e0af8b60009dba220","false","null","<div style=""align-items: center; display: flex; color: darkorange; font-size: 90px""><b>ø</b></div>","null","","","","forget_cue","","","","","","","","","","","","","","","",""
"html-keyboard-response","233","709432","0.0-4.0-1.0-0.39","mjuxgc86wmn6zea","prime","5f39ee73389f375afc195b0d","5f60e3c0a3b16e07647b2ff9","5f60ea2e0af8b60009dba220","false","null","<span style=""color: black; font-size: 48px"">M + N</span>","null","","","","resp_prompt","","","","","","","","","","","","","","","",""
"categorize-image","234","710134","0.0-4.0-1.0-1.39","mjuxgc86wmn6zea","prime","5f39ee73389f375afc195b0d","5f60e3c0a3b16e07647b2ff9","5f60ea2e0af8b60009dba220","true","697.6300000096671","./Stimuli/SelectedImages/LM/LM235.bmp","83","","","","test","true","M + N","83","switch","LM","LM235.bmp","forget","","88","3","prime1","left","","","",""
"html-keyboard-response","235","712135","0.0-4.0-1.0-3.39","mjuxgc86wmn6zea","prime","5f39ee73389f375afc195b0d","5f60e3c0a3b16e07647b2ff9","5f60ea2e0af8b60009dba220","false","null","<div style=""align-items: center; display: flex; color: darkorange; font-size: 90px""><b>ø</b></div>","null","","","","forget_cue","","","","","","","","","","","","","","","",""
"html-keyboard-response","236","712836","0.0-4.0-1.0-0.40","mjuxgc86wmn6zea","prime","5f39ee73389f375afc195b0d","5f60e3c0a3b16e07647b2ff9","5f60ea2e0af8b60009dba220","false","null","<span style=""color: black; font-size: 48px"">N + M</span>","null","","","","resp_prompt","","","","","","","","","","","","","","","",""
"categorize-image","237","713410","0.0-4.0-1.0-1.40","mjuxgc86wmn6zea","prime","5f39ee73389f375afc195b0d","5f60e3c0a3b16e07647b2ff9","5f60ea2e0af8b60009dba220","true","570.0699999579228","./Stimuli/SelectedImages/LM/LM59.bmp","76","","","","test","true","N + M","76","switch","LM","LM59.bmp","forget","","89","3","prime1","right","","","",""
"html-keyboard-response","238","715412","0.0-4.0-1.0-3.40","mjuxgc86wmn6zea","prime","5f39ee73389f375afc195b0d","5f60e3c0a3b16e07647b2ff9","5f60ea2e0af8b60009dba220","false","null","<div style=""align-items: center; display: flex; color: darkorange; font-size: 90px""><b>ø</b></div>","null","","","","forget_cue","","","","","","","","","","","","","","","",""
"html-keyboard-response","239","716113","0.0-4.0-1.0-0.41","mjuxgc86wmn6zea","prime","5f39ee73389f375afc195b0d","5f60e3c0a3b16e07647b2ff9","5f60ea2e0af8b60009dba220","false","null","<span style=""color: black; font-size: 48px"">N + M</span>","null","","","","resp_prompt","","","","","","","","","","","","","","","",""
"categorize-image","240","716844","0.0-4.0-1.0-1.41","mjuxgc86wmn6zea","prime","5f39ee73389f375afc195b0d","5f60e3c0a3b16e07647b2ff9","5f60ea2e0af8b60009dba220","true","727.8250000090338","./Stimuli/SelectedImages/LM/LM157.bmp","76","","","","test","true","N + M","76","repetition","LM","LM157.bmp","remember","","90","3","prime1","right","","","",""
"html-keyboard-response","241","718846","0.0-4.0-1.0-3.41","mjuxgc86wmn6zea","prime","5f39ee73389f375afc195b0d","5f60e3c0a3b16e07647b2ff9","5f60ea2e0af8b60009dba220","false","null","<div style=""align-items: center; display: flex; color: dodgerblue; font-size: 90px""><b>o</b></div>","null","","","","forget_cue","","","","","","","","","","","","","","","",""
"html-keyboard-response","242","719546","0.0-4.0-1.0-0.42","mjuxgc86wmn6zea","prime","5f39ee73389f375afc195b0d","5f60e3c0a3b16e07647b2ff9","5f60ea2e0af8b60009dba220","false","null","<span style=""color: black; font-size: 48px"">N + M</span>","null","","","","resp_prompt","","","","","","","","","","","","","","","",""
"categorize-image","243","720400","0.0-4.0-1.0-1.42","mjuxgc86wmn6zea","prime","5f39ee73389f375afc195b0d","5f60e3c0a3b16e07647b2ff9","5f60ea2e0af8b60009dba220","true","852.0249999710359","./Stimuli/SelectedImages/LN/LN28.bmp","83","","","","test","true","N + M","83","switch","LN","LN28.bmp","remember","","91","3","prime1","left","","","",""
"html-keyboard-response","244","722402","0.0-4.0-1.0-3.42","mjuxgc86wmn6zea","prime","5f39ee73389f375afc195b0d","5f60e3c0a3b16e07647b2ff9","5f60ea2e0af8b60009dba220","false","null","<div style=""align-items: center; display: flex; color: dodgerblue; font-size: 90px""><b>o</b></div>","null","","","","forget_cue","","","","","","","","","","","","","","","",""
"html-keyboard-response","245","723104","0.0-4.0-1.0-0.43","mjuxgc86wmn6zea","prime","5f39ee73389f375afc195b0d","5f60e3c0a3b16e07647b2ff9","5f60ea2e0af8b60009dba220","false","null","<span style=""color: black; font-size: 48px"">M + N</span>","null","","","","resp_prompt","","","","","","","","","","","","","","","",""
"categorize-image","246","723730","0.0-4.0-1.0-1.43","mjuxgc86wmn6zea","prime","5f39ee73389f375afc195b0d","5f60e3c0a3b16e07647b2ff9","5f60ea2e0af8b60009dba220","true","622.6449999958277","./Stimuli/SelectedImages/LN/LN82.bmp","76","","","","test","true","M + N","76","repetition","LN","LN82.bmp","forget","","92","3","prime1","right","","","",""
"html-keyboard-response","247","725731","0.0-4.0-1.0-3.43","mjuxgc86wmn6zea","prime","5f39ee73389f375afc195b0d","5f60e3c0a3b16e07647b2ff9","5f60ea2e0af8b60009dba220","false","null","<div style=""align-items: center; display: flex; color: darkorange; font-size: 90px""><b>ø</b></div>","null","","","","forget_cue","","","","","","","","","","","","","","","",""
"html-keyboard-response","248","726432","0.0-4.0-1.0-0.44","mjuxgc86wmn6zea","prime","5f39ee73389f375afc195b0d","5f60e3c0a3b16e07647b2ff9","5f60ea2e0af8b60009dba220","false","null","<span style=""color: black; font-size: 48px"">N + M</span>","null","","","","resp_prompt","","","","","","","","","","","","","","","",""
"categorize-image","249","727066","0.0-4.0-1.0-1.44","mjuxgc86wmn6zea","prime","5f39ee73389f375afc195b0d","5f60e3c0a3b16e07647b2ff9","5f60ea2e0af8b60009dba220","true","631.7799999960698","./Stimuli/SelectedImages/SN/SN181.bmp","83","","","","test","true","N + M","83","switch","SN","SN181.bmp","forget","","93","3","prime1","left","","","",""
"html-keyboard-response","250","729068","0.0-4.0-1.0-3.44","mjuxgc86wmn6zea","prime","5f39ee73389f375afc195b0d","5f60e3c0a3b16e07647b2ff9","5f60ea2e0af8b60009dba220","false","null","<div style=""align-items: center; display: flex; color: darkorange; font-size: 90px""><b>ø</b></div>","null","","","","forget_cue","","","","","","","","","","","","","","","",""
"html-keyboard-response","251","729769","0.0-4.0-1.0-0.45","mjuxgc86wmn6zea","prime","5f39ee73389f375afc195b0d","5f60e3c0a3b16e07647b2ff9","5f60ea2e0af8b60009dba220","false","null","<span style=""color: black; font-size: 48px"">M + N</span>","null","","","","resp_prompt","","","","","","","","","","","","","","","",""
"categorize-image","252","730490","0.0-4.0-1.0-1.45","mjuxgc86wmn6zea","prime","5f39ee73389f375afc195b0d","5f60e3c0a3b16e07647b2ff9","5f60ea2e0af8b60009dba220","true","719.2300000460818","./Stimuli/SelectedImages/SN/SN64.bmp","76","","","","test","true","M + N","76","repetition","SN","SN64.bmp","forget","","94","3","prime1","right","","","",""
