"trial_type","trial_index","time_elapsed","internal_node_id","subject","exp_part","prolific_PID","study_ID","session_ID","use","rt","stimulus","key_press","button_pressed","responses","question_order","trial_part","correct","resp_map","correct_resp","probe_condition","category","image","forget_condition","list","trial_num","block_num","block","response","test_part","n_span","sequence","num_spaces"
"pavlovia","0","3","0.0-0.0","wx3wjypjldqgdbh","","5f26a8888c072432abed79d2","5f60e3c0a3b16e07647b2ff9","5f6104b77d0e5f04ba36133b","false","","","","","","","","","","","","","","","","","","","","","","",""
"html-keyboard-response","1","7479","0.0-1.0-0.0-0.0","wx3wjypjldqgdbh","welcome","5f26a8888c072432abed79d2","5f60e3c0a3b16e07647b2ff9","5f6104b77d0e5f04ba36133b","false","7474.930000025779","<div align=left>Dear participant, <br> thank you for participating in an online study of the Cognition, Action, and Sustainability Unit of the University of Freiburg! <br> <br>The aim of this study is to examine our ability to remember previously learned information. <br>Our goal is to find out, whether our memory improves, when we only remember information that is relevant to us. <br>The experiment will take about 35 minutes to complete. <br> <br>Please, note that you can only participate in this study if you are using a device with a keyboard (PC, Laptop etc.) <br>and not if you are using a mobile device such as a tablet or smartphone.<br> <br>Press 'SPACE' to proceed to the experiment. </div>","32","","","","","","","","","","","","","","","","","","","",""
"html-keyboard-response","2","17539","0.0-1.0-0.0-1.0","wx3wjypjldqgdbh","welcome","5f26a8888c072432abed79d2","5f60e3c0a3b16e07647b2ff9","5f6104b77d0e5f04ba36133b","false","10057.899999897927","<div align=left><strong> Time Course of this experiment: </strong> <br><br> <strong> 1.</strong>  First, please fill in some information regarding your demographic data. <br><br> <strong> 2.</strong>  Next, your task will be to classify everyday objects. <br>In addition, you will be asked to remember certain objects and recall them later. <br>Working on these tasks requires your undivided attention and concentration.<br>It is therefore essential that you eliminate any sources of distraction in your  <br>environment and ensure that you will not be disturbed. <br><br><strong> 3.</strong>  At the end of the experiment, you will be asked to answer a few additional questions. <br> <br><strong> Important:</strong> After finishing the experiment, only close the browser window <br> by clicking on the 'end the experiment'-button when you are asked to do so. <br>Closing the browser window prematurely will make the allocation of your participation credit impossible. <br><br> Press 'SPACE' to start the experiment. </div>","32","","","","","","","","","","","","","","","","","","","",""
"html-button-response","3","20683","0.0-1.0-0.0-2.0","wx3wjypjldqgdbh","welcome","5f26a8888c072432abed79d2","5f60e3c0a3b16e07647b2ff9","5f6104b77d0e5f04ba36133b","true","3142.344999825582","<div align=left><strong> Informed consent </strong>  <br>The aim of our research is to better understand human behavior and mental processes. <br>In the following study your behavior (e.g. choices, reaction times) will be studied. <br> <br><strong> Voluntariness and Anonymity </strong> <br>Your participation in this study is  <strong> voluntary</strong>.<br>You may withdraw your consent to participate at any time without providing a reason for doing so and without fear of prejudice. <br><br>As no personal data will be collected, <strong>your data and your person cannot be connected after data collection</strong> – the data-set is anonymous. <br>Respectively, deletion of your data will not be possible after data collection has been completed, as we cannot retrace your data-set.<br>The results and anonymized data collected in this study will be published as a scientific publication. <br>This will happen in an <strong>anonymized format</strong>, so that no data can be traced back to a specific person. <br> <br>The anonymized data of this study will be made available to other researchers and/or in a data archive on the Internet as a means of transparency and to enable subsequent re-use. By doing so, this study follows the recommendations of the Deutsche Forschungsgemeinschaft (DFG, German Research Foundation) and Deutsche Gesellschaft für Psychologie (DGPS, German Psychological Society) regarding quality assurance in research.<br>If you have any questions now or after the experiment, please contact our team (experiments@cs.uni-freiburg.de).<br><br><br>I hereby declare, that I understand the above described conditions of participation and I agree to participate under these conditions. <br><br> </div>","","0","","","","","","","","","","","","","","","","","","",""
"html-keyboard-response","4","29717","0.0-1.0-0.0-3.0","wx3wjypjldqgdbh","welcome","5f26a8888c072432abed79d2","5f60e3c0a3b16e07647b2ff9","5f6104b77d0e5f04ba36133b","false","9031.9699998945","<div align=left><strong> General information concerning the experiment </strong>  <br> <br>Please follow the instructions:<ol> <li><strong> Do not leave this tab (your browser window) during the experiment and do not reload this tab! </strong>  <br>If you do switch tabs/windows during the experiment (to check your mail or visit another website, for example), <br>the experiment will end automatically and you will <strong>not receive credit</strong> for your participation. <br>Repeated participation or resumption of the experiment is impossible.</li> <br><li>Please close all other programs for the duration of your participation. </li> <br><li>Please mute or turn off your phone and put it out of your reach. </li> <br><li>Please also take off any disturbing accessories (such as wristwatches, bracelets, etc.). </li> <br><li>If you have music playing in the background, please turn it off now. </li> <br></ol>Thank you! <br>Press 'SPACE' to continue. </div>","32","","","","","","","","","","","","","","","","","","","",""
"survey-text","5","34624","0.0-1.0-1.0-0.0","wx3wjypjldqgdbh","demographics","5f26a8888c072432abed79d2","5f60e3c0a3b16e07647b2ff9","5f6104b77d0e5f04ba36133b","true","4902.739999815822","","","","{""age"":""29""}","","","","","","","","","","","","","","","","","",""
"survey-multi-choice","6","60270","0.0-1.0-1.0-1.0","wx3wjypjldqgdbh","demographics","5f26a8888c072432abed79d2","5f60e3c0a3b16e07647b2ff9","5f6104b77d0e5f04ba36133b","true","25643.834999995306","","","","{""gender"":""male"",""school"":""high school"",""education"":""Doctorate degree""}","[0,1,2]","","","","","","","","","","","","","","","","",""
"html-keyboard-response","7","71720","0.0-1.0-2.0","wx3wjypjldqgdbh","instructions","5f26a8888c072432abed79d2","5f60e3c0a3b16e07647b2ff9","5f6104b77d0e5f04ba36133b","false","11445.539999986067","<div align=left> The experiment is now about to start: <br> <br>In the following part, you will be presented pictures of everyday objects. <br>Your first task is to <strong>classify these objects. </strong> <br> <br> You will classify them either as mechanical or non-mechanical objects. <br> <br>Objects that include any kind of technical mechanism (for example, wheels, switches, levers, <br> electronic components) fall under the category of <strong>mechanical</strong> objects. <br>Only objects without any kind of technical mechanism should be classified as <strong>non-mechanical</strong>. <br><br>Press 'SPACE' to continue. </div>","32","","","","","","","","","","","","","","","","","","","",""
"html-keyboard-response","8","97376","0.0-2.0-0.0","wx3wjypjldqgdbh","instructions","5f26a8888c072432abed79d2","5f60e3c0a3b16e07647b2ff9","5f6104b77d0e5f04ba36133b","false","25655.075000133365","<div align=justify>You will classify the objects using the <strong>'S'</strong> and the <strong>'L'</strong> keys on your keyboard.<br>For doing so, please place your <strong>left index finger</strong> on the <strong>'S'</strong> key and place your <strong>right index finger</strong> on the <strong>'L'</strong> key. <br><br> Each trial starts with an instruction, indicating which key ('S'/'L') you need to press to classify <br>the object as mechanical (letter M) or non-mechanical (letter N).<br>The instruction <strong>M + N</strong> indicates that, in the current trial, by pressing the left key ('S') you classify the displayed object as mechanical (M) <br> and by pressing the right key ('L') you classify the object as non-mechanical (N). <br>The instruction <strong>N + M</strong> on the other hand indicates that by pressing the left key ('S') you classify the displayed object as non-mechanical (N) <br> and by pressing the right key ('L') you classify the object as mechanical (M). <br><br>Please press the key corresponding to the correct classification as fast as possible as soon as the object is displayed and try to avoid making mistakes.<br>If you do not respond within a 2 second window, a corresponding feedback will be displayed and the next trial will start.<br> The experiment is divided into multiple blocks to give you the opportunity to take a break after each block. <br>First, you can now practice this task. <br><br>Please place your <strong>LEFT INDEX FINGER</strong> on the 'S' key and your <strong>RIGHT INDEX FINGER</strong> on the 'L' key now. <br><br>Press SPACE to continue.</div>","32","","","","","","","","","","","","","","","","","","","",""
"html-keyboard-response","9","101287","0.0-2.0-1.0","wx3wjypjldqgdbh","instructions","5f26a8888c072432abed79d2","5f60e3c0a3b16e07647b2ff9","5f6104b77d0e5f04ba36133b","false","3909.155000001192","<div align=left> You will now have time to practice this task.<br><br>Remember: <br> <br><li>Please place your index fingers on the <strong>'S'</strong> and <strong>'L'</strong> keys <br>to respond as fast and accurately as possible.</li><li>Every picture can be classified as either mechanical or non-mechanical.</li><li>If you do not respond in time or commit an error, you will receive a corresponding feedback. </li><li> Please try to respond as <strong> fast </strong> and as <strong> accurately as possible </strong> .<br><li>To ensure optimal results, please minimize distractions and stay focused. </li><br><br>Press SPACE to continue.</div>","32","","","","","","","","","","","","","","","","","","","",""
"html-keyboard-response","10","101991","0.0-2.0-2.0-0.0","wx3wjypjldqgdbh","practice_no_cue","5f26a8888c072432abed79d2","5f60e3c0a3b16e07647b2ff9","5f6104b77d0e5f04ba36133b","false","null","<span style=""color: black; font-size: 48px"">N + M</span>","null","","","","resp_prompt","","","","","","","","","","","","","","","",""
"categorize-image","11","104315","0.0-2.0-2.0-1.0","wx3wjypjldqgdbh","practice_no_cue","5f26a8888c072432abed79d2","5f60e3c0a3b16e07647b2ff9","5f6104b77d0e5f04ba36133b","true","1816.5249999146909","./Stimuli/ImagesPractice/SN76.jpg","83","","","","test","true","N + M","83","","SN","SN76.jpg","forget","old","1","1","start","left","","","",""
"html-keyboard-response","12","105022","0.0-2.0-2.0-0.1","wx3wjypjldqgdbh","practice_no_cue","5f26a8888c072432abed79d2","5f60e3c0a3b16e07647b2ff9","5f6104b77d0e5f04ba36133b","false","null","<span style=""color: black; font-size: 48px"">M + N</span>","null","","","","resp_prompt","","","","","","","","","","","","","","","",""
"categorize-image","13","106519","0.0-2.0-2.0-1.1","wx3wjypjldqgdbh","practice_no_cue","5f26a8888c072432abed79d2","5f60e3c0a3b16e07647b2ff9","5f6104b77d0e5f04ba36133b","true","990.870000096038","./Stimuli/ImagesPractice/SN205.jpg","76","","","","test","true","M + N","76","","SN","SN205.jpg","forget","old","2","1","start","right","","","",""
"html-keyboard-response","14","107225","0.0-2.0-2.0-0.2","wx3wjypjldqgdbh","practice_no_cue","5f26a8888c072432abed79d2","5f60e3c0a3b16e07647b2ff9","5f6104b77d0e5f04ba36133b","false","null","<span style=""color: black; font-size: 48px"">N + M</span>","null","","","","resp_prompt","","","","","","","","","","","","","","","",""
"categorize-image","15","108699","0.0-2.0-2.0-1.2","wx3wjypjldqgdbh","practice_no_cue","5f26a8888c072432abed79d2","5f60e3c0a3b16e07647b2ff9","5f6104b77d0e5f04ba36133b","true","966.8050000909716","./Stimuli/ImagesPractice/SN75.jpg","83","","","","test","true","N + M","83","","SN","SN75.jpg","remember","old","3","1","start","left","","","",""
"html-keyboard-response","16","109400","0.0-2.0-2.0-0.3","wx3wjypjldqgdbh","practice_no_cue","5f26a8888c072432abed79d2","5f60e3c0a3b16e07647b2ff9","5f6104b77d0e5f04ba36133b","false","null","<span style=""color: black; font-size: 48px"">N + M</span>","null","","","","resp_prompt","","","","","","","","","","","","","","","",""
"categorize-image","17","110719","0.0-2.0-2.0-1.3","wx3wjypjldqgdbh","practice_no_cue","5f26a8888c072432abed79d2","5f60e3c0a3b16e07647b2ff9","5f6104b77d0e5f04ba36133b","true","812.0550001040101","./Stimuli/ImagesPractice/LM147.jpg","76","","","","test","true","N + M","76","","LM","LM147.jpg","remember","old","4","1","start","right","","","",""
"html-keyboard-response","18","111425","0.0-2.0-2.0-0.4","wx3wjypjldqgdbh","practice_no_cue","5f26a8888c072432abed79d2","5f60e3c0a3b16e07647b2ff9","5f6104b77d0e5f04ba36133b","false","null","<span style=""color: black; font-size: 48px"">M + N</span>","null","","","","resp_prompt","","","","","","","","","","","","","","","",""
"categorize-image","19","112633","0.0-2.0-2.0-1.4","wx3wjypjldqgdbh","practice_no_cue","5f26a8888c072432abed79d2","5f60e3c0a3b16e07647b2ff9","5f6104b77d0e5f04ba36133b","true","703.9199999999255","./Stimuli/ImagesPractice/LM55.jpg","83","","","","test","true","M + N","83","","LM","LM55.jpg","remember","old","5","1","start","left","","","",""
"html-keyboard-response","20","113339","0.0-2.0-2.0-0.5","wx3wjypjldqgdbh","practice_no_cue","5f26a8888c072432abed79d2","5f60e3c0a3b16e07647b2ff9","5f6104b77d0e5f04ba36133b","false","null","<span style=""color: black; font-size: 48px"">M + N</span>","null","","","","resp_prompt","","","","","","","","","","","","","","","",""
"categorize-image","21","114847","0.0-2.0-2.0-1.5","wx3wjypjldqgdbh","practice_no_cue","5f26a8888c072432abed79d2","5f60e3c0a3b16e07647b2ff9","5f6104b77d0e5f04ba36133b","true","1006.4499999862164","./Stimuli/ImagesPractice/LN109.jpg","76","","","","test","true","M + N","76","","LN","LN109.jpg","forget","old","6","1","start","right","","","",""
"html-keyboard-response","22","115551","0.0-2.0-2.0-0.6","wx3wjypjldqgdbh","practice_no_cue","5f26a8888c072432abed79d2","5f60e3c0a3b16e07647b2ff9","5f6104b77d0e5f04ba36133b","false","null","<span style=""color: black; font-size: 48px"">N + M</span>","null","","","","resp_prompt","","","","","","","","","","","","","","","",""
"categorize-image","23","116882","0.0-2.0-2.0-1.6","wx3wjypjldqgdbh","practice_no_cue","5f26a8888c072432abed79d2","5f60e3c0a3b16e07647b2ff9","5f6104b77d0e5f04ba36133b","true","824.1400001570582","./Stimuli/ImagesPractice/SN222.jpg","83","","","","test","true","N + M","83","","SN","SN222.jpg","forget","old","7","1","start","left","","","",""
"html-keyboard-response","24","117584","0.0-2.0-2.0-0.7","wx3wjypjldqgdbh","practice_no_cue","5f26a8888c072432abed79d2","5f60e3c0a3b16e07647b2ff9","5f6104b77d0e5f04ba36133b","false","null","<span style=""color: black; font-size: 48px"">N + M</span>","null","","","","resp_prompt","","","","","","","","","","","","","","","",""
"categorize-image","25","118977","0.0-2.0-2.0-1.7","wx3wjypjldqgdbh","practice_no_cue","5f26a8888c072432abed79d2","5f60e3c0a3b16e07647b2ff9","5f6104b77d0e5f04ba36133b","true","886.47500006482","./Stimuli/ImagesPractice/SM35.jpg","83","","","","test","false","N + M","76","","SM","SM35.jpg","remember","old","8","1","start","left","","","",""
"html-keyboard-response","26","119685","0.0-2.0-2.0-0.8","wx3wjypjldqgdbh","practice_no_cue","5f26a8888c072432abed79d2","5f60e3c0a3b16e07647b2ff9","5f6104b77d0e5f04ba36133b","false","null","<span style=""color: black; font-size: 48px"">N + M</span>","null","","","","resp_prompt","","","","","","","","","","","","","","","",""
"categorize-image","27","120962","0.0-2.0-2.0-1.8","wx3wjypjldqgdbh","practice_no_cue","5f26a8888c072432abed79d2","5f60e3c0a3b16e07647b2ff9","5f6104b77d0e5f04ba36133b","true","770.795000018552","./Stimuli/ImagesPractice/LN2.jpg","83","","","","test","true","N + M","83","","LN","LN2.jpg","forget","old","9","1","start","left","","","",""
"html-keyboard-response","28","121668","0.0-2.0-2.0-0.9","wx3wjypjldqgdbh","practice_no_cue","5f26a8888c072432abed79d2","5f60e3c0a3b16e07647b2ff9","5f6104b77d0e5f04ba36133b","false","null","<span style=""color: black; font-size: 48px"">N + M</span>","null","","","","resp_prompt","","","","","","","","","","","","","","","",""
"categorize-image","29","122836","0.0-2.0-2.0-1.9","wx3wjypjldqgdbh","practice_no_cue","5f26a8888c072432abed79d2","5f60e3c0a3b16e07647b2ff9","5f6104b77d0e5f04ba36133b","true","661.179999820888","./Stimuli/ImagesPractice/LN17.jpg","83","","","","test","true","N + M","83","","LN","LN17.jpg","forget","old","10","1","start","left","","","",""
"html-keyboard-response","30","123542","0.0-2.0-2.0-0.10","wx3wjypjldqgdbh","practice_no_cue","5f26a8888c072432abed79d2","5f60e3c0a3b16e07647b2ff9","5f6104b77d0e5f04ba36133b","false","null","<span style=""color: black; font-size: 48px"">N + M</span>","null","","","","resp_prompt","","","","","","","","","","","","","","","",""
"categorize-image","31","125070","0.0-2.0-2.0-1.10","wx3wjypjldqgdbh","practice_no_cue","5f26a8888c072432abed79d2","5f60e3c0a3b16e07647b2ff9","5f6104b77d0e5f04ba36133b","true","1022.2199999261647","./Stimuli/ImagesPractice/LM230.jpg","76","","","","test","true","N + M","76","","LM","LM230.jpg","remember","old","11","1","start","right","","","",""
"html-keyboard-response","32","125777","0.0-2.0-2.0-0.11","wx3wjypjldqgdbh","practice_no_cue","5f26a8888c072432abed79d2","5f60e3c0a3b16e07647b2ff9","5f6104b77d0e5f04ba36133b","false","null","<span style=""color: black; font-size: 48px"">M + N</span>","null","","","","resp_prompt","","","","","","","","","","","","","","","",""
"categorize-image","33","127277","0.0-2.0-2.0-1.11","wx3wjypjldqgdbh","practice_no_cue","5f26a8888c072432abed79d2","5f60e3c0a3b16e07647b2ff9","5f6104b77d0e5f04ba36133b","true","996.4799999725074","./Stimuli/ImagesPractice/SM98.jpg","76","","","","test","false","M + N","83","","SM","SM98.jpg","remember","old","12","1","start","right","","","",""
"html-keyboard-response","34","127983","0.0-2.0-2.0-0.12","wx3wjypjldqgdbh","practice_no_cue","5f26a8888c072432abed79d2","5f60e3c0a3b16e07647b2ff9","5f6104b77d0e5f04ba36133b","false","null","<span style=""color: black; font-size: 48px"">M + N</span>","null","","","","resp_prompt","","","","","","","","","","","","","","","",""
"categorize-image","35","129582","0.0-2.0-2.0-1.12","wx3wjypjldqgdbh","practice_no_cue","5f26a8888c072432abed79d2","5f60e3c0a3b16e07647b2ff9","5f6104b77d0e5f04ba36133b","true","1095.8600000012666","./Stimuli/ImagesPractice/SN220.jpg","76","","","","test","true","M + N","76","","SN","SN220.jpg","remember","old","13","1","start","right","","","",""
"html-keyboard-response","36","130288","0.0-2.0-2.0-0.13","wx3wjypjldqgdbh","practice_no_cue","5f26a8888c072432abed79d2","5f60e3c0a3b16e07647b2ff9","5f6104b77d0e5f04ba36133b","false","null","<span style=""color: black; font-size: 48px"">M + N</span>","null","","","","resp_prompt","","","","","","","","","","","","","","","",""
"categorize-image","37","131860","0.0-2.0-2.0-1.13","wx3wjypjldqgdbh","practice_no_cue","5f26a8888c072432abed79d2","5f60e3c0a3b16e07647b2ff9","5f6104b77d0e5f04ba36133b","true","1069.2999998573214","./Stimuli/ImagesPractice/LN72.jpg","76","","","","test","true","M + N","76","","LN","LN72.jpg","forget","old","14","1","start","right","","","",""
"html-keyboard-response","38","132566","0.0-2.0-2.0-0.14","wx3wjypjldqgdbh","practice_no_cue","5f26a8888c072432abed79d2","5f60e3c0a3b16e07647b2ff9","5f6104b77d0e5f04ba36133b","false","null","<span style=""color: black; font-size: 48px"">M + N</span>","null","","","","resp_prompt","","","","","","","","","","","","","","","",""
"categorize-image","39","133766","0.0-2.0-2.0-1.14","wx3wjypjldqgdbh","practice_no_cue","5f26a8888c072432abed79d2","5f60e3c0a3b16e07647b2ff9","5f6104b77d0e5f04ba36133b","true","693.4749998617917","./Stimuli/ImagesPractice/LN15.jpg","76","","","","test","true","M + N","76","","LN","LN15.jpg","forget","old","15","1","start","right","","","",""
"html-keyboard-response","40","134468","0.0-2.0-2.0-0.15","wx3wjypjldqgdbh","practice_no_cue","5f26a8888c072432abed79d2","5f60e3c0a3b16e07647b2ff9","5f6104b77d0e5f04ba36133b","false","null","<span style=""color: black; font-size: 48px"">M + N</span>","null","","","","resp_prompt","","","","","","","","","","","","","","","",""
"categorize-image","41","135558","0.0-2.0-2.0-1.15","wx3wjypjldqgdbh","practice_no_cue","5f26a8888c072432abed79d2","5f60e3c0a3b16e07647b2ff9","5f6104b77d0e5f04ba36133b","true","584.0699998661876","./Stimuli/ImagesPractice/SM37.jpg","83","","","","test","true","M + N","83","","SM","SM37.jpg","remember","old","16","1","start","left","","","",""
"html-keyboard-response","42","139904","0.0-2.0-3.0","wx3wjypjldqgdbh","break","5f26a8888c072432abed79d2","5f60e3c0a3b16e07647b2ff9","5f6104b77d0e5f04ba36133b","false","4343.980000121519","<p style='font-size: 32px;'>Break</><br><br><br><br><br><p style='font-size: 24px;'>In the last block, you committed 2 errors and did not respond in time on 0 trials.
</p><p style='font-size: 24px;'>Try to respond as fast and accurately as possible in the next block as well! </p><p style='font-size: 24px;'>Press SPACE to continue.</p>","32","","","","","","","","","","","","","","","","","","","",""
"html-keyboard-response","43","142259","0.0-2.0-4.0","wx3wjypjldqgdbh","instructions","5f26a8888c072432abed79d2","5f60e3c0a3b16e07647b2ff9","5f6104b77d0e5f04ba36133b","false","2353.2200001645833","<div align=left> Great!<br><br>Are you ready to continue?<br><br>If you want to reread the instructions and redo the practice trials, <br>please press „Z“. <br><br>Press SPACE to CONTINUE with the experiment when you are ready. </div>","32","","","","","","","","","","","","","","","","","","","",""
"html-keyboard-response","44","160863","0.0-3.0-0.0","wx3wjypjldqgdbh","instructions","5f26a8888c072432abed79d2","5f60e3c0a3b16e07647b2ff9","5f6104b77d0e5f04ba36133b","false","18602.350000059232","<div align=left>Great!<br> <strong>Attention</strong>! You will now receive a second, additional task! <br><br>To this point it was you <strong>first task</strong> to correctly <strong>classify objects</strong>. <br><br>As mentioned in the beginning, we aim to examine how well humans can remember previously learned information.<br>We would like to find out whether our memory improves if we only remember information that is relevant to us. <br><br>Therefore, your <strong>second task</strong> will be to <strong>remember</strong> the pictures you are to categorize. <br> After the learning phase, there will be a memory test phase, in which you will be asked to indicate whether you have seen a picture before or not. <br>Some, but not all pictures shown in the learning phase will appear in the memory test phase.<br>After classifying a picture, you will be told whether you should remember it for the memory test phase or not. <br>Thus, some pictures can be forgotten, whereas others have to be remembered. <br><br>Note: From now on, feedback will only be displayed if you responded incorrectly or not in time.<br><br>Press SPACE to continue.</div>","32","","","","","","","","","","","","","","","","","","","",""
"html-keyboard-response","45","167070","0.0-3.0-1.0","wx3wjypjldqgdbh","instructions","5f26a8888c072432abed79d2","5f60e3c0a3b16e07647b2ff9","5f6104b77d0e5f04ba36133b","false","6206.465000053868","<div align=left>In the following part, you will thus have to remember only some pictures. <br>Immediately after seeing and classifying the picture, a symbol will be displayed, indicating whether you should remember or forget the previous picture. <br><br>A <span style='color: dodgerblue; font-size: 28px'>O</span> indicates REMEMBER. That means, you have to remember this picture, because it will be tested later. <br><br>A <span style='color: darkorange; font-size:28px'>Ø</span> indicates FORGET. You do not have to remember this picture. <br><br> As you will have to remember a lot of pictures, it will be hard for you to remember all of them. <br>It will put you at an advantage if you instantly forget the pictures you are not asked to remember. <br> This will make it easier for you to remember the pictures that will be tested afterwards. <br><br>Press SPACE to continue.</div>","32","","","","","","","","","","","","","","","","","","","",""
"html-keyboard-response","46","170091","0.0-3.0-2.0","wx3wjypjldqgdbh","instructions","5f26a8888c072432abed79d2","5f60e3c0a3b16e07647b2ff9","5f6104b77d0e5f04ba36133b","false","3019.5800000801682","<div align=left> Now you have the chance to practice both tasks together.<br><br>Remember: <br> <br><li>Please place your index fingers on the <strong>'S'</strong> and <strong>'L'</strong> keys <br>to respond as fast and accurately as possible.</li><li>Every picture can be classified as either mechanical or non-mechanical.</li><li>If you do not respond in time or commit an error, you will receive a corresponding feedback. <br>Please try to respond as <strong> fast </strong> and as <strong> accurately as possible </strong>.</li><li> Please remember only the to-be-remembered <span style='color: dodgerblue; font-size: 28px'>O</span> pictures. <br></li><li> Please minimize distractions and stay focused. </li><br><br>Press SPACE to START</div>","32","","","","","","","","","","","","","","","","","","","",""
"html-keyboard-response","47","170797","0.0-3.0-3.0-0.0","wx3wjypjldqgdbh","practice_cue","5f26a8888c072432abed79d2","5f60e3c0a3b16e07647b2ff9","5f6104b77d0e5f04ba36133b","false","null","<span style=""color: black; font-size: 48px"">N + M</span>","null","","","","resp_prompt","","","","","","","","","","","","","","","",""
"categorize-image","48","171604","0.0-3.0-3.0-1.0","wx3wjypjldqgdbh","practice_cue","5f26a8888c072432abed79d2","5f60e3c0a3b16e07647b2ff9","5f6104b77d0e5f04ba36133b","true","803.6150000989437","./Stimuli/ImagesPractice/LN2.jpg","83","","","","test","true","N + M","83","","LN","LN2.jpg","forget","old","17","2","practice_forget","left","","","",""
"html-keyboard-response","49","173610","0.0-3.0-3.0-3.0","wx3wjypjldqgdbh","practice_cue","5f26a8888c072432abed79d2","5f60e3c0a3b16e07647b2ff9","5f6104b77d0e5f04ba36133b","false","null","<div style=""align-items: center; display: flex; color: darkorange; font-size: 90px""><b>ø</b></div>","null","","","","forget_cue","","","","","","","","","","","","","","","",""
"html-keyboard-response","50","174316","0.0-3.0-3.0-0.1","wx3wjypjldqgdbh","practice_cue","5f26a8888c072432abed79d2","5f60e3c0a3b16e07647b2ff9","5f6104b77d0e5f04ba36133b","false","null","<span style=""color: black; font-size: 48px"">N + M</span>","null","","","","resp_prompt","","","","","","","","","","","","","","","",""
"categorize-image","51","174812","0.0-3.0-3.0-1.1","wx3wjypjldqgdbh","practice_cue","5f26a8888c072432abed79d2","5f60e3c0a3b16e07647b2ff9","5f6104b77d0e5f04ba36133b","true","493.0050000548363","./Stimuli/ImagesPractice/SN222.jpg","83","","","","test","true","N + M","83","","SN","SN222.jpg","forget","old","18","2","practice_forget","left","","","",""
"html-keyboard-response","52","176818","0.0-3.0-3.0-3.1","wx3wjypjldqgdbh","practice_cue","5f26a8888c072432abed79d2","5f60e3c0a3b16e07647b2ff9","5f6104b77d0e5f04ba36133b","false","null","<div style=""align-items: center; display: flex; color: darkorange; font-size: 90px""><b>ø</b></div>","null","","","","forget_cue","","","","","","","","","","","","","","","",""
"html-keyboard-response","53","177519","0.0-3.0-3.0-0.2","wx3wjypjldqgdbh","practice_cue","5f26a8888c072432abed79d2","5f60e3c0a3b16e07647b2ff9","5f6104b77d0e5f04ba36133b","false","null","<span style=""color: black; font-size: 48px"">N + M</span>","null","","","","resp_prompt","","","","","","","","","","","","","","","",""
"categorize-image","54","178350","0.0-3.0-3.0-1.2","wx3wjypjldqgdbh","practice_cue","5f26a8888c072432abed79d2","5f60e3c0a3b16e07647b2ff9","5f6104b77d0e5f04ba36133b","true","827.1800000220537","./Stimuli/ImagesPractice/SM35.jpg","76","","","","test","true","N + M","76","","SM","SM35.jpg","remember","old","19","2","practice_forget","right","","","",""
"html-keyboard-response","55","180356","0.0-3.0-3.0-3.2","wx3wjypjldqgdbh","practice_cue","5f26a8888c072432abed79d2","5f60e3c0a3b16e07647b2ff9","5f6104b77d0e5f04ba36133b","false","null","<div style=""align-items: center; display: flex; color: dodgerblue; font-size: 90px""><b>o</b></div>","null","","","","forget_cue","","","","","","","","","","","","","","","",""
"html-keyboard-response","56","181062","0.0-3.0-3.0-0.3","wx3wjypjldqgdbh","practice_cue","5f26a8888c072432abed79d2","5f60e3c0a3b16e07647b2ff9","5f6104b77d0e5f04ba36133b","false","null","<span style=""color: black; font-size: 48px"">N + M</span>","null","","","","resp_prompt","","","","","","","","","","","","","","","",""
"categorize-image","57","181720","0.0-3.0-3.0-1.3","wx3wjypjldqgdbh","practice_cue","5f26a8888c072432abed79d2","5f60e3c0a3b16e07647b2ff9","5f6104b77d0e5f04ba36133b","true","654.5250001363456","./Stimuli/ImagesPractice/LN17.jpg","83","","","","test","true","N + M","83","","LN","LN17.jpg","forget","old","20","2","practice_forget","left","","","",""
"html-keyboard-response","58","183725","0.0-3.0-3.0-3.3","wx3wjypjldqgdbh","practice_cue","5f26a8888c072432abed79d2","5f60e3c0a3b16e07647b2ff9","5f6104b77d0e5f04ba36133b","false","null","<div style=""align-items: center; display: flex; color: darkorange; font-size: 90px""><b>ø</b></div>","null","","","","forget_cue","","","","","","","","","","","","","","","",""
"html-keyboard-response","59","184432","0.0-3.0-3.0-0.4","wx3wjypjldqgdbh","practice_cue","5f26a8888c072432abed79d2","5f60e3c0a3b16e07647b2ff9","5f6104b77d0e5f04ba36133b","false","null","<span style=""color: black; font-size: 48px"">M + N</span>","null","","","","resp_prompt","","","","","","","","","","","","","","","",""
"categorize-image","60","185007","0.0-3.0-3.0-1.4","wx3wjypjldqgdbh","practice_cue","5f26a8888c072432abed79d2","5f60e3c0a3b16e07647b2ff9","5f6104b77d0e5f04ba36133b","true","572.1899999771267","./Stimuli/ImagesPractice/SM37.jpg","83","","","","test","true","M + N","83","","SM","SM37.jpg","remember","old","21","2","practice_forget","left","","","",""
"html-keyboard-response","61","187013","0.0-3.0-3.0-3.4","wx3wjypjldqgdbh","practice_cue","5f26a8888c072432abed79d2","5f60e3c0a3b16e07647b2ff9","5f6104b77d0e5f04ba36133b","false","null","<div style=""align-items: center; display: flex; color: dodgerblue; font-size: 90px""><b>o</b></div>","null","","","","forget_cue","","","","","","","","","","","","","","","",""
"html-keyboard-response","62","187719","0.0-3.0-3.0-0.5","wx3wjypjldqgdbh","practice_cue","5f26a8888c072432abed79d2","5f60e3c0a3b16e07647b2ff9","5f6104b77d0e5f04ba36133b","false","null","<span style=""color: black; font-size: 48px"">M + N</span>","null","","","","resp_prompt","","","","","","","","","","","","","","","",""
"categorize-image","63","188495","0.0-3.0-3.0-1.5","wx3wjypjldqgdbh","practice_cue","5f26a8888c072432abed79d2","5f60e3c0a3b16e07647b2ff9","5f6104b77d0e5f04ba36133b","true","772.7099999319762","./Stimuli/ImagesPractice/SN220.jpg","76","","","","test","true","M + N","76","","SN","SN220.jpg","remember","old","22","2","practice_forget","right","","","",""
"html-keyboard-response","64","190496","0.0-3.0-3.0-3.5","wx3wjypjldqgdbh","practice_cue","5f26a8888c072432abed79d2","5f60e3c0a3b16e07647b2ff9","5f6104b77d0e5f04ba36133b","false","null","<div style=""align-items: center; display: flex; color: dodgerblue; font-size: 90px""><b>o</b></div>","null","","","","forget_cue","","","","","","","","","","","","","","","",""
"html-keyboard-response","65","191202","0.0-3.0-3.0-0.6","wx3wjypjldqgdbh","practice_cue","5f26a8888c072432abed79d2","5f60e3c0a3b16e07647b2ff9","5f6104b77d0e5f04ba36133b","false","null","<span style=""color: black; font-size: 48px"">M + N</span>","null","","","","resp_prompt","","","","","","","","","","","","","","","",""
"categorize-image","66","192530","0.0-3.0-3.0-1.6","wx3wjypjldqgdbh","practice_cue","5f26a8888c072432abed79d2","5f60e3c0a3b16e07647b2ff9","5f6104b77d0e5f04ba36133b","true","1324.735000031069","./Stimuli/ImagesPractice/LN109.jpg","76","","","","test","true","M + N","76","","LN","LN109.jpg","forget","old","23","2","practice_forget","right","","","",""
"html-keyboard-response","67","194535","0.0-3.0-3.0-3.6","wx3wjypjldqgdbh","practice_cue","5f26a8888c072432abed79d2","5f60e3c0a3b16e07647b2ff9","5f6104b77d0e5f04ba36133b","false","null","<div style=""align-items: center; display: flex; color: darkorange; font-size: 90px""><b>ø</b></div>","null","","","","forget_cue","","","","","","","","","","","","","","","",""
"html-keyboard-response","68","195241","0.0-3.0-3.0-0.7","wx3wjypjldqgdbh","practice_cue","5f26a8888c072432abed79d2","5f60e3c0a3b16e07647b2ff9","5f6104b77d0e5f04ba36133b","false","null","<span style=""color: black; font-size: 48px"">N + M</span>","null","","","","resp_prompt","","","","","","","","","","","","","","","",""
"categorize-image","69","196004","0.0-3.0-3.0-1.7","wx3wjypjldqgdbh","practice_cue","5f26a8888c072432abed79d2","5f60e3c0a3b16e07647b2ff9","5f6104b77d0e5f04ba36133b","true","760.4300000239164","./Stimuli/ImagesPractice/LM147.jpg","76","","","","test","true","N + M","76","","LM","LM147.jpg","remember","old","24","2","practice_forget","right","","","",""
"html-keyboard-response","70","198008","0.0-3.0-3.0-3.7","wx3wjypjldqgdbh","practice_cue","5f26a8888c072432abed79d2","5f60e3c0a3b16e07647b2ff9","5f6104b77d0e5f04ba36133b","false","null","<div style=""align-items: center; display: flex; color: dodgerblue; font-size: 90px""><b>o</b></div>","null","","","","forget_cue","","","","","","","","","","","","","","","",""
"html-keyboard-response","71","198714","0.0-3.0-3.0-0.8","wx3wjypjldqgdbh","practice_cue","5f26a8888c072432abed79d2","5f60e3c0a3b16e07647b2ff9","5f6104b77d0e5f04ba36133b","false","null","<span style=""color: black; font-size: 48px"">N + M</span>","null","","","","resp_prompt","","","","","","","","","","","","","","","",""
"categorize-image","72","199313","0.0-3.0-3.0-1.8","wx3wjypjldqgdbh","practice_cue","5f26a8888c072432abed79d2","5f60e3c0a3b16e07647b2ff9","5f6104b77d0e5f04ba36133b","true","596.1599999573082","./Stimuli/ImagesPractice/SN75.jpg","83","","","","test","true","N + M","83","","SN","SN75.jpg","remember","old","25","2","practice_forget","left","","","",""
"html-keyboard-response","73","201318","0.0-3.0-3.0-3.8","wx3wjypjldqgdbh","practice_cue","5f26a8888c072432abed79d2","5f60e3c0a3b16e07647b2ff9","5f6104b77d0e5f04ba36133b","false","null","<div style=""align-items: center; display: flex; color: dodgerblue; font-size: 90px""><b>o</b></div>","null","","","","forget_cue","","","","","","","","","","","","","","","",""
"html-keyboard-response","74","202025","0.0-3.0-3.0-0.9","wx3wjypjldqgdbh","practice_cue","5f26a8888c072432abed79d2","5f60e3c0a3b16e07647b2ff9","5f6104b77d0e5f04ba36133b","false","null","<span style=""color: black; font-size: 48px"">M + N</span>","null","","","","resp_prompt","","","","","","","","","","","","","","","",""
"categorize-image","75","203076","0.0-3.0-3.0-1.9","wx3wjypjldqgdbh","practice_cue","5f26a8888c072432abed79d2","5f60e3c0a3b16e07647b2ff9","5f6104b77d0e5f04ba36133b","true","1047.7749998681247","./Stimuli/ImagesPractice/SN205.jpg","76","","","","test","true","M + N","76","","SN","SN205.jpg","forget","old","26","2","practice_forget","right","","","",""
"html-keyboard-response","76","205079","0.0-3.0-3.0-3.9","wx3wjypjldqgdbh","practice_cue","5f26a8888c072432abed79d2","5f60e3c0a3b16e07647b2ff9","5f6104b77d0e5f04ba36133b","false","null","<div style=""align-items: center; display: flex; color: darkorange; font-size: 90px""><b>ø</b></div>","null","","","","forget_cue","","","","","","","","","","","","","","","",""
"html-keyboard-response","77","205786","0.0-3.0-3.0-0.10","wx3wjypjldqgdbh","practice_cue","5f26a8888c072432abed79d2","5f60e3c0a3b16e07647b2ff9","5f6104b77d0e5f04ba36133b","false","null","<span style=""color: black; font-size: 48px"">M + N</span>","null","","","","resp_prompt","","","","","","","","","","","","","","","",""
"categorize-image","78","207738","0.0-3.0-3.0-1.10","wx3wjypjldqgdbh","practice_cue","5f26a8888c072432abed79d2","5f60e3c0a3b16e07647b2ff9","5f6104b77d0e5f04ba36133b","true","1947.5449998863041","./Stimuli/ImagesPractice/SM98.jpg","83","","","","test","true","M + N","83","","SM","SM98.jpg","remember","old","27","2","practice_forget","left","","","",""
"html-keyboard-response","79","209741","0.0-3.0-3.0-3.10","wx3wjypjldqgdbh","practice_cue","5f26a8888c072432abed79d2","5f60e3c0a3b16e07647b2ff9","5f6104b77d0e5f04ba36133b","false","null","<div style=""align-items: center; display: flex; color: dodgerblue; font-size: 90px""><b>o</b></div>","null","","","","forget_cue","","","","","","","","","","","","","","","",""
"html-keyboard-response","80","210447","0.0-3.0-3.0-0.11","wx3wjypjldqgdbh","practice_cue","5f26a8888c072432abed79d2","5f60e3c0a3b16e07647b2ff9","5f6104b77d0e5f04ba36133b","false","null","<span style=""color: black; font-size: 48px"">N + M</span>","null","","","","resp_prompt","","","","","","","","","","","","","","","",""
"categorize-image","81","211479","0.0-3.0-3.0-1.11","wx3wjypjldqgdbh","practice_cue","5f26a8888c072432abed79d2","5f60e3c0a3b16e07647b2ff9","5f6104b77d0e5f04ba36133b","true","1029.0249998215586","./Stimuli/ImagesPractice/LM230.jpg","76","","","","test","true","N + M","76","","LM","LM230.jpg","remember","old","28","2","practice_forget","right","","","",""
"html-keyboard-response","82","213485","0.0-3.0-3.0-3.11","wx3wjypjldqgdbh","practice_cue","5f26a8888c072432abed79d2","5f60e3c0a3b16e07647b2ff9","5f6104b77d0e5f04ba36133b","false","null","<div style=""align-items: center; display: flex; color: dodgerblue; font-size: 90px""><b>o</b></div>","null","","","","forget_cue","","","","","","","","","","","","","","","",""
"html-keyboard-response","83","214191","0.0-3.0-3.0-0.12","wx3wjypjldqgdbh","practice_cue","5f26a8888c072432abed79d2","5f60e3c0a3b16e07647b2ff9","5f6104b77d0e5f04ba36133b","false","null","<span style=""color: black; font-size: 48px"">M + N</span>","null","","","","resp_prompt","","","","","","","","","","","","","","","",""
"categorize-image","84","214949","0.0-3.0-3.0-1.12","wx3wjypjldqgdbh","practice_cue","5f26a8888c072432abed79d2","5f60e3c0a3b16e07647b2ff9","5f6104b77d0e5f04ba36133b","true","754.6200000215322","./Stimuli/ImagesPractice/LM55.jpg","83","","","","test","true","M + N","83","","LM","LM55.jpg","remember","old","29","2","practice_forget","left","","","",""
"html-keyboard-response","85","216950","0.0-3.0-3.0-3.12","wx3wjypjldqgdbh","practice_cue","5f26a8888c072432abed79d2","5f60e3c0a3b16e07647b2ff9","5f6104b77d0e5f04ba36133b","false","null","<div style=""align-items: center; display: flex; color: dodgerblue; font-size: 90px""><b>o</b></div>","null","","","","forget_cue","","","","","","","","","","","","","","","",""
"html-keyboard-response","86","217656","0.0-3.0-3.0-0.13","wx3wjypjldqgdbh","practice_cue","5f26a8888c072432abed79d2","5f60e3c0a3b16e07647b2ff9","5f6104b77d0e5f04ba36133b","false","null","<span style=""color: black; font-size: 48px"">N + M</span>","null","","","","resp_prompt","","","","","","","","","","","","","","","",""
"categorize-image","87","218322","0.0-3.0-3.0-1.13","wx3wjypjldqgdbh","practice_cue","5f26a8888c072432abed79d2","5f60e3c0a3b16e07647b2ff9","5f6104b77d0e5f04ba36133b","true","662.8700001165271","./Stimuli/ImagesPractice/SN76.jpg","83","","","","test","true","N + M","83","","SN","SN76.jpg","forget","old","30","2","practice_forget","left","","","",""
"html-keyboard-response","88","220329","0.0-3.0-3.0-3.13","wx3wjypjldqgdbh","practice_cue","5f26a8888c072432abed79d2","5f60e3c0a3b16e07647b2ff9","5f6104b77d0e5f04ba36133b","false","null","<div style=""align-items: center; display: flex; color: darkorange; font-size: 90px""><b>ø</b></div>","null","","","","forget_cue","","","","","","","","","","","","","","","",""
"html-keyboard-response","89","221032","0.0-3.0-3.0-0.14","wx3wjypjldqgdbh","practice_cue","5f26a8888c072432abed79d2","5f60e3c0a3b16e07647b2ff9","5f6104b77d0e5f04ba36133b","false","null","<span style=""color: black; font-size: 48px"">M + N</span>","null","","","","resp_prompt","","","","","","","","","","","","","","","",""
"categorize-image","90","222082","0.0-3.0-3.0-1.14","wx3wjypjldqgdbh","practice_cue","5f26a8888c072432abed79d2","5f60e3c0a3b16e07647b2ff9","5f6104b77d0e5f04ba36133b","true","1047.2200000658631","./Stimuli/ImagesPractice/LN72.jpg","76","","","","test","true","M + N","76","","LN","LN72.jpg","forget","old","31","2","practice_forget","right","","","",""
"html-keyboard-response","91","224088","0.0-3.0-3.0-3.14","wx3wjypjldqgdbh","practice_cue","5f26a8888c072432abed79d2","5f60e3c0a3b16e07647b2ff9","5f6104b77d0e5f04ba36133b","false","null","<div style=""align-items: center; display: flex; color: darkorange; font-size: 90px""><b>ø</b></div>","null","","","","forget_cue","","","","","","","","","","","","","","","",""
"html-keyboard-response","92","224794","0.0-3.0-3.0-0.15","wx3wjypjldqgdbh","practice_cue","5f26a8888c072432abed79d2","5f60e3c0a3b16e07647b2ff9","5f6104b77d0e5f04ba36133b","false","null","<span style=""color: black; font-size: 48px"">M + N</span>","null","","","","resp_prompt","","","","","","","","","","","","","","","",""
"categorize-image","93","225703","0.0-3.0-3.0-1.15","wx3wjypjldqgdbh","practice_cue","5f26a8888c072432abed79d2","5f60e3c0a3b16e07647b2ff9","5f6104b77d0e5f04ba36133b","true","905.4849999956787","./Stimuli/ImagesPractice/LN15.jpg","76","","","","test","true","M + N","76","","LN","LN15.jpg","forget","old","32","2","practice_forget","right","","","",""
"html-keyboard-response","94","227709","0.0-3.0-3.0-3.15","wx3wjypjldqgdbh","practice_cue","5f26a8888c072432abed79d2","5f60e3c0a3b16e07647b2ff9","5f6104b77d0e5f04ba36133b","false","null","<div style=""align-items: center; display: flex; color: darkorange; font-size: 90px""><b>ø</b></div>","null","","","","forget_cue","","","","","","","","","","","","","","","",""
"html-keyboard-response","95","230401","0.0-3.0-4.0","wx3wjypjldqgdbh","break","5f26a8888c072432abed79d2","5f60e3c0a3b16e07647b2ff9","5f6104b77d0e5f04ba36133b","false","2690.639999927953","<p style='font-size: 32px;'>Break</><br><br><br><br><br><p style='font-size: 24px;'>In the last block, you committed 0 errors and did not respond in time on 0 trials.
</p><p style='font-size: 24px;'>Try to respond as fast and accurately as possible in the next block as well! </p><p style='font-size: 24px;'>Press SPACE to continue.</p>","32","","","","","","","","","","","","","","","","","","","",""
"html-keyboard-response","96","237853","0.0-3.0-5.0","wx3wjypjldqgdbh","instructions","5f26a8888c072432abed79d2","5f60e3c0a3b16e07647b2ff9","5f6104b77d0e5f04ba36133b","false","7451.0049999225885","<div align=left> Now, to practice, we kindly ask you to remember as many of the to-be-remembered pictures<br>of the previous learning phase as possible.<br><br>The pictures you were instructed to remember were the pictures followed by a <span style='color: dodgerblue; font-size: 28px'>O</span>.<br><br>In this memory test phase, you will also see some new pictures.<br>It is your task to remember whether you were presented with this specific picture in this study so far or not.<br>If you recognize an object (you have already seen it in this study), it is an OLD object. <br>If you do not recognize an object (you have NOT seen it in this study), it is a NEW object. <br><strong> Attention</strong>: As already mentioned, <span style='color: darkorange; font-size:28px'>Ø</span>-pictures will <strong>never</strong> appear in this memory test (neither as new objects). <br><br>Press SPACE to continue. </div>","32","","","","","","","","","","","","","","","","","","","",""
"html-keyboard-response","97","252866","0.0-3.0-6.0","wx3wjypjldqgdbh","instructions","5f26a8888c072432abed79d2","5f60e3c0a3b16e07647b2ff9","5f6104b77d0e5f04ba36133b","false","15010.835000080988","<div align=left> M and N no longer will appear on the left/right of the fixation cross. <br>Instead there will be a note at the bottom of the left or right side  <br>indicating which key you should press for an old or new object:  <br> <br>Press the <strong>right</strong> key to classify an object as <strong>old</strong> and press the <strong>left</strong>, to classify an object as <strong>new</strong>.<br>Please classify the objects as new/old by again placing your index finger on the 'S' and 'L' keys <br>and press them accordingly.<br><br><strong>Old:</strong> This object has been presented before. <br><strong>New:</strong> This object has <strong>not</strong> been presented.<br><br>Now please put your right and left index fingers on the 'S' and 'L' keys of your keyboard. <br>Please respond as fast and as accurately as possible!<br><br>Press SPACE to continue. </div>","32","","","","","","","","","","","","","","","","","","","",""
"categorize-image","98","254892","0.0-3.0-7.0-0.0","wx3wjypjldqgdbh","practice_recog","5f26a8888c072432abed79d2","5f60e3c0a3b16e07647b2ff9","5f6104b77d0e5f04ba36133b","true","1520.0400000903755","./Stimuli/ImagesPractice/SN221.jpg","76","","","","test","true","","76","","SN","SN221.jpg","","new","33","3","practice_recog","right","","","",""
"categorize-image","99","256578","0.0-3.0-7.0-0.1","wx3wjypjldqgdbh","practice_recog","5f26a8888c072432abed79d2","5f60e3c0a3b16e07647b2ff9","5f6104b77d0e5f04ba36133b","true","1170.589999994263","./Stimuli/ImagesPractice/SM98.jpg","83","","","","test","true","","83","","SM","SM98.jpg","","old","34","3","practice_recog","left","","","",""
"categorize-image","100","258081","0.0-3.0-7.0-0.2","wx3wjypjldqgdbh","practice_recog","5f26a8888c072432abed79d2","5f60e3c0a3b16e07647b2ff9","5f6104b77d0e5f04ba36133b","true","996.1200000252575","./Stimuli/ImagesPractice/LM239.jpg","76","","","","test","true","","76","","LM","LM239.jpg","","new","35","3","practice_recog","right","","","",""
"categorize-image","101","259488","0.0-3.0-7.0-0.3","wx3wjypjldqgdbh","practice_recog","5f26a8888c072432abed79d2","5f60e3c0a3b16e07647b2ff9","5f6104b77d0e5f04ba36133b","true","900.2649998292327","./Stimuli/ImagesPractice/LN4.jpg","76","","","","test","true","","76","","LN","LN4.jpg","","new","36","3","practice_recog","right","","","",""
"categorize-image","102","260681","0.0-3.0-7.0-0.4","wx3wjypjldqgdbh","practice_recog","5f26a8888c072432abed79d2","5f60e3c0a3b16e07647b2ff9","5f6104b77d0e5f04ba36133b","true","687.4450000468642","./Stimuli/ImagesPractice/LM147.jpg","83","","","","test","true","","83","","LM","LM147.jpg","","old","37","3","practice_recog","left","","","",""
"categorize-image","103","261822","0.0-3.0-7.0-0.5","wx3wjypjldqgdbh","practice_recog","5f26a8888c072432abed79d2","5f60e3c0a3b16e07647b2ff9","5f6104b77d0e5f04ba36133b","true","634.2850001528859","./Stimuli/ImagesPractice/SN75.jpg","83","","","","test","true","","83","","SN","SN75.jpg","","old","38","3","practice_recog","left","","","",""
"categorize-image","104","263102","0.0-3.0-7.0-0.6","wx3wjypjldqgdbh","practice_recog","5f26a8888c072432abed79d2","5f60e3c0a3b16e07647b2ff9","5f6104b77d0e5f04ba36133b","true","775.1499998848885","./Stimuli/ImagesPractice/LM143.jpg","76","","","","test","true","","76","","LM","LM143.jpg","","new","39","3","practice_recog","right","","","",""
"categorize-image","105","265411","0.0-3.0-7.0-0.7","wx3wjypjldqgdbh","practice_recog","5f26a8888c072432abed79d2","5f60e3c0a3b16e07647b2ff9","5f6104b77d0e5f04ba36133b","true","1804.3750000651926","./Stimuli/ImagesPractice/SM62.jpg","76","","","","test","true","","76","","SM","SM62.jpg","","new","40","3","practice_recog","right","","","",""
"categorize-image","106","267270","0.0-3.0-7.0-0.8","wx3wjypjldqgdbh","practice_recog","5f26a8888c072432abed79d2","5f60e3c0a3b16e07647b2ff9","5f6104b77d0e5f04ba36133b","true","1356.9199999328703","./Stimuli/ImagesPractice/LM224.jpg","76","","","","test","true","","76","","LM","LM224.jpg","","new","41","3","practice_recog","right","","","",""
"categorize-image","107","268481","0.0-3.0-7.0-0.9","wx3wjypjldqgdbh","practice_recog","5f26a8888c072432abed79d2","5f60e3c0a3b16e07647b2ff9","5f6104b77d0e5f04ba36133b","true","704.450000077486","./Stimuli/ImagesPractice/LM230.jpg","83","","","","test","true","","83","","LM","LM230.jpg","","old","42","3","practice_recog","left","","","",""
"categorize-image","108","269601","0.0-3.0-7.0-0.10","wx3wjypjldqgdbh","practice_recog","5f26a8888c072432abed79d2","5f60e3c0a3b16e07647b2ff9","5f6104b77d0e5f04ba36133b","true","613.3549998048693","./Stimuli/ImagesPractice/SN220.jpg","83","","","","test","true","","83","","SN","SN220.jpg","","old","43","3","practice_recog","left","","","",""
"categorize-image","109","271258","0.0-3.0-7.0-0.11","wx3wjypjldqgdbh","practice_recog","5f26a8888c072432abed79d2","5f60e3c0a3b16e07647b2ff9","5f6104b77d0e5f04ba36133b","true","1151.4049998950213","./Stimuli/ImagesPractice/SM61.jpg","76","","","","test","true","","76","","SM","SM61.jpg","","new","44","3","practice_recog","right","","","",""
"categorize-image","110","272798","0.0-3.0-7.0-0.12","wx3wjypjldqgdbh","practice_recog","5f26a8888c072432abed79d2","5f60e3c0a3b16e07647b2ff9","5f6104b77d0e5f04ba36133b","true","1032.9499999061227","./Stimuli/ImagesPractice/SM97.jpg","83","","","","test","false","","76","","SM","SM97.jpg","","new","45","3","practice_recog","left","","","",""
"categorize-image","111","274339","0.0-3.0-7.0-0.13","wx3wjypjldqgdbh","practice_recog","5f26a8888c072432abed79d2","5f60e3c0a3b16e07647b2ff9","5f6104b77d0e5f04ba36133b","true","1034.7550001461059","./Stimuli/ImagesPractice/SM35.jpg","83","","","","test","true","","83","","SM","SM35.jpg","","old","46","3","practice_recog","left","","","",""
"categorize-image","112","275530","0.0-3.0-7.0-0.14","wx3wjypjldqgdbh","practice_recog","5f26a8888c072432abed79d2","5f60e3c0a3b16e07647b2ff9","5f6104b77d0e5f04ba36133b","true","686.869999859482","./Stimuli/ImagesPractice/SM37.jpg","83","","","","test","true","","83","","SM","SM37.jpg","","old","47","3","practice_recog","left","","","",""
"categorize-image","113","276664","0.0-3.0-7.0-0.15","wx3wjypjldqgdbh","practice_recog","5f26a8888c072432abed79d2","5f60e3c0a3b16e07647b2ff9","5f6104b77d0e5f04ba36133b","true","627.9400000348687","./Stimuli/ImagesPractice/LM55.jpg","83","","","","test","true","","83","","LM","LM55.jpg","","old","48","3","practice_recog","left","","","",""
"html-keyboard-response","114","279055","0.0-3.0-8.0","wx3wjypjldqgdbh","instructions","5f26a8888c072432abed79d2","5f60e3c0a3b16e07647b2ff9","5f6104b77d0e5f04ba36133b","false","2389.659999869764","<div align=left> Great!<br><br>Are you ready to continue?<br>If you want to reread the instructions and redo the practice trials, please <br>press „Z“.<br><br>You can proceed when you are ready.<br><br>After the presentation of each object, you will receive an instruction whether to <br>remember or to forget the object.<br>We will test your memory of the following pictures only at the very end of <br>the experiment after all learning blocks are completed. <br><br>Press SPACE to CONTINUE when you are ready. </div>","32","","","","","","","","","","","","","","","","","","","",""
"html-keyboard-response","115","284226","0.0-4.0-0.0","wx3wjypjldqgdbh","instructions","5f26a8888c072432abed79d2","5f60e3c0a3b16e07647b2ff9","5f6104b77d0e5f04ba36133b","false","5169.854999985546","<div align=left> The actual experiment is about to start.<br>The practice trials are over!<br><br>Please always respond both fast and accurately!<br><br>Remember: <br> <br><li> Please place your index fingers on the <strong>'S'</strong> and <strong>'L'</strong> keys <br>to respond as fast and accurately as possible.</li><li> Every picture can be classified as either mechanical or non-mechanical.</li><li> If you do not respond in time or commit an error, you will receive a corresponding feedback.<br> Please try to respond as <strong> fast </strong> and as <strong> accurately as possible </strong>.</li><li> Remember the <span style='color: dodgerblue; font-size: 28px'>O</span> pictures. <br></li><li> Please minimize distractions and stay focused. </li><br><br>Press SPACE to START.</div>","32","","","","","","","","","","","","","","","","","","","",""
"html-keyboard-response","116","284933","0.0-4.0-1.0-0.0","wx3wjypjldqgdbh","prime","5f26a8888c072432abed79d2","5f60e3c0a3b16e07647b2ff9","5f6104b77d0e5f04ba36133b","false","null","<span style=""color: black; font-size: 48px"">N + M</span>","null","","","","resp_prompt","","","","","","","","","","","","","","","",""
"categorize-image","117","285572","0.0-4.0-1.0-1.0","wx3wjypjldqgdbh","prime","5f26a8888c072432abed79d2","5f60e3c0a3b16e07647b2ff9","5f6104b77d0e5f04ba36133b","true","636.0150000546128","./Stimuli/SelectedImages/SN/SN181.bmp","83","","","","test","true","N + M","83","repetition","SN","SN181.bmp","remember","","49","3","prime1","left","","","",""
"html-keyboard-response","118","287578","0.0-4.0-1.0-3.0","wx3wjypjldqgdbh","prime","5f26a8888c072432abed79d2","5f60e3c0a3b16e07647b2ff9","5f6104b77d0e5f04ba36133b","false","null","<div style=""align-items: center; display: flex; color: dodgerblue; font-size: 90px""><b>o</b></div>","null","","","","forget_cue","","","","","","","","","","","","","","","",""
"html-keyboard-response","119","288284","0.0-4.0-1.0-0.1","wx3wjypjldqgdbh","prime","5f26a8888c072432abed79d2","5f60e3c0a3b16e07647b2ff9","5f6104b77d0e5f04ba36133b","false","null","<span style=""color: black; font-size: 48px"">N + M</span>","null","","","","resp_prompt","","","","","","","","","","","","","","","",""
"categorize-image","120","289225","0.0-4.0-1.0-1.1","wx3wjypjldqgdbh","prime","5f26a8888c072432abed79d2","5f60e3c0a3b16e07647b2ff9","5f6104b77d0e5f04ba36133b","true","938.3549999911338","./Stimuli/SelectedImages/LN/LN92.bmp","83","","","","test","true","N + M","83","switch","LN","LN92.bmp","remember","","50","3","prime1","left","","","",""
"html-keyboard-response","121","291231","0.0-4.0-1.0-3.1","wx3wjypjldqgdbh","prime","5f26a8888c072432abed79d2","5f60e3c0a3b16e07647b2ff9","5f6104b77d0e5f04ba36133b","false","null","<div style=""align-items: center; display: flex; color: dodgerblue; font-size: 90px""><b>o</b></div>","null","","","","forget_cue","","","","","","","","","","","","","","","",""
"html-keyboard-response","122","291937","0.0-4.0-1.0-0.2","wx3wjypjldqgdbh","prime","5f26a8888c072432abed79d2","5f60e3c0a3b16e07647b2ff9","5f6104b77d0e5f04ba36133b","false","null","<span style=""color: black; font-size: 48px"">M + N</span>","null","","","","resp_prompt","","","","","","","","","","","","","","","",""
"categorize-image","123","292744","0.0-4.0-1.0-1.2","wx3wjypjldqgdbh","prime","5f26a8888c072432abed79d2","5f60e3c0a3b16e07647b2ff9","5f6104b77d0e5f04ba36133b","true","804.2949999216944","./Stimuli/SelectedImages/LN/LN42.bmp","76","","","","test","true","M + N","76","repetition","LN","LN42.bmp","remember","","51","3","prime1","right","","","",""
"html-keyboard-response","124","294750","0.0-4.0-1.0-3.2","wx3wjypjldqgdbh","prime","5f26a8888c072432abed79d2","5f60e3c0a3b16e07647b2ff9","5f6104b77d0e5f04ba36133b","false","null","<div style=""align-items: center; display: flex; color: dodgerblue; font-size: 90px""><b>o</b></div>","null","","","","forget_cue","","","","","","","","","","","","","","","",""
"html-keyboard-response","125","295456","0.0-4.0-1.0-0.3","wx3wjypjldqgdbh","prime","5f26a8888c072432abed79d2","5f60e3c0a3b16e07647b2ff9","5f6104b77d0e5f04ba36133b","false","null","<span style=""color: black; font-size: 48px"">N + M</span>","null","","","","resp_prompt","","","","","","","","","","","","","","","",""
"categorize-image","126","296290","0.0-4.0-1.0-1.3","wx3wjypjldqgdbh","prime","5f26a8888c072432abed79d2","5f60e3c0a3b16e07647b2ff9","5f6104b77d0e5f04ba36133b","true","830.9700000099838","./Stimuli/SelectedImages/LM/LM100.bmp","76","","","","test","true","N + M","76","switch","LM","LM100.bmp","forget","","52","3","prime1","right","","","",""
"html-keyboard-response","127","298296","0.0-4.0-1.0-3.3","wx3wjypjldqgdbh","prime","5f26a8888c072432abed79d2","5f60e3c0a3b16e07647b2ff9","5f6104b77d0e5f04ba36133b","false","null","<div style=""align-items: center; display: flex; color: darkorange; font-size: 90px""><b>ø</b></div>","null","","","","forget_cue","","","","","","","","","","","","","","","",""
"html-keyboard-response","128","299002","0.0-4.0-1.0-0.4","wx3wjypjldqgdbh","prime","5f26a8888c072432abed79d2","5f60e3c0a3b16e07647b2ff9","5f6104b77d0e5f04ba36133b","false","null","<span style=""color: black; font-size: 48px"">N + M</span>","null","","","","resp_prompt","","","","","","","","","","","","","","","",""
"categorize-image","129","299593","0.0-4.0-1.0-1.4","wx3wjypjldqgdbh","prime","5f26a8888c072432abed79d2","5f60e3c0a3b16e07647b2ff9","5f6104b77d0e5f04ba36133b","true","588.190000038594","./Stimuli/SelectedImages/SN/SN140.bmp","83","","","","test","true","N + M","83","switch","SN","SN140.bmp","remember","","53","3","prime1","left","","","",""
"html-keyboard-response","130","301595","0.0-4.0-1.0-3.4","wx3wjypjldqgdbh","prime","5f26a8888c072432abed79d2","5f60e3c0a3b16e07647b2ff9","5f6104b77d0e5f04ba36133b","false","null","<div style=""align-items: center; display: flex; color: dodgerblue; font-size: 90px""><b>o</b></div>","null","","","","forget_cue","","","","","","","","","","","","","","","",""
"html-keyboard-response","131","302296","0.0-4.0-1.0-0.5","wx3wjypjldqgdbh","prime","5f26a8888c072432abed79d2","5f60e3c0a3b16e07647b2ff9","5f6104b77d0e5f04ba36133b","false","null","<span style=""color: black; font-size: 48px"">N + M</span>","null","","","","resp_prompt","","","","","","","","","","","","","","","",""
"categorize-image","132","302994","0.0-4.0-1.0-1.5","wx3wjypjldqgdbh","prime","5f26a8888c072432abed79d2","5f60e3c0a3b16e07647b2ff9","5f6104b77d0e5f04ba36133b","true","695.0700001325458","./Stimuli/SelectedImages/LM/LM129.bmp","76","","","","test","true","N + M","76","repetition","LM","LM129.bmp","forget","","54","3","prime1","right","","","",""
"html-keyboard-response","133","304998","0.0-4.0-1.0-3.5","wx3wjypjldqgdbh","prime","5f26a8888c072432abed79d2","5f60e3c0a3b16e07647b2ff9","5f6104b77d0e5f04ba36133b","false","null","<div style=""align-items: center; display: flex; color: darkorange; font-size: 90px""><b>ø</b></div>","null","","","","forget_cue","","","","","","","","","","","","","","","",""
"html-keyboard-response","134","305704","0.0-4.0-1.0-0.6","wx3wjypjldqgdbh","prime","5f26a8888c072432abed79d2","5f60e3c0a3b16e07647b2ff9","5f6104b77d0e5f04ba36133b","false","null","<span style=""color: black; font-size: 48px"">N + M</span>","null","","","","resp_prompt","","","","","","","","","","","","","","","",""
"categorize-image","135","306330","0.0-4.0-1.0-1.6","wx3wjypjldqgdbh","prime","5f26a8888c072432abed79d2","5f60e3c0a3b16e07647b2ff9","5f6104b77d0e5f04ba36133b","true","623.4249998815358","./Stimuli/SelectedImages/LN/LN131.bmp","83","","","","test","true","N + M","83","switch","LN","LN131.bmp","forget","","55","3","prime1","left","","","",""
"html-keyboard-response","136","308336","0.0-4.0-1.0-3.6","wx3wjypjldqgdbh","prime","5f26a8888c072432abed79d2","5f60e3c0a3b16e07647b2ff9","5f6104b77d0e5f04ba36133b","false","null","<div style=""align-items: center; display: flex; color: darkorange; font-size: 90px""><b>ø</b></div>","null","","","","forget_cue","","","","","","","","","","","","","","","",""
"html-keyboard-response","137","309042","0.0-4.0-1.0-0.7","wx3wjypjldqgdbh","prime","5f26a8888c072432abed79d2","5f60e3c0a3b16e07647b2ff9","5f6104b77d0e5f04ba36133b","false","null","<span style=""color: black; font-size: 48px"">M + N</span>","null","","","","resp_prompt","","","","","","","","","","","","","","","",""
"categorize-image","138","309709","0.0-4.0-1.0-1.7","wx3wjypjldqgdbh","prime","5f26a8888c072432abed79d2","5f60e3c0a3b16e07647b2ff9","5f6104b77d0e5f04ba36133b","true","663.3199998177588","./Stimuli/SelectedImages/SN/SN179.bmp","76","","","","test","true","M + N","76","switch","SN","SN179.bmp","remember","","56","3","prime1","right","","","",""
"html-keyboard-response","139","311715","0.0-4.0-1.0-3.7","wx3wjypjldqgdbh","prime","5f26a8888c072432abed79d2","5f60e3c0a3b16e07647b2ff9","5f6104b77d0e5f04ba36133b","false","null","<div style=""align-items: center; display: flex; color: dodgerblue; font-size: 90px""><b>o</b></div>","null","","","","forget_cue","","","","","","","","","","","","","","","",""
"html-keyboard-response","140","312420","0.0-4.0-1.0-0.8","wx3wjypjldqgdbh","prime","5f26a8888c072432abed79d2","5f60e3c0a3b16e07647b2ff9","5f6104b77d0e5f04ba36133b","false","null","<span style=""color: black; font-size: 48px"">M + N</span>","null","","","","resp_prompt","","","","","","","","","","","","","","","",""
"categorize-image","141","313372","0.0-4.0-1.0-1.8","wx3wjypjldqgdbh","prime","5f26a8888c072432abed79d2","5f60e3c0a3b16e07647b2ff9","5f6104b77d0e5f04ba36133b","true","949.6949999593198","./Stimuli/SelectedImages/LN/LN177.bmp","76","","","","test","true","M + N","76","repetition","LN","LN177.bmp","remember","","57","3","prime1","right","","","",""
"html-keyboard-response","142","315378","0.0-4.0-1.0-3.8","wx3wjypjldqgdbh","prime","5f26a8888c072432abed79d2","5f60e3c0a3b16e07647b2ff9","5f6104b77d0e5f04ba36133b","false","null","<div style=""align-items: center; display: flex; color: dodgerblue; font-size: 90px""><b>o</b></div>","null","","","","forget_cue","","","","","","","","","","","","","","","",""
"html-keyboard-response","143","316081","0.0-4.0-1.0-0.9","wx3wjypjldqgdbh","prime","5f26a8888c072432abed79d2","5f60e3c0a3b16e07647b2ff9","5f6104b77d0e5f04ba36133b","false","null","<span style=""color: black; font-size: 48px"">N + M</span>","null","","","","resp_prompt","","","","","","","","","","","","","","","",""
"categorize-image","144","316661","0.0-4.0-1.0-1.9","wx3wjypjldqgdbh","prime","5f26a8888c072432abed79d2","5f60e3c0a3b16e07647b2ff9","5f6104b77d0e5f04ba36133b","true","577.0449999254197","./Stimuli/SelectedImages/SN/SN240.bmp","83","","","","test","true","N + M","83","switch","SN","SN240.bmp","forget","","58","3","prime1","left","","","",""
"html-keyboard-response","145","318667","0.0-4.0-1.0-3.9","wx3wjypjldqgdbh","prime","5f26a8888c072432abed79d2","5f60e3c0a3b16e07647b2ff9","5f6104b77d0e5f04ba36133b","false","null","<div style=""align-items: center; display: flex; color: darkorange; font-size: 90px""><b>ø</b></div>","null","","","","forget_cue","","","","","","","","","","","","","","","",""
"html-keyboard-response","146","319373","0.0-4.0-1.0-0.10","wx3wjypjldqgdbh","prime","5f26a8888c072432abed79d2","5f60e3c0a3b16e07647b2ff9","5f6104b77d0e5f04ba36133b","false","null","<span style=""color: black; font-size: 48px"">M + N</span>","null","","","","resp_prompt","","","","","","","","","","","","","","","",""
"categorize-image","147","320021","0.0-4.0-1.0-1.10","wx3wjypjldqgdbh","prime","5f26a8888c072432abed79d2","5f60e3c0a3b16e07647b2ff9","5f6104b77d0e5f04ba36133b","true","644.984999904409","./Stimuli/SelectedImages/LM/LM59.bmp","83","","","","test","true","M + N","83","switch","LM","LM59.bmp","remember","","59","3","prime1","left","","","",""
"html-keyboard-response","148","322026","0.0-4.0-1.0-3.10","wx3wjypjldqgdbh","prime","5f26a8888c072432abed79d2","5f60e3c0a3b16e07647b2ff9","5f6104b77d0e5f04ba36133b","false","null","<div style=""align-items: center; display: flex; color: dodgerblue; font-size: 90px""><b>o</b></div>","null","","","","forget_cue","","","","","","","","","","","","","","","",""
"html-keyboard-response","149","322732","0.0-4.0-1.0-0.11","wx3wjypjldqgdbh","prime","5f26a8888c072432abed79d2","5f60e3c0a3b16e07647b2ff9","5f6104b77d0e5f04ba36133b","false","null","<span style=""color: black; font-size: 48px"">M + N</span>","null","","","","resp_prompt","","","","","","","","","","","","","","","",""
"categorize-image","150","323550","0.0-4.0-1.0-1.11","wx3wjypjldqgdbh","prime","5f26a8888c072432abed79d2","5f60e3c0a3b16e07647b2ff9","5f6104b77d0e5f04ba36133b","true","814.8349998518825","./Stimuli/SelectedImages/SM/SM205.bmp","83","","","","test","true","M + N","83","switch","SM","SM205.bmp","forget","","60","3","prime1","left","","","",""
"html-keyboard-response","151","325556","0.0-4.0-1.0-3.11","wx3wjypjldqgdbh","prime","5f26a8888c072432abed79d2","5f60e3c0a3b16e07647b2ff9","5f6104b77d0e5f04ba36133b","false","null","<div style=""align-items: center; display: flex; color: darkorange; font-size: 90px""><b>ø</b></div>","null","","","","forget_cue","","","","","","","","","","","","","","","",""
"html-keyboard-response","152","326262","0.0-4.0-1.0-0.12","wx3wjypjldqgdbh","prime","5f26a8888c072432abed79d2","5f60e3c0a3b16e07647b2ff9","5f6104b77d0e5f04ba36133b","false","null","<span style=""color: black; font-size: 48px"">N + M</span>","null","","","","resp_prompt","","","","","","","","","","","","","","","",""
"categorize-image","153","327329","0.0-4.0-1.0-1.12","wx3wjypjldqgdbh","prime","5f26a8888c072432abed79d2","5f60e3c0a3b16e07647b2ff9","5f6104b77d0e5f04ba36133b","true","1063.6350000277162","./Stimuli/SelectedImages/SN/SN182.bmp","83","","","","test","true","N + M","83","repetition","SN","SN182.bmp","remember","","61","3","prime1","left","","","",""
"html-keyboard-response","154","329333","0.0-4.0-1.0-3.12","wx3wjypjldqgdbh","prime","5f26a8888c072432abed79d2","5f60e3c0a3b16e07647b2ff9","5f6104b77d0e5f04ba36133b","false","null","<div style=""align-items: center; display: flex; color: dodgerblue; font-size: 90px""><b>o</b></div>","null","","","","forget_cue","","","","","","","","","","","","","","","",""
"html-keyboard-response","155","330035","0.0-4.0-1.0-0.13","wx3wjypjldqgdbh","prime","5f26a8888c072432abed79d2","5f60e3c0a3b16e07647b2ff9","5f6104b77d0e5f04ba36133b","false","null","<span style=""color: black; font-size: 48px"">M + N</span>","null","","","","resp_prompt","","","","","","","","","","","","","","","",""
"categorize-image","156","330774","0.0-4.0-1.0-1.13","wx3wjypjldqgdbh","prime","5f26a8888c072432abed79d2","5f60e3c0a3b16e07647b2ff9","5f6104b77d0e5f04ba36133b","true","736.2249998841435","./Stimuli/SelectedImages/SN/SN18.bmp","76","","","","test","true","M + N","76","repetition","SN","SN18.bmp","remember","","62","3","prime1","right","","","",""
"html-keyboard-response","157","332780","0.0-4.0-1.0-3.13","wx3wjypjldqgdbh","prime","5f26a8888c072432abed79d2","5f60e3c0a3b16e07647b2ff9","5f6104b77d0e5f04ba36133b","false","null","<div style=""align-items: center; display: flex; color: dodgerblue; font-size: 90px""><b>o</b></div>","null","","","","forget_cue","","","","","","","","","","","","","","","",""
"html-keyboard-response","158","333486","0.0-4.0-1.0-0.14","wx3wjypjldqgdbh","prime","5f26a8888c072432abed79d2","5f60e3c0a3b16e07647b2ff9","5f6104b77d0e5f04ba36133b","false","null","<span style=""color: black; font-size: 48px"">N + M</span>","null","","","","resp_prompt","","","","","","","","","","","","","","","",""
"categorize-image","159","334663","0.0-4.0-1.0-1.14","wx3wjypjldqgdbh","prime","5f26a8888c072432abed79d2","5f60e3c0a3b16e07647b2ff9","5f6104b77d0e5f04ba36133b","true","1173.380000051111","./Stimuli/SelectedImages/SN/SN27.bmp","83","","","","test","true","N + M","83","repetition","SN","SN27.bmp","forget","","63","3","prime1","left","","","",""
"html-keyboard-response","160","336669","0.0-4.0-1.0-3.14","wx3wjypjldqgdbh","prime","5f26a8888c072432abed79d2","5f60e3c0a3b16e07647b2ff9","5f6104b77d0e5f04ba36133b","false","null","<div style=""align-items: center; display: flex; color: darkorange; font-size: 90px""><b>ø</b></div>","null","","","","forget_cue","","","","","","","","","","","","","","","",""
"html-keyboard-response","161","337375","0.0-4.0-1.0-0.15","wx3wjypjldqgdbh","prime","5f26a8888c072432abed79d2","5f60e3c0a3b16e07647b2ff9","5f6104b77d0e5f04ba36133b","false","null","<span style=""color: black; font-size: 48px"">N + M</span>","null","","","","resp_prompt","","","","","","","","","","","","","","","",""
"categorize-image","162","338244","0.0-4.0-1.0-1.15","wx3wjypjldqgdbh","prime","5f26a8888c072432abed79d2","5f60e3c0a3b16e07647b2ff9","5f6104b77d0e5f04ba36133b","true","864.3649998120964","./Stimuli/SelectedImages/SM/SM148.bmp","76","","","","test","true","N + M","76","repetition","SM","SM148.bmp","forget","","64","3","prime1","right","","","",""
"html-keyboard-response","163","340248","0.0-4.0-1.0-3.15","wx3wjypjldqgdbh","prime","5f26a8888c072432abed79d2","5f60e3c0a3b16e07647b2ff9","5f6104b77d0e5f04ba36133b","false","null","<div style=""align-items: center; display: flex; color: darkorange; font-size: 90px""><b>ø</b></div>","null","","","","forget_cue","","","","","","","","","","","","","","","",""
"html-keyboard-response","164","340951","0.0-4.0-1.0-0.16","wx3wjypjldqgdbh","prime","5f26a8888c072432abed79d2","5f60e3c0a3b16e07647b2ff9","5f6104b77d0e5f04ba36133b","false","null","<span style=""color: black; font-size: 48px"">N + M</span>","null","","","","resp_prompt","","","","","","","","","","","","","","","",""
"categorize-image","165","341786","0.0-4.0-1.0-1.16","wx3wjypjldqgdbh","prime","5f26a8888c072432abed79d2","5f60e3c0a3b16e07647b2ff9","5f6104b77d0e5f04ba36133b","true","832.2499999776483","./Stimuli/SelectedImages/SN/SN111.bmp","83","","","","test","true","N + M","83","switch","SN","SN111.bmp","remember","","65","3","prime1","left","","","",""
"html-keyboard-response","166","343792","0.0-4.0-1.0-3.16","wx3wjypjldqgdbh","prime","5f26a8888c072432abed79d2","5f60e3c0a3b16e07647b2ff9","5f6104b77d0e5f04ba36133b","false","null","<div style=""align-items: center; display: flex; color: dodgerblue; font-size: 90px""><b>o</b></div>","null","","","","forget_cue","","","","","","","","","","","","","","","",""
"html-keyboard-response","167","344498","0.0-4.0-1.0-0.17","wx3wjypjldqgdbh","prime","5f26a8888c072432abed79d2","5f60e3c0a3b16e07647b2ff9","5f6104b77d0e5f04ba36133b","false","null","<span style=""color: black; font-size: 48px"">N + M</span>","null","","","","resp_prompt","","","","","","","","","","","","","","","",""
"categorize-image","168","345609","0.0-4.0-1.0-1.17","wx3wjypjldqgdbh","prime","5f26a8888c072432abed79d2","5f60e3c0a3b16e07647b2ff9","5f6104b77d0e5f04ba36133b","true","1107.3600000236183","./Stimuli/SelectedImages/SN/SN52.bmp","83","","","","test","true","N + M","83","repetition","SN","SN52.bmp","forget","","66","3","prime1","left","","","",""
"html-keyboard-response","169","347610","0.0-4.0-1.0-3.17","wx3wjypjldqgdbh","prime","5f26a8888c072432abed79d2","5f60e3c0a3b16e07647b2ff9","5f6104b77d0e5f04ba36133b","false","null","<div style=""align-items: center; display: flex; color: darkorange; font-size: 90px""><b>ø</b></div>","null","","","","forget_cue","","","","","","","","","","","","","","","",""
"html-keyboard-response","170","348316","0.0-4.0-1.0-0.18","wx3wjypjldqgdbh","prime","5f26a8888c072432abed79d2","5f60e3c0a3b16e07647b2ff9","5f6104b77d0e5f04ba36133b","false","null","<span style=""color: black; font-size: 48px"">M + N</span>","null","","","","resp_prompt","","","","","","","","","","","","","","","",""
"categorize-image","171","349468","0.0-4.0-1.0-1.18","wx3wjypjldqgdbh","prime","5f26a8888c072432abed79d2","5f60e3c0a3b16e07647b2ff9","5f6104b77d0e5f04ba36133b","true","1149.280000012368","./Stimuli/SelectedImages/SM/SM76.bmp","83","","","","test","true","M + N","83","switch","SM","SM76.bmp","forget","","67","3","prime1","left","","","",""
"html-keyboard-response","172","351471","0.0-4.0-1.0-3.18","wx3wjypjldqgdbh","prime","5f26a8888c072432abed79d2","5f60e3c0a3b16e07647b2ff9","5f6104b77d0e5f04ba36133b","false","null","<div style=""align-items: center; display: flex; color: darkorange; font-size: 90px""><b>ø</b></div>","null","","","","forget_cue","","","","","","","","","","","","","","","",""
"html-keyboard-response","173","352177","0.0-4.0-1.0-0.19","wx3wjypjldqgdbh","prime","5f26a8888c072432abed79d2","5f60e3c0a3b16e07647b2ff9","5f6104b77d0e5f04ba36133b","false","null","<span style=""color: black; font-size: 48px"">N + M</span>","null","","","","resp_prompt","","","","","","","","","","","","","","","",""
"categorize-image","174","353378","0.0-4.0-1.0-1.19","wx3wjypjldqgdbh","prime","5f26a8888c072432abed79d2","5f60e3c0a3b16e07647b2ff9","5f6104b77d0e5f04ba36133b","true","1197.785000083968","./Stimuli/SelectedImages/SM/SM73.bmp","76","","","","test","true","N + M","76","switch","SM","SM73.bmp","forget","","68","3","prime1","right","","","",""
"html-keyboard-response","175","355384","0.0-4.0-1.0-3.19","wx3wjypjldqgdbh","prime","5f26a8888c072432abed79d2","5f60e3c0a3b16e07647b2ff9","5f6104b77d0e5f04ba36133b","false","null","<div style=""align-items: center; display: flex; color: darkorange; font-size: 90px""><b>ø</b></div>","null","","","","forget_cue","","","","","","","","","","","","","","","",""
"html-keyboard-response","176","356090","0.0-4.0-1.0-0.20","wx3wjypjldqgdbh","prime","5f26a8888c072432abed79d2","5f60e3c0a3b16e07647b2ff9","5f6104b77d0e5f04ba36133b","false","null","<span style=""color: black; font-size: 48px"">M + N</span>","null","","","","resp_prompt","","","","","","","","","","","","","","","",""
"categorize-image","177","357067","0.0-4.0-1.0-1.20","wx3wjypjldqgdbh","prime","5f26a8888c072432abed79d2","5f60e3c0a3b16e07647b2ff9","5f6104b77d0e5f04ba36133b","true","973.7200001254678","./Stimuli/SelectedImages/SN/SN155.bmp","76","","","","test","true","M + N","76","repetition","SN","SN155.bmp","forget","","69","3","prime1","right","","","",""
"html-keyboard-response","178","359070","0.0-4.0-1.0-3.20","wx3wjypjldqgdbh","prime","5f26a8888c072432abed79d2","5f60e3c0a3b16e07647b2ff9","5f6104b77d0e5f04ba36133b","false","null","<div style=""align-items: center; display: flex; color: darkorange; font-size: 90px""><b>ø</b></div>","null","","","","forget_cue","","","","","","","","","","","","","","","",""
"html-keyboard-response","179","359776","0.0-4.0-1.0-0.21","wx3wjypjldqgdbh","prime","5f26a8888c072432abed79d2","5f60e3c0a3b16e07647b2ff9","5f6104b77d0e5f04ba36133b","false","null","<span style=""color: black; font-size: 48px"">M + N</span>","null","","","","resp_prompt","","","","","","","","","","","","","","","",""
"categorize-image","180","360764","0.0-4.0-1.0-1.21","wx3wjypjldqgdbh","prime","5f26a8888c072432abed79d2","5f60e3c0a3b16e07647b2ff9","5f6104b77d0e5f04ba36133b","true","984.4750000629574","./Stimuli/SelectedImages/LN/LN59.bmp","76","","","","test","true","M + N","76","switch","LN","LN59.bmp","remember","","70","3","prime1","right","","","",""
"html-keyboard-response","181","362770","0.0-4.0-1.0-3.21","wx3wjypjldqgdbh","prime","5f26a8888c072432abed79d2","5f60e3c0a3b16e07647b2ff9","5f6104b77d0e5f04ba36133b","false","null","<div style=""align-items: center; display: flex; color: dodgerblue; font-size: 90px""><b>o</b></div>","null","","","","forget_cue","","","","","","","","","","","","","","","",""
"html-keyboard-response","182","363476","0.0-4.0-1.0-0.22","wx3wjypjldqgdbh","prime","5f26a8888c072432abed79d2","5f60e3c0a3b16e07647b2ff9","5f6104b77d0e5f04ba36133b","false","null","<span style=""color: black; font-size: 48px"">M + N</span>","null","","","","resp_prompt","","","","","","","","","","","","","","","",""
"categorize-image","183","364238","0.0-4.0-1.0-1.22","wx3wjypjldqgdbh","prime","5f26a8888c072432abed79d2","5f60e3c0a3b16e07647b2ff9","5f6104b77d0e5f04ba36133b","true","758.7650001514703","./Stimuli/SelectedImages/LM/LM150.bmp","83","","","","test","true","M + N","83","switch","LM","LM150.bmp","forget","","71","3","prime1","left","","","",""
"html-keyboard-response","184","366244","0.0-4.0-1.0-3.22","wx3wjypjldqgdbh","prime","5f26a8888c072432abed79d2","5f60e3c0a3b16e07647b2ff9","5f6104b77d0e5f04ba36133b","false","null","<div style=""align-items: center; display: flex; color: darkorange; font-size: 90px""><b>ø</b></div>","null","","","","forget_cue","","","","","","","","","","","","","","","",""
"html-keyboard-response","185","366950","0.0-4.0-1.0-0.23","wx3wjypjldqgdbh","prime","5f26a8888c072432abed79d2","5f60e3c0a3b16e07647b2ff9","5f6104b77d0e5f04ba36133b","false","null","<span style=""color: black; font-size: 48px"">M + N</span>","null","","","","resp_prompt","","","","","","","","","","","","","","","",""
"categorize-image","186","367762","0.0-4.0-1.0-1.23","wx3wjypjldqgdbh","prime","5f26a8888c072432abed79d2","5f60e3c0a3b16e07647b2ff9","5f6104b77d0e5f04ba36133b","true","809.3499999959022","./Stimuli/SelectedImages/SM/SM108.bmp","83","","","","test","true","M + N","83","repetition","SM","SM108.bmp","forget","","72","3","prime1","left","","","",""
"html-keyboard-response","187","369768","0.0-4.0-1.0-3.23","wx3wjypjldqgdbh","prime","5f26a8888c072432abed79d2","5f60e3c0a3b16e07647b2ff9","5f6104b77d0e5f04ba36133b","false","null","<div style=""align-items: center; display: flex; color: darkorange; font-size: 90px""><b>ø</b></div>","null","","","","forget_cue","","","","","","","","","","","","","","","",""
"html-keyboard-response","188","370474","0.0-4.0-1.0-0.24","wx3wjypjldqgdbh","prime","5f26a8888c072432abed79d2","5f60e3c0a3b16e07647b2ff9","5f6104b77d0e5f04ba36133b","false","null","<span style=""color: black; font-size: 48px"">M + N</span>","null","","","","resp_prompt","","","","","","","","","","","","","","","",""
"categorize-image","189","371084","0.0-4.0-1.0-1.24","wx3wjypjldqgdbh","prime","5f26a8888c072432abed79d2","5f60e3c0a3b16e07647b2ff9","5f6104b77d0e5f04ba36133b","true","606.3449999783188","./Stimuli/SelectedImages/LN/LN111.bmp","76","","","","test","true","M + N","76","switch","LN","LN111.bmp","remember","","73","3","prime1","right","","","",""
"html-keyboard-response","190","373089","0.0-4.0-1.0-3.24","wx3wjypjldqgdbh","prime","5f26a8888c072432abed79d2","5f60e3c0a3b16e07647b2ff9","5f6104b77d0e5f04ba36133b","false","null","<div style=""align-items: center; display: flex; color: dodgerblue; font-size: 90px""><b>o</b></div>","null","","","","forget_cue","","","","","","","","","","","","","","","",""
"html-keyboard-response","191","373796","0.0-4.0-1.0-0.25","wx3wjypjldqgdbh","prime","5f26a8888c072432abed79d2","5f60e3c0a3b16e07647b2ff9","5f6104b77d0e5f04ba36133b","false","null","<span style=""color: black; font-size: 48px"">M + N</span>","null","","","","resp_prompt","","","","","","","","","","","","","","","",""
"categorize-image","192","374930","0.0-4.0-1.0-1.25","wx3wjypjldqgdbh","prime","5f26a8888c072432abed79d2","5f60e3c0a3b16e07647b2ff9","5f6104b77d0e5f04ba36133b","true","1130.8049999643117","./Stimuli/SelectedImages/SN/SN60.bmp","76","","","","test","true","M + N","76","repetition","SN","SN60.bmp","remember","","74","3","prime1","right","","","",""
"html-keyboard-response","193","376936","0.0-4.0-1.0-3.25","wx3wjypjldqgdbh","prime","5f26a8888c072432abed79d2","5f60e3c0a3b16e07647b2ff9","5f6104b77d0e5f04ba36133b","false","null","<div style=""align-items: center; display: flex; color: dodgerblue; font-size: 90px""><b>o</b></div>","null","","","","forget_cue","","","","","","","","","","","","","","","",""
"html-keyboard-response","194","377642","0.0-4.0-1.0-0.26","wx3wjypjldqgdbh","prime","5f26a8888c072432abed79d2","5f60e3c0a3b16e07647b2ff9","5f6104b77d0e5f04ba36133b","false","null","<span style=""color: black; font-size: 48px"">M + N</span>","null","","","","resp_prompt","","","","","","","","","","","","","","","",""
"categorize-image","195","378439","0.0-4.0-1.0-1.26","wx3wjypjldqgdbh","prime","5f26a8888c072432abed79d2","5f60e3c0a3b16e07647b2ff9","5f6104b77d0e5f04ba36133b","true","793.7549999915063","./Stimuli/SelectedImages/LN/LN128.bmp","76","","","","test","true","M + N","76","switch","LN","LN128.bmp","forget","","75","3","prime1","right","","","",""
"html-keyboard-response","196","380442","0.0-4.0-1.0-3.26","wx3wjypjldqgdbh","prime","5f26a8888c072432abed79d2","5f60e3c0a3b16e07647b2ff9","5f6104b77d0e5f04ba36133b","false","null","<div style=""align-items: center; display: flex; color: darkorange; font-size: 90px""><b>ø</b></div>","null","","","","forget_cue","","","","","","","","","","","","","","","",""
"html-keyboard-response","197","381148","0.0-4.0-1.0-0.27","wx3wjypjldqgdbh","prime","5f26a8888c072432abed79d2","5f60e3c0a3b16e07647b2ff9","5f6104b77d0e5f04ba36133b","false","null","<span style=""color: black; font-size: 48px"">M + N</span>","null","","","","resp_prompt","","","","","","","","","","","","","","","",""
"categorize-image","198","382591","0.0-4.0-1.0-1.27","wx3wjypjldqgdbh","prime","5f26a8888c072432abed79d2","5f60e3c0a3b16e07647b2ff9","5f6104b77d0e5f04ba36133b","true","1440.6149999704212","./Stimuli/SelectedImages/SM/SM184.bmp","83","","","","test","true","M + N","83","repetition","SM","SM184.bmp","forget","","76","3","prime1","left","","","",""
"html-keyboard-response","199","384595","0.0-4.0-1.0-3.27","wx3wjypjldqgdbh","prime","5f26a8888c072432abed79d2","5f60e3c0a3b16e07647b2ff9","5f6104b77d0e5f04ba36133b","false","null","<div style=""align-items: center; display: flex; color: darkorange; font-size: 90px""><b>ø</b></div>","null","","","","forget_cue","","","","","","","","","","","","","","","",""
"html-keyboard-response","200","385302","0.0-4.0-1.0-0.28","wx3wjypjldqgdbh","prime","5f26a8888c072432abed79d2","5f60e3c0a3b16e07647b2ff9","5f6104b77d0e5f04ba36133b","false","null","<span style=""color: black; font-size: 48px"">N + M</span>","null","","","","resp_prompt","","","","","","","","","","","","","","","",""
"categorize-image","201","386957","0.0-4.0-1.0-1.28","wx3wjypjldqgdbh","prime","5f26a8888c072432abed79d2","5f60e3c0a3b16e07647b2ff9","5f6104b77d0e5f04ba36133b","true","1652.314999839291","./Stimuli/SelectedImages/SM/SM128.bmp","76","","","","test","true","N + M","76","repetition","SM","SM128.bmp","remember","","77","3","prime1","right","","","",""
"html-keyboard-response","202","388960","0.0-4.0-1.0-3.28","wx3wjypjldqgdbh","prime","5f26a8888c072432abed79d2","5f60e3c0a3b16e07647b2ff9","5f6104b77d0e5f04ba36133b","false","null","<div style=""align-items: center; display: flex; color: dodgerblue; font-size: 90px""><b>o</b></div>","null","","","","forget_cue","","","","","","","","","","","","","","","",""
"html-keyboard-response","203","389667","0.0-4.0-1.0-0.29","wx3wjypjldqgdbh","prime","5f26a8888c072432abed79d2","5f60e3c0a3b16e07647b2ff9","5f6104b77d0e5f04ba36133b","false","null","<span style=""color: black; font-size: 48px"">M + N</span>","null","","","","resp_prompt","","","","","","","","","","","","","","","",""
"categorize-image","204","390893","0.0-4.0-1.0-1.29","wx3wjypjldqgdbh","prime","5f26a8888c072432abed79d2","5f60e3c0a3b16e07647b2ff9","5f6104b77d0e5f04ba36133b","true","1223.1900000479072","./Stimuli/SelectedImages/LM/LM48.bmp","83","","","","test","true","M + N","83","repetition","LM","LM48.bmp","remember","","78","3","prime1","left","","","",""
"html-keyboard-response","205","392899","0.0-4.0-1.0-3.29","wx3wjypjldqgdbh","prime","5f26a8888c072432abed79d2","5f60e3c0a3b16e07647b2ff9","5f6104b77d0e5f04ba36133b","false","null","<div style=""align-items: center; display: flex; color: dodgerblue; font-size: 90px""><b>o</b></div>","null","","","","forget_cue","","","","","","","","","","","","","","","",""
"html-keyboard-response","206","393605","0.0-4.0-1.0-0.30","wx3wjypjldqgdbh","prime","5f26a8888c072432abed79d2","5f60e3c0a3b16e07647b2ff9","5f6104b77d0e5f04ba36133b","false","null","<span style=""color: black; font-size: 48px"">N + M</span>","null","","","","resp_prompt","","","","","","","","","","","","","","","",""
"categorize-image","207","394259","0.0-4.0-1.0-1.30","wx3wjypjldqgdbh","prime","5f26a8888c072432abed79d2","5f60e3c0a3b16e07647b2ff9","5f6104b77d0e5f04ba36133b","true","650.3349998965859","./Stimuli/SelectedImages/LM/LM157.bmp","76","","","","test","true","N + M","76","repetition","LM","LM157.bmp","remember","","79","3","prime1","right","","","",""
"html-keyboard-response","208","396264","0.0-4.0-1.0-3.30","wx3wjypjldqgdbh","prime","5f26a8888c072432abed79d2","5f60e3c0a3b16e07647b2ff9","5f6104b77d0e5f04ba36133b","false","null","<div style=""align-items: center; display: flex; color: dodgerblue; font-size: 90px""><b>o</b></div>","null","","","","forget_cue","","","","","","","","","","","","","","","",""
"html-keyboard-response","209","396971","0.0-4.0-1.0-0.31","wx3wjypjldqgdbh","prime","5f26a8888c072432abed79d2","5f60e3c0a3b16e07647b2ff9","5f6104b77d0e5f04ba36133b","false","null","<span style=""color: black; font-size: 48px"">N + M</span>","null","","","","resp_prompt","","","","","","","","","","","","","","","",""
"categorize-image","210","397632","0.0-4.0-1.0-1.31","wx3wjypjldqgdbh","prime","5f26a8888c072432abed79d2","5f60e3c0a3b16e07647b2ff9","5f6104b77d0e5f04ba36133b","true","658.3950000349432","./Stimuli/SelectedImages/LN/LN9.bmp","83","","","","test","true","N + M","83","repetition","LN","LN9.bmp","forget","","80","3","prime1","left","","","",""
"html-keyboard-response","211","399638","0.0-4.0-1.0-3.31","wx3wjypjldqgdbh","prime","5f26a8888c072432abed79d2","5f60e3c0a3b16e07647b2ff9","5f6104b77d0e5f04ba36133b","false","null","<div style=""align-items: center; display: flex; color: darkorange; font-size: 90px""><b>ø</b></div>","null","","","","forget_cue","","","","","","","","","","","","","","","",""
"html-keyboard-response","212","400344","0.0-4.0-1.0-0.32","wx3wjypjldqgdbh","prime","5f26a8888c072432abed79d2","5f60e3c0a3b16e07647b2ff9","5f6104b77d0e5f04ba36133b","false","null","<span style=""color: black; font-size: 48px"">M + N</span>","null","","","","resp_prompt","","","","","","","","","","","","","","","",""
"categorize-image","213","401100","0.0-4.0-1.0-1.32","wx3wjypjldqgdbh","prime","5f26a8888c072432abed79d2","5f60e3c0a3b16e07647b2ff9","5f6104b77d0e5f04ba36133b","true","752.915000077337","./Stimuli/SelectedImages/SN/SN128.bmp","76","","","","test","true","M + N","76","switch","SN","SN128.bmp","forget","","81","3","prime1","right","","","",""
"html-keyboard-response","214","403106","0.0-4.0-1.0-3.32","wx3wjypjldqgdbh","prime","5f26a8888c072432abed79d2","5f60e3c0a3b16e07647b2ff9","5f6104b77d0e5f04ba36133b","false","null","<div style=""align-items: center; display: flex; color: darkorange; font-size: 90px""><b>ø</b></div>","null","","","","forget_cue","","","","","","","","","","","","","","","",""
"html-keyboard-response","215","403812","0.0-4.0-1.0-0.33","wx3wjypjldqgdbh","prime","5f26a8888c072432abed79d2","5f60e3c0a3b16e07647b2ff9","5f6104b77d0e5f04ba36133b","false","null","<span style=""color: black; font-size: 48px"">N + M</span>","null","","","","resp_prompt","","","","","","","","","","","","","","","",""
"categorize-image","216","405037","0.0-4.0-1.0-1.33","wx3wjypjldqgdbh","prime","5f26a8888c072432abed79d2","5f60e3c0a3b16e07647b2ff9","5f6104b77d0e5f04ba36133b","true","1222.1150000113994","./Stimuli/SelectedImages/SM/SM17.bmp","76","","","","test","true","N + M","76","switch","SM","SM17.bmp","forget","","82","3","prime1","right","","","",""
"html-keyboard-response","217","407043","0.0-4.0-1.0-3.33","wx3wjypjldqgdbh","prime","5f26a8888c072432abed79d2","5f60e3c0a3b16e07647b2ff9","5f6104b77d0e5f04ba36133b","false","null","<div style=""align-items: center; display: flex; color: darkorange; font-size: 90px""><b>ø</b></div>","null","","","","forget_cue","","","","","","","","","","","","","","","",""
"html-keyboard-response","218","407749","0.0-4.0-1.0-0.34","wx3wjypjldqgdbh","prime","5f26a8888c072432abed79d2","5f60e3c0a3b16e07647b2ff9","5f6104b77d0e5f04ba36133b","false","null","<span style=""color: black; font-size: 48px"">N + M</span>","null","","","","resp_prompt","","","","","","","","","","","","","","","",""
"categorize-image","219","408414","0.0-4.0-1.0-1.34","wx3wjypjldqgdbh","prime","5f26a8888c072432abed79d2","5f60e3c0a3b16e07647b2ff9","5f6104b77d0e5f04ba36133b","true","661.1099999863654","./Stimuli/SelectedImages/SM/SM195.bmp","76","","","","test","true","N + M","76","repetition","SM","SM195.bmp","remember","","83","3","prime1","right","","","",""
"html-keyboard-response","220","410420","0.0-4.0-1.0-3.34","wx3wjypjldqgdbh","prime","5f26a8888c072432abed79d2","5f60e3c0a3b16e07647b2ff9","5f6104b77d0e5f04ba36133b","false","null","<div style=""align-items: center; display: flex; color: dodgerblue; font-size: 90px""><b>o</b></div>","null","","","","forget_cue","","","","","","","","","","","","","","","",""
"html-keyboard-response","221","411122","0.0-4.0-1.0-0.35","wx3wjypjldqgdbh","prime","5f26a8888c072432abed79d2","5f60e3c0a3b16e07647b2ff9","5f6104b77d0e5f04ba36133b","false","null","<span style=""color: black; font-size: 48px"">M + N</span>","null","","","","resp_prompt","","","","","","","","","","","","","","","",""
"categorize-image","222","412116","0.0-4.0-1.0-1.35","wx3wjypjldqgdbh","prime","5f26a8888c072432abed79d2","5f60e3c0a3b16e07647b2ff9","5f6104b77d0e5f04ba36133b","true","991.924999980256","./Stimuli/SelectedImages/LM/LM235.bmp","83","","","","test","true","M + N","83","switch","LM","LM235.bmp","remember","","84","3","prime1","left","","","",""
"html-keyboard-response","223","414122","0.0-4.0-1.0-3.35","wx3wjypjldqgdbh","prime","5f26a8888c072432abed79d2","5f60e3c0a3b16e07647b2ff9","5f6104b77d0e5f04ba36133b","false","null","<div style=""align-items: center; display: flex; color: dodgerblue; font-size: 90px""><b>o</b></div>","null","","","","forget_cue","","","","","","","","","","","","","","","",""
"html-keyboard-response","224","414829","0.0-4.0-1.0-0.36","wx3wjypjldqgdbh","prime","5f26a8888c072432abed79d2","5f60e3c0a3b16e07647b2ff9","5f6104b77d0e5f04ba36133b","false","null","<span style=""color: black; font-size: 48px"">N + M</span>","null","","","","resp_prompt","","","","","","","","","","","","","","","",""
"categorize-image","225","415766","0.0-4.0-1.0-1.36","wx3wjypjldqgdbh","prime","5f26a8888c072432abed79d2","5f60e3c0a3b16e07647b2ff9","5f6104b77d0e5f04ba36133b","true","934.015000006184","./Stimuli/SelectedImages/SN/SN49.bmp","83","","","","test","true","N + M","83","switch","SN","SN49.bmp","forget","","85","3","prime1","left","","","",""
"html-keyboard-response","226","417772","0.0-4.0-1.0-3.36","wx3wjypjldqgdbh","prime","5f26a8888c072432abed79d2","5f60e3c0a3b16e07647b2ff9","5f6104b77d0e5f04ba36133b","false","null","<div style=""align-items: center; display: flex; color: darkorange; font-size: 90px""><b>ø</b></div>","null","","","","forget_cue","","","","","","","","","","","","","","","",""
"html-keyboard-response","227","418478","0.0-4.0-1.0-0.37","wx3wjypjldqgdbh","prime","5f26a8888c072432abed79d2","5f60e3c0a3b16e07647b2ff9","5f6104b77d0e5f04ba36133b","false","null","<span style=""color: black; font-size: 48px"">M + N</span>","null","","","","resp_prompt","","","","","","","","","","","","","","","",""
"categorize-image","228","420095","0.0-4.0-1.0-1.37","wx3wjypjldqgdbh","prime","5f26a8888c072432abed79d2","5f60e3c0a3b16e07647b2ff9","5f6104b77d0e5f04ba36133b","true","1613.0750000011176","./Stimuli/SelectedImages/LM/LM209.bmp","76","","","","test","false","M + N","83","switch","LM","LM209.bmp","forget","","86","3","prime1","right","","","",""
"html-keyboard-response","229","420596","0.0-4.0-1.0-2.37-0.37","wx3wjypjldqgdbh","prime","5f26a8888c072432abed79d2","5f60e3c0a3b16e07647b2ff9","5f6104b77d0e5f04ba36133b","false","null","<span style=""color: red; font-size: 48px"">Error!</span>","null","","","","feedback","","","","","","","","","","","","","","","",""
"html-keyboard-response","230","422602","0.0-4.0-1.0-3.37","wx3wjypjldqgdbh","prime","5f26a8888c072432abed79d2","5f60e3c0a3b16e07647b2ff9","5f6104b77d0e5f04ba36133b","false","null","<div style=""align-items: center; display: flex; color: darkorange; font-size: 90px""><b>ø</b></div>","null","","","","forget_cue","","","","","","","","","","","","","","","",""
"html-keyboard-response","231","423308","0.0-4.0-1.0-0.38","wx3wjypjldqgdbh","prime","5f26a8888c072432abed79d2","5f60e3c0a3b16e07647b2ff9","5f6104b77d0e5f04ba36133b","false","null","<span style=""color: black; font-size: 48px"">N + M</span>","null","","","","resp_prompt","","","","","","","","","","","","","","","",""
"categorize-image","232","424339","0.0-4.0-1.0-1.38","wx3wjypjldqgdbh","prime","5f26a8888c072432abed79d2","5f60e3c0a3b16e07647b2ff9","5f6104b77d0e5f04ba36133b","true","1027.659999905154","./Stimuli/SelectedImages/LM/LM75.bmp","76","","","","test","true","N + M","76","switch","LM","LM75.bmp","remember","","87","3","prime1","right","","","",""
"html-keyboard-response","233","426345","0.0-4.0-1.0-3.38","wx3wjypjldqgdbh","prime","5f26a8888c072432abed79d2","5f60e3c0a3b16e07647b2ff9","5f6104b77d0e5f04ba36133b","false","null","<div style=""align-items: center; display: flex; color: dodgerblue; font-size: 90px""><b>o</b></div>","null","","","","forget_cue","","","","","","","","","","","","","","","",""
"html-keyboard-response","234","427051","0.0-4.0-1.0-0.39","wx3wjypjldqgdbh","prime","5f26a8888c072432abed79d2","5f60e3c0a3b16e07647b2ff9","5f6104b77d0e5f04ba36133b","false","null","<span style=""color: black; font-size: 48px"">N + M</span>","null","","","","resp_prompt","","","","","","","","","","","","","","","",""
"categorize-image","235","427801","0.0-4.0-1.0-1.39","wx3wjypjldqgdbh","prime","5f26a8888c072432abed79d2","5f60e3c0a3b16e07647b2ff9","5f6104b77d0e5f04ba36133b","true","746.4550000149757","./Stimuli/SelectedImages/LN/LN149.bmp","83","","","","test","true","N + M","83","switch","LN","LN149.bmp","remember","","88","3","prime1","left","","","",""
"html-keyboard-response","236","429807","0.0-4.0-1.0-3.39","wx3wjypjldqgdbh","prime","5f26a8888c072432abed79d2","5f60e3c0a3b16e07647b2ff9","5f6104b77d0e5f04ba36133b","false","null","<div style=""align-items: center; display: flex; color: dodgerblue; font-size: 90px""><b>o</b></div>","null","","","","forget_cue","","","","","","","","","","","","","","","",""
"html-keyboard-response","237","430513","0.0-4.0-1.0-0.40","wx3wjypjldqgdbh","prime","5f26a8888c072432abed79d2","5f60e3c0a3b16e07647b2ff9","5f6104b77d0e5f04ba36133b","false","null","<span style=""color: black; font-size: 48px"">M + N</span>","null","","","","resp_prompt","","","","","","","","","","","","","","","",""
"categorize-image","238","431655","0.0-4.0-1.0-1.40","wx3wjypjldqgdbh","prime","5f26a8888c072432abed79d2","5f60e3c0a3b16e07647b2ff9","5f6104b77d0e5f04ba36133b","true","1139.024999924004","./Stimuli/SelectedImages/SM/SM207.bmp","83","","","","test","true","M + N","83","repetition","SM","SM207.bmp","remember","","89","3","prime1","left","","","",""
"html-keyboard-response","239","433660","0.0-4.0-1.0-3.40","wx3wjypjldqgdbh","prime","5f26a8888c072432abed79d2","5f60e3c0a3b16e07647b2ff9","5f6104b77d0e5f04ba36133b","false","null","<div style=""align-items: center; display: flex; color: dodgerblue; font-size: 90px""><b>o</b></div>","null","","","","forget_cue","","","","","","","","","","","","","","","",""
"html-keyboard-response","240","434367","0.0-4.0-1.0-0.41","wx3wjypjldqgdbh","prime","5f26a8888c072432abed79d2","5f60e3c0a3b16e07647b2ff9","5f6104b77d0e5f04ba36133b","false","null","<span style=""color: black; font-size: 48px"">M + N</span>","null","","","","resp_prompt","","","","","","","","","","","","","","","",""
"categorize-image","241","435009","0.0-4.0-1.0-1.41","wx3wjypjldqgdbh","prime","5f26a8888c072432abed79d2","5f60e3c0a3b16e07647b2ff9","5f6104b77d0e5f04ba36133b","true","638.8350001070648","./Stimuli/SelectedImages/LM/LM58.bmp","83","","","","test","true","M + N","83","repetition","LM","LM58.bmp","remember","","90","3","prime1","left","","","",""
"html-keyboard-response","242","437015","0.0-4.0-1.0-3.41","wx3wjypjldqgdbh","prime","5f26a8888c072432abed79d2","5f60e3c0a3b16e07647b2ff9","5f6104b77d0e5f04ba36133b","false","null","<div style=""align-items: center; display: flex; color: dodgerblue; font-size: 90px""><b>o</b></div>","null","","","","forget_cue","","","","","","","","","","","","","","","",""
"html-keyboard-response","243","437721","0.0-4.0-1.0-0.42","wx3wjypjldqgdbh","prime","5f26a8888c072432abed79d2","5f60e3c0a3b16e07647b2ff9","5f6104b77d0e5f04ba36133b","false","null","<span style=""color: black; font-size: 48px"">N + M</span>","null","","","","resp_prompt","","","","","","","","","","","","","","","",""
"categorize-image","244","438422","0.0-4.0-1.0-1.42","wx3wjypjldqgdbh","prime","5f26a8888c072432abed79d2","5f60e3c0a3b16e07647b2ff9","5f6104b77d0e5f04ba36133b","true","697.5300000049174","./Stimuli/SelectedImages/LN/LN13.bmp","83","","","","test","true","N + M","83","repetition","LN","LN13.bmp","remember","","91","3","prime1","left","","","",""
"html-keyboard-response","245","440427","0.0-4.0-1.0-3.42","wx3wjypjldqgdbh","prime","5f26a8888c072432abed79d2","5f60e3c0a3b16e07647b2ff9","5f6104b77d0e5f04ba36133b","false","null","<div style=""align-items: center; display: flex; color: dodgerblue; font-size: 90px""><b>o</b></div>","null","","","","forget_cue","","","","","","","","","","","","","","","",""
"html-keyboard-response","246","441133","0.0-4.0-1.0-0.43","wx3wjypjldqgdbh","prime","5f26a8888c072432abed79d2","5f60e3c0a3b16e07647b2ff9","5f6104b77d0e5f04ba36133b","false","null","<span style=""color: black; font-size: 48px"">M + N</span>","null","","","","resp_prompt","","","","","","","","","","","","","","","",""
"categorize-image","247","441880","0.0-4.0-1.0-1.43","wx3wjypjldqgdbh","prime","5f26a8888c072432abed79d2","5f60e3c0a3b16e07647b2ff9","5f6104b77d0e5f04ba36133b","true","744.0549999009818","./Stimuli/SelectedImages/LN/LN82.bmp","76","","","","test","true","M + N","76","switch","LN","LN82.bmp","forget","","92","3","prime1","right","","","",""
"html-keyboard-response","248","443886","0.0-4.0-1.0-3.43","wx3wjypjldqgdbh","prime","5f26a8888c072432abed79d2","5f60e3c0a3b16e07647b2ff9","5f6104b77d0e5f04ba36133b","false","null","<div style=""align-items: center; display: flex; color: darkorange; font-size: 90px""><b>ø</b></div>","null","","","","forget_cue","","","","","","","","","","","","","","","",""
"html-keyboard-response","249","444591","0.0-4.0-1.0-0.44","wx3wjypjldqgdbh","prime","5f26a8888c072432abed79d2","5f60e3c0a3b16e07647b2ff9","5f6104b77d0e5f04ba36133b","false","null","<span style=""color: black; font-size: 48px"">M + N</span>","null","","","","resp_prompt","","","","","","","","","","","","","","","",""
"categorize-image","250","445395","0.0-4.0-1.0-1.44","wx3wjypjldqgdbh","prime","5f26a8888c072432abed79d2","5f60e3c0a3b16e07647b2ff9","5f6104b77d0e5f04ba36133b","true","801.3150000479072","./Stimuli/SelectedImages/SN/SN93.bmp","76","","","","test","true","M + N","76","switch","SN","SN93.bmp","forget","","93","3","prime1","right","","","",""
"html-keyboard-response","251","447401","0.0-4.0-1.0-3.44","wx3wjypjldqgdbh","prime","5f26a8888c072432abed79d2","5f60e3c0a3b16e07647b2ff9","5f6104b77d0e5f04ba36133b","false","null","<div style=""align-items: center; display: flex; color: darkorange; font-size: 90px""><b>ø</b></div>","null","","","","forget_cue","","","","","","","","","","","","","","","",""
"html-keyboard-response","252","448108","0.0-4.0-1.0-0.45","wx3wjypjldqgdbh","prime","5f26a8888c072432abed79d2","5f60e3c0a3b16e07647b2ff9","5f6104b77d0e5f04ba36133b","false","null","<span style=""color: black; font-size: 48px"">M + N</span>","null","","","","resp_prompt","","","","","","","","","","","","","","","",""
