"trial_type","trial_index","time_elapsed","internal_node_id","subject","exp_part","prolific_PID","study_ID","session_ID","use","rt","stimulus","key_press","button_pressed","responses","question_order","trial_part","correct","resp_map","correct_resp","probe_condition","category","image","forget_condition","list","trial_num","block_num","block","response","test_part","n_span","sequence","num_spaces"
"pavlovia","0","4","0.0-0.0","vpao89gtn7w449s","","5ef7401b44d80c01c67eb236","5f60e3c0a3b16e07647b2ff9","5f60edc9bafd2800092c9073","false","","","","","","","","","","","","","","","","","","","","","","",""
"html-keyboard-response","1","6025","0.0-1.0-0.0-0.0","vpao89gtn7w449s","welcome","5ef7401b44d80c01c67eb236","5f60e3c0a3b16e07647b2ff9","5f60edc9bafd2800092c9073","false","6019.41499998793","<div align=left>Dear participant, <br> thank you for participating in an online study of the Cognition, Action, and Sustainability Unit of the University of Freiburg! <br> <br>The aim of this study is to examine our ability to remember previously learned information. <br>Our goal is to find out, whether our memory improves, when we only remember information that is relevant to us. <br>The experiment will take about 35 minutes to complete. <br> <br>Please, note that you can only participate in this study if you are using a device with a keyboard (PC, Laptop etc.) <br>and not if you are using a mobile device such as a tablet or smartphone.<br> <br>Press 'SPACE' to proceed to the experiment. </div>","32","","","","","","","","","","","","","","","","","","","",""
"html-keyboard-response","2","47411","0.0-1.0-0.0-1.0","vpao89gtn7w449s","welcome","5ef7401b44d80c01c67eb236","5f60e3c0a3b16e07647b2ff9","5f60edc9bafd2800092c9073","false","41385.81999996677","<div align=left><strong> Time Course of this experiment: </strong> <br><br> <strong> 1.</strong>  First, please fill in some information regarding your demographic data. <br><br> <strong> 2.</strong>  Next, your task will be to classify everyday objects. <br>In addition, you will be asked to remember certain objects and recall them later. <br>Working on these tasks requires your undivided attention and concentration.<br>It is therefore essential that you eliminate any sources of distraction in your  <br>environment and ensure that you will not be disturbed. <br><br><strong> 3.</strong>  At the end of the experiment, you will be asked to answer a few additional questions. <br> <br><strong> Important:</strong> After finishing the experiment, only close the browser window <br> by clicking on the 'end the experiment'-button when you are asked to do so. <br>Closing the browser window prematurely will make the allocation of your participation credit impossible. <br><br> Press 'SPACE' to start the experiment. </div>","32","","","","","","","","","","","","","","","","","","","",""
"html-button-response","3","81842","0.0-1.0-0.0-2.0","vpao89gtn7w449s","welcome","5ef7401b44d80c01c67eb236","5f60e3c0a3b16e07647b2ff9","5f60edc9bafd2800092c9073","true","34427.725000015926","<div align=left><strong> Informed consent </strong>  <br>The aim of our research is to better understand human behavior and mental processes. <br>In the following study your behavior (e.g. choices, reaction times) will be studied. <br> <br><strong> Voluntariness and Anonymity </strong> <br>Your participation in this study is  <strong> voluntary</strong>.<br>You may withdraw your consent to participate at any time without providing a reason for doing so and without fear of prejudice. <br><br>As no personal data will be collected, <strong>your data and your person cannot be connected after data collection</strong> – the data-set is anonymous. <br>Respectively, deletion of your data will not be possible after data collection has been completed, as we cannot retrace your data-set.<br>The results and anonymized data collected in this study will be published as a scientific publication. <br>This will happen in an <strong>anonymized format</strong>, so that no data can be traced back to a specific person. <br> <br>The anonymized data of this study will be made available to other researchers and/or in a data archive on the Internet as a means of transparency and to enable subsequent re-use. By doing so, this study follows the recommendations of the Deutsche Forschungsgemeinschaft (DFG, German Research Foundation) and Deutsche Gesellschaft für Psychologie (DGPS, German Psychological Society) regarding quality assurance in research.<br>If you have any questions now or after the experiment, please contact our team (experiments@cs.uni-freiburg.de).<br><br><br>I hereby declare, that I understand the above described conditions of participation and I agree to participate under these conditions. <br><br> </div>","","0","","","","","","","","","","","","","","","","","","",""
"html-keyboard-response","4","205427","0.0-1.0-0.0-3.0","vpao89gtn7w449s","welcome","5ef7401b44d80c01c67eb236","5f60e3c0a3b16e07647b2ff9","5f60edc9bafd2800092c9073","false","123582.27000001352","<div align=left><strong> General information concerning the experiment </strong>  <br> <br>Please follow the instructions:<ol> <li><strong> Do not leave this tab (your browser window) during the experiment and do not reload this tab! </strong>  <br>If you do switch tabs/windows during the experiment (to check your mail or visit another website, for example), <br>the experiment will end automatically and you will <strong>not receive credit</strong> for your participation. <br>Repeated participation or resumption of the experiment is impossible.</li> <br><li>Please close all other programs for the duration of your participation. </li> <br><li>Please mute or turn off your phone and put it out of your reach. </li> <br><li>Please also take off any disturbing accessories (such as wristwatches, bracelets, etc.). </li> <br><li>If you have music playing in the background, please turn it off now. </li> <br></ol>Thank you! <br>Press 'SPACE' to continue. </div>","32","","","","","","","","","","","","","","","","","","","",""
"survey-text","5","212988","0.0-1.0-1.0-0.0","vpao89gtn7w449s","demographics","5ef7401b44d80c01c67eb236","5f60e3c0a3b16e07647b2ff9","5f60edc9bafd2800092c9073","true","7556.585000013001","","","","{""age"":""19""}","","","","","","","","","","","","","","","","","",""
"survey-multi-choice","6","224692","0.0-1.0-1.0-1.0","vpao89gtn7w449s","demographics","5ef7401b44d80c01c67eb236","5f60e3c0a3b16e07647b2ff9","5f60edc9bafd2800092c9073","true","11698.13500001328","","","","{""gender"":""female"",""school"":""high school"",""education"":""High school graduate, diploma or equivalent""}","[0,1,2]","","","","","","","","","","","","","","","","",""
"html-keyboard-response","7","236391","0.0-1.0-2.0","vpao89gtn7w449s","instructions","5ef7401b44d80c01c67eb236","5f60e3c0a3b16e07647b2ff9","5f60edc9bafd2800092c9073","false","11695.92999998713","<div align=left> The experiment is now about to start: <br> <br>In the following part, you will be presented pictures of everyday objects. <br>Your first task is to <strong>classify these objects. </strong> <br> <br> You will classify them either as mechanical or non-mechanical objects. <br> <br>Objects that include any kind of technical mechanism (for example, wheels, switches, levers, <br> electronic components) fall under the category of <strong>mechanical</strong> objects. <br>Only objects without any kind of technical mechanism should be classified as <strong>non-mechanical</strong>. <br><br>Press 'SPACE' to continue. </div>","32","","","","","","","","","","","","","","","","","","","",""
"html-keyboard-response","8","293059","0.0-2.0-0.0","vpao89gtn7w449s","instructions","5ef7401b44d80c01c67eb236","5f60e3c0a3b16e07647b2ff9","5f60edc9bafd2800092c9073","false","56666.45499999868","<div align=justify>You will classify the objects using the <strong>'S'</strong> and the <strong>'L'</strong> keys on your keyboard.<br>For doing so, please place your <strong>left index finger</strong> on the <strong>'S'</strong> key and place your <strong>right index finger</strong> on the <strong>'L'</strong> key. <br><br> Each trial starts with an instruction, indicating which key ('S'/'L') you need to press to classify <br>the object as mechanical (letter M) or non-mechanical (letter N).<br>The instruction <strong>M + N</strong> indicates that, in the current trial, by pressing the left key ('S') you classify the displayed object as mechanical (M) <br> and by pressing the right key ('L') you classify the object as non-mechanical (N). <br>The instruction <strong>N + M</strong> on the other hand indicates that by pressing the left key ('S') you classify the displayed object as non-mechanical (N) <br> and by pressing the right key ('L') you classify the object as mechanical (M). <br><br>Please press the key corresponding to the correct classification as fast as possible as soon as the object is displayed and try to avoid making mistakes.<br>If you do not respond within a 2 second window, a corresponding feedback will be displayed and the next trial will start.<br> The experiment is divided into multiple blocks to give you the opportunity to take a break after each block. <br>First, you can now practice this task. <br><br>Please place your <strong>LEFT INDEX FINGER</strong> on the 'S' key and your <strong>RIGHT INDEX FINGER</strong> on the 'L' key now. <br><br>Press SPACE to continue.</div>","32","","","","","","","","","","","","","","","","","","","",""
"html-keyboard-response","9","300230","0.0-2.0-1.0","vpao89gtn7w449s","instructions","5ef7401b44d80c01c67eb236","5f60e3c0a3b16e07647b2ff9","5f60edc9bafd2800092c9073","false","7168.989999976475","<div align=left> You will now have time to practice this task.<br><br>Remember: <br> <br><li>Please place your index fingers on the <strong>'S'</strong> and <strong>'L'</strong> keys <br>to respond as fast and accurately as possible.</li><li>Every picture can be classified as either mechanical or non-mechanical.</li><li>If you do not respond in time or commit an error, you will receive a corresponding feedback. </li><li> Please try to respond as <strong> fast </strong> and as <strong> accurately as possible </strong> .<br><li>To ensure optimal results, please minimize distractions and stay focused. </li><br><br>Press SPACE to continue.</div>","32","","","","","","","","","","","","","","","","","","","",""
"html-keyboard-response","10","300935","0.0-2.0-2.0-0.0","vpao89gtn7w449s","practice_no_cue","5ef7401b44d80c01c67eb236","5f60e3c0a3b16e07647b2ff9","5f60edc9bafd2800092c9073","false","null","<span style=""color: black; font-size: 48px"">N + M</span>","null","","","","resp_prompt","","","","","","","","","","","","","","","",""
"categorize-image","11","302338","0.0-2.0-2.0-1.0","vpao89gtn7w449s","practice_no_cue","5ef7401b44d80c01c67eb236","5f60e3c0a3b16e07647b2ff9","5f60edc9bafd2800092c9073","true","899.7350000427105","./Stimuli/ImagesPractice/LN17.jpg","83","","","","test","true","N + M","83","","LN","LN17.jpg","forget","old","1","1","start","left","","","",""
"html-keyboard-response","12","303041","0.0-2.0-2.0-0.1","vpao89gtn7w449s","practice_no_cue","5ef7401b44d80c01c67eb236","5f60e3c0a3b16e07647b2ff9","5f60edc9bafd2800092c9073","false","null","<span style=""color: black; font-size: 48px"">M + N</span>","null","","","","resp_prompt","","","","","","","","","","","","","","","",""
"categorize-image","13","304889","0.0-2.0-2.0-1.1","vpao89gtn7w449s","practice_no_cue","5ef7401b44d80c01c67eb236","5f60e3c0a3b16e07647b2ff9","5f60edc9bafd2800092c9073","true","1345.0149999698624","./Stimuli/ImagesPractice/LM239.jpg","83","","","","test","true","M + N","83","","LM","LM239.jpg","forget","old","2","1","start","left","","","",""
"html-keyboard-response","14","305591","0.0-2.0-2.0-0.2","vpao89gtn7w449s","practice_no_cue","5ef7401b44d80c01c67eb236","5f60e3c0a3b16e07647b2ff9","5f60edc9bafd2800092c9073","false","null","<span style=""color: black; font-size: 48px"">N + M</span>","null","","","","resp_prompt","","","","","","","","","","","","","","","",""
"categorize-image","15","306694","0.0-2.0-2.0-1.2","vpao89gtn7w449s","practice_no_cue","5ef7401b44d80c01c67eb236","5f60e3c0a3b16e07647b2ff9","5f60edc9bafd2800092c9073","true","600.6199999828823","./Stimuli/ImagesPractice/SM97.jpg","83","","","","test","false","N + M","76","","SM","SM97.jpg","remember","old","3","1","start","left","","","",""
"html-keyboard-response","16","307396","0.0-2.0-2.0-0.3","vpao89gtn7w449s","practice_no_cue","5ef7401b44d80c01c67eb236","5f60e3c0a3b16e07647b2ff9","5f60edc9bafd2800092c9073","false","null","<span style=""color: black; font-size: 48px"">N + M</span>","null","","","","resp_prompt","","","","","","","","","","","","","","","",""
"categorize-image","17","309124","0.0-2.0-2.0-1.3","vpao89gtn7w449s","practice_no_cue","5ef7401b44d80c01c67eb236","5f60e3c0a3b16e07647b2ff9","5f60edc9bafd2800092c9073","true","1223.195000027772","./Stimuli/ImagesPractice/SM37.jpg","83","","","","test","false","N + M","76","","SM","SM37.jpg","forget","old","4","1","start","left","","","",""
"html-keyboard-response","18","309827","0.0-2.0-2.0-0.4","vpao89gtn7w449s","practice_no_cue","5ef7401b44d80c01c67eb236","5f60e3c0a3b16e07647b2ff9","5f60edc9bafd2800092c9073","false","null","<span style=""color: black; font-size: 48px"">M + N</span>","null","","","","resp_prompt","","","","","","","","","","","","","","","",""
"categorize-image","19","311200","0.0-2.0-2.0-1.4","vpao89gtn7w449s","practice_no_cue","5ef7401b44d80c01c67eb236","5f60e3c0a3b16e07647b2ff9","5f60edc9bafd2800092c9073","true","868.3650000020862","./Stimuli/ImagesPractice/SM98.jpg","83","","","","test","true","M + N","83","","SM","SM98.jpg","forget","old","5","1","start","left","","","",""
"html-keyboard-response","20","311902","0.0-2.0-2.0-0.5","vpao89gtn7w449s","practice_no_cue","5ef7401b44d80c01c67eb236","5f60e3c0a3b16e07647b2ff9","5f60edc9bafd2800092c9073","false","null","<span style=""color: black; font-size: 48px"">M + N</span>","null","","","","resp_prompt","","","","","","","","","","","","","","","",""
"categorize-image","21","312894","0.0-2.0-2.0-1.5","vpao89gtn7w449s","practice_no_cue","5ef7401b44d80c01c67eb236","5f60e3c0a3b16e07647b2ff9","5f60edc9bafd2800092c9073","true","488.76499995822087","./Stimuli/ImagesPractice/LM230.jpg","83","","","","test","true","M + N","83","","LM","LM230.jpg","remember","old","6","1","start","left","","","",""
"html-keyboard-response","22","313597","0.0-2.0-2.0-0.6","vpao89gtn7w449s","practice_no_cue","5ef7401b44d80c01c67eb236","5f60e3c0a3b16e07647b2ff9","5f60edc9bafd2800092c9073","false","null","<span style=""color: black; font-size: 48px"">M + N</span>","null","","","","resp_prompt","","","","","","","","","","","","","","","",""
"categorize-image","23","314753","0.0-2.0-2.0-1.6","vpao89gtn7w449s","practice_no_cue","5ef7401b44d80c01c67eb236","5f60e3c0a3b16e07647b2ff9","5f60edc9bafd2800092c9073","true","653.1299999915063","./Stimuli/ImagesPractice/LM147.jpg","83","","","","test","true","M + N","83","","LM","LM147.jpg","forget","old","7","1","start","left","","","",""
"html-keyboard-response","24","315458","0.0-2.0-2.0-0.7","vpao89gtn7w449s","practice_no_cue","5ef7401b44d80c01c67eb236","5f60e3c0a3b16e07647b2ff9","5f60edc9bafd2800092c9073","false","null","<span style=""color: black; font-size: 48px"">N + M</span>","null","","","","resp_prompt","","","","","","","","","","","","","","","",""
"categorize-image","25","316572","0.0-2.0-2.0-1.7","vpao89gtn7w449s","practice_no_cue","5ef7401b44d80c01c67eb236","5f60e3c0a3b16e07647b2ff9","5f60edc9bafd2800092c9073","true","610.1950000156648","./Stimuli/ImagesPractice/SN221.jpg","83","","","","test","true","N + M","83","","SN","SN221.jpg","remember","old","8","1","start","left","","","",""
"html-keyboard-response","26","317275","0.0-2.0-2.0-0.8","vpao89gtn7w449s","practice_no_cue","5ef7401b44d80c01c67eb236","5f60e3c0a3b16e07647b2ff9","5f60edc9bafd2800092c9073","false","null","<span style=""color: black; font-size: 48px"">N + M</span>","null","","","","resp_prompt","","","","","","","","","","","","","","","",""
"categorize-image","27","318524","0.0-2.0-2.0-1.8","vpao89gtn7w449s","practice_no_cue","5ef7401b44d80c01c67eb236","5f60e3c0a3b16e07647b2ff9","5f60edc9bafd2800092c9073","true","745.5449999542907","./Stimuli/ImagesPractice/SN220.jpg","83","","","","test","true","N + M","83","","SN","SN220.jpg","remember","old","9","1","start","left","","","",""
"html-keyboard-response","28","319226","0.0-2.0-2.0-0.9","vpao89gtn7w449s","practice_no_cue","5ef7401b44d80c01c67eb236","5f60e3c0a3b16e07647b2ff9","5f60edc9bafd2800092c9073","false","null","<span style=""color: black; font-size: 48px"">M + N</span>","null","","","","resp_prompt","","","","","","","","","","","","","","","",""
"categorize-image","29","320608","0.0-2.0-2.0-1.9","vpao89gtn7w449s","practice_no_cue","5ef7401b44d80c01c67eb236","5f60e3c0a3b16e07647b2ff9","5f60edc9bafd2800092c9073","true","878.2849999843165","./Stimuli/ImagesPractice/LN15.jpg","76","","","","test","true","M + N","76","","LN","LN15.jpg","forget","old","10","1","start","right","","","",""
"html-keyboard-response","30","321311","0.0-2.0-2.0-0.10","vpao89gtn7w449s","practice_no_cue","5ef7401b44d80c01c67eb236","5f60e3c0a3b16e07647b2ff9","5f60edc9bafd2800092c9073","false","null","<span style=""color: black; font-size: 48px"">M + N</span>","null","","","","resp_prompt","","","","","","","","","","","","","","","",""
"categorize-image","31","322533","0.0-2.0-2.0-1.10","vpao89gtn7w449s","practice_no_cue","5ef7401b44d80c01c67eb236","5f60e3c0a3b16e07647b2ff9","5f60edc9bafd2800092c9073","true","718.1799999671057","./Stimuli/ImagesPractice/SM62.jpg","83","","","","test","true","M + N","83","","SM","SM62.jpg","remember","old","11","1","start","left","","","",""
"html-keyboard-response","32","323235","0.0-2.0-2.0-0.11","vpao89gtn7w449s","practice_no_cue","5ef7401b44d80c01c67eb236","5f60e3c0a3b16e07647b2ff9","5f60edc9bafd2800092c9073","false","null","<span style=""color: black; font-size: 48px"">N + M</span>","null","","","","resp_prompt","","","","","","","","","","","","","","","",""
"categorize-image","33","324551","0.0-2.0-2.0-1.11","vpao89gtn7w449s","practice_no_cue","5ef7401b44d80c01c67eb236","5f60e3c0a3b16e07647b2ff9","5f60edc9bafd2800092c9073","true","812.1249999967404","./Stimuli/ImagesPractice/SN222.jpg","83","","","","test","true","N + M","83","","SN","SN222.jpg","forget","old","12","1","start","left","","","",""
"html-keyboard-response","34","325252","0.0-2.0-2.0-0.12","vpao89gtn7w449s","practice_no_cue","5ef7401b44d80c01c67eb236","5f60e3c0a3b16e07647b2ff9","5f60edc9bafd2800092c9073","false","null","<span style=""color: black; font-size: 48px"">N + M</span>","null","","","","resp_prompt","","","","","","","","","","","","","","","",""
"categorize-image","35","326302","0.0-2.0-2.0-1.12","vpao89gtn7w449s","practice_no_cue","5ef7401b44d80c01c67eb236","5f60e3c0a3b16e07647b2ff9","5f60edc9bafd2800092c9073","true","546.8499999842606","./Stimuli/ImagesPractice/LM143.jpg","76","","","","test","true","N + M","76","","LM","LM143.jpg","forget","old","13","1","start","right","","","",""
"html-keyboard-response","36","327005","0.0-2.0-2.0-0.13","vpao89gtn7w449s","practice_no_cue","5ef7401b44d80c01c67eb236","5f60e3c0a3b16e07647b2ff9","5f60edc9bafd2800092c9073","false","null","<span style=""color: black; font-size: 48px"">M + N</span>","null","","","","resp_prompt","","","","","","","","","","","","","","","",""
"categorize-image","37","328163","0.0-2.0-2.0-1.13","vpao89gtn7w449s","practice_no_cue","5ef7401b44d80c01c67eb236","5f60e3c0a3b16e07647b2ff9","5f60edc9bafd2800092c9073","true","653.8400000426918","./Stimuli/ImagesPractice/LN72.jpg","83","","","","test","false","M + N","76","","LN","LN72.jpg","remember","old","14","1","start","left","","","",""
"html-keyboard-response","38","328866","0.0-2.0-2.0-0.14","vpao89gtn7w449s","practice_no_cue","5ef7401b44d80c01c67eb236","5f60e3c0a3b16e07647b2ff9","5f60edc9bafd2800092c9073","false","null","<span style=""color: black; font-size: 48px"">N + M</span>","null","","","","resp_prompt","","","","","","","","","","","","","","","",""
"categorize-image","39","330093","0.0-2.0-2.0-1.14","vpao89gtn7w449s","practice_no_cue","5ef7401b44d80c01c67eb236","5f60e3c0a3b16e07647b2ff9","5f60edc9bafd2800092c9073","true","724.4099999661557","./Stimuli/ImagesPractice/LM224.jpg","76","","","","test","true","N + M","76","","LM","LM224.jpg","remember","old","15","1","start","right","","","",""
"html-keyboard-response","40","330796","0.0-2.0-2.0-0.15","vpao89gtn7w449s","practice_no_cue","5ef7401b44d80c01c67eb236","5f60e3c0a3b16e07647b2ff9","5f60edc9bafd2800092c9073","false","null","<span style=""color: black; font-size: 48px"">M + N</span>","null","","","","resp_prompt","","","","","","","","","","","","","","","",""
"categorize-image","41","331910","0.0-2.0-2.0-1.15","vpao89gtn7w449s","practice_no_cue","5ef7401b44d80c01c67eb236","5f60e3c0a3b16e07647b2ff9","5f60edc9bafd2800092c9073","true","610.5700000189245","./Stimuli/ImagesPractice/SN205.jpg","76","","","","test","true","M + N","76","","SN","SN205.jpg","remember","old","16","1","start","right","","","",""
"html-keyboard-response","42","338050","0.0-2.0-3.0","vpao89gtn7w449s","break","5ef7401b44d80c01c67eb236","5f60e3c0a3b16e07647b2ff9","5f60edc9bafd2800092c9073","false","6136.299999954645","<p style='font-size: 32px;'>Break</><br><br><br><br><br><p style='font-size: 24px;'>In the last block, you committed 3 errors and did not respond in time on 0 trials.
</p><p style='font-size: 24px;'>Try to respond as fast and accurately as possible in the next block as well! </p><p style='font-size: 24px;'>Press SPACE to continue.</p>","32","","","","","","","","","","","","","","","","","","","",""
"html-keyboard-response","43","341748","0.0-2.0-4.0","vpao89gtn7w449s","instructions","5ef7401b44d80c01c67eb236","5f60e3c0a3b16e07647b2ff9","5f60edc9bafd2800092c9073","false","3694.595000008121","<div align=left> Great!<br><br>Are you ready to continue?<br><br>If you want to reread the instructions and redo the practice trials, <br>please press „Z“. <br><br>Press SPACE to CONTINUE with the experiment when you are ready. </div>","32","","","","","","","","","","","","","","","","","","","",""
"html-keyboard-response","44","376098","0.0-3.0-0.0","vpao89gtn7w449s","instructions","5ef7401b44d80c01c67eb236","5f60e3c0a3b16e07647b2ff9","5f60edc9bafd2800092c9073","false","34346.32499999134","<div align=left>Great!<br> <strong>Attention</strong>! You will now receive a second, additional task! <br><br>To this point it was you <strong>first task</strong> to correctly <strong>classify objects</strong>. <br><br>As mentioned in the beginning, we aim to examine how well humans can remember previously learned information.<br>We would like to find out whether our memory improves if we only remember information that is relevant to us. <br><br>Therefore, your <strong>second task</strong> will be to <strong>remember</strong> the pictures you are to categorize. <br> After the learning phase, there will be a memory test phase, in which you will be asked to indicate whether you have seen a picture before or not. <br>Some, but not all pictures shown in the learning phase will appear in the memory test phase.<br>After classifying a picture, you will be told whether you should remember it for the memory test phase or not. <br>Thus, some pictures can be forgotten, whereas others have to be remembered. <br><br>Note: From now on, feedback will only be displayed if you responded incorrectly or not in time.<br><br>Press SPACE to continue.</div>","32","","","","","","","","","","","","","","","","","","","",""
"html-keyboard-response","45","387729","0.0-3.0-1.0","vpao89gtn7w449s","instructions","5ef7401b44d80c01c67eb236","5f60e3c0a3b16e07647b2ff9","5f60edc9bafd2800092c9073","false","11630.560000019614","<div align=left>In the following part, you will thus have to remember only some pictures. <br>Immediately after seeing and classifying the picture, a symbol will be displayed, indicating whether you should remember or forget the previous picture. <br><br>A <span style='color: dodgerblue; font-size: 28px'>O</span> indicates REMEMBER. That means, you have to remember this picture, because it will be tested later. <br><br>A <span style='color: darkorange; font-size:28px'>Ø</span> indicates FORGET. You do not have to remember this picture. <br><br> As you will have to remember a lot of pictures, it will be hard for you to remember all of them. <br>It will put you at an advantage if you instantly forget the pictures you are not asked to remember. <br> This will make it easier for you to remember the pictures that will be tested afterwards. <br><br>Press SPACE to continue.</div>","32","","","","","","","","","","","","","","","","","","","",""
"html-keyboard-response","46","391378","0.0-3.0-2.0","vpao89gtn7w449s","instructions","5ef7401b44d80c01c67eb236","5f60e3c0a3b16e07647b2ff9","5f60edc9bafd2800092c9073","false","3648.285000002943","<div align=left> Now you have the chance to practice both tasks together.<br><br>Remember: <br> <br><li>Please place your index fingers on the <strong>'S'</strong> and <strong>'L'</strong> keys <br>to respond as fast and accurately as possible.</li><li>Every picture can be classified as either mechanical or non-mechanical.</li><li>If you do not respond in time or commit an error, you will receive a corresponding feedback. <br>Please try to respond as <strong> fast </strong> and as <strong> accurately as possible </strong>.</li><li> Please remember only the to-be-remembered <span style='color: dodgerblue; font-size: 28px'>O</span> pictures. <br></li><li> Please minimize distractions and stay focused. </li><br><br>Press SPACE to START</div>","32","","","","","","","","","","","","","","","","","","","",""
"html-keyboard-response","47","392081","0.0-3.0-3.0-0.0","vpao89gtn7w449s","practice_cue","5ef7401b44d80c01c67eb236","5f60e3c0a3b16e07647b2ff9","5f60edc9bafd2800092c9073","false","null","<span style=""color: black; font-size: 48px"">M + N</span>","null","","","","resp_prompt","","","","","","","","","","","","","","","",""
"categorize-image","48","392651","0.0-3.0-3.0-1.0","vpao89gtn7w449s","practice_cue","5ef7401b44d80c01c67eb236","5f60e3c0a3b16e07647b2ff9","5f60edc9bafd2800092c9073","true","564.6149999811314","./Stimuli/ImagesPractice/LM230.jpg","83","","","","test","true","M + N","83","","LM","LM230.jpg","remember","old","17","2","practice_forget","left","","","",""
"html-keyboard-response","49","394653","0.0-3.0-3.0-3.0","vpao89gtn7w449s","practice_cue","5ef7401b44d80c01c67eb236","5f60e3c0a3b16e07647b2ff9","5f60edc9bafd2800092c9073","false","null","<div style=""align-items: center; display: flex; color: dodgerblue; font-size: 90px""><b>o</b></div>","null","","","","forget_cue","","","","","","","","","","","","","","","",""
"html-keyboard-response","50","395355","0.0-3.0-3.0-0.1","vpao89gtn7w449s","practice_cue","5ef7401b44d80c01c67eb236","5f60e3c0a3b16e07647b2ff9","5f60edc9bafd2800092c9073","false","null","<span style=""color: black; font-size: 48px"">N + M</span>","null","","","","resp_prompt","","","","","","","","","","","","","","","",""
"categorize-image","51","396332","0.0-3.0-3.0-1.1","vpao89gtn7w449s","practice_cue","5ef7401b44d80c01c67eb236","5f60e3c0a3b16e07647b2ff9","5f60edc9bafd2800092c9073","true","972.1600000048056","./Stimuli/ImagesPractice/LM143.jpg","76","","","","test","true","N + M","76","","LM","LM143.jpg","forget","old","18","2","practice_forget","right","","","",""
"html-keyboard-response","52","398335","0.0-3.0-3.0-3.1","vpao89gtn7w449s","practice_cue","5ef7401b44d80c01c67eb236","5f60e3c0a3b16e07647b2ff9","5f60edc9bafd2800092c9073","false","null","<div style=""align-items: center; display: flex; color: darkorange; font-size: 90px""><b>ø</b></div>","null","","","","forget_cue","","","","","","","","","","","","","","","",""
"html-keyboard-response","53","399037","0.0-3.0-3.0-0.2","vpao89gtn7w449s","practice_cue","5ef7401b44d80c01c67eb236","5f60e3c0a3b16e07647b2ff9","5f60edc9bafd2800092c9073","false","null","<span style=""color: black; font-size: 48px"">N + M</span>","null","","","","resp_prompt","","","","","","","","","","","","","","","",""
"categorize-image","54","399671","0.0-3.0-3.0-1.2","vpao89gtn7w449s","practice_cue","5ef7401b44d80c01c67eb236","5f60e3c0a3b16e07647b2ff9","5f60edc9bafd2800092c9073","true","627.2549999994226","./Stimuli/ImagesPractice/SM97.jpg","76","","","","test","true","N + M","76","","SM","SM97.jpg","remember","old","19","2","practice_forget","right","","","",""
"html-keyboard-response","55","401674","0.0-3.0-3.0-3.2","vpao89gtn7w449s","practice_cue","5ef7401b44d80c01c67eb236","5f60e3c0a3b16e07647b2ff9","5f60edc9bafd2800092c9073","false","null","<div style=""align-items: center; display: flex; color: dodgerblue; font-size: 90px""><b>o</b></div>","null","","","","forget_cue","","","","","","","","","","","","","","","",""
"html-keyboard-response","56","402375","0.0-3.0-3.0-0.3","vpao89gtn7w449s","practice_cue","5ef7401b44d80c01c67eb236","5f60e3c0a3b16e07647b2ff9","5f60edc9bafd2800092c9073","false","null","<span style=""color: black; font-size: 48px"">N + M</span>","null","","","","resp_prompt","","","","","","","","","","","","","","","",""
"categorize-image","57","402864","0.0-3.0-3.0-1.3","vpao89gtn7w449s","practice_cue","5ef7401b44d80c01c67eb236","5f60e3c0a3b16e07647b2ff9","5f60edc9bafd2800092c9073","true","486.3400000031106","./Stimuli/ImagesPractice/SN222.jpg","83","","","","test","true","N + M","83","","SN","SN222.jpg","forget","old","20","2","practice_forget","left","","","",""
"html-keyboard-response","58","404866","0.0-3.0-3.0-3.3","vpao89gtn7w449s","practice_cue","5ef7401b44d80c01c67eb236","5f60e3c0a3b16e07647b2ff9","5f60edc9bafd2800092c9073","false","null","<div style=""align-items: center; display: flex; color: darkorange; font-size: 90px""><b>ø</b></div>","null","","","","forget_cue","","","","","","","","","","","","","","","",""
"html-keyboard-response","59","405567","0.0-3.0-3.0-0.4","vpao89gtn7w449s","practice_cue","5ef7401b44d80c01c67eb236","5f60e3c0a3b16e07647b2ff9","5f60edc9bafd2800092c9073","false","null","<span style=""color: black; font-size: 48px"">N + M</span>","null","","","","resp_prompt","","","","","","","","","","","","","","","",""
"categorize-image","60","406473","0.0-3.0-3.0-1.4","vpao89gtn7w449s","practice_cue","5ef7401b44d80c01c67eb236","5f60e3c0a3b16e07647b2ff9","5f60edc9bafd2800092c9073","true","900.5500000203028","./Stimuli/ImagesPractice/SM37.jpg","76","","","","test","true","N + M","76","","SM","SM37.jpg","forget","old","21","2","practice_forget","right","","","",""
"html-keyboard-response","61","408476","0.0-3.0-3.0-3.4","vpao89gtn7w449s","practice_cue","5ef7401b44d80c01c67eb236","5f60e3c0a3b16e07647b2ff9","5f60edc9bafd2800092c9073","false","null","<div style=""align-items: center; display: flex; color: darkorange; font-size: 90px""><b>ø</b></div>","null","","","","forget_cue","","","","","","","","","","","","","","","",""
"html-keyboard-response","62","409179","0.0-3.0-3.0-0.5","vpao89gtn7w449s","practice_cue","5ef7401b44d80c01c67eb236","5f60e3c0a3b16e07647b2ff9","5f60edc9bafd2800092c9073","false","null","<span style=""color: black; font-size: 48px"">M + N</span>","null","","","","resp_prompt","","","","","","","","","","","","","","","",""
"categorize-image","63","410034","0.0-3.0-3.0-1.5","vpao89gtn7w449s","practice_cue","5ef7401b44d80c01c67eb236","5f60e3c0a3b16e07647b2ff9","5f60edc9bafd2800092c9073","true","849.9850000371225","./Stimuli/ImagesPractice/SM62.jpg","83","","","","test","true","M + N","83","","SM","SM62.jpg","remember","old","22","2","practice_forget","left","","","",""
"html-keyboard-response","64","412035","0.0-3.0-3.0-3.5","vpao89gtn7w449s","practice_cue","5ef7401b44d80c01c67eb236","5f60e3c0a3b16e07647b2ff9","5f60edc9bafd2800092c9073","false","null","<div style=""align-items: center; display: flex; color: dodgerblue; font-size: 90px""><b>o</b></div>","null","","","","forget_cue","","","","","","","","","","","","","","","",""
"html-keyboard-response","65","412736","0.0-3.0-3.0-0.6","vpao89gtn7w449s","practice_cue","5ef7401b44d80c01c67eb236","5f60e3c0a3b16e07647b2ff9","5f60edc9bafd2800092c9073","false","null","<span style=""color: black; font-size: 48px"">M + N</span>","null","","","","resp_prompt","","","","","","","","","","","","","","","",""
"categorize-image","66","413214","0.0-3.0-3.0-1.6","vpao89gtn7w449s","practice_cue","5ef7401b44d80c01c67eb236","5f60e3c0a3b16e07647b2ff9","5f60edc9bafd2800092c9073","true","472.2749999491498","./Stimuli/ImagesPractice/LN15.jpg","76","","","","test","true","M + N","76","","LN","LN15.jpg","forget","old","23","2","practice_forget","right","","","",""
"html-keyboard-response","67","415216","0.0-3.0-3.0-3.6","vpao89gtn7w449s","practice_cue","5ef7401b44d80c01c67eb236","5f60e3c0a3b16e07647b2ff9","5f60edc9bafd2800092c9073","false","null","<div style=""align-items: center; display: flex; color: darkorange; font-size: 90px""><b>ø</b></div>","null","","","","forget_cue","","","","","","","","","","","","","","","",""
"html-keyboard-response","68","415917","0.0-3.0-3.0-0.7","vpao89gtn7w449s","practice_cue","5ef7401b44d80c01c67eb236","5f60e3c0a3b16e07647b2ff9","5f60edc9bafd2800092c9073","false","null","<span style=""color: black; font-size: 48px"">N + M</span>","null","","","","resp_prompt","","","","","","","","","","","","","","","",""
"categorize-image","69","416391","0.0-3.0-3.0-1.7","vpao89gtn7w449s","practice_cue","5ef7401b44d80c01c67eb236","5f60e3c0a3b16e07647b2ff9","5f60edc9bafd2800092c9073","true","471.90999996382743","./Stimuli/ImagesPractice/SN221.jpg","83","","","","test","true","N + M","83","","SN","SN221.jpg","remember","old","24","2","practice_forget","left","","","",""
"html-keyboard-response","70","418393","0.0-3.0-3.0-3.7","vpao89gtn7w449s","practice_cue","5ef7401b44d80c01c67eb236","5f60e3c0a3b16e07647b2ff9","5f60edc9bafd2800092c9073","false","null","<div style=""align-items: center; display: flex; color: dodgerblue; font-size: 90px""><b>o</b></div>","null","","","","forget_cue","","","","","","","","","","","","","","","",""
"html-keyboard-response","71","419095","0.0-3.0-3.0-0.8","vpao89gtn7w449s","practice_cue","5ef7401b44d80c01c67eb236","5f60e3c0a3b16e07647b2ff9","5f60edc9bafd2800092c9073","false","null","<span style=""color: black; font-size: 48px"">M + N</span>","null","","","","resp_prompt","","","","","","","","","","","","","","","",""
"categorize-image","72","419627","0.0-3.0-3.0-1.8","vpao89gtn7w449s","practice_cue","5ef7401b44d80c01c67eb236","5f60e3c0a3b16e07647b2ff9","5f60edc9bafd2800092c9073","true","525.7800000254065","./Stimuli/ImagesPractice/SM98.jpg","83","","","","test","true","M + N","83","","SM","SM98.jpg","forget","old","25","2","practice_forget","left","","","",""
"html-keyboard-response","73","421630","0.0-3.0-3.0-3.8","vpao89gtn7w449s","practice_cue","5ef7401b44d80c01c67eb236","5f60e3c0a3b16e07647b2ff9","5f60edc9bafd2800092c9073","false","null","<div style=""align-items: center; display: flex; color: darkorange; font-size: 90px""><b>ø</b></div>","null","","","","forget_cue","","","","","","","","","","","","","","","",""
"html-keyboard-response","74","422332","0.0-3.0-3.0-0.9","vpao89gtn7w449s","practice_cue","5ef7401b44d80c01c67eb236","5f60e3c0a3b16e07647b2ff9","5f60edc9bafd2800092c9073","false","null","<span style=""color: black; font-size: 48px"">M + N</span>","null","","","","resp_prompt","","","","","","","","","","","","","","","",""
"categorize-image","75","422920","0.0-3.0-3.0-1.9","vpao89gtn7w449s","practice_cue","5ef7401b44d80c01c67eb236","5f60e3c0a3b16e07647b2ff9","5f60edc9bafd2800092c9073","true","579.6749999863096","./Stimuli/ImagesPractice/LN72.jpg","76","","","","test","true","M + N","76","","LN","LN72.jpg","remember","old","26","2","practice_forget","right","","","",""
"html-keyboard-response","76","424922","0.0-3.0-3.0-3.9","vpao89gtn7w449s","practice_cue","5ef7401b44d80c01c67eb236","5f60e3c0a3b16e07647b2ff9","5f60edc9bafd2800092c9073","false","null","<div style=""align-items: center; display: flex; color: dodgerblue; font-size: 90px""><b>o</b></div>","null","","","","forget_cue","","","","","","","","","","","","","","","",""
"html-keyboard-response","77","425624","0.0-3.0-3.0-0.10","vpao89gtn7w449s","practice_cue","5ef7401b44d80c01c67eb236","5f60e3c0a3b16e07647b2ff9","5f60edc9bafd2800092c9073","false","null","<span style=""color: black; font-size: 48px"">N + M</span>","null","","","","resp_prompt","","","","","","","","","","","","","","","",""
"categorize-image","78","426107","0.0-3.0-3.0-1.10","vpao89gtn7w449s","practice_cue","5ef7401b44d80c01c67eb236","5f60e3c0a3b16e07647b2ff9","5f60edc9bafd2800092c9073","true","479.21999997925013","./Stimuli/ImagesPractice/SN220.jpg","83","","","","test","true","N + M","83","","SN","SN220.jpg","remember","old","27","2","practice_forget","left","","","",""
"html-keyboard-response","79","428109","0.0-3.0-3.0-3.10","vpao89gtn7w449s","practice_cue","5ef7401b44d80c01c67eb236","5f60e3c0a3b16e07647b2ff9","5f60edc9bafd2800092c9073","false","null","<div style=""align-items: center; display: flex; color: dodgerblue; font-size: 90px""><b>o</b></div>","null","","","","forget_cue","","","","","","","","","","","","","","","",""
"html-keyboard-response","80","428811","0.0-3.0-3.0-0.11","vpao89gtn7w449s","practice_cue","5ef7401b44d80c01c67eb236","5f60e3c0a3b16e07647b2ff9","5f60edc9bafd2800092c9073","false","null","<span style=""color: black; font-size: 48px"">N + M</span>","null","","","","resp_prompt","","","","","","","","","","","","","","","",""
"categorize-image","81","429317","0.0-3.0-3.0-1.11","vpao89gtn7w449s","practice_cue","5ef7401b44d80c01c67eb236","5f60e3c0a3b16e07647b2ff9","5f60edc9bafd2800092c9073","true","499.6299999766052","./Stimuli/ImagesPractice/LM224.jpg","76","","","","test","true","N + M","76","","LM","LM224.jpg","remember","old","28","2","practice_forget","right","","","",""
"html-keyboard-response","82","431320","0.0-3.0-3.0-3.11","vpao89gtn7w449s","practice_cue","5ef7401b44d80c01c67eb236","5f60e3c0a3b16e07647b2ff9","5f60edc9bafd2800092c9073","false","null","<div style=""align-items: center; display: flex; color: dodgerblue; font-size: 90px""><b>o</b></div>","null","","","","forget_cue","","","","","","","","","","","","","","","",""
"html-keyboard-response","83","432022","0.0-3.0-3.0-0.12","vpao89gtn7w449s","practice_cue","5ef7401b44d80c01c67eb236","5f60e3c0a3b16e07647b2ff9","5f60edc9bafd2800092c9073","false","null","<span style=""color: black; font-size: 48px"">N + M</span>","null","","","","resp_prompt","","","","","","","","","","","","","","","",""
"categorize-image","84","432484","0.0-3.0-3.0-1.12","vpao89gtn7w449s","practice_cue","5ef7401b44d80c01c67eb236","5f60e3c0a3b16e07647b2ff9","5f60edc9bafd2800092c9073","true","455.99499996751547","./Stimuli/ImagesPractice/LN17.jpg","83","","","","test","true","N + M","83","","LN","LN17.jpg","forget","old","29","2","practice_forget","left","","","",""
"html-keyboard-response","85","434487","0.0-3.0-3.0-3.12","vpao89gtn7w449s","practice_cue","5ef7401b44d80c01c67eb236","5f60e3c0a3b16e07647b2ff9","5f60edc9bafd2800092c9073","false","null","<div style=""align-items: center; display: flex; color: darkorange; font-size: 90px""><b>ø</b></div>","null","","","","forget_cue","","","","","","","","","","","","","","","",""
"html-keyboard-response","86","435189","0.0-3.0-3.0-0.13","vpao89gtn7w449s","practice_cue","5ef7401b44d80c01c67eb236","5f60e3c0a3b16e07647b2ff9","5f60edc9bafd2800092c9073","false","null","<span style=""color: black; font-size: 48px"">M + N</span>","null","","","","resp_prompt","","","","","","","","","","","","","","","",""
"categorize-image","87","435798","0.0-3.0-3.0-1.13","vpao89gtn7w449s","practice_cue","5ef7401b44d80c01c67eb236","5f60e3c0a3b16e07647b2ff9","5f60edc9bafd2800092c9073","true","605.344999989029","./Stimuli/ImagesPractice/LM239.jpg","83","","","","test","true","M + N","83","","LM","LM239.jpg","forget","old","30","2","practice_forget","left","","","",""
"html-keyboard-response","88","437800","0.0-3.0-3.0-3.13","vpao89gtn7w449s","practice_cue","5ef7401b44d80c01c67eb236","5f60e3c0a3b16e07647b2ff9","5f60edc9bafd2800092c9073","false","null","<div style=""align-items: center; display: flex; color: darkorange; font-size: 90px""><b>ø</b></div>","null","","","","forget_cue","","","","","","","","","","","","","","","",""
"html-keyboard-response","89","438502","0.0-3.0-3.0-0.14","vpao89gtn7w449s","practice_cue","5ef7401b44d80c01c67eb236","5f60e3c0a3b16e07647b2ff9","5f60edc9bafd2800092c9073","false","null","<span style=""color: black; font-size: 48px"">M + N</span>","null","","","","resp_prompt","","","","","","","","","","","","","","","",""
"categorize-image","90","438966","0.0-3.0-3.0-1.14","vpao89gtn7w449s","practice_cue","5ef7401b44d80c01c67eb236","5f60e3c0a3b16e07647b2ff9","5f60edc9bafd2800092c9073","true","456.46000001579523","./Stimuli/ImagesPractice/SN205.jpg","76","","","","test","true","M + N","76","","SN","SN205.jpg","remember","old","31","2","practice_forget","right","","","",""
"html-keyboard-response","91","440968","0.0-3.0-3.0-3.14","vpao89gtn7w449s","practice_cue","5ef7401b44d80c01c67eb236","5f60e3c0a3b16e07647b2ff9","5f60edc9bafd2800092c9073","false","null","<div style=""align-items: center; display: flex; color: dodgerblue; font-size: 90px""><b>o</b></div>","null","","","","forget_cue","","","","","","","","","","","","","","","",""
"html-keyboard-response","92","441668","0.0-3.0-3.0-0.15","vpao89gtn7w449s","practice_cue","5ef7401b44d80c01c67eb236","5f60e3c0a3b16e07647b2ff9","5f60edc9bafd2800092c9073","false","null","<span style=""color: black; font-size: 48px"">M + N</span>","null","","","","resp_prompt","","","","","","","","","","","","","","","",""
"categorize-image","93","442141","0.0-3.0-3.0-1.15","vpao89gtn7w449s","practice_cue","5ef7401b44d80c01c67eb236","5f60e3c0a3b16e07647b2ff9","5f60edc9bafd2800092c9073","true","469.8750000097789","./Stimuli/ImagesPractice/LM147.jpg","83","","","","test","true","M + N","83","","LM","LM147.jpg","forget","old","32","2","practice_forget","left","","","",""
"html-keyboard-response","94","444143","0.0-3.0-3.0-3.15","vpao89gtn7w449s","practice_cue","5ef7401b44d80c01c67eb236","5f60e3c0a3b16e07647b2ff9","5f60edc9bafd2800092c9073","false","null","<div style=""align-items: center; display: flex; color: darkorange; font-size: 90px""><b>ø</b></div>","null","","","","forget_cue","","","","","","","","","","","","","","","",""
"html-keyboard-response","95","446787","0.0-3.0-4.0","vpao89gtn7w449s","break","5ef7401b44d80c01c67eb236","5f60e3c0a3b16e07647b2ff9","5f60edc9bafd2800092c9073","false","2642.089999979362","<p style='font-size: 32px;'>Break</><br><br><br><br><br><p style='font-size: 24px;'>In the last block, you committed 0 errors and did not respond in time on 0 trials.
</p><p style='font-size: 24px;'>Try to respond as fast and accurately as possible in the next block as well! </p><p style='font-size: 24px;'>Press SPACE to continue.</p>","32","","","","","","","","","","","","","","","","","","","",""
"html-keyboard-response","96","464214","0.0-3.0-5.0","vpao89gtn7w449s","instructions","5ef7401b44d80c01c67eb236","5f60e3c0a3b16e07647b2ff9","5f60edc9bafd2800092c9073","false","17424.969999992754","<div align=left> Now, to practice, we kindly ask you to remember as many of the to-be-remembered pictures<br>of the previous learning phase as possible.<br><br>The pictures you were instructed to remember were the pictures followed by a <span style='color: dodgerblue; font-size: 28px'>O</span>.<br><br>In this memory test phase, you will also see some new pictures.<br>It is your task to remember whether you were presented with this specific picture in this study so far or not.<br>If you recognize an object (you have already seen it in this study), it is an OLD object. <br>If you do not recognize an object (you have NOT seen it in this study), it is a NEW object. <br><strong> Attention</strong>: As already mentioned, <span style='color: darkorange; font-size:28px'>Ø</span>-pictures will <strong>never</strong> appear in this memory test (neither as new objects). <br><br>Press SPACE to continue. </div>","32","","","","","","","","","","","","","","","","","","","",""
"html-keyboard-response","97","500872","0.0-3.0-6.0","vpao89gtn7w449s","instructions","5ef7401b44d80c01c67eb236","5f60e3c0a3b16e07647b2ff9","5f60edc9bafd2800092c9073","false","36654.92500003893","<div align=left> M and N no longer will appear on the left/right of the fixation cross. <br>Instead there will be a note at the bottom of the left or right side  <br>indicating which key you should press for an old or new object:  <br> <br>Press the <strong>right</strong> key to classify an object as <strong>old</strong> and press the <strong>left</strong>, to classify an object as <strong>new</strong>.<br>Please classify the objects as new/old by again placing your index finger on the 'S' and 'L' keys <br>and press them accordingly.<br><br><strong>Old:</strong> This object has been presented before. <br><strong>New:</strong> This object has <strong>not</strong> been presented.<br><br>Now please put your right and left index fingers on the 'S' and 'L' keys of your keyboard. <br>Please respond as fast and as accurately as possible!<br><br>Press SPACE to continue. </div>","32","","","","","","","","","","","","","","","","","","","",""
"categorize-image","98","503114","0.0-3.0-7.0-0.0","vpao89gtn7w449s","practice_recog","5ef7401b44d80c01c67eb236","5f60e3c0a3b16e07647b2ff9","5f60edc9bafd2800092c9073","true","1738.7999999918975","./Stimuli/ImagesPractice/SM35.jpg","76","","","","test","true","","76","","SM","SM35.jpg","","new","33","3","practice_recog","right","","","",""
"categorize-image","99","504563","0.0-3.0-7.0-0.1","vpao89gtn7w449s","practice_recog","5ef7401b44d80c01c67eb236","5f60e3c0a3b16e07647b2ff9","5f60edc9bafd2800092c9073","true","944.8000000556931","./Stimuli/ImagesPractice/LN4.jpg","76","","","","test","true","","76","","LN","LN4.jpg","","new","34","3","practice_recog","right","","","",""
"categorize-image","100","505565","0.0-3.0-7.0-0.2","vpao89gtn7w449s","practice_recog","5ef7401b44d80c01c67eb236","5f60e3c0a3b16e07647b2ff9","5f60edc9bafd2800092c9073","true","498.8299999968149","./Stimuli/ImagesPractice/SN76.jpg","76","","","","test","true","","76","","SN","SN76.jpg","","new","35","3","practice_recog","right","","","",""
"categorize-image","101","506584","0.0-3.0-7.0-0.3","vpao89gtn7w449s","practice_recog","5ef7401b44d80c01c67eb236","5f60e3c0a3b16e07647b2ff9","5f60edc9bafd2800092c9073","true","517.4699999624863","./Stimuli/ImagesPractice/LN2.jpg","76","","","","test","true","","76","","LN","LN2.jpg","","new","36","3","practice_recog","right","","","",""
"categorize-image","102","507547","0.0-3.0-7.0-0.4","vpao89gtn7w449s","practice_recog","5ef7401b44d80c01c67eb236","5f60e3c0a3b16e07647b2ff9","5f60edc9bafd2800092c9073","true","461.040000023786","./Stimuli/ImagesPractice/LM230.jpg","83","","","","test","true","","83","","LM","LM230.jpg","","old","37","3","practice_recog","left","","","",""
"categorize-image","103","508701","0.0-3.0-7.0-0.5","vpao89gtn7w449s","practice_recog","5ef7401b44d80c01c67eb236","5f60e3c0a3b16e07647b2ff9","5f60edc9bafd2800092c9073","true","650.2749999635853","./Stimuli/ImagesPractice/SN205.jpg","83","","","","test","true","","83","","SN","SN205.jpg","","old","38","3","practice_recog","left","","","",""
"categorize-image","104","509712","0.0-3.0-7.0-0.6","vpao89gtn7w449s","practice_recog","5ef7401b44d80c01c67eb236","5f60e3c0a3b16e07647b2ff9","5f60edc9bafd2800092c9073","true","508.5050000343472","./Stimuli/ImagesPractice/LN72.jpg","83","","","","test","true","","83","","LN","LN72.jpg","","old","39","3","practice_recog","left","","","",""
"categorize-image","105","510682","0.0-3.0-7.0-0.7","vpao89gtn7w449s","practice_recog","5ef7401b44d80c01c67eb236","5f60e3c0a3b16e07647b2ff9","5f60edc9bafd2800092c9073","true","465.74000001419336","./Stimuli/ImagesPractice/SM61.jpg","76","","","","test","true","","76","","SM","SM61.jpg","","new","40","3","practice_recog","right","","","",""
"categorize-image","106","511672","0.0-3.0-7.0-0.8","vpao89gtn7w449s","practice_recog","5ef7401b44d80c01c67eb236","5f60e3c0a3b16e07647b2ff9","5f60edc9bafd2800092c9073","true","486.32999998517334","./Stimuli/ImagesPractice/LM55.jpg","76","","","","test","true","","76","","LM","LM55.jpg","","new","41","3","practice_recog","right","","","",""
"categorize-image","107","512599","0.0-3.0-7.0-0.9","vpao89gtn7w449s","practice_recog","5ef7401b44d80c01c67eb236","5f60e3c0a3b16e07647b2ff9","5f60edc9bafd2800092c9073","true","425.58500001905486","./Stimuli/ImagesPractice/SN221.jpg","83","","","","test","true","","83","","SN","SN221.jpg","","old","42","3","practice_recog","left","","","",""
"categorize-image","108","513604","0.0-3.0-7.0-0.10","vpao89gtn7w449s","practice_recog","5ef7401b44d80c01c67eb236","5f60e3c0a3b16e07647b2ff9","5f60edc9bafd2800092c9073","true","501.1449999874458","./Stimuli/ImagesPractice/SN220.jpg","83","","","","test","true","","83","","SN","SN220.jpg","","old","43","3","practice_recog","left","","","",""
"categorize-image","109","514624","0.0-3.0-7.0-0.11","vpao89gtn7w449s","practice_recog","5ef7401b44d80c01c67eb236","5f60e3c0a3b16e07647b2ff9","5f60edc9bafd2800092c9073","true","516.2400000263005","./Stimuli/ImagesPractice/SM97.jpg","83","","","","test","true","","83","","SM","SM97.jpg","","old","44","3","practice_recog","left","","","",""
"categorize-image","110","515614","0.0-3.0-7.0-0.12","vpao89gtn7w449s","practice_recog","5ef7401b44d80c01c67eb236","5f60e3c0a3b16e07647b2ff9","5f60edc9bafd2800092c9073","true","488.0799999809824","./Stimuli/ImagesPractice/SM62.jpg","83","","","","test","true","","83","","SM","SM62.jpg","","old","45","3","practice_recog","left","","","",""
"categorize-image","111","516564","0.0-3.0-7.0-0.13","vpao89gtn7w449s","practice_recog","5ef7401b44d80c01c67eb236","5f60e3c0a3b16e07647b2ff9","5f60edc9bafd2800092c9073","true","446.44999998854473","./Stimuli/ImagesPractice/SN75.jpg","76","","","","test","true","","76","","SN","SN75.jpg","","new","46","3","practice_recog","right","","","",""
"categorize-image","112","517557","0.0-3.0-7.0-0.14","vpao89gtn7w449s","practice_recog","5ef7401b44d80c01c67eb236","5f60e3c0a3b16e07647b2ff9","5f60edc9bafd2800092c9073","true","488.86000004131347","./Stimuli/ImagesPractice/LM224.jpg","83","","","","test","true","","83","","LM","LM224.jpg","","old","47","3","practice_recog","left","","","",""
"categorize-image","113","518733","0.0-3.0-7.0-0.15","vpao89gtn7w449s","practice_recog","5ef7401b44d80c01c67eb236","5f60e3c0a3b16e07647b2ff9","5f60edc9bafd2800092c9073","true","674.5349999982864","./Stimuli/ImagesPractice/LN109.jpg","76","","","","test","true","","76","","LN","LN109.jpg","","new","48","3","practice_recog","right","","","",""
"html-keyboard-response","114","521545","0.0-3.0-8.0","vpao89gtn7w449s","instructions","5ef7401b44d80c01c67eb236","5f60e3c0a3b16e07647b2ff9","5f60edc9bafd2800092c9073","false","2811.0100000048988","<div align=left> Great!<br><br>Are you ready to continue?<br>If you want to reread the instructions and redo the practice trials, please <br>press „Z“.<br><br>You can proceed when you are ready.<br><br>After the presentation of each object, you will receive an instruction whether to <br>remember or to forget the object.<br>We will test your memory of the following pictures only at the very end of <br>the experiment after all learning blocks are completed. <br><br>Press SPACE to CONTINUE when you are ready. </div>","32","","","","","","","","","","","","","","","","","","","",""
"html-keyboard-response","115","527915","0.0-4.0-0.0","vpao89gtn7w449s","instructions","5ef7401b44d80c01c67eb236","5f60e3c0a3b16e07647b2ff9","5f60edc9bafd2800092c9073","false","6367.930000007618","<div align=left> The actual experiment is about to start.<br>The practice trials are over!<br><br>Please always respond both fast and accurately!<br><br>Remember: <br> <br><li> Please place your index fingers on the <strong>'S'</strong> and <strong>'L'</strong> keys <br>to respond as fast and accurately as possible.</li><li> Every picture can be classified as either mechanical or non-mechanical.</li><li> If you do not respond in time or commit an error, you will receive a corresponding feedback.<br> Please try to respond as <strong> fast </strong> and as <strong> accurately as possible </strong>.</li><li> Remember the <span style='color: dodgerblue; font-size: 28px'>O</span> pictures. <br></li><li> Please minimize distractions and stay focused. </li><br><br>Press SPACE to START.</div>","32","","","","","","","","","","","","","","","","","","","",""
"html-keyboard-response","116","528619","0.0-4.0-1.0-0.0","vpao89gtn7w449s","prime","5ef7401b44d80c01c67eb236","5f60e3c0a3b16e07647b2ff9","5f60edc9bafd2800092c9073","false","null","<span style=""color: black; font-size: 48px"">M + N</span>","null","","","","resp_prompt","","","","","","","","","","","","","","","",""
"categorize-image","117","529634","0.0-4.0-1.0-1.0","vpao89gtn7w449s","prime","5ef7401b44d80c01c67eb236","5f60e3c0a3b16e07647b2ff9","5f60edc9bafd2800092c9073","true","1010.6699999887496","./Stimuli/SelectedImages/LM/LM100.bmp","83","","","","test","true","M + N","83","repetition","LM","LM100.bmp","forget","","49","3","prime1","left","","","",""
"html-keyboard-response","118","531637","0.0-4.0-1.0-3.0","vpao89gtn7w449s","prime","5ef7401b44d80c01c67eb236","5f60e3c0a3b16e07647b2ff9","5f60edc9bafd2800092c9073","false","null","<div style=""align-items: center; display: flex; color: darkorange; font-size: 90px""><b>ø</b></div>","null","","","","forget_cue","","","","","","","","","","","","","","","",""
"html-keyboard-response","119","532340","0.0-4.0-1.0-0.1","vpao89gtn7w449s","prime","5ef7401b44d80c01c67eb236","5f60e3c0a3b16e07647b2ff9","5f60edc9bafd2800092c9073","false","null","<span style=""color: black; font-size: 48px"">M + N</span>","null","","","","resp_prompt","","","","","","","","","","","","","","","",""
"categorize-image","120","532849","0.0-4.0-1.0-1.1","vpao89gtn7w449s","prime","5ef7401b44d80c01c67eb236","5f60e3c0a3b16e07647b2ff9","5f60edc9bafd2800092c9073","true","504.7950000152923","./Stimuli/SelectedImages/LN/LN111.bmp","76","","","","test","true","M + N","76","repetition","LN","LN111.bmp","forget","","50","3","prime1","right","","","",""
"html-keyboard-response","121","534853","0.0-4.0-1.0-3.1","vpao89gtn7w449s","prime","5ef7401b44d80c01c67eb236","5f60e3c0a3b16e07647b2ff9","5f60edc9bafd2800092c9073","false","null","<div style=""align-items: center; display: flex; color: darkorange; font-size: 90px""><b>ø</b></div>","null","","","","forget_cue","","","","","","","","","","","","","","","",""
"html-keyboard-response","122","535555","0.0-4.0-1.0-0.2","vpao89gtn7w449s","prime","5ef7401b44d80c01c67eb236","5f60e3c0a3b16e07647b2ff9","5f60edc9bafd2800092c9073","false","null","<span style=""color: black; font-size: 48px"">M + N</span>","null","","","","resp_prompt","","","","","","","","","","","","","","","",""
"categorize-image","123","536062","0.0-4.0-1.0-1.2","vpao89gtn7w449s","prime","5ef7401b44d80c01c67eb236","5f60e3c0a3b16e07647b2ff9","5f60edc9bafd2800092c9073","true","501.4250000240281","./Stimuli/SelectedImages/LM/LM129.bmp","83","","","","test","true","M + N","83","switch","LM","LM129.bmp","remember","","51","3","prime1","left","","","",""
"html-keyboard-response","124","538064","0.0-4.0-1.0-3.2","vpao89gtn7w449s","prime","5ef7401b44d80c01c67eb236","5f60e3c0a3b16e07647b2ff9","5f60edc9bafd2800092c9073","false","null","<div style=""align-items: center; display: flex; color: dodgerblue; font-size: 90px""><b>o</b></div>","null","","","","forget_cue","","","","","","","","","","","","","","","",""
"html-keyboard-response","125","538765","0.0-4.0-1.0-0.3","vpao89gtn7w449s","prime","5ef7401b44d80c01c67eb236","5f60e3c0a3b16e07647b2ff9","5f60edc9bafd2800092c9073","false","null","<span style=""color: black; font-size: 48px"">M + N</span>","null","","","","resp_prompt","","","","","","","","","","","","","","","",""
"categorize-image","126","540092","0.0-4.0-1.0-1.3","vpao89gtn7w449s","prime","5ef7401b44d80c01c67eb236","5f60e3c0a3b16e07647b2ff9","5f60edc9bafd2800092c9073","true","1322.379999968689","./Stimuli/SelectedImages/SN/SN181.bmp","76","","","","test","true","M + N","76","switch","SN","SN181.bmp","remember","","52","3","prime1","right","","","",""
"html-keyboard-response","127","542093","0.0-4.0-1.0-3.3","vpao89gtn7w449s","prime","5ef7401b44d80c01c67eb236","5f60e3c0a3b16e07647b2ff9","5f60edc9bafd2800092c9073","false","null","<div style=""align-items: center; display: flex; color: dodgerblue; font-size: 90px""><b>o</b></div>","null","","","","forget_cue","","","","","","","","","","","","","","","",""
"html-keyboard-response","128","542795","0.0-4.0-1.0-0.4","vpao89gtn7w449s","prime","5ef7401b44d80c01c67eb236","5f60e3c0a3b16e07647b2ff9","5f60edc9bafd2800092c9073","false","null","<span style=""color: black; font-size: 48px"">N + M</span>","null","","","","resp_prompt","","","","","","","","","","","","","","","",""
"categorize-image","129","543390","0.0-4.0-1.0-1.4","vpao89gtn7w449s","prime","5ef7401b44d80c01c67eb236","5f60e3c0a3b16e07647b2ff9","5f60edc9bafd2800092c9073","true","590.1399999856949","./Stimuli/SelectedImages/SM/SM213.bmp","76","","","","test","true","N + M","76","switch","SM","SM213.bmp","remember","","53","3","prime1","right","","","",""
"html-keyboard-response","130","545391","0.0-4.0-1.0-3.4","vpao89gtn7w449s","prime","5ef7401b44d80c01c67eb236","5f60e3c0a3b16e07647b2ff9","5f60edc9bafd2800092c9073","false","null","<div style=""align-items: center; display: flex; color: dodgerblue; font-size: 90px""><b>o</b></div>","null","","","","forget_cue","","","","","","","","","","","","","","","",""
"html-keyboard-response","131","546093","0.0-4.0-1.0-0.5","vpao89gtn7w449s","prime","5ef7401b44d80c01c67eb236","5f60e3c0a3b16e07647b2ff9","5f60edc9bafd2800092c9073","false","null","<span style=""color: black; font-size: 48px"">N + M</span>","null","","","","resp_prompt","","","","","","","","","","","","","","","",""
"categorize-image","132","547082","0.0-4.0-1.0-1.5","vpao89gtn7w449s","prime","5ef7401b44d80c01c67eb236","5f60e3c0a3b16e07647b2ff9","5f60edc9bafd2800092c9073","true","985.9450000221841","./Stimuli/SelectedImages/LN/LN9.bmp","83","","","","test","true","N + M","83","repetition","LN","LN9.bmp","forget","","54","3","prime1","left","","","",""
"html-keyboard-response","133","549084","0.0-4.0-1.0-3.5","vpao89gtn7w449s","prime","5ef7401b44d80c01c67eb236","5f60e3c0a3b16e07647b2ff9","5f60edc9bafd2800092c9073","false","null","<div style=""align-items: center; display: flex; color: darkorange; font-size: 90px""><b>ø</b></div>","null","","","","forget_cue","","","","","","","","","","","","","","","",""
"html-keyboard-response","134","549786","0.0-4.0-1.0-0.6","vpao89gtn7w449s","prime","5ef7401b44d80c01c67eb236","5f60e3c0a3b16e07647b2ff9","5f60edc9bafd2800092c9073","false","null","<span style=""color: black; font-size: 48px"">N + M</span>","null","","","","resp_prompt","","","","","","","","","","","","","","","",""
"categorize-image","135","550389","0.0-4.0-1.0-1.6","vpao89gtn7w449s","prime","5ef7401b44d80c01c67eb236","5f60e3c0a3b16e07647b2ff9","5f60edc9bafd2800092c9073","true","596.1699999752454","./Stimuli/SelectedImages/SN/SN93.bmp","83","","","","test","true","N + M","83","switch","SN","SN93.bmp","forget","","55","3","prime1","left","","","",""
"html-keyboard-response","136","552391","0.0-4.0-1.0-3.6","vpao89gtn7w449s","prime","5ef7401b44d80c01c67eb236","5f60e3c0a3b16e07647b2ff9","5f60edc9bafd2800092c9073","false","null","<div style=""align-items: center; display: flex; color: darkorange; font-size: 90px""><b>ø</b></div>","null","","","","forget_cue","","","","","","","","","","","","","","","",""
"html-keyboard-response","137","553092","0.0-4.0-1.0-0.7","vpao89gtn7w449s","prime","5ef7401b44d80c01c67eb236","5f60e3c0a3b16e07647b2ff9","5f60edc9bafd2800092c9073","false","null","<span style=""color: black; font-size: 48px"">N + M</span>","null","","","","resp_prompt","","","","","","","","","","","","","","","",""
"categorize-image","138","553567","0.0-4.0-1.0-1.7","vpao89gtn7w449s","prime","5ef7401b44d80c01c67eb236","5f60e3c0a3b16e07647b2ff9","5f60edc9bafd2800092c9073","true","472.1049999934621","./Stimuli/SelectedImages/LN/LN149.bmp","83","","","","test","true","N + M","83","repetition","LN","LN149.bmp","remember","","56","3","prime1","left","","","",""
"html-keyboard-response","139","555569","0.0-4.0-1.0-3.7","vpao89gtn7w449s","prime","5ef7401b44d80c01c67eb236","5f60e3c0a3b16e07647b2ff9","5f60edc9bafd2800092c9073","false","null","<div style=""align-items: center; display: flex; color: dodgerblue; font-size: 90px""><b>o</b></div>","null","","","","forget_cue","","","","","","","","","","","","","","","",""
"html-keyboard-response","140","556271","0.0-4.0-1.0-0.8","vpao89gtn7w449s","prime","5ef7401b44d80c01c67eb236","5f60e3c0a3b16e07647b2ff9","5f60edc9bafd2800092c9073","false","null","<span style=""color: black; font-size: 48px"">M + N</span>","null","","","","resp_prompt","","","","","","","","","","","","","","","",""
"categorize-image","141","556886","0.0-4.0-1.0-1.8","vpao89gtn7w449s","prime","5ef7401b44d80c01c67eb236","5f60e3c0a3b16e07647b2ff9","5f60edc9bafd2800092c9073","true","611.0500000067987","./Stimuli/SelectedImages/SM/SM207.bmp","83","","","","test","true","M + N","83","repetition","SM","SM207.bmp","remember","","57","3","prime1","left","","","",""
"html-keyboard-response","142","558888","0.0-4.0-1.0-3.8","vpao89gtn7w449s","prime","5ef7401b44d80c01c67eb236","5f60e3c0a3b16e07647b2ff9","5f60edc9bafd2800092c9073","false","null","<div style=""align-items: center; display: flex; color: dodgerblue; font-size: 90px""><b>o</b></div>","null","","","","forget_cue","","","","","","","","","","","","","","","",""
"html-keyboard-response","143","559589","0.0-4.0-1.0-0.9","vpao89gtn7w449s","prime","5ef7401b44d80c01c67eb236","5f60e3c0a3b16e07647b2ff9","5f60edc9bafd2800092c9073","false","null","<span style=""color: black; font-size: 48px"">M + N</span>","null","","","","resp_prompt","","","","","","","","","","","","","","","",""
"categorize-image","144","560119","0.0-4.0-1.0-1.9","vpao89gtn7w449s","prime","5ef7401b44d80c01c67eb236","5f60e3c0a3b16e07647b2ff9","5f60edc9bafd2800092c9073","true","526.914999994915","./Stimuli/SelectedImages/SM/SM106.bmp","83","","","","test","true","M + N","83","switch","SM","SM106.bmp","forget","","58","3","prime1","left","","","",""
"html-keyboard-response","145","562121","0.0-4.0-1.0-3.9","vpao89gtn7w449s","prime","5ef7401b44d80c01c67eb236","5f60e3c0a3b16e07647b2ff9","5f60edc9bafd2800092c9073","false","null","<div style=""align-items: center; display: flex; color: darkorange; font-size: 90px""><b>ø</b></div>","null","","","","forget_cue","","","","","","","","","","","","","","","",""
"html-keyboard-response","146","562823","0.0-4.0-1.0-0.10","vpao89gtn7w449s","prime","5ef7401b44d80c01c67eb236","5f60e3c0a3b16e07647b2ff9","5f60edc9bafd2800092c9073","false","null","<span style=""color: black; font-size: 48px"">N + M</span>","null","","","","resp_prompt","","","","","","","","","","","","","","","",""
"categorize-image","147","563437","0.0-4.0-1.0-1.10","vpao89gtn7w449s","prime","5ef7401b44d80c01c67eb236","5f60e3c0a3b16e07647b2ff9","5f60edc9bafd2800092c9073","true","611.4050000323914","./Stimuli/SelectedImages/LM/LM59.bmp","76","","","","test","true","N + M","76","switch","LM","LM59.bmp","remember","","59","3","prime1","right","","","",""
"html-keyboard-response","148","565438","0.0-4.0-1.0-3.10","vpao89gtn7w449s","prime","5ef7401b44d80c01c67eb236","5f60e3c0a3b16e07647b2ff9","5f60edc9bafd2800092c9073","false","null","<div style=""align-items: center; display: flex; color: dodgerblue; font-size: 90px""><b>o</b></div>","null","","","","forget_cue","","","","","","","","","","","","","","","",""
"html-keyboard-response","149","566140","0.0-4.0-1.0-0.11","vpao89gtn7w449s","prime","5ef7401b44d80c01c67eb236","5f60e3c0a3b16e07647b2ff9","5f60edc9bafd2800092c9073","false","null","<span style=""color: black; font-size: 48px"">M + N</span>","null","","","","resp_prompt","","","","","","","","","","","","","","","",""
"categorize-image","150","566750","0.0-4.0-1.0-1.11","vpao89gtn7w449s","prime","5ef7401b44d80c01c67eb236","5f60e3c0a3b16e07647b2ff9","5f60edc9bafd2800092c9073","true","602.0199999911711","./Stimuli/SelectedImages/LN/LN131.bmp","76","","","","test","true","M + N","76","switch","LN","LN131.bmp","remember","","60","3","prime1","right","","","",""
"html-keyboard-response","151","568753","0.0-4.0-1.0-3.11","vpao89gtn7w449s","prime","5ef7401b44d80c01c67eb236","5f60e3c0a3b16e07647b2ff9","5f60edc9bafd2800092c9073","false","null","<div style=""align-items: center; display: flex; color: dodgerblue; font-size: 90px""><b>o</b></div>","null","","","","forget_cue","","","","","","","","","","","","","","","",""
"html-keyboard-response","152","569455","0.0-4.0-1.0-0.12","vpao89gtn7w449s","prime","5ef7401b44d80c01c67eb236","5f60e3c0a3b16e07647b2ff9","5f60edc9bafd2800092c9073","false","null","<span style=""color: black; font-size: 48px"">M + N</span>","null","","","","resp_prompt","","","","","","","","","","","","","","","",""
"categorize-image","153","570145","0.0-4.0-1.0-1.12","vpao89gtn7w449s","prime","5ef7401b44d80c01c67eb236","5f60e3c0a3b16e07647b2ff9","5f60edc9bafd2800092c9073","true","687.534999975469","./Stimuli/SelectedImages/LM/LM179.bmp","83","","","","test","true","M + N","83","repetition","LM","LM179.bmp","remember","","61","3","prime1","left","","","",""
"html-keyboard-response","154","572146","0.0-4.0-1.0-3.12","vpao89gtn7w449s","prime","5ef7401b44d80c01c67eb236","5f60e3c0a3b16e07647b2ff9","5f60edc9bafd2800092c9073","false","null","<div style=""align-items: center; display: flex; color: dodgerblue; font-size: 90px""><b>o</b></div>","null","","","","forget_cue","","","","","","","","","","","","","","","",""
"html-keyboard-response","155","572848","0.0-4.0-1.0-0.13","vpao89gtn7w449s","prime","5ef7401b44d80c01c67eb236","5f60e3c0a3b16e07647b2ff9","5f60edc9bafd2800092c9073","false","null","<span style=""color: black; font-size: 48px"">N + M</span>","null","","","","resp_prompt","","","","","","","","","","","","","","","",""
"categorize-image","156","573501","0.0-4.0-1.0-1.13","vpao89gtn7w449s","prime","5ef7401b44d80c01c67eb236","5f60e3c0a3b16e07647b2ff9","5f60edc9bafd2800092c9073","true","651.3299999642186","./Stimuli/SelectedImages/SN/SN52.bmp","83","","","","test","true","N + M","83","repetition","SN","SN52.bmp","remember","","62","3","prime1","left","","","",""
"html-keyboard-response","157","575502","0.0-4.0-1.0-3.13","vpao89gtn7w449s","prime","5ef7401b44d80c01c67eb236","5f60e3c0a3b16e07647b2ff9","5f60edc9bafd2800092c9073","false","null","<div style=""align-items: center; display: flex; color: dodgerblue; font-size: 90px""><b>o</b></div>","null","","","","forget_cue","","","","","","","","","","","","","","","",""
"html-keyboard-response","158","576204","0.0-4.0-1.0-0.14","vpao89gtn7w449s","prime","5ef7401b44d80c01c67eb236","5f60e3c0a3b16e07647b2ff9","5f60edc9bafd2800092c9073","false","null","<span style=""color: black; font-size: 48px"">N + M</span>","null","","","","resp_prompt","","","","","","","","","","","","","","","",""
"categorize-image","159","576649","0.0-4.0-1.0-1.14","vpao89gtn7w449s","prime","5ef7401b44d80c01c67eb236","5f60e3c0a3b16e07647b2ff9","5f60edc9bafd2800092c9073","true","442.99500004854053","./Stimuli/SelectedImages/LN/LN28.bmp","83","","","","test","true","N + M","83","switch","LN","LN28.bmp","forget","","63","3","prime1","left","","","",""
"html-keyboard-response","160","578651","0.0-4.0-1.0-3.14","vpao89gtn7w449s","prime","5ef7401b44d80c01c67eb236","5f60e3c0a3b16e07647b2ff9","5f60edc9bafd2800092c9073","false","null","<div style=""align-items: center; display: flex; color: darkorange; font-size: 90px""><b>ø</b></div>","null","","","","forget_cue","","","","","","","","","","","","","","","",""
"html-keyboard-response","161","579353","0.0-4.0-1.0-0.15","vpao89gtn7w449s","prime","5ef7401b44d80c01c67eb236","5f60e3c0a3b16e07647b2ff9","5f60edc9bafd2800092c9073","false","null","<span style=""color: black; font-size: 48px"">M + N</span>","null","","","","resp_prompt","","","","","","","","","","","","","","","",""
"categorize-image","162","579891","0.0-4.0-1.0-1.15","vpao89gtn7w449s","prime","5ef7401b44d80c01c67eb236","5f60e3c0a3b16e07647b2ff9","5f60edc9bafd2800092c9073","true","530.9550000238232","./Stimuli/SelectedImages/SM/SM148.bmp","83","","","","test","true","M + N","83","switch","SM","SM148.bmp","remember","","64","3","prime1","left","","","",""
"html-keyboard-response","163","581894","0.0-4.0-1.0-3.15","vpao89gtn7w449s","prime","5ef7401b44d80c01c67eb236","5f60e3c0a3b16e07647b2ff9","5f60edc9bafd2800092c9073","false","null","<div style=""align-items: center; display: flex; color: dodgerblue; font-size: 90px""><b>o</b></div>","null","","","","forget_cue","","","","","","","","","","","","","","","",""
"html-keyboard-response","164","582596","0.0-4.0-1.0-0.16","vpao89gtn7w449s","prime","5ef7401b44d80c01c67eb236","5f60e3c0a3b16e07647b2ff9","5f60edc9bafd2800092c9073","false","null","<span style=""color: black; font-size: 48px"">M + N</span>","null","","","","resp_prompt","","","","","","","","","","","","","","","",""
"categorize-image","165","583321","0.0-4.0-1.0-1.16","vpao89gtn7w449s","prime","5ef7401b44d80c01c67eb236","5f60e3c0a3b16e07647b2ff9","5f60edc9bafd2800092c9073","true","720.789999992121","./Stimuli/SelectedImages/LM/LM209.bmp","83","","","","test","true","M + N","83","switch","LM","LM209.bmp","forget","","65","3","prime1","left","","","",""
"html-keyboard-response","166","585323","0.0-4.0-1.0-3.16","vpao89gtn7w449s","prime","5ef7401b44d80c01c67eb236","5f60e3c0a3b16e07647b2ff9","5f60edc9bafd2800092c9073","false","null","<div style=""align-items: center; display: flex; color: darkorange; font-size: 90px""><b>ø</b></div>","null","","","","forget_cue","","","","","","","","","","","","","","","",""
"html-keyboard-response","167","586025","0.0-4.0-1.0-0.17","vpao89gtn7w449s","prime","5ef7401b44d80c01c67eb236","5f60e3c0a3b16e07647b2ff9","5f60edc9bafd2800092c9073","false","null","<span style=""color: black; font-size: 48px"">N + M</span>","null","","","","resp_prompt","","","","","","","","","","","","","","","",""
"categorize-image","168","586527","0.0-4.0-1.0-1.17","vpao89gtn7w449s","prime","5ef7401b44d80c01c67eb236","5f60e3c0a3b16e07647b2ff9","5f60edc9bafd2800092c9073","true","499.36000001616776","./Stimuli/SelectedImages/LM/LM167.bmp","76","","","","test","true","N + M","76","switch","LM","LM167.bmp","remember","","66","3","prime1","right","","","",""
"html-keyboard-response","169","588528","0.0-4.0-1.0-3.17","vpao89gtn7w449s","prime","5ef7401b44d80c01c67eb236","5f60e3c0a3b16e07647b2ff9","5f60edc9bafd2800092c9073","false","null","<div style=""align-items: center; display: flex; color: dodgerblue; font-size: 90px""><b>o</b></div>","null","","","","forget_cue","","","","","","","","","","","","","","","",""
"html-keyboard-response","170","589230","0.0-4.0-1.0-0.18","vpao89gtn7w449s","prime","5ef7401b44d80c01c67eb236","5f60e3c0a3b16e07647b2ff9","5f60edc9bafd2800092c9073","false","null","<span style=""color: black; font-size: 48px"">N + M</span>","null","","","","resp_prompt","","","","","","","","","","","","","","","",""
"categorize-image","171","589763","0.0-4.0-1.0-1.18","vpao89gtn7w449s","prime","5ef7401b44d80c01c67eb236","5f60e3c0a3b16e07647b2ff9","5f60edc9bafd2800092c9073","true","528.7249999819323","./Stimuli/SelectedImages/SM/SM73.bmp","76","","","","test","true","N + M","76","repetition","SM","SM73.bmp","remember","","67","3","prime1","right","","","",""
"html-keyboard-response","172","591764","0.0-4.0-1.0-3.18","vpao89gtn7w449s","prime","5ef7401b44d80c01c67eb236","5f60e3c0a3b16e07647b2ff9","5f60edc9bafd2800092c9073","false","null","<div style=""align-items: center; display: flex; color: dodgerblue; font-size: 90px""><b>o</b></div>","null","","","","forget_cue","","","","","","","","","","","","","","","",""
"html-keyboard-response","173","592466","0.0-4.0-1.0-0.19","vpao89gtn7w449s","prime","5ef7401b44d80c01c67eb236","5f60e3c0a3b16e07647b2ff9","5f60edc9bafd2800092c9073","false","null","<span style=""color: black; font-size: 48px"">N + M</span>","null","","","","resp_prompt","","","","","","","","","","","","","","","",""
"categorize-image","174","593016","0.0-4.0-1.0-1.19","vpao89gtn7w449s","prime","5ef7401b44d80c01c67eb236","5f60e3c0a3b16e07647b2ff9","5f60edc9bafd2800092c9073","true","547.5250000017695","./Stimuli/SelectedImages/LM/LM157.bmp","76","","","","test","true","N + M","76","repetition","LM","LM157.bmp","remember","","68","3","prime1","right","","","",""
"html-keyboard-response","175","595018","0.0-4.0-1.0-3.19","vpao89gtn7w449s","prime","5ef7401b44d80c01c67eb236","5f60e3c0a3b16e07647b2ff9","5f60edc9bafd2800092c9073","false","null","<div style=""align-items: center; display: flex; color: dodgerblue; font-size: 90px""><b>o</b></div>","null","","","","forget_cue","","","","","","","","","","","","","","","",""
"html-keyboard-response","176","595719","0.0-4.0-1.0-0.20","vpao89gtn7w449s","prime","5ef7401b44d80c01c67eb236","5f60e3c0a3b16e07647b2ff9","5f60edc9bafd2800092c9073","false","null","<span style=""color: black; font-size: 48px"">M + N</span>","null","","","","resp_prompt","","","","","","","","","","","","","","","",""
"categorize-image","177","596251","0.0-4.0-1.0-1.20","vpao89gtn7w449s","prime","5ef7401b44d80c01c67eb236","5f60e3c0a3b16e07647b2ff9","5f60edc9bafd2800092c9073","true","529.099999985192","./Stimuli/SelectedImages/LN/LN82.bmp","76","","","","test","true","M + N","76","repetition","LN","LN82.bmp","forget","","69","3","prime1","right","","","",""
"html-keyboard-response","178","598252","0.0-4.0-1.0-3.20","vpao89gtn7w449s","prime","5ef7401b44d80c01c67eb236","5f60e3c0a3b16e07647b2ff9","5f60edc9bafd2800092c9073","false","null","<div style=""align-items: center; display: flex; color: darkorange; font-size: 90px""><b>ø</b></div>","null","","","","forget_cue","","","","","","","","","","","","","","","",""
"html-keyboard-response","179","598955","0.0-4.0-1.0-0.21","vpao89gtn7w449s","prime","5ef7401b44d80c01c67eb236","5f60e3c0a3b16e07647b2ff9","5f60edc9bafd2800092c9073","false","null","<span style=""color: black; font-size: 48px"">N + M</span>","null","","","","resp_prompt","","","","","","","","","","","","","","","",""
"categorize-image","180","599477","0.0-4.0-1.0-1.21","vpao89gtn7w449s","prime","5ef7401b44d80c01c67eb236","5f60e3c0a3b16e07647b2ff9","5f60edc9bafd2800092c9073","true","518.3049999759533","./Stimuli/SelectedImages/SN/SN187.bmp","83","","","","test","true","N + M","83","switch","SN","SN187.bmp","forget","","70","3","prime1","left","","","",""
"html-keyboard-response","181","601480","0.0-4.0-1.0-3.21","vpao89gtn7w449s","prime","5ef7401b44d80c01c67eb236","5f60e3c0a3b16e07647b2ff9","5f60edc9bafd2800092c9073","false","null","<div style=""align-items: center; display: flex; color: darkorange; font-size: 90px""><b>ø</b></div>","null","","","","forget_cue","","","","","","","","","","","","","","","",""
"html-keyboard-response","182","602182","0.0-4.0-1.0-0.22","vpao89gtn7w449s","prime","5ef7401b44d80c01c67eb236","5f60e3c0a3b16e07647b2ff9","5f60edc9bafd2800092c9073","false","null","<span style=""color: black; font-size: 48px"">M + N</span>","null","","","","resp_prompt","","","","","","","","","","","","","","","",""
"categorize-image","183","602754","0.0-4.0-1.0-1.22","vpao89gtn7w449s","prime","5ef7401b44d80c01c67eb236","5f60e3c0a3b16e07647b2ff9","5f60edc9bafd2800092c9073","true","569.2799999960698","./Stimuli/SelectedImages/SN/SN128.bmp","76","","","","test","true","M + N","76","switch","SN","SN128.bmp","forget","","71","3","prime1","right","","","",""
"html-keyboard-response","184","604757","0.0-4.0-1.0-3.22","vpao89gtn7w449s","prime","5ef7401b44d80c01c67eb236","5f60e3c0a3b16e07647b2ff9","5f60edc9bafd2800092c9073","false","null","<div style=""align-items: center; display: flex; color: darkorange; font-size: 90px""><b>ø</b></div>","null","","","","forget_cue","","","","","","","","","","","","","","","",""
"html-keyboard-response","185","605458","0.0-4.0-1.0-0.23","vpao89gtn7w449s","prime","5ef7401b44d80c01c67eb236","5f60e3c0a3b16e07647b2ff9","5f60edc9bafd2800092c9073","false","null","<span style=""color: black; font-size: 48px"">M + N</span>","null","","","","resp_prompt","","","","","","","","","","","","","","","",""
"categorize-image","186","607465","0.0-4.0-1.0-1.23","vpao89gtn7w449s","prime","5ef7401b44d80c01c67eb236","5f60e3c0a3b16e07647b2ff9","5f60edc9bafd2800092c9073","true","null","./Stimuli/SelectedImages/SM/SM76.bmp","null","","","","test","false","M + N","83","repetition","SM","SM76.bmp","remember","","72","3","prime1","too_slow","","","",""
"html-keyboard-response","187","607967","0.0-4.0-1.0-2.23-0.23","vpao89gtn7w449s","prime","5ef7401b44d80c01c67eb236","5f60e3c0a3b16e07647b2ff9","5f60edc9bafd2800092c9073","false","null","<span style=""color: red; font-size: 48px"">Too slow!</span>","null","","","","feedback","","","","","","","","","","","","","","","",""
"html-keyboard-response","188","609969","0.0-4.0-1.0-3.23","vpao89gtn7w449s","prime","5ef7401b44d80c01c67eb236","5f60e3c0a3b16e07647b2ff9","5f60edc9bafd2800092c9073","false","null","<div style=""align-items: center; display: flex; color: dodgerblue; font-size: 90px""><b>o</b></div>","null","","","","forget_cue","","","","","","","","","","","","","","","",""
"html-keyboard-response","189","610670","0.0-4.0-1.0-0.24","vpao89gtn7w449s","prime","5ef7401b44d80c01c67eb236","5f60e3c0a3b16e07647b2ff9","5f60edc9bafd2800092c9073","false","null","<span style=""color: black; font-size: 48px"">M + N</span>","null","","","","resp_prompt","","","","","","","","","","","","","","","",""
"categorize-image","190","612677","0.0-4.0-1.0-1.24","vpao89gtn7w449s","prime","5ef7401b44d80c01c67eb236","5f60e3c0a3b16e07647b2ff9","5f60edc9bafd2800092c9073","true","null","./Stimuli/SelectedImages/SN/SN27.bmp","null","","","","test","false","M + N","76","repetition","SN","SN27.bmp","forget","","73","3","prime1","too_slow","","","",""
"html-keyboard-response","191","613179","0.0-4.0-1.0-2.24-0.24","vpao89gtn7w449s","prime","5ef7401b44d80c01c67eb236","5f60e3c0a3b16e07647b2ff9","5f60edc9bafd2800092c9073","false","null","<span style=""color: red; font-size: 48px"">Too slow!</span>","null","","","","feedback","","","","","","","","","","","","","","","",""
"html-keyboard-response","192","615180","0.0-4.0-1.0-3.24","vpao89gtn7w449s","prime","5ef7401b44d80c01c67eb236","5f60e3c0a3b16e07647b2ff9","5f60edc9bafd2800092c9073","false","null","<div style=""align-items: center; display: flex; color: darkorange; font-size: 90px""><b>ø</b></div>","null","","","","forget_cue","","","","","","","","","","","","","","","",""
"html-keyboard-response","193","615881","0.0-4.0-1.0-0.25","vpao89gtn7w449s","prime","5ef7401b44d80c01c67eb236","5f60e3c0a3b16e07647b2ff9","5f60edc9bafd2800092c9073","false","null","<span style=""color: black; font-size: 48px"">N + M</span>","null","","","","resp_prompt","","","","","","","","","","","","","","","",""
"categorize-image","194","616686","0.0-4.0-1.0-1.25","vpao89gtn7w449s","prime","5ef7401b44d80c01c67eb236","5f60e3c0a3b16e07647b2ff9","5f60edc9bafd2800092c9073","true","802.1900000167079","./Stimuli/SelectedImages/SM/SM74.bmp","76","","","","test","true","N + M","76","switch","SM","SM74.bmp","forget","","74","3","prime1","right","","","",""
"html-keyboard-response","195","618688","0.0-4.0-1.0-3.25","vpao89gtn7w449s","prime","5ef7401b44d80c01c67eb236","5f60e3c0a3b16e07647b2ff9","5f60edc9bafd2800092c9073","false","null","<div style=""align-items: center; display: flex; color: darkorange; font-size: 90px""><b>ø</b></div>","null","","","","forget_cue","","","","","","","","","","","","","","","",""
"html-keyboard-response","196","619390","0.0-4.0-1.0-0.26","vpao89gtn7w449s","prime","5ef7401b44d80c01c67eb236","5f60e3c0a3b16e07647b2ff9","5f60edc9bafd2800092c9073","false","null","<span style=""color: black; font-size: 48px"">M + N</span>","null","","","","resp_prompt","","","","","","","","","","","","","","","",""
"categorize-image","197","619979","0.0-4.0-1.0-1.26","vpao89gtn7w449s","prime","5ef7401b44d80c01c67eb236","5f60e3c0a3b16e07647b2ff9","5f60edc9bafd2800092c9073","true","586.2750000087544","./Stimuli/SelectedImages/LN/LN177.bmp","76","","","","test","true","M + N","76","switch","LN","LN177.bmp","forget","","75","3","prime1","right","","","",""
"html-keyboard-response","198","621980","0.0-4.0-1.0-3.26","vpao89gtn7w449s","prime","5ef7401b44d80c01c67eb236","5f60e3c0a3b16e07647b2ff9","5f60edc9bafd2800092c9073","false","null","<div style=""align-items: center; display: flex; color: darkorange; font-size: 90px""><b>ø</b></div>","null","","","","forget_cue","","","","","","","","","","","","","","","",""
"html-keyboard-response","199","622682","0.0-4.0-1.0-0.27","vpao89gtn7w449s","prime","5ef7401b44d80c01c67eb236","5f60e3c0a3b16e07647b2ff9","5f60edc9bafd2800092c9073","false","null","<span style=""color: black; font-size: 48px"">N + M</span>","null","","","","resp_prompt","","","","","","","","","","","","","","","",""
"categorize-image","200","623242","0.0-4.0-1.0-1.27","vpao89gtn7w449s","prime","5ef7401b44d80c01c67eb236","5f60e3c0a3b16e07647b2ff9","5f60edc9bafd2800092c9073","true","557.6399999554269","./Stimuli/SelectedImages/LM/LM75.bmp","76","","","","test","true","N + M","76","repetition","LM","LM75.bmp","forget","","76","3","prime1","right","","","",""
"html-keyboard-response","201","625243","0.0-4.0-1.0-3.27","vpao89gtn7w449s","prime","5ef7401b44d80c01c67eb236","5f60e3c0a3b16e07647b2ff9","5f60edc9bafd2800092c9073","false","null","<div style=""align-items: center; display: flex; color: darkorange; font-size: 90px""><b>ø</b></div>","null","","","","forget_cue","","","","","","","","","","","","","","","",""
"html-keyboard-response","202","625945","0.0-4.0-1.0-0.28","vpao89gtn7w449s","prime","5ef7401b44d80c01c67eb236","5f60e3c0a3b16e07647b2ff9","5f60edc9bafd2800092c9073","false","null","<span style=""color: black; font-size: 48px"">N + M</span>","null","","","","resp_prompt","","","","","","","","","","","","","","","",""
"categorize-image","203","626470","0.0-4.0-1.0-1.28","vpao89gtn7w449s","prime","5ef7401b44d80c01c67eb236","5f60e3c0a3b16e07647b2ff9","5f60edc9bafd2800092c9073","true","520.8599999896251","./Stimuli/SelectedImages/SN/SN140.bmp","83","","","","test","true","N + M","83","switch","SN","SN140.bmp","remember","","77","3","prime1","left","","","",""
"html-keyboard-response","204","628472","0.0-4.0-1.0-3.28","vpao89gtn7w449s","prime","5ef7401b44d80c01c67eb236","5f60e3c0a3b16e07647b2ff9","5f60edc9bafd2800092c9073","false","null","<div style=""align-items: center; display: flex; color: dodgerblue; font-size: 90px""><b>o</b></div>","null","","","","forget_cue","","","","","","","","","","","","","","","",""
"html-keyboard-response","205","629173","0.0-4.0-1.0-0.29","vpao89gtn7w449s","prime","5ef7401b44d80c01c67eb236","5f60e3c0a3b16e07647b2ff9","5f60edc9bafd2800092c9073","false","null","<span style=""color: black; font-size: 48px"">M + N</span>","null","","","","resp_prompt","","","","","","","","","","","","","","","",""
"categorize-image","206","629674","0.0-4.0-1.0-1.29","vpao89gtn7w449s","prime","5ef7401b44d80c01c67eb236","5f60e3c0a3b16e07647b2ff9","5f60edc9bafd2800092c9073","true","496.4400000171736","./Stimuli/SelectedImages/LM/LM103.bmp","83","","","","test","true","M + N","83","repetition","LM","LM103.bmp","forget","","78","3","prime1","left","","","",""
"html-keyboard-response","207","631677","0.0-4.0-1.0-3.29","vpao89gtn7w449s","prime","5ef7401b44d80c01c67eb236","5f60e3c0a3b16e07647b2ff9","5f60edc9bafd2800092c9073","false","null","<div style=""align-items: center; display: flex; color: darkorange; font-size: 90px""><b>ø</b></div>","null","","","","forget_cue","","","","","","","","","","","","","","","",""
"html-keyboard-response","208","632378","0.0-4.0-1.0-0.30","vpao89gtn7w449s","prime","5ef7401b44d80c01c67eb236","5f60e3c0a3b16e07647b2ff9","5f60edc9bafd2800092c9073","false","null","<span style=""color: black; font-size: 48px"">N + M</span>","null","","","","resp_prompt","","","","","","","","","","","","","","","",""
"categorize-image","209","633361","0.0-4.0-1.0-1.30","vpao89gtn7w449s","prime","5ef7401b44d80c01c67eb236","5f60e3c0a3b16e07647b2ff9","5f60edc9bafd2800092c9073","true","980.0450000329874","./Stimuli/SelectedImages/SN/SN111.bmp","83","","","","test","true","N + M","83","repetition","SN","SN111.bmp","forget","","79","3","prime1","left","","","",""
"html-keyboard-response","210","635363","0.0-4.0-1.0-3.30","vpao89gtn7w449s","prime","5ef7401b44d80c01c67eb236","5f60e3c0a3b16e07647b2ff9","5f60edc9bafd2800092c9073","false","null","<div style=""align-items: center; display: flex; color: darkorange; font-size: 90px""><b>ø</b></div>","null","","","","forget_cue","","","","","","","","","","","","","","","",""
"html-keyboard-response","211","636064","0.0-4.0-1.0-0.31","vpao89gtn7w449s","prime","5ef7401b44d80c01c67eb236","5f60e3c0a3b16e07647b2ff9","5f60edc9bafd2800092c9073","false","null","<span style=""color: black; font-size: 48px"">N + M</span>","null","","","","resp_prompt","","","","","","","","","","","","","","","",""
"categorize-image","212","636487","0.0-4.0-1.0-1.31","vpao89gtn7w449s","prime","5ef7401b44d80c01c67eb236","5f60e3c0a3b16e07647b2ff9","5f60edc9bafd2800092c9073","true","420.6750000012107","./Stimuli/SelectedImages/LM/LM150.bmp","76","","","","test","true","N + M","76","switch","LM","LM150.bmp","forget","","80","3","prime1","right","","","",""
"html-keyboard-response","213","638489","0.0-4.0-1.0-3.31","vpao89gtn7w449s","prime","5ef7401b44d80c01c67eb236","5f60e3c0a3b16e07647b2ff9","5f60edc9bafd2800092c9073","false","null","<div style=""align-items: center; display: flex; color: darkorange; font-size: 90px""><b>ø</b></div>","null","","","","forget_cue","","","","","","","","","","","","","","","",""
"html-keyboard-response","214","639191","0.0-4.0-1.0-0.32","vpao89gtn7w449s","prime","5ef7401b44d80c01c67eb236","5f60e3c0a3b16e07647b2ff9","5f60edc9bafd2800092c9073","false","null","<span style=""color: black; font-size: 48px"">M + N</span>","null","","","","resp_prompt","","","","","","","","","","","","","","","",""
"categorize-image","215","639705","0.0-4.0-1.0-1.32","vpao89gtn7w449s","prime","5ef7401b44d80c01c67eb236","5f60e3c0a3b16e07647b2ff9","5f60edc9bafd2800092c9073","true","508.8899999973364","./Stimuli/SelectedImages/SN/SN49.bmp","76","","","","test","true","M + N","76","switch","SN","SN49.bmp","forget","","81","3","prime1","right","","","",""
"html-keyboard-response","216","641708","0.0-4.0-1.0-3.32","vpao89gtn7w449s","prime","5ef7401b44d80c01c67eb236","5f60e3c0a3b16e07647b2ff9","5f60edc9bafd2800092c9073","false","null","<div style=""align-items: center; display: flex; color: darkorange; font-size: 90px""><b>ø</b></div>","null","","","","forget_cue","","","","","","","","","","","","","","","",""
"html-keyboard-response","217","642410","0.0-4.0-1.0-0.33","vpao89gtn7w449s","prime","5ef7401b44d80c01c67eb236","5f60e3c0a3b16e07647b2ff9","5f60edc9bafd2800092c9073","false","null","<span style=""color: black; font-size: 48px"">M + N</span>","null","","","","resp_prompt","","","","","","","","","","","","","","","",""
"categorize-image","218","642928","0.0-4.0-1.0-1.33","vpao89gtn7w449s","prime","5ef7401b44d80c01c67eb236","5f60e3c0a3b16e07647b2ff9","5f60edc9bafd2800092c9073","true","514.374999969732","./Stimuli/SelectedImages/LN/LN128.bmp","76","","","","test","true","M + N","76","switch","LN","LN128.bmp","remember","","82","3","prime1","right","","","",""
"html-keyboard-response","219","644931","0.0-4.0-1.0-3.33","vpao89gtn7w449s","prime","5ef7401b44d80c01c67eb236","5f60e3c0a3b16e07647b2ff9","5f60edc9bafd2800092c9073","false","null","<div style=""align-items: center; display: flex; color: dodgerblue; font-size: 90px""><b>o</b></div>","null","","","","forget_cue","","","","","","","","","","","","","","","",""
"html-keyboard-response","220","645633","0.0-4.0-1.0-0.34","vpao89gtn7w449s","prime","5ef7401b44d80c01c67eb236","5f60e3c0a3b16e07647b2ff9","5f60edc9bafd2800092c9073","false","null","<span style=""color: black; font-size: 48px"">N + M</span>","null","","","","resp_prompt","","","","","","","","","","","","","","","",""
"categorize-image","221","646362","0.0-4.0-1.0-1.34","vpao89gtn7w449s","prime","5ef7401b44d80c01c67eb236","5f60e3c0a3b16e07647b2ff9","5f60edc9bafd2800092c9073","true","722.5999999791384","./Stimuli/SelectedImages/LM/LM57.bmp","76","","","","test","true","N + M","76","repetition","LM","LM57.bmp","forget","","83","3","prime1","right","","","",""
"html-keyboard-response","222","648364","0.0-4.0-1.0-3.34","vpao89gtn7w449s","prime","5ef7401b44d80c01c67eb236","5f60e3c0a3b16e07647b2ff9","5f60edc9bafd2800092c9073","false","null","<div style=""align-items: center; display: flex; color: darkorange; font-size: 90px""><b>ø</b></div>","null","","","","forget_cue","","","","","","","","","","","","","","","",""
"html-keyboard-response","223","649067","0.0-4.0-1.0-0.35","vpao89gtn7w449s","prime","5ef7401b44d80c01c67eb236","5f60e3c0a3b16e07647b2ff9","5f60edc9bafd2800092c9073","false","null","<span style=""color: black; font-size: 48px"">M + N</span>","null","","","","resp_prompt","","","","","","","","","","","","","","","",""
"categorize-image","224","649697","0.0-4.0-1.0-1.35","vpao89gtn7w449s","prime","5ef7401b44d80c01c67eb236","5f60e3c0a3b16e07647b2ff9","5f60edc9bafd2800092c9073","true","623.8000000012107","./Stimuli/SelectedImages/SM/SM128.bmp","83","","","","test","true","M + N","83","repetition","SM","SM128.bmp","forget","","84","3","prime1","left","","","",""
"html-keyboard-response","225","651700","0.0-4.0-1.0-3.35","vpao89gtn7w449s","prime","5ef7401b44d80c01c67eb236","5f60e3c0a3b16e07647b2ff9","5f60edc9bafd2800092c9073","false","null","<div style=""align-items: center; display: flex; color: darkorange; font-size: 90px""><b>ø</b></div>","null","","","","forget_cue","","","","","","","","","","","","","","","",""
"html-keyboard-response","226","652401","0.0-4.0-1.0-0.36","vpao89gtn7w449s","prime","5ef7401b44d80c01c67eb236","5f60e3c0a3b16e07647b2ff9","5f60edc9bafd2800092c9073","false","null","<span style=""color: black; font-size: 48px"">M + N</span>","null","","","","resp_prompt","","","","","","","","","","","","","","","",""
"categorize-image","227","653002","0.0-4.0-1.0-1.36","vpao89gtn7w449s","prime","5ef7401b44d80c01c67eb236","5f60e3c0a3b16e07647b2ff9","5f60edc9bafd2800092c9073","true","596.2099999887869","./Stimuli/SelectedImages/SM/SM17.bmp","83","","","","test","true","M + N","83","switch","SM","SM17.bmp","forget","","85","3","prime1","left","","","",""
"html-keyboard-response","228","655004","0.0-4.0-1.0-3.36","vpao89gtn7w449s","prime","5ef7401b44d80c01c67eb236","5f60e3c0a3b16e07647b2ff9","5f60edc9bafd2800092c9073","false","null","<div style=""align-items: center; display: flex; color: darkorange; font-size: 90px""><b>ø</b></div>","null","","","","forget_cue","","","","","","","","","","","","","","","",""
"html-keyboard-response","229","655705","0.0-4.0-1.0-0.37","vpao89gtn7w449s","prime","5ef7401b44d80c01c67eb236","5f60e3c0a3b16e07647b2ff9","5f60edc9bafd2800092c9073","false","null","<span style=""color: black; font-size: 48px"">N + M</span>","null","","","","resp_prompt","","","","","","","","","","","","","","","",""
"categorize-image","230","656221","0.0-4.0-1.0-1.37","vpao89gtn7w449s","prime","5ef7401b44d80c01c67eb236","5f60e3c0a3b16e07647b2ff9","5f60edc9bafd2800092c9073","true","509.1699999757111","./Stimuli/SelectedImages/LN/LN13.bmp","83","","","","test","true","N + M","83","switch","LN","LN13.bmp","remember","","86","3","prime1","left","","","",""
"html-keyboard-response","231","658224","0.0-4.0-1.0-3.37","vpao89gtn7w449s","prime","5ef7401b44d80c01c67eb236","5f60e3c0a3b16e07647b2ff9","5f60edc9bafd2800092c9073","false","null","<div style=""align-items: center; display: flex; color: dodgerblue; font-size: 90px""><b>o</b></div>","null","","","","forget_cue","","","","","","","","","","","","","","","",""
"html-keyboard-response","232","658926","0.0-4.0-1.0-0.38","vpao89gtn7w449s","prime","5ef7401b44d80c01c67eb236","5f60e3c0a3b16e07647b2ff9","5f60edc9bafd2800092c9073","false","null","<span style=""color: black; font-size: 48px"">M + N</span>","null","","","","resp_prompt","","","","","","","","","","","","","","","",""
"categorize-image","233","660007","0.0-4.0-1.0-1.38","vpao89gtn7w449s","prime","5ef7401b44d80c01c67eb236","5f60e3c0a3b16e07647b2ff9","5f60edc9bafd2800092c9073","true","1074.0900000091642","./Stimuli/SelectedImages/LN/LN166.bmp","76","","","","test","true","M + N","76","repetition","LN","LN166.bmp","remember","","87","3","prime1","right","","","",""
"html-keyboard-response","234","662008","0.0-4.0-1.0-3.38","vpao89gtn7w449s","prime","5ef7401b44d80c01c67eb236","5f60e3c0a3b16e07647b2ff9","5f60edc9bafd2800092c9073","false","null","<div style=""align-items: center; display: flex; color: dodgerblue; font-size: 90px""><b>o</b></div>","null","","","","forget_cue","","","","","","","","","","","","","","","",""
"html-keyboard-response","235","662711","0.0-4.0-1.0-0.39","vpao89gtn7w449s","prime","5ef7401b44d80c01c67eb236","5f60e3c0a3b16e07647b2ff9","5f60edc9bafd2800092c9073","false","null","<span style=""color: black; font-size: 48px"">N + M</span>","null","","","","resp_prompt","","","","","","","","","","","","","","","",""
"categorize-image","236","663235","0.0-4.0-1.0-1.39","vpao89gtn7w449s","prime","5ef7401b44d80c01c67eb236","5f60e3c0a3b16e07647b2ff9","5f60edc9bafd2800092c9073","true","519.2599999718368","./Stimuli/SelectedImages/LN/LN12.bmp","83","","","","test","true","N + M","83","switch","LN","LN12.bmp","remember","","88","3","prime1","left","","","",""
"html-keyboard-response","237","665236","0.0-4.0-1.0-3.39","vpao89gtn7w449s","prime","5ef7401b44d80c01c67eb236","5f60e3c0a3b16e07647b2ff9","5f60edc9bafd2800092c9073","false","null","<div style=""align-items: center; display: flex; color: dodgerblue; font-size: 90px""><b>o</b></div>","null","","","","forget_cue","","","","","","","","","","","","","","","",""
"html-keyboard-response","238","665937","0.0-4.0-1.0-0.40","vpao89gtn7w449s","prime","5ef7401b44d80c01c67eb236","5f60e3c0a3b16e07647b2ff9","5f60edc9bafd2800092c9073","false","null","<span style=""color: black; font-size: 48px"">N + M</span>","null","","","","resp_prompt","","","","","","","","","","","","","","","",""
"categorize-image","239","666353","0.0-4.0-1.0-1.40","vpao89gtn7w449s","prime","5ef7401b44d80c01c67eb236","5f60e3c0a3b16e07647b2ff9","5f60edc9bafd2800092c9073","true","412.35999995842576","./Stimuli/SelectedImages/SM/SM78.bmp","76","","","","test","true","N + M","76","repetition","SM","SM78.bmp","forget","","89","3","prime1","right","","","",""
"html-keyboard-response","240","668355","0.0-4.0-1.0-3.40","vpao89gtn7w449s","prime","5ef7401b44d80c01c67eb236","5f60e3c0a3b16e07647b2ff9","5f60edc9bafd2800092c9073","false","null","<div style=""align-items: center; display: flex; color: darkorange; font-size: 90px""><b>ø</b></div>","null","","","","forget_cue","","","","","","","","","","","","","","","",""
"html-keyboard-response","241","669057","0.0-4.0-1.0-0.41","vpao89gtn7w449s","prime","5ef7401b44d80c01c67eb236","5f60e3c0a3b16e07647b2ff9","5f60edc9bafd2800092c9073","false","null","<span style=""color: black; font-size: 48px"">M + N</span>","null","","","","resp_prompt","","","","","","","","","","","","","","","",""
"categorize-image","242","669902","0.0-4.0-1.0-1.41","vpao89gtn7w449s","prime","5ef7401b44d80c01c67eb236","5f60e3c0a3b16e07647b2ff9","5f60edc9bafd2800092c9073","true","840.680000022985","./Stimuli/SelectedImages/LN/LN150.bmp","76","","","","test","true","M + N","76","repetition","LN","LN150.bmp","remember","","90","3","prime1","right","","","",""
"html-keyboard-response","243","671904","0.0-4.0-1.0-3.41","vpao89gtn7w449s","prime","5ef7401b44d80c01c67eb236","5f60e3c0a3b16e07647b2ff9","5f60edc9bafd2800092c9073","false","null","<div style=""align-items: center; display: flex; color: dodgerblue; font-size: 90px""><b>o</b></div>","null","","","","forget_cue","","","","","","","","","","","","","","","",""
"html-keyboard-response","244","672606","0.0-4.0-1.0-0.42","vpao89gtn7w449s","prime","5ef7401b44d80c01c67eb236","5f60e3c0a3b16e07647b2ff9","5f60edc9bafd2800092c9073","false","null","<span style=""color: black; font-size: 48px"">M + N</span>","null","","","","resp_prompt","","","","","","","","","","","","","","","",""
"categorize-image","245","673101","0.0-4.0-1.0-1.42","vpao89gtn7w449s","prime","5ef7401b44d80c01c67eb236","5f60e3c0a3b16e07647b2ff9","5f60edc9bafd2800092c9073","true","492.76500003179535","./Stimuli/SelectedImages/SM/SM195.bmp","83","","","","test","true","M + N","83","repetition","SM","SM195.bmp","forget","","91","3","prime1","left","","","",""
"html-keyboard-response","246","675103","0.0-4.0-1.0-3.42","vpao89gtn7w449s","prime","5ef7401b44d80c01c67eb236","5f60e3c0a3b16e07647b2ff9","5f60edc9bafd2800092c9073","false","null","<div style=""align-items: center; display: flex; color: darkorange; font-size: 90px""><b>ø</b></div>","null","","","","forget_cue","","","","","","","","","","","","","","","",""
"html-keyboard-response","247","675805","0.0-4.0-1.0-0.43","vpao89gtn7w449s","prime","5ef7401b44d80c01c67eb236","5f60e3c0a3b16e07647b2ff9","5f60edc9bafd2800092c9073","false","null","<span style=""color: black; font-size: 48px"">N + M</span>","null","","","","resp_prompt","","","","","","","","","","","","","","","",""
"categorize-image","248","676479","0.0-4.0-1.0-1.43","vpao89gtn7w449s","prime","5ef7401b44d80c01c67eb236","5f60e3c0a3b16e07647b2ff9","5f60edc9bafd2800092c9073","true","670.0199999613687","./Stimuli/SelectedImages/SM/SM184.bmp","76","","","","test","true","N + M","76","switch","SM","SM184.bmp","remember","","92","3","prime1","right","","","",""
"html-keyboard-response","249","678481","0.0-4.0-1.0-3.43","vpao89gtn7w449s","prime","5ef7401b44d80c01c67eb236","5f60e3c0a3b16e07647b2ff9","5f60edc9bafd2800092c9073","false","null","<div style=""align-items: center; display: flex; color: dodgerblue; font-size: 90px""><b>o</b></div>","null","","","","forget_cue","","","","","","","","","","","","","","","",""
"html-keyboard-response","250","679182","0.0-4.0-1.0-0.44","vpao89gtn7w449s","prime","5ef7401b44d80c01c67eb236","5f60e3c0a3b16e07647b2ff9","5f60edc9bafd2800092c9073","false","null","<span style=""color: black; font-size: 48px"">N + M</span>","null","","","","resp_prompt","","","","","","","","","","","","","","","",""
"categorize-image","251","679623","0.0-4.0-1.0-1.44","vpao89gtn7w449s","prime","5ef7401b44d80c01c67eb236","5f60e3c0a3b16e07647b2ff9","5f60edc9bafd2800092c9073","true","433.56000003404915","./Stimuli/SelectedImages/LN/LN92.bmp","83","","","","test","true","N + M","83","switch","LN","LN92.bmp","forget","","93","3","prime1","left","","","",""
"html-keyboard-response","252","681625","0.0-4.0-1.0-3.44","vpao89gtn7w449s","prime","5ef7401b44d80c01c67eb236","5f60e3c0a3b16e07647b2ff9","5f60edc9bafd2800092c9073","false","null","<div style=""align-items: center; display: flex; color: darkorange; font-size: 90px""><b>ø</b></div>","null","","","","forget_cue","","","","","","","","","","","","","","","",""
