"trial_type","trial_index","time_elapsed","internal_node_id","subject","exp_part","prolific_PID","study_ID","session_ID","use","rt","stimulus","key_press","button_pressed","responses","question_order","trial_part","correct","resp_map","correct_resp","probe_condition","category","image","forget_condition","list","trial_num","block_num","block","response","test_part","n_span","sequence","num_spaces"
"pavlovia","0","9","0.0-0.0","njqacn2gndn9jdo","","5af2f6c0c36b060001f80163","5f60e3c0a3b16e07647b2ff9","5f60e9f0cc1021000b90b791","false","","","","","","","","","","","","","","","","","","","","","","",""
"html-keyboard-response","1","14751","0.0-1.0-0.0-0.0","njqacn2gndn9jdo","welcome","5af2f6c0c36b060001f80163","5f60e3c0a3b16e07647b2ff9","5f60e9f0cc1021000b90b791","false","14738.079999922775","<div align=left>Dear participant, <br> thank you for participating in an online study of the Cognition, Action, and Sustainability Unit of the University of Freiburg! <br> <br>The aim of this study is to examine our ability to remember previously learned information. <br>Our goal is to find out, whether our memory improves, when we only remember information that is relevant to us. <br>The experiment will take about 35 minutes to complete. <br> <br>Please, note that you can only participate in this study if you are using a device with a keyboard (PC, Laptop etc.) <br>and not if you are using a mobile device such as a tablet or smartphone.<br> <br>Press 'SPACE' to proceed to the experiment. </div>","32","","","","","","","","","","","","","","","","","","","",""
"html-keyboard-response","2","63783","0.0-1.0-0.0-1.0","njqacn2gndn9jdo","welcome","5af2f6c0c36b060001f80163","5f60e3c0a3b16e07647b2ff9","5f60e9f0cc1021000b90b791","false","49029.69999995548","<div align=left><strong> Time Course of this experiment: </strong> <br><br> <strong> 1.</strong>  First, please fill in some information regarding your demographic data. <br><br> <strong> 2.</strong>  Next, your task will be to classify everyday objects. <br>In addition, you will be asked to remember certain objects and recall them later. <br>Working on these tasks requires your undivided attention and concentration.<br>It is therefore essential that you eliminate any sources of distraction in your  <br>environment and ensure that you will not be disturbed. <br><br><strong> 3.</strong>  At the end of the experiment, you will be asked to answer a few additional questions. <br> <br><strong> Important:</strong> After finishing the experiment, only close the browser window <br> by clicking on the 'end the experiment'-button when you are asked to do so. <br>Closing the browser window prematurely will make the allocation of your participation credit impossible. <br><br> Press 'SPACE' to start the experiment. </div>","32","","","","","","","","","","","","","","","","","","","",""
"html-button-response","3","72195","0.0-1.0-0.0-2.0","njqacn2gndn9jdo","welcome","5af2f6c0c36b060001f80163","5f60e3c0a3b16e07647b2ff9","5f60e9f0cc1021000b90b791","true","8405.97500000149","<div align=left><strong> Informed consent </strong>  <br>The aim of our research is to better understand human behavior and mental processes. <br>In the following study your behavior (e.g. choices, reaction times) will be studied. <br> <br><strong> Voluntariness and Anonymity </strong> <br>Your participation in this study is  <strong> voluntary</strong>.<br>You may withdraw your consent to participate at any time without providing a reason for doing so and without fear of prejudice. <br><br>As no personal data will be collected, <strong>your data and your person cannot be connected after data collection</strong> – the data-set is anonymous. <br>Respectively, deletion of your data will not be possible after data collection has been completed, as we cannot retrace your data-set.<br>The results and anonymized data collected in this study will be published as a scientific publication. <br>This will happen in an <strong>anonymized format</strong>, so that no data can be traced back to a specific person. <br> <br>The anonymized data of this study will be made available to other researchers and/or in a data archive on the Internet as a means of transparency and to enable subsequent re-use. By doing so, this study follows the recommendations of the Deutsche Forschungsgemeinschaft (DFG, German Research Foundation) and Deutsche Gesellschaft für Psychologie (DGPS, German Psychological Society) regarding quality assurance in research.<br>If you have any questions now or after the experiment, please contact our team (experiments@cs.uni-freiburg.de).<br><br><br>I hereby declare, that I understand the above described conditions of participation and I agree to participate under these conditions. <br><br> </div>","","0","","","","","","","","","","","","","","","","","","",""
"html-keyboard-response","4","105632","0.0-1.0-0.0-3.0","njqacn2gndn9jdo","welcome","5af2f6c0c36b060001f80163","5f60e3c0a3b16e07647b2ff9","5f60e9f0cc1021000b90b791","false","33432.290000026114","<div align=left><strong> General information concerning the experiment </strong>  <br> <br>Please follow the instructions:<ol> <li><strong> Do not leave this tab (your browser window) during the experiment and do not reload this tab! </strong>  <br>If you do switch tabs/windows during the experiment (to check your mail or visit another website, for example), <br>the experiment will end automatically and you will <strong>not receive credit</strong> for your participation. <br>Repeated participation or resumption of the experiment is impossible.</li> <br><li>Please close all other programs for the duration of your participation. </li> <br><li>Please mute or turn off your phone and put it out of your reach. </li> <br><li>Please also take off any disturbing accessories (such as wristwatches, bracelets, etc.). </li> <br><li>If you have music playing in the background, please turn it off now. </li> <br></ol>Thank you! <br>Press 'SPACE' to continue. </div>","32","","","","","","","","","","","","","","","","","","","",""
"survey-text","5","113659","0.0-1.0-1.0-0.0","njqacn2gndn9jdo","demographics","5af2f6c0c36b060001f80163","5f60e3c0a3b16e07647b2ff9","5f60e9f0cc1021000b90b791","true","7975.455000065267","","","","{""age"":""28""}","","","","","","","","","","","","","","","","","",""
"survey-multi-choice","6","140972","0.0-1.0-1.0-1.0","njqacn2gndn9jdo","demographics","5af2f6c0c36b060001f80163","5f60e3c0a3b16e07647b2ff9","5f60e9f0cc1021000b90b791","true","27287.9800000228","","","","{""gender"":""male"",""school"":""high school"",""education"":""other""}","[0,1,2]","","","","","","","","","","","","","","","","",""
"html-keyboard-response","7","158752","0.0-1.0-2.0","njqacn2gndn9jdo","instructions","5af2f6c0c36b060001f80163","5f60e3c0a3b16e07647b2ff9","5f60e9f0cc1021000b90b791","false","17770.45999991242","<div align=left> The experiment is now about to start: <br> <br>In the following part, you will be presented pictures of everyday objects. <br>Your first task is to <strong>classify these objects. </strong> <br> <br> You will classify them either as mechanical or non-mechanical objects. <br> <br>Objects that include any kind of technical mechanism (for example, wheels, switches, levers, <br> electronic components) fall under the category of <strong>mechanical</strong> objects. <br>Only objects without any kind of technical mechanism should be classified as <strong>non-mechanical</strong>. <br><br>Press 'SPACE' to continue. </div>","32","","","","","","","","","","","","","","","","","","","",""
"html-keyboard-response","8","319100","0.0-2.0-0.0","njqacn2gndn9jdo","instructions","5af2f6c0c36b060001f80163","5f60e3c0a3b16e07647b2ff9","5f60e9f0cc1021000b90b791","false","160344.5650000358","<div align=justify>You will classify the objects using the <strong>'S'</strong> and the <strong>'L'</strong> keys on your keyboard.<br>For doing so, please place your <strong>left index finger</strong> on the <strong>'S'</strong> key and place your <strong>right index finger</strong> on the <strong>'L'</strong> key. <br><br> Each trial starts with an instruction, indicating which key ('S'/'L') you need to press to classify <br>the object as mechanical (letter M) or non-mechanical (letter N).<br>The instruction <strong>M + N</strong> indicates that, in the current trial, by pressing the left key ('S') you classify the displayed object as mechanical (M) <br> and by pressing the right key ('L') you classify the object as non-mechanical (N). <br>The instruction <strong>N + M</strong> on the other hand indicates that by pressing the left key ('S') you classify the displayed object as non-mechanical (N) <br> and by pressing the right key ('L') you classify the object as mechanical (M). <br><br>Please press the key corresponding to the correct classification as fast as possible as soon as the object is displayed and try to avoid making mistakes.<br>If you do not respond within a 2 second window, a corresponding feedback will be displayed and the next trial will start.<br> The experiment is divided into multiple blocks to give you the opportunity to take a break after each block. <br>First, you can now practice this task. <br><br>Please place your <strong>LEFT INDEX FINGER</strong> on the 'S' key and your <strong>RIGHT INDEX FINGER</strong> on the 'L' key now. <br><br>Press SPACE to continue.</div>","32","","","","","","","","","","","","","","","","","","","",""
"html-keyboard-response","9","324042","0.0-2.0-1.0","njqacn2gndn9jdo","instructions","5af2f6c0c36b060001f80163","5f60e3c0a3b16e07647b2ff9","5f60e9f0cc1021000b90b791","false","4937.5899999868125","<div align=left> You will now have time to practice this task.<br><br>Remember: <br> <br><li>Please place your index fingers on the <strong>'S'</strong> and <strong>'L'</strong> keys <br>to respond as fast and accurately as possible.</li><li>Every picture can be classified as either mechanical or non-mechanical.</li><li>If you do not respond in time or commit an error, you will receive a corresponding feedback. </li><li> Please try to respond as <strong> fast </strong> and as <strong> accurately as possible </strong> .<br><li>To ensure optimal results, please minimize distractions and stay focused. </li><br><br>Press SPACE to continue.</div>","32","","","","","","","","","","","","","","","","","","","",""
"html-keyboard-response","10","324755","0.0-2.0-2.0-0.0","njqacn2gndn9jdo","practice_no_cue","5af2f6c0c36b060001f80163","5f60e3c0a3b16e07647b2ff9","5f60e9f0cc1021000b90b791","false","null","<span style=""color: black; font-size: 48px"">N + M</span>","null","","","","resp_prompt","","","","","","","","","","","","","","","",""
"categorize-image","11","326242","0.0-2.0-2.0-1.0","njqacn2gndn9jdo","practice_no_cue","5af2f6c0c36b060001f80163","5f60e3c0a3b16e07647b2ff9","5f60e9f0cc1021000b90b791","true","973.4600000083447","./Stimuli/ImagesPractice/LM147.jpg","76","","","","test","true","N + M","76","","LM","LM147.jpg","forget","old","1","1","start","right","","","",""
"html-keyboard-response","12","326955","0.0-2.0-2.0-0.1","njqacn2gndn9jdo","practice_no_cue","5af2f6c0c36b060001f80163","5f60e3c0a3b16e07647b2ff9","5f60e9f0cc1021000b90b791","false","null","<span style=""color: black; font-size: 48px"">N + M</span>","null","","","","resp_prompt","","","","","","","","","","","","","","","",""
"categorize-image","13","328678","0.0-2.0-2.0-1.1","njqacn2gndn9jdo","practice_no_cue","5af2f6c0c36b060001f80163","5f60e3c0a3b16e07647b2ff9","5f60e9f0cc1021000b90b791","true","1219.9499999405816","./Stimuli/ImagesPractice/SM35.jpg","76","","","","test","true","N + M","76","","SM","SM35.jpg","remember","old","2","1","start","right","","","",""
"html-keyboard-response","14","329390","0.0-2.0-2.0-0.2","njqacn2gndn9jdo","practice_no_cue","5af2f6c0c36b060001f80163","5f60e3c0a3b16e07647b2ff9","5f60e9f0cc1021000b90b791","false","null","<span style=""color: black; font-size: 48px"">M + N</span>","null","","","","resp_prompt","","","","","","","","","","","","","","","",""
"categorize-image","15","331224","0.0-2.0-2.0-1.2","njqacn2gndn9jdo","practice_no_cue","5af2f6c0c36b060001f80163","5f60e3c0a3b16e07647b2ff9","5f60e9f0cc1021000b90b791","true","1320.2650001039729","./Stimuli/ImagesPractice/LN17.jpg","76","","","","test","true","M + N","76","","LN","LN17.jpg","remember","old","3","1","start","right","","","",""
"html-keyboard-response","16","331941","0.0-2.0-2.0-0.3","njqacn2gndn9jdo","practice_no_cue","5af2f6c0c36b060001f80163","5f60e3c0a3b16e07647b2ff9","5f60e9f0cc1021000b90b791","false","null","<span style=""color: black; font-size: 48px"">N + M</span>","null","","","","resp_prompt","","","","","","","","","","","","","","","",""
"categorize-image","17","333319","0.0-2.0-2.0-1.3","njqacn2gndn9jdo","practice_no_cue","5af2f6c0c36b060001f80163","5f60e3c0a3b16e07647b2ff9","5f60e9f0cc1021000b90b791","true","861.5500000305474","./Stimuli/ImagesPractice/LN109.jpg","76","","","","test","false","N + M","83","","LN","LN109.jpg","forget","old","4","1","start","right","","","",""
"html-keyboard-response","18","334023","0.0-2.0-2.0-0.4","njqacn2gndn9jdo","practice_no_cue","5af2f6c0c36b060001f80163","5f60e3c0a3b16e07647b2ff9","5f60e9f0cc1021000b90b791","false","null","<span style=""color: black; font-size: 48px"">M + N</span>","null","","","","resp_prompt","","","","","","","","","","","","","","","",""
"categorize-image","19","335420","0.0-2.0-2.0-1.4","njqacn2gndn9jdo","practice_no_cue","5af2f6c0c36b060001f80163","5f60e3c0a3b16e07647b2ff9","5f60e9f0cc1021000b90b791","true","888.6150000616908","./Stimuli/ImagesPractice/LM230.jpg","76","","","","test","false","M + N","83","","LM","LM230.jpg","remember","old","5","1","start","right","","","",""
"html-keyboard-response","20","336133","0.0-2.0-2.0-0.5","njqacn2gndn9jdo","practice_no_cue","5af2f6c0c36b060001f80163","5f60e3c0a3b16e07647b2ff9","5f60e9f0cc1021000b90b791","false","null","<span style=""color: black; font-size: 48px"">M + N</span>","null","","","","resp_prompt","","","","","","","","","","","","","","","",""
"categorize-image","21","337614","0.0-2.0-2.0-1.5","njqacn2gndn9jdo","practice_no_cue","5af2f6c0c36b060001f80163","5f60e3c0a3b16e07647b2ff9","5f60e9f0cc1021000b90b791","true","965.2200000127777","./Stimuli/ImagesPractice/LN72.jpg","76","","","","test","true","M + N","76","","LN","LN72.jpg","forget","old","6","1","start","right","","","",""
"html-keyboard-response","22","338318","0.0-2.0-2.0-0.6","njqacn2gndn9jdo","practice_no_cue","5af2f6c0c36b060001f80163","5f60e3c0a3b16e07647b2ff9","5f60e9f0cc1021000b90b791","false","null","<span style=""color: black; font-size: 48px"">M + N</span>","null","","","","resp_prompt","","","","","","","","","","","","","","","",""
"categorize-image","23","340169","0.0-2.0-2.0-1.6","njqacn2gndn9jdo","practice_no_cue","5af2f6c0c36b060001f80163","5f60e3c0a3b16e07647b2ff9","5f60e9f0cc1021000b90b791","true","1347.5950000574812","./Stimuli/ImagesPractice/SN205.jpg","76","","","","test","true","M + N","76","","SN","SN205.jpg","forget","old","7","1","start","right","","","",""
"html-keyboard-response","24","340889","0.0-2.0-2.0-0.7","njqacn2gndn9jdo","practice_no_cue","5af2f6c0c36b060001f80163","5f60e3c0a3b16e07647b2ff9","5f60e9f0cc1021000b90b791","false","null","<span style=""color: black; font-size: 48px"">N + M</span>","null","","","","resp_prompt","","","","","","","","","","","","","","","",""
"categorize-image","25","342854","0.0-2.0-2.0-1.7","njqacn2gndn9jdo","practice_no_cue","5af2f6c0c36b060001f80163","5f60e3c0a3b16e07647b2ff9","5f60e9f0cc1021000b90b791","true","1451.9950000103563","./Stimuli/ImagesPractice/SM61.jpg","83","","","","test","false","N + M","76","","SM","SM61.jpg","remember","old","8","1","start","left","","","",""
"html-keyboard-response","26","343571","0.0-2.0-2.0-0.8","njqacn2gndn9jdo","practice_no_cue","5af2f6c0c36b060001f80163","5f60e3c0a3b16e07647b2ff9","5f60e9f0cc1021000b90b791","false","null","<span style=""color: black; font-size: 48px"">N + M</span>","null","","","","resp_prompt","","","","","","","","","","","","","","","",""
"categorize-image","27","345386","0.0-2.0-2.0-1.8","njqacn2gndn9jdo","practice_no_cue","5af2f6c0c36b060001f80163","5f60e3c0a3b16e07647b2ff9","5f60e9f0cc1021000b90b791","true","1306.334999972023","./Stimuli/ImagesPractice/LN4.jpg","83","","","","test","true","N + M","83","","LN","LN4.jpg","forget","old","9","1","start","left","","","",""
"html-keyboard-response","28","346090","0.0-2.0-2.0-0.9","njqacn2gndn9jdo","practice_no_cue","5af2f6c0c36b060001f80163","5f60e3c0a3b16e07647b2ff9","5f60e9f0cc1021000b90b791","false","null","<span style=""color: black; font-size: 48px"">N + M</span>","null","","","","resp_prompt","","","","","","","","","","","","","","","",""
"categorize-image","29","347493","0.0-2.0-2.0-1.9","njqacn2gndn9jdo","practice_no_cue","5af2f6c0c36b060001f80163","5f60e3c0a3b16e07647b2ff9","5f60e9f0cc1021000b90b791","true","899.5499999728054","./Stimuli/ImagesPractice/SM37.jpg","76","","","","test","true","N + M","76","","SM","SM37.jpg","remember","old","10","1","start","right","","","",""
"html-keyboard-response","30","348203","0.0-2.0-2.0-0.10","njqacn2gndn9jdo","practice_no_cue","5af2f6c0c36b060001f80163","5f60e3c0a3b16e07647b2ff9","5f60e9f0cc1021000b90b791","false","null","<span style=""color: black; font-size: 48px"">M + N</span>","null","","","","resp_prompt","","","","","","","","","","","","","","","",""
"categorize-image","31","349613","0.0-2.0-2.0-1.10","njqacn2gndn9jdo","practice_no_cue","5af2f6c0c36b060001f80163","5f60e3c0a3b16e07647b2ff9","5f60e9f0cc1021000b90b791","true","907.9200000269338","./Stimuli/ImagesPractice/LM224.jpg","83","","","","test","true","M + N","83","","LM","LM224.jpg","forget","old","11","1","start","left","","","",""
"html-keyboard-response","32","350317","0.0-2.0-2.0-0.11","njqacn2gndn9jdo","practice_no_cue","5af2f6c0c36b060001f80163","5f60e3c0a3b16e07647b2ff9","5f60e9f0cc1021000b90b791","false","null","<span style=""color: black; font-size: 48px"">N + M</span>","null","","","","resp_prompt","","","","","","","","","","","","","","","",""
"categorize-image","33","351726","0.0-2.0-2.0-1.11","njqacn2gndn9jdo","practice_no_cue","5af2f6c0c36b060001f80163","5f60e3c0a3b16e07647b2ff9","5f60e9f0cc1021000b90b791","true","890.4499999480322","./Stimuli/ImagesPractice/LM55.jpg","76","","","","test","true","N + M","76","","LM","LM55.jpg","forget","old","12","1","start","right","","","",""
"html-keyboard-response","34","352430","0.0-2.0-2.0-0.12","njqacn2gndn9jdo","practice_no_cue","5af2f6c0c36b060001f80163","5f60e3c0a3b16e07647b2ff9","5f60e9f0cc1021000b90b791","false","null","<span style=""color: black; font-size: 48px"">M + N</span>","null","","","","resp_prompt","","","","","","","","","","","","","","","",""
"categorize-image","35","353673","0.0-2.0-2.0-1.12","njqacn2gndn9jdo","practice_no_cue","5af2f6c0c36b060001f80163","5f60e3c0a3b16e07647b2ff9","5f60e9f0cc1021000b90b791","true","729.1750001022592","./Stimuli/ImagesPractice/LM143.jpg","76","","","","test","false","M + N","83","","LM","LM143.jpg","forget","old","13","1","start","right","","","",""
"html-keyboard-response","36","354388","0.0-2.0-2.0-0.13","njqacn2gndn9jdo","practice_no_cue","5af2f6c0c36b060001f80163","5f60e3c0a3b16e07647b2ff9","5f60e9f0cc1021000b90b791","false","null","<span style=""color: black; font-size: 48px"">M + N</span>","null","","","","resp_prompt","","","","","","","","","","","","","","","",""
"categorize-image","37","355748","0.0-2.0-2.0-1.13","njqacn2gndn9jdo","practice_no_cue","5af2f6c0c36b060001f80163","5f60e3c0a3b16e07647b2ff9","5f60e9f0cc1021000b90b791","true","848.8549999892712","./Stimuli/ImagesPractice/SN222.jpg","83","","","","test","false","M + N","76","","SN","SN222.jpg","remember","old","14","1","start","left","","","",""
"html-keyboard-response","38","356451","0.0-2.0-2.0-0.14","njqacn2gndn9jdo","practice_no_cue","5af2f6c0c36b060001f80163","5f60e3c0a3b16e07647b2ff9","5f60e9f0cc1021000b90b791","false","null","<span style=""color: black; font-size: 48px"">M + N</span>","null","","","","resp_prompt","","","","","","","","","","","","","","","",""
"categorize-image","39","358718","0.0-2.0-2.0-1.14","njqacn2gndn9jdo","practice_no_cue","5af2f6c0c36b060001f80163","5f60e3c0a3b16e07647b2ff9","5f60e9f0cc1021000b90b791","true","1751.1149999918416","./Stimuli/ImagesPractice/LM239.jpg","76","","","","test","false","M + N","83","","LM","LM239.jpg","remember","old","15","1","start","right","","","",""
"html-keyboard-response","40","359434","0.0-2.0-2.0-0.15","njqacn2gndn9jdo","practice_no_cue","5af2f6c0c36b060001f80163","5f60e3c0a3b16e07647b2ff9","5f60e9f0cc1021000b90b791","false","null","<span style=""color: black; font-size: 48px"">N + M</span>","null","","","","resp_prompt","","","","","","","","","","","","","","","",""
"categorize-image","41","360973","0.0-2.0-2.0-1.15","njqacn2gndn9jdo","practice_no_cue","5af2f6c0c36b060001f80163","5f60e3c0a3b16e07647b2ff9","5f60e9f0cc1021000b90b791","true","1033.7699999799952","./Stimuli/ImagesPractice/LN2.jpg","83","","","","test","true","N + M","83","","LN","LN2.jpg","remember","old","16","1","start","left","","","",""
"html-keyboard-response","42","367387","0.0-2.0-3.0","njqacn2gndn9jdo","break","5af2f6c0c36b060001f80163","5f60e3c0a3b16e07647b2ff9","5f60e9f0cc1021000b90b791","false","6409.044999978505","<p style='font-size: 32px;'>Break</><br><br><br><br><br><p style='font-size: 24px;'>In the last block, you committed 6 errors and did not respond in time on 0 trials.
</p><p style='font-size: 24px;'>Try to respond as fast and accurately as possible in the next block as well! </p><p style='font-size: 24px;'>Press SPACE to continue.</p>","32","","","","","","","","","","","","","","","","","","","",""
"html-keyboard-response","43","370481","0.0-2.0-4.0","njqacn2gndn9jdo","instructions","5af2f6c0c36b060001f80163","5f60e3c0a3b16e07647b2ff9","5f60e9f0cc1021000b90b791","false","3090.1900000171736","<div align=left> Great!<br><br>Are you ready to continue?<br><br>If you want to reread the instructions and redo the practice trials, <br>please press „Z“. <br><br>Press SPACE to CONTINUE with the experiment when you are ready. </div>","32","","","","","","","","","","","","","","","","","","","",""
"html-keyboard-response","44","394072","0.0-3.0-0.0","njqacn2gndn9jdo","instructions","5af2f6c0c36b060001f80163","5f60e3c0a3b16e07647b2ff9","5f60e9f0cc1021000b90b791","false","23586.390000069514","<div align=left>Great!<br> <strong>Attention</strong>! You will now receive a second, additional task! <br><br>To this point it was you <strong>first task</strong> to correctly <strong>classify objects</strong>. <br><br>As mentioned in the beginning, we aim to examine how well humans can remember previously learned information.<br>We would like to find out whether our memory improves if we only remember information that is relevant to us. <br><br>Therefore, your <strong>second task</strong> will be to <strong>remember</strong> the pictures you are to categorize. <br> After the learning phase, there will be a memory test phase, in which you will be asked to indicate whether you have seen a picture before or not. <br>Some, but not all pictures shown in the learning phase will appear in the memory test phase.<br>After classifying a picture, you will be told whether you should remember it for the memory test phase or not. <br>Thus, some pictures can be forgotten, whereas others have to be remembered. <br><br>Note: From now on, feedback will only be displayed if you responded incorrectly or not in time.<br><br>Press SPACE to continue.</div>","32","","","","","","","","","","","","","","","","","","","",""
"html-keyboard-response","45","402777","0.0-3.0-1.0","njqacn2gndn9jdo","instructions","5af2f6c0c36b060001f80163","5f60e3c0a3b16e07647b2ff9","5f60e9f0cc1021000b90b791","false","8702.735000057146","<div align=left>In the following part, you will thus have to remember only some pictures. <br>Immediately after seeing and classifying the picture, a symbol will be displayed, indicating whether you should remember or forget the previous picture. <br><br>A <span style='color: dodgerblue; font-size: 28px'>O</span> indicates REMEMBER. That means, you have to remember this picture, because it will be tested later. <br><br>A <span style='color: darkorange; font-size:28px'>Ø</span> indicates FORGET. You do not have to remember this picture. <br><br> As you will have to remember a lot of pictures, it will be hard for you to remember all of them. <br>It will put you at an advantage if you instantly forget the pictures you are not asked to remember. <br> This will make it easier for you to remember the pictures that will be tested afterwards. <br><br>Press SPACE to continue.</div>","32","","","","","","","","","","","","","","","","","","","",""
"html-keyboard-response","46","406149","0.0-3.0-2.0","njqacn2gndn9jdo","instructions","5af2f6c0c36b060001f80163","5f60e3c0a3b16e07647b2ff9","5f60e9f0cc1021000b90b791","false","3369.564999942668","<div align=left> Now you have the chance to practice both tasks together.<br><br>Remember: <br> <br><li>Please place your index fingers on the <strong>'S'</strong> and <strong>'L'</strong> keys <br>to respond as fast and accurately as possible.</li><li>Every picture can be classified as either mechanical or non-mechanical.</li><li>If you do not respond in time or commit an error, you will receive a corresponding feedback. <br>Please try to respond as <strong> fast </strong> and as <strong> accurately as possible </strong>.</li><li> Please remember only the to-be-remembered <span style='color: dodgerblue; font-size: 28px'>O</span> pictures. <br></li><li> Please minimize distractions and stay focused. </li><br><br>Press SPACE to START</div>","32","","","","","","","","","","","","","","","","","","","",""
"html-keyboard-response","47","406861","0.0-3.0-3.0-0.0","njqacn2gndn9jdo","practice_cue","5af2f6c0c36b060001f80163","5f60e3c0a3b16e07647b2ff9","5f60e9f0cc1021000b90b791","false","null","<span style=""color: black; font-size: 48px"">N + M</span>","null","","","","resp_prompt","","","","","","","","","","","","","","","",""
"categorize-image","48","407644","0.0-3.0-3.0-1.0","njqacn2gndn9jdo","practice_cue","5af2f6c0c36b060001f80163","5f60e3c0a3b16e07647b2ff9","5f60e9f0cc1021000b90b791","true","775.5250000627711","./Stimuli/ImagesPractice/LM147.jpg","76","","","","test","true","N + M","76","","LM","LM147.jpg","forget","old","17","2","practice_forget","right","","","",""
"html-keyboard-response","49","409653","0.0-3.0-3.0-3.0","njqacn2gndn9jdo","practice_cue","5af2f6c0c36b060001f80163","5f60e3c0a3b16e07647b2ff9","5f60e9f0cc1021000b90b791","false","null","<div style=""align-items: center; display: flex; color: darkorange; font-size: 90px""><b>ø</b></div>","null","","","","forget_cue","","","","","","","","","","","","","","","",""
"html-keyboard-response","50","410370","0.0-3.0-3.0-0.1","njqacn2gndn9jdo","practice_cue","5af2f6c0c36b060001f80163","5f60e3c0a3b16e07647b2ff9","5f60e9f0cc1021000b90b791","false","null","<span style=""color: black; font-size: 48px"">M + N</span>","null","","","","resp_prompt","","","","","","","","","","","","","","","",""
"categorize-image","51","411166","0.0-3.0-3.0-1.1","njqacn2gndn9jdo","practice_cue","5af2f6c0c36b060001f80163","5f60e3c0a3b16e07647b2ff9","5f60e9f0cc1021000b90b791","true","789.7399999201298","./Stimuli/ImagesPractice/LN17.jpg","83","","","","test","false","M + N","76","","LN","LN17.jpg","remember","old","18","2","practice_forget","left","","","",""
"html-keyboard-response","52","411668","0.0-3.0-3.0-2.1-0.1","njqacn2gndn9jdo","practice_cue","5af2f6c0c36b060001f80163","5f60e3c0a3b16e07647b2ff9","5f60e9f0cc1021000b90b791","false","null","<span style=""color: red; font-size: 48px"">Error!</span>","null","","","","feedback","","","","","","","","","","","","","","","",""
"html-keyboard-response","53","413673","0.0-3.0-3.0-3.1","njqacn2gndn9jdo","practice_cue","5af2f6c0c36b060001f80163","5f60e3c0a3b16e07647b2ff9","5f60e9f0cc1021000b90b791","false","null","<div style=""align-items: center; display: flex; color: dodgerblue; font-size: 90px""><b>o</b></div>","null","","","","forget_cue","","","","","","","","","","","","","","","",""
"html-keyboard-response","54","414389","0.0-3.0-3.0-0.2","njqacn2gndn9jdo","practice_cue","5af2f6c0c36b060001f80163","5f60e3c0a3b16e07647b2ff9","5f60e9f0cc1021000b90b791","false","null","<span style=""color: black; font-size: 48px"">N + M</span>","null","","","","resp_prompt","","","","","","","","","","","","","","","",""
"categorize-image","55","415487","0.0-3.0-3.0-1.2","njqacn2gndn9jdo","practice_cue","5af2f6c0c36b060001f80163","5f60e3c0a3b16e07647b2ff9","5f60e9f0cc1021000b90b791","true","1090.250000008382","./Stimuli/ImagesPractice/LN2.jpg","83","","","","test","true","N + M","83","","LN","LN2.jpg","remember","old","19","2","practice_forget","left","","","",""
"html-keyboard-response","56","417504","0.0-3.0-3.0-3.2","njqacn2gndn9jdo","practice_cue","5af2f6c0c36b060001f80163","5f60e3c0a3b16e07647b2ff9","5f60e9f0cc1021000b90b791","false","null","<div style=""align-items: center; display: flex; color: dodgerblue; font-size: 90px""><b>o</b></div>","null","","","","forget_cue","","","","","","","","","","","","","","","",""
"html-keyboard-response","57","418207","0.0-3.0-3.0-0.3","njqacn2gndn9jdo","practice_cue","5af2f6c0c36b060001f80163","5f60e3c0a3b16e07647b2ff9","5f60e9f0cc1021000b90b791","false","null","<span style=""color: black; font-size: 48px"">M + N</span>","null","","","","resp_prompt","","","","","","","","","","","","","","","",""
"categorize-image","58","419127","0.0-3.0-3.0-1.3","njqacn2gndn9jdo","practice_cue","5af2f6c0c36b060001f80163","5f60e3c0a3b16e07647b2ff9","5f60e9f0cc1021000b90b791","true","912.709999945946","./Stimuli/ImagesPractice/SN222.jpg","76","","","","test","true","M + N","76","","SN","SN222.jpg","remember","old","20","2","practice_forget","right","","","",""
"html-keyboard-response","59","421134","0.0-3.0-3.0-3.3","njqacn2gndn9jdo","practice_cue","5af2f6c0c36b060001f80163","5f60e3c0a3b16e07647b2ff9","5f60e9f0cc1021000b90b791","false","null","<div style=""align-items: center; display: flex; color: dodgerblue; font-size: 90px""><b>o</b></div>","null","","","","forget_cue","","","","","","","","","","","","","","","",""
"html-keyboard-response","60","421842","0.0-3.0-3.0-0.4","njqacn2gndn9jdo","practice_cue","5af2f6c0c36b060001f80163","5f60e3c0a3b16e07647b2ff9","5f60e9f0cc1021000b90b791","false","null","<span style=""color: black; font-size: 48px"">N + M</span>","null","","","","resp_prompt","","","","","","","","","","","","","","","",""
"categorize-image","61","423576","0.0-3.0-3.0-1.4","njqacn2gndn9jdo","practice_cue","5af2f6c0c36b060001f80163","5f60e3c0a3b16e07647b2ff9","5f60e9f0cc1021000b90b791","true","1726.7850000644103","./Stimuli/ImagesPractice/SM61.jpg","83","","","","test","false","N + M","76","","SM","SM61.jpg","remember","old","21","2","practice_forget","left","","","",""
"html-keyboard-response","62","424090","0.0-3.0-3.0-2.4-0.4","njqacn2gndn9jdo","practice_cue","5af2f6c0c36b060001f80163","5f60e3c0a3b16e07647b2ff9","5f60e9f0cc1021000b90b791","false","null","<span style=""color: red; font-size: 48px"">Error!</span>","null","","","","feedback","","","","","","","","","","","","","","","",""
"html-keyboard-response","63","426093","0.0-3.0-3.0-3.4","njqacn2gndn9jdo","practice_cue","5af2f6c0c36b060001f80163","5f60e3c0a3b16e07647b2ff9","5f60e9f0cc1021000b90b791","false","null","<div style=""align-items: center; display: flex; color: dodgerblue; font-size: 90px""><b>o</b></div>","null","","","","forget_cue","","","","","","","","","","","","","","","",""
"html-keyboard-response","64","426810","0.0-3.0-3.0-0.5","njqacn2gndn9jdo","practice_cue","5af2f6c0c36b060001f80163","5f60e3c0a3b16e07647b2ff9","5f60e9f0cc1021000b90b791","false","null","<span style=""color: black; font-size: 48px"">M + N</span>","null","","","","resp_prompt","","","","","","","","","","","","","","","",""
"categorize-image","65","427597","0.0-3.0-3.0-1.5","njqacn2gndn9jdo","practice_cue","5af2f6c0c36b060001f80163","5f60e3c0a3b16e07647b2ff9","5f60e9f0cc1021000b90b791","true","779.4199999189004","./Stimuli/ImagesPractice/LN72.jpg","83","","","","test","false","M + N","76","","LN","LN72.jpg","forget","old","22","2","practice_forget","left","","","",""
"html-keyboard-response","66","428106","0.0-3.0-3.0-2.5-0.5","njqacn2gndn9jdo","practice_cue","5af2f6c0c36b060001f80163","5f60e3c0a3b16e07647b2ff9","5f60e9f0cc1021000b90b791","false","null","<span style=""color: red; font-size: 48px"">Error!</span>","null","","","","feedback","","","","","","","","","","","","","","","",""
"html-keyboard-response","67","430117","0.0-3.0-3.0-3.5","njqacn2gndn9jdo","practice_cue","5af2f6c0c36b060001f80163","5f60e3c0a3b16e07647b2ff9","5f60e9f0cc1021000b90b791","false","null","<div style=""align-items: center; display: flex; color: darkorange; font-size: 90px""><b>ø</b></div>","null","","","","forget_cue","","","","","","","","","","","","","","","",""
"html-keyboard-response","68","430832","0.0-3.0-3.0-0.6","njqacn2gndn9jdo","practice_cue","5af2f6c0c36b060001f80163","5f60e3c0a3b16e07647b2ff9","5f60e9f0cc1021000b90b791","false","null","<span style=""color: black; font-size: 48px"">N + M</span>","null","","","","resp_prompt","","","","","","","","","","","","","","","",""
"categorize-image","69","431688","0.0-3.0-3.0-1.6","njqacn2gndn9jdo","practice_cue","5af2f6c0c36b060001f80163","5f60e3c0a3b16e07647b2ff9","5f60e9f0cc1021000b90b791","true","848.1949999695644","./Stimuli/ImagesPractice/LM55.jpg","76","","","","test","true","N + M","76","","LM","LM55.jpg","forget","old","23","2","practice_forget","right","","","",""
"html-keyboard-response","70","433698","0.0-3.0-3.0-3.6","njqacn2gndn9jdo","practice_cue","5af2f6c0c36b060001f80163","5f60e3c0a3b16e07647b2ff9","5f60e9f0cc1021000b90b791","false","null","<div style=""align-items: center; display: flex; color: darkorange; font-size: 90px""><b>ø</b></div>","null","","","","forget_cue","","","","","","","","","","","","","","","",""
"html-keyboard-response","71","434410","0.0-3.0-3.0-0.7","njqacn2gndn9jdo","practice_cue","5af2f6c0c36b060001f80163","5f60e3c0a3b16e07647b2ff9","5f60e9f0cc1021000b90b791","false","null","<span style=""color: black; font-size: 48px"">N + M</span>","null","","","","resp_prompt","","","","","","","","","","","","","","","",""
"categorize-image","72","436422","0.0-3.0-3.0-1.7","njqacn2gndn9jdo","practice_cue","5af2f6c0c36b060001f80163","5f60e3c0a3b16e07647b2ff9","5f60e9f0cc1021000b90b791","true","null","./Stimuli/ImagesPractice/SM37.jpg","null","","","","test","false","N + M","76","","SM","SM37.jpg","remember","old","24","2","practice_forget","too_slow","","","",""
"html-keyboard-response","73","436926","0.0-3.0-3.0-2.7-0.7","njqacn2gndn9jdo","practice_cue","5af2f6c0c36b060001f80163","5f60e3c0a3b16e07647b2ff9","5f60e9f0cc1021000b90b791","false","null","<span style=""color: red; font-size: 48px"">Too slow!</span>","null","","","","feedback","","","","","","","","","","","","","","","",""
"html-keyboard-response","74","438931","0.0-3.0-3.0-3.7","njqacn2gndn9jdo","practice_cue","5af2f6c0c36b060001f80163","5f60e3c0a3b16e07647b2ff9","5f60e9f0cc1021000b90b791","false","null","<div style=""align-items: center; display: flex; color: dodgerblue; font-size: 90px""><b>o</b></div>","null","","","","forget_cue","","","","","","","","","","","","","","","",""
"html-keyboard-response","75","439647","0.0-3.0-3.0-0.8","njqacn2gndn9jdo","practice_cue","5af2f6c0c36b060001f80163","5f60e3c0a3b16e07647b2ff9","5f60e9f0cc1021000b90b791","false","null","<span style=""color: black; font-size: 48px"">M + N</span>","null","","","","resp_prompt","","","","","","","","","","","","","","","",""
"categorize-image","76","440832","0.0-3.0-3.0-1.8","njqacn2gndn9jdo","practice_cue","5af2f6c0c36b060001f80163","5f60e3c0a3b16e07647b2ff9","5f60e9f0cc1021000b90b791","true","1177.4250000016764","./Stimuli/ImagesPractice/LM224.jpg","83","","","","test","true","M + N","83","","LM","LM224.jpg","forget","old","25","2","practice_forget","left","","","",""
"html-keyboard-response","77","442837","0.0-3.0-3.0-3.8","njqacn2gndn9jdo","practice_cue","5af2f6c0c36b060001f80163","5f60e3c0a3b16e07647b2ff9","5f60e9f0cc1021000b90b791","false","null","<div style=""align-items: center; display: flex; color: darkorange; font-size: 90px""><b>ø</b></div>","null","","","","forget_cue","","","","","","","","","","","","","","","",""
"html-keyboard-response","78","443553","0.0-3.0-3.0-0.9","njqacn2gndn9jdo","practice_cue","5af2f6c0c36b060001f80163","5f60e3c0a3b16e07647b2ff9","5f60e9f0cc1021000b90b791","false","null","<span style=""color: black; font-size: 48px"">N + M</span>","null","","","","resp_prompt","","","","","","","","","","","","","","","",""
"categorize-image","79","444855","0.0-3.0-3.0-1.9","njqacn2gndn9jdo","practice_cue","5af2f6c0c36b060001f80163","5f60e3c0a3b16e07647b2ff9","5f60e9f0cc1021000b90b791","true","1294.289999990724","./Stimuli/ImagesPractice/LN109.jpg","83","","","","test","true","N + M","83","","LN","LN109.jpg","forget","old","26","2","practice_forget","left","","","",""
"html-keyboard-response","80","446868","0.0-3.0-3.0-3.9","njqacn2gndn9jdo","practice_cue","5af2f6c0c36b060001f80163","5f60e3c0a3b16e07647b2ff9","5f60e9f0cc1021000b90b791","false","null","<div style=""align-items: center; display: flex; color: darkorange; font-size: 90px""><b>ø</b></div>","null","","","","forget_cue","","","","","","","","","","","","","","","",""
"html-keyboard-response","81","447581","0.0-3.0-3.0-0.10","njqacn2gndn9jdo","practice_cue","5af2f6c0c36b060001f80163","5f60e3c0a3b16e07647b2ff9","5f60e9f0cc1021000b90b791","false","null","<span style=""color: black; font-size: 48px"">N + M</span>","null","","","","resp_prompt","","","","","","","","","","","","","","","",""
"categorize-image","82","448806","0.0-3.0-3.0-1.10","njqacn2gndn9jdo","practice_cue","5af2f6c0c36b060001f80163","5f60e3c0a3b16e07647b2ff9","5f60e9f0cc1021000b90b791","true","1217.0149999437854","./Stimuli/ImagesPractice/LN4.jpg","83","","","","test","true","N + M","83","","LN","LN4.jpg","forget","old","27","2","practice_forget","left","","","",""
"html-keyboard-response","83","450821","0.0-3.0-3.0-3.10","njqacn2gndn9jdo","practice_cue","5af2f6c0c36b060001f80163","5f60e3c0a3b16e07647b2ff9","5f60e9f0cc1021000b90b791","false","null","<div style=""align-items: center; display: flex; color: darkorange; font-size: 90px""><b>ø</b></div>","null","","","","forget_cue","","","","","","","","","","","","","","","",""
"html-keyboard-response","84","451538","0.0-3.0-3.0-0.11","njqacn2gndn9jdo","practice_cue","5af2f6c0c36b060001f80163","5f60e3c0a3b16e07647b2ff9","5f60e9f0cc1021000b90b791","false","null","<span style=""color: black; font-size: 48px"">M + N</span>","null","","","","resp_prompt","","","","","","","","","","","","","","","",""
"categorize-image","85","452988","0.0-3.0-3.0-1.11","njqacn2gndn9jdo","practice_cue","5af2f6c0c36b060001f80163","5f60e3c0a3b16e07647b2ff9","5f60e9f0cc1021000b90b791","true","1443.415000103414","./Stimuli/ImagesPractice/LM143.jpg","83","","","","test","true","M + N","83","","LM","LM143.jpg","forget","old","28","2","practice_forget","left","","","",""
"html-keyboard-response","86","454997","0.0-3.0-3.0-3.11","njqacn2gndn9jdo","practice_cue","5af2f6c0c36b060001f80163","5f60e3c0a3b16e07647b2ff9","5f60e9f0cc1021000b90b791","false","null","<div style=""align-items: center; display: flex; color: darkorange; font-size: 90px""><b>ø</b></div>","null","","","","forget_cue","","","","","","","","","","","","","","","",""
"html-keyboard-response","87","455712","0.0-3.0-3.0-0.12","njqacn2gndn9jdo","practice_cue","5af2f6c0c36b060001f80163","5f60e3c0a3b16e07647b2ff9","5f60e9f0cc1021000b90b791","false","null","<span style=""color: black; font-size: 48px"">N + M</span>","null","","","","resp_prompt","","","","","","","","","","","","","","","",""
"categorize-image","88","456840","0.0-3.0-3.0-1.12","njqacn2gndn9jdo","practice_cue","5af2f6c0c36b060001f80163","5f60e3c0a3b16e07647b2ff9","5f60e9f0cc1021000b90b791","true","1120.424999971874","./Stimuli/ImagesPractice/SM35.jpg","76","","","","test","true","N + M","76","","SM","SM35.jpg","remember","old","29","2","practice_forget","right","","","",""
"html-keyboard-response","89","458852","0.0-3.0-3.0-3.12","njqacn2gndn9jdo","practice_cue","5af2f6c0c36b060001f80163","5f60e3c0a3b16e07647b2ff9","5f60e9f0cc1021000b90b791","false","null","<div style=""align-items: center; display: flex; color: dodgerblue; font-size: 90px""><b>o</b></div>","null","","","","forget_cue","","","","","","","","","","","","","","","",""
"html-keyboard-response","90","459563","0.0-3.0-3.0-0.13","njqacn2gndn9jdo","practice_cue","5af2f6c0c36b060001f80163","5f60e3c0a3b16e07647b2ff9","5f60e9f0cc1021000b90b791","false","null","<span style=""color: black; font-size: 48px"">M + N</span>","null","","","","resp_prompt","","","","","","","","","","","","","","","",""
"categorize-image","91","460404","0.0-3.0-3.0-1.13","njqacn2gndn9jdo","practice_cue","5af2f6c0c36b060001f80163","5f60e3c0a3b16e07647b2ff9","5f60e9f0cc1021000b90b791","true","833.4399999585003","./Stimuli/ImagesPractice/LM239.jpg","76","","","","test","false","M + N","83","","LM","LM239.jpg","remember","old","30","2","practice_forget","right","","","",""
"html-keyboard-response","92","460917","0.0-3.0-3.0-2.13-0.13","njqacn2gndn9jdo","practice_cue","5af2f6c0c36b060001f80163","5f60e3c0a3b16e07647b2ff9","5f60e9f0cc1021000b90b791","false","null","<span style=""color: red; font-size: 48px"">Error!</span>","null","","","","feedback","","","","","","","","","","","","","","","",""
"html-keyboard-response","93","462920","0.0-3.0-3.0-3.13","njqacn2gndn9jdo","practice_cue","5af2f6c0c36b060001f80163","5f60e3c0a3b16e07647b2ff9","5f60e9f0cc1021000b90b791","false","null","<div style=""align-items: center; display: flex; color: dodgerblue; font-size: 90px""><b>o</b></div>","null","","","","forget_cue","","","","","","","","","","","","","","","",""
"html-keyboard-response","94","463633","0.0-3.0-3.0-0.14","njqacn2gndn9jdo","practice_cue","5af2f6c0c36b060001f80163","5f60e3c0a3b16e07647b2ff9","5f60e9f0cc1021000b90b791","false","null","<span style=""color: black; font-size: 48px"">M + N</span>","null","","","","resp_prompt","","","","","","","","","","","","","","","",""
"categorize-image","95","464394","0.0-3.0-3.0-1.14","njqacn2gndn9jdo","practice_cue","5af2f6c0c36b060001f80163","5f60e3c0a3b16e07647b2ff9","5f60e9f0cc1021000b90b791","true","753.2799999462441","./Stimuli/ImagesPractice/LM230.jpg","76","","","","test","false","M + N","83","","LM","LM230.jpg","remember","old","31","2","practice_forget","right","","","",""
"html-keyboard-response","96","464908","0.0-3.0-3.0-2.14-0.14","njqacn2gndn9jdo","practice_cue","5af2f6c0c36b060001f80163","5f60e3c0a3b16e07647b2ff9","5f60e9f0cc1021000b90b791","false","null","<span style=""color: red; font-size: 48px"">Error!</span>","null","","","","feedback","","","","","","","","","","","","","","","",""
"html-keyboard-response","97","466913","0.0-3.0-3.0-3.14","njqacn2gndn9jdo","practice_cue","5af2f6c0c36b060001f80163","5f60e3c0a3b16e07647b2ff9","5f60e9f0cc1021000b90b791","false","null","<div style=""align-items: center; display: flex; color: dodgerblue; font-size: 90px""><b>o</b></div>","null","","","","forget_cue","","","","","","","","","","","","","","","",""
"html-keyboard-response","98","467632","0.0-3.0-3.0-0.15","njqacn2gndn9jdo","practice_cue","5af2f6c0c36b060001f80163","5f60e3c0a3b16e07647b2ff9","5f60e9f0cc1021000b90b791","false","null","<span style=""color: black; font-size: 48px"">M + N</span>","null","","","","resp_prompt","","","","","","","","","","","","","","","",""
"categorize-image","99","469362","0.0-3.0-3.0-1.15","njqacn2gndn9jdo","practice_cue","5af2f6c0c36b060001f80163","5f60e3c0a3b16e07647b2ff9","5f60e9f0cc1021000b90b791","true","1722.6700000464916","./Stimuli/ImagesPractice/SN205.jpg","83","","","","test","false","M + N","76","","SN","SN205.jpg","forget","old","32","2","practice_forget","left","","","",""
"html-keyboard-response","100","469872","0.0-3.0-3.0-2.15-0.15","njqacn2gndn9jdo","practice_cue","5af2f6c0c36b060001f80163","5f60e3c0a3b16e07647b2ff9","5f60e9f0cc1021000b90b791","false","null","<span style=""color: red; font-size: 48px"">Error!</span>","null","","","","feedback","","","","","","","","","","","","","","","",""
"html-keyboard-response","101","471886","0.0-3.0-3.0-3.15","njqacn2gndn9jdo","practice_cue","5af2f6c0c36b060001f80163","5f60e3c0a3b16e07647b2ff9","5f60e9f0cc1021000b90b791","false","null","<div style=""align-items: center; display: flex; color: darkorange; font-size: 90px""><b>ø</b></div>","null","","","","forget_cue","","","","","","","","","","","","","","","",""
"html-keyboard-response","102","474056","0.0-3.0-4.0","njqacn2gndn9jdo","break","5af2f6c0c36b060001f80163","5f60e3c0a3b16e07647b2ff9","5f60e9f0cc1021000b90b791","false","2166.4700000546873","<p style='font-size: 32px;'>Break</><br><br><br><br><br><p style='font-size: 24px;'>In the last block, you committed 6 errors and did not respond in time on 1 trials.
</p><p style='font-size: 24px;'>Try to respond as fast and accurately as possible in the next block as well! </p><p style='font-size: 24px;'>Press SPACE to continue.</p>","32","","","","","","","","","","","","","","","","","","","",""
"html-keyboard-response","103","493805","0.0-3.0-5.0","njqacn2gndn9jdo","instructions","5af2f6c0c36b060001f80163","5f60e3c0a3b16e07647b2ff9","5f60e9f0cc1021000b90b791","false","19746.770000085235","<div align=left> Now, to practice, we kindly ask you to remember as many of the to-be-remembered pictures<br>of the previous learning phase as possible.<br><br>The pictures you were instructed to remember were the pictures followed by a <span style='color: dodgerblue; font-size: 28px'>O</span>.<br><br>In this memory test phase, you will also see some new pictures.<br>It is your task to remember whether you were presented with this specific picture in this study so far or not.<br>If you recognize an object (you have already seen it in this study), it is an OLD object. <br>If you do not recognize an object (you have NOT seen it in this study), it is a NEW object. <br><strong> Attention</strong>: As already mentioned, <span style='color: darkorange; font-size:28px'>Ø</span>-pictures will <strong>never</strong> appear in this memory test (neither as new objects). <br><br>Press SPACE to continue. </div>","32","","","","","","","","","","","","","","","","","","","",""
"html-keyboard-response","104","504833","0.0-3.0-6.0","njqacn2gndn9jdo","instructions","5af2f6c0c36b060001f80163","5f60e3c0a3b16e07647b2ff9","5f60e9f0cc1021000b90b791","false","11024.940000032075","<div align=left> M and N no longer will appear on the left/right of the fixation cross. <br>Instead there will be a note at the bottom of the left or right side  <br>indicating which key you should press for an old or new object:  <br> <br>Press the <strong>right</strong> key to classify an object as <strong>old</strong> and press the <strong>left</strong>, to classify an object as <strong>new</strong>.<br>Please classify the objects as new/old by again placing your index finger on the 'S' and 'L' keys <br>and press them accordingly.<br><br><strong>Old:</strong> This object has been presented before. <br><strong>New:</strong> This object has <strong>not</strong> been presented.<br><br>Now please put your right and left index fingers on the 'S' and 'L' keys of your keyboard. <br>Please respond as fast and as accurately as possible!<br><br>Press SPACE to continue. </div>","32","","","","","","","","","","","","","","","","","","","",""
"categorize-image","105","507510","0.0-3.0-7.0-0.0","njqacn2gndn9jdo","practice_recog","5af2f6c0c36b060001f80163","5f60e3c0a3b16e07647b2ff9","5f60e9f0cc1021000b90b791","true","2162.254999973811","./Stimuli/ImagesPractice/LN2.jpg","83","","","","test","true","","83","","LN","LN2.jpg","","old","33","3","practice_recog","left","","","",""
"categorize-image","106","509131","0.0-3.0-7.0-0.1","njqacn2gndn9jdo","practice_recog","5af2f6c0c36b060001f80163","5f60e3c0a3b16e07647b2ff9","5f60e9f0cc1021000b90b791","true","1101.8900000490248","./Stimuli/ImagesPractice/SN76.jpg","76","","","","test","true","","76","","SN","SN76.jpg","","new","34","3","practice_recog","right","","","",""
"categorize-image","107","511033","0.0-3.0-7.0-0.2","njqacn2gndn9jdo","practice_recog","5af2f6c0c36b060001f80163","5f60e3c0a3b16e07647b2ff9","5f60e9f0cc1021000b90b791","true","1384.639999945648","./Stimuli/ImagesPractice/SM35.jpg","83","","","","test","true","","83","","SM","SM35.jpg","","old","35","3","practice_recog","left","","","",""
"categorize-image","108","512453","0.0-3.0-7.0-0.3","njqacn2gndn9jdo","practice_recog","5af2f6c0c36b060001f80163","5f60e3c0a3b16e07647b2ff9","5f60e9f0cc1021000b90b791","true","916.4999999338761","./Stimuli/ImagesPractice/LN15.jpg","76","","","","test","true","","76","","LN","LN15.jpg","","new","36","3","practice_recog","right","","","",""
"categorize-image","109","513626","0.0-3.0-7.0-0.4","njqacn2gndn9jdo","practice_recog","5af2f6c0c36b060001f80163","5f60e3c0a3b16e07647b2ff9","5f60e9f0cc1021000b90b791","true","660.9549999702722","./Stimuli/ImagesPractice/SN222.jpg","83","","","","test","true","","83","","SN","SN222.jpg","","old","37","3","practice_recog","left","","","",""
"categorize-image","110","514741","0.0-3.0-7.0-0.5","njqacn2gndn9jdo","practice_recog","5af2f6c0c36b060001f80163","5f60e3c0a3b16e07647b2ff9","5f60e9f0cc1021000b90b791","true","602.0250000292435","./Stimuli/ImagesPractice/LM239.jpg","83","","","","test","true","","83","","LM","LM239.jpg","","old","38","3","practice_recog","left","","","",""
"categorize-image","111","515839","0.0-3.0-7.0-0.6","njqacn2gndn9jdo","practice_recog","5af2f6c0c36b060001f80163","5f60e3c0a3b16e07647b2ff9","5f60e9f0cc1021000b90b791","true","587.485000025481","./Stimuli/ImagesPractice/SN221.jpg","76","","","","test","true","","76","","SN","SN221.jpg","","new","39","3","practice_recog","right","","","",""
"categorize-image","112","517601","0.0-3.0-7.0-0.7","njqacn2gndn9jdo","practice_recog","5af2f6c0c36b060001f80163","5f60e3c0a3b16e07647b2ff9","5f60e9f0cc1021000b90b791","true","1238.6100000003353","./Stimuli/ImagesPractice/SM98.jpg","76","","","","test","true","","76","","SM","SM98.jpg","","new","40","3","practice_recog","right","","","",""
"categorize-image","113","518759","0.0-3.0-7.0-0.8","njqacn2gndn9jdo","practice_recog","5af2f6c0c36b060001f80163","5f60e3c0a3b16e07647b2ff9","5f60e9f0cc1021000b90b791","true","648.8099999260157","./Stimuli/ImagesPractice/SM97.jpg","76","","","","test","true","","76","","SM","SM97.jpg","","new","41","3","practice_recog","right","","","",""
"categorize-image","114","519908","0.0-3.0-7.0-0.9","njqacn2gndn9jdo","practice_recog","5af2f6c0c36b060001f80163","5f60e3c0a3b16e07647b2ff9","5f60e9f0cc1021000b90b791","true","640.1699999114498","./Stimuli/ImagesPractice/SN75.jpg","76","","","","test","true","","76","","SN","SN75.jpg","","new","42","3","practice_recog","right","","","",""
"categorize-image","115","521012","0.0-3.0-7.0-0.10","njqacn2gndn9jdo","practice_recog","5af2f6c0c36b060001f80163","5f60e3c0a3b16e07647b2ff9","5f60e9f0cc1021000b90b791","true","594.0699999919161","./Stimuli/ImagesPractice/LM230.jpg","83","","","","test","true","","83","","LM","LM230.jpg","","old","43","3","practice_recog","left","","","",""
"categorize-image","116","523436","0.0-3.0-7.0-0.11","njqacn2gndn9jdo","practice_recog","5af2f6c0c36b060001f80163","5f60e3c0a3b16e07647b2ff9","5f60e9f0cc1021000b90b791","true","1919.8900000192225","./Stimuli/ImagesPractice/SM62.jpg","76","","","","test","true","","76","","SM","SM62.jpg","","new","44","3","practice_recog","right","","","",""
"categorize-image","117","524564","0.0-3.0-7.0-0.12","njqacn2gndn9jdo","practice_recog","5af2f6c0c36b060001f80163","5f60e3c0a3b16e07647b2ff9","5f60e9f0cc1021000b90b791","true","621.2199999717996","./Stimuli/ImagesPractice/LN17.jpg","83","","","","test","true","","83","","LN","LN17.jpg","","old","45","3","practice_recog","left","","","",""
"categorize-image","118","525695","0.0-3.0-7.0-0.13","njqacn2gndn9jdo","practice_recog","5af2f6c0c36b060001f80163","5f60e3c0a3b16e07647b2ff9","5f60e9f0cc1021000b90b791","true","620.2000000048429","./Stimuli/ImagesPractice/SM37.jpg","83","","","","test","true","","83","","SM","SM37.jpg","","old","46","3","practice_recog","left","","","",""
"categorize-image","119","526900","0.0-3.0-7.0-0.14","njqacn2gndn9jdo","practice_recog","5af2f6c0c36b060001f80163","5f60e3c0a3b16e07647b2ff9","5f60e9f0cc1021000b90b791","true","694.8150000534952","./Stimuli/ImagesPractice/SN220.jpg","76","","","","test","true","","76","","SN","SN220.jpg","","new","47","3","practice_recog","right","","","",""
"categorize-image","120","528031","0.0-3.0-7.0-0.15","njqacn2gndn9jdo","practice_recog","5af2f6c0c36b060001f80163","5f60e3c0a3b16e07647b2ff9","5f60e9f0cc1021000b90b791","true","624.5050000725314","./Stimuli/ImagesPractice/SM61.jpg","83","","","","test","true","","83","","SM","SM61.jpg","","old","48","3","practice_recog","left","","","",""
"html-keyboard-response","121","531928","0.0-3.0-8.0","njqacn2gndn9jdo","instructions","5af2f6c0c36b060001f80163","5f60e3c0a3b16e07647b2ff9","5f60e9f0cc1021000b90b791","false","3893.4100000187755","<div align=left> Great!<br><br>Are you ready to continue?<br>If you want to reread the instructions and redo the practice trials, please <br>press „Z“.<br><br>You can proceed when you are ready.<br><br>After the presentation of each object, you will receive an instruction whether to <br>remember or to forget the object.<br>We will test your memory of the following pictures only at the very end of <br>the experiment after all learning blocks are completed. <br><br>Press SPACE to CONTINUE when you are ready. </div>","32","","","","","","","","","","","","","","","","","","","",""
"html-keyboard-response","122","534546","0.0-4.0-0.0","njqacn2gndn9jdo","instructions","5af2f6c0c36b060001f80163","5f60e3c0a3b16e07647b2ff9","5f60e9f0cc1021000b90b791","false","2614.904999965802","<div align=left> The actual experiment is about to start.<br>The practice trials are over!<br><br>Please always respond both fast and accurately!<br><br>Remember: <br> <br><li> Please place your index fingers on the <strong>'S'</strong> and <strong>'L'</strong> keys <br>to respond as fast and accurately as possible.</li><li> Every picture can be classified as either mechanical or non-mechanical.</li><li> If you do not respond in time or commit an error, you will receive a corresponding feedback.<br> Please try to respond as <strong> fast </strong> and as <strong> accurately as possible </strong>.</li><li> Remember the <span style='color: dodgerblue; font-size: 28px'>O</span> pictures. <br></li><li> Please minimize distractions and stay focused. </li><br><br>Press SPACE to START.</div>","32","","","","","","","","","","","","","","","","","","","",""
"html-keyboard-response","123","535255","0.0-4.0-1.0-0.0","njqacn2gndn9jdo","prime","5af2f6c0c36b060001f80163","5f60e3c0a3b16e07647b2ff9","5f60e9f0cc1021000b90b791","false","null","<span style=""color: black; font-size: 48px"">N + M</span>","null","","","","resp_prompt","","","","","","","","","","","","","","","",""
"categorize-image","124","536065","0.0-4.0-1.0-1.0","njqacn2gndn9jdo","prime","5af2f6c0c36b060001f80163","5f60e3c0a3b16e07647b2ff9","5f60e9f0cc1021000b90b791","true","803.1800000462681","./Stimuli/SelectedImages/SM/SM184.bmp","76","","","","test","true","N + M","76","switch","SM","SM184.bmp","remember","","49","3","prime1","right","","","",""
"html-keyboard-response","125","538071","0.0-4.0-1.0-3.0","njqacn2gndn9jdo","prime","5af2f6c0c36b060001f80163","5f60e3c0a3b16e07647b2ff9","5f60e9f0cc1021000b90b791","false","null","<div style=""align-items: center; display: flex; color: dodgerblue; font-size: 90px""><b>o</b></div>","null","","","","forget_cue","","","","","","","","","","","","","","","",""
"html-keyboard-response","126","538774","0.0-4.0-1.0-0.1","njqacn2gndn9jdo","prime","5af2f6c0c36b060001f80163","5f60e3c0a3b16e07647b2ff9","5f60e9f0cc1021000b90b791","false","null","<span style=""color: black; font-size: 48px"">M + N</span>","null","","","","resp_prompt","","","","","","","","","","","","","","","",""
"categorize-image","127","539858","0.0-4.0-1.0-1.1","njqacn2gndn9jdo","prime","5af2f6c0c36b060001f80163","5f60e3c0a3b16e07647b2ff9","5f60e9f0cc1021000b90b791","true","1078.319999971427","./Stimuli/SelectedImages/SN/SN18.bmp","76","","","","test","true","M + N","76","switch","SN","SN18.bmp","forget","","50","3","prime1","right","","","",""
"html-keyboard-response","128","541865","0.0-4.0-1.0-3.1","njqacn2gndn9jdo","prime","5af2f6c0c36b060001f80163","5f60e3c0a3b16e07647b2ff9","5f60e9f0cc1021000b90b791","false","null","<div style=""align-items: center; display: flex; color: darkorange; font-size: 90px""><b>ø</b></div>","null","","","","forget_cue","","","","","","","","","","","","","","","",""
"html-keyboard-response","129","542574","0.0-4.0-1.0-0.2","njqacn2gndn9jdo","prime","5af2f6c0c36b060001f80163","5f60e3c0a3b16e07647b2ff9","5f60e9f0cc1021000b90b791","false","null","<span style=""color: black; font-size: 48px"">M + N</span>","null","","","","resp_prompt","","","","","","","","","","","","","","","",""
"categorize-image","130","543601","0.0-4.0-1.0-1.2","njqacn2gndn9jdo","prime","5af2f6c0c36b060001f80163","5f60e3c0a3b16e07647b2ff9","5f60e9f0cc1021000b90b791","true","1020.0750000076368","./Stimuli/SelectedImages/LM/LM216.bmp","83","","","","test","true","M + N","83","switch","LM","LM216.bmp","forget","","51","3","prime1","left","","","",""
"html-keyboard-response","131","545619","0.0-4.0-1.0-3.2","njqacn2gndn9jdo","prime","5af2f6c0c36b060001f80163","5f60e3c0a3b16e07647b2ff9","5f60e9f0cc1021000b90b791","false","null","<div style=""align-items: center; display: flex; color: darkorange; font-size: 90px""><b>ø</b></div>","null","","","","forget_cue","","","","","","","","","","","","","","","",""
"html-keyboard-response","132","546334","0.0-4.0-1.0-0.3","njqacn2gndn9jdo","prime","5af2f6c0c36b060001f80163","5f60e3c0a3b16e07647b2ff9","5f60e9f0cc1021000b90b791","false","null","<span style=""color: black; font-size: 48px"">N + M</span>","null","","","","resp_prompt","","","","","","","","","","","","","","","",""
"categorize-image","133","547475","0.0-4.0-1.0-1.3","njqacn2gndn9jdo","prime","5af2f6c0c36b060001f80163","5f60e3c0a3b16e07647b2ff9","5f60e9f0cc1021000b90b791","true","1134.0149999596179","./Stimuli/SelectedImages/SM/SM207.bmp","76","","","","test","true","N + M","76","switch","SM","SM207.bmp","forget","","52","3","prime1","right","","","",""
"html-keyboard-response","134","549486","0.0-4.0-1.0-3.3","njqacn2gndn9jdo","prime","5af2f6c0c36b060001f80163","5f60e3c0a3b16e07647b2ff9","5f60e9f0cc1021000b90b791","false","null","<div style=""align-items: center; display: flex; color: darkorange; font-size: 90px""><b>ø</b></div>","null","","","","forget_cue","","","","","","","","","","","","","","","",""
"html-keyboard-response","135","550201","0.0-4.0-1.0-0.4","njqacn2gndn9jdo","prime","5af2f6c0c36b060001f80163","5f60e3c0a3b16e07647b2ff9","5f60e9f0cc1021000b90b791","false","null","<span style=""color: black; font-size: 48px"">M + N</span>","null","","","","resp_prompt","","","","","","","","","","","","","","","",""
"categorize-image","136","550931","0.0-4.0-1.0-1.4","njqacn2gndn9jdo","prime","5af2f6c0c36b060001f80163","5f60e3c0a3b16e07647b2ff9","5f60e9f0cc1021000b90b791","true","723.1449999380857","./Stimuli/SelectedImages/LN/LN9.bmp","76","","","","test","true","M + N","76","switch","LN","LN9.bmp","forget","","53","3","prime1","right","","","",""
"html-keyboard-response","137","552942","0.0-4.0-1.0-3.4","njqacn2gndn9jdo","prime","5af2f6c0c36b060001f80163","5f60e3c0a3b16e07647b2ff9","5f60e9f0cc1021000b90b791","false","null","<div style=""align-items: center; display: flex; color: darkorange; font-size: 90px""><b>ø</b></div>","null","","","","forget_cue","","","","","","","","","","","","","","","",""
"html-keyboard-response","138","553657","0.0-4.0-1.0-0.5","njqacn2gndn9jdo","prime","5af2f6c0c36b060001f80163","5f60e3c0a3b16e07647b2ff9","5f60e9f0cc1021000b90b791","false","null","<span style=""color: black; font-size: 48px"">N + M</span>","null","","","","resp_prompt","","","","","","","","","","","","","","","",""
"categorize-image","139","555231","0.0-4.0-1.0-1.5","njqacn2gndn9jdo","prime","5af2f6c0c36b060001f80163","5f60e3c0a3b16e07647b2ff9","5f60e9f0cc1021000b90b791","true","1566.6699999710545","./Stimuli/SelectedImages/LN/LN12.bmp","83","","","","test","true","N + M","83","repetition","LN","LN12.bmp","forget","","54","3","prime1","left","","","",""
"html-keyboard-response","140","557247","0.0-4.0-1.0-3.5","njqacn2gndn9jdo","prime","5af2f6c0c36b060001f80163","5f60e3c0a3b16e07647b2ff9","5f60e9f0cc1021000b90b791","false","null","<div style=""align-items: center; display: flex; color: darkorange; font-size: 90px""><b>ø</b></div>","null","","","","forget_cue","","","","","","","","","","","","","","","",""
"html-keyboard-response","141","557959","0.0-4.0-1.0-0.6","njqacn2gndn9jdo","prime","5af2f6c0c36b060001f80163","5f60e3c0a3b16e07647b2ff9","5f60e9f0cc1021000b90b791","false","null","<span style=""color: black; font-size: 48px"">N + M</span>","null","","","","resp_prompt","","","","","","","","","","","","","","","",""
"categorize-image","142","559563","0.0-4.0-1.0-1.6","njqacn2gndn9jdo","prime","5af2f6c0c36b060001f80163","5f60e3c0a3b16e07647b2ff9","5f60e9f0cc1021000b90b791","true","1597.5999999791384","./Stimuli/SelectedImages/SM/SM108.bmp","76","","","","test","true","N + M","76","repetition","SM","SM108.bmp","forget","","55","3","prime1","right","","","",""
"html-keyboard-response","143","561568","0.0-4.0-1.0-3.6","njqacn2gndn9jdo","prime","5af2f6c0c36b060001f80163","5f60e3c0a3b16e07647b2ff9","5f60e9f0cc1021000b90b791","false","null","<div style=""align-items: center; display: flex; color: darkorange; font-size: 90px""><b>ø</b></div>","null","","","","forget_cue","","","","","","","","","","","","","","","",""
"html-keyboard-response","144","562285","0.0-4.0-1.0-0.7","njqacn2gndn9jdo","prime","5af2f6c0c36b060001f80163","5f60e3c0a3b16e07647b2ff9","5f60e9f0cc1021000b90b791","false","null","<span style=""color: black; font-size: 48px"">N + M</span>","null","","","","resp_prompt","","","","","","","","","","","","","","","",""
"categorize-image","145","562933","0.0-4.0-1.0-1.7","njqacn2gndn9jdo","prime","5af2f6c0c36b060001f80163","5f60e3c0a3b16e07647b2ff9","5f60e9f0cc1021000b90b791","true","641.1549999611452","./Stimuli/SelectedImages/SN/SN187.bmp","83","","","","test","true","N + M","83","repetition","SN","SN187.bmp","remember","","56","3","prime1","left","","","",""
"html-keyboard-response","146","564951","0.0-4.0-1.0-3.7","njqacn2gndn9jdo","prime","5af2f6c0c36b060001f80163","5f60e3c0a3b16e07647b2ff9","5f60e9f0cc1021000b90b791","false","null","<div style=""align-items: center; display: flex; color: dodgerblue; font-size: 90px""><b>o</b></div>","null","","","","forget_cue","","","","","","","","","","","","","","","",""
"html-keyboard-response","147","565664","0.0-4.0-1.0-0.8","njqacn2gndn9jdo","prime","5af2f6c0c36b060001f80163","5f60e3c0a3b16e07647b2ff9","5f60e9f0cc1021000b90b791","false","null","<span style=""color: black; font-size: 48px"">M + N</span>","null","","","","resp_prompt","","","","","","","","","","","","","","","",""
"categorize-image","148","566756","0.0-4.0-1.0-1.8","njqacn2gndn9jdo","prime","5af2f6c0c36b060001f80163","5f60e3c0a3b16e07647b2ff9","5f60e9f0cc1021000b90b791","true","1083.805000060238","./Stimuli/SelectedImages/SM/SM73.bmp","83","","","","test","true","M + N","83","repetition","SM","SM73.bmp","remember","","57","3","prime1","left","","","",""
"html-keyboard-response","149","568762","0.0-4.0-1.0-3.8","njqacn2gndn9jdo","prime","5af2f6c0c36b060001f80163","5f60e3c0a3b16e07647b2ff9","5f60e9f0cc1021000b90b791","false","null","<div style=""align-items: center; display: flex; color: dodgerblue; font-size: 90px""><b>o</b></div>","null","","","","forget_cue","","","","","","","","","","","","","","","",""
"html-keyboard-response","150","569477","0.0-4.0-1.0-0.9","njqacn2gndn9jdo","prime","5af2f6c0c36b060001f80163","5f60e3c0a3b16e07647b2ff9","5f60e9f0cc1021000b90b791","false","null","<span style=""color: black; font-size: 48px"">M + N</span>","null","","","","resp_prompt","","","","","","","","","","","","","","","",""
"categorize-image","151","570589","0.0-4.0-1.0-1.9","njqacn2gndn9jdo","prime","5af2f6c0c36b060001f80163","5f60e3c0a3b16e07647b2ff9","5f60e9f0cc1021000b90b791","true","1104.3800000334159","./Stimuli/SelectedImages/SM/SM205.bmp","83","","","","test","true","M + N","83","switch","SM","SM205.bmp","forget","","58","3","prime1","left","","","",""
"html-keyboard-response","152","572603","0.0-4.0-1.0-3.9","njqacn2gndn9jdo","prime","5af2f6c0c36b060001f80163","5f60e3c0a3b16e07647b2ff9","5f60e9f0cc1021000b90b791","false","null","<div style=""align-items: center; display: flex; color: darkorange; font-size: 90px""><b>ø</b></div>","null","","","","forget_cue","","","","","","","","","","","","","","","",""
"html-keyboard-response","153","573320","0.0-4.0-1.0-0.10","njqacn2gndn9jdo","prime","5af2f6c0c36b060001f80163","5f60e3c0a3b16e07647b2ff9","5f60e9f0cc1021000b90b791","false","null","<span style=""color: black; font-size: 48px"">N + M</span>","null","","","","resp_prompt","","","","","","","","","","","","","","","",""
"categorize-image","154","574075","0.0-4.0-1.0-1.10","njqacn2gndn9jdo","prime","5af2f6c0c36b060001f80163","5f60e3c0a3b16e07647b2ff9","5f60e9f0cc1021000b90b791","true","748.7899999832734","./Stimuli/SelectedImages/SN/SN49.bmp","83","","","","test","true","N + M","83","repetition","SN","SN49.bmp","forget","","59","3","prime1","left","","","",""
"html-keyboard-response","155","576083","0.0-4.0-1.0-3.10","njqacn2gndn9jdo","prime","5af2f6c0c36b060001f80163","5f60e3c0a3b16e07647b2ff9","5f60e9f0cc1021000b90b791","false","null","<div style=""align-items: center; display: flex; color: darkorange; font-size: 90px""><b>ø</b></div>","null","","","","forget_cue","","","","","","","","","","","","","","","",""
"html-keyboard-response","156","576799","0.0-4.0-1.0-0.11","njqacn2gndn9jdo","prime","5af2f6c0c36b060001f80163","5f60e3c0a3b16e07647b2ff9","5f60e9f0cc1021000b90b791","false","null","<span style=""color: black; font-size: 48px"">M + N</span>","null","","","","resp_prompt","","","","","","","","","","","","","","","",""
"categorize-image","157","577553","0.0-4.0-1.0-1.11","njqacn2gndn9jdo","prime","5af2f6c0c36b060001f80163","5f60e3c0a3b16e07647b2ff9","5f60e9f0cc1021000b90b791","true","747.3150000441819","./Stimuli/SelectedImages/LM/LM48.bmp","76","","","","test","false","M + N","83","switch","LM","LM48.bmp","remember","","60","3","prime1","right","","","",""
"html-keyboard-response","158","578070","0.0-4.0-1.0-2.11-0.11","njqacn2gndn9jdo","prime","5af2f6c0c36b060001f80163","5f60e3c0a3b16e07647b2ff9","5f60e9f0cc1021000b90b791","false","null","<span style=""color: red; font-size: 48px"">Error!</span>","null","","","","feedback","","","","","","","","","","","","","","","",""
"html-keyboard-response","159","580087","0.0-4.0-1.0-3.11","njqacn2gndn9jdo","prime","5af2f6c0c36b060001f80163","5f60e3c0a3b16e07647b2ff9","5f60e9f0cc1021000b90b791","false","null","<div style=""align-items: center; display: flex; color: dodgerblue; font-size: 90px""><b>o</b></div>","null","","","","forget_cue","","","","","","","","","","","","","","","",""
"html-keyboard-response","160","580795","0.0-4.0-1.0-0.12","njqacn2gndn9jdo","prime","5af2f6c0c36b060001f80163","5f60e3c0a3b16e07647b2ff9","5f60e9f0cc1021000b90b791","false","null","<span style=""color: black; font-size: 48px"">M + N</span>","null","","","","resp_prompt","","","","","","","","","","","","","","","",""
"categorize-image","161","581418","0.0-4.0-1.0-1.12","njqacn2gndn9jdo","prime","5af2f6c0c36b060001f80163","5f60e3c0a3b16e07647b2ff9","5f60e9f0cc1021000b90b791","true","615.019999910146","./Stimuli/SelectedImages/LM/LM150.bmp","83","","","","test","true","M + N","83","repetition","LM","LM150.bmp","forget","","61","3","prime1","left","","","",""
"html-keyboard-response","162","583435","0.0-4.0-1.0-3.12","njqacn2gndn9jdo","prime","5af2f6c0c36b060001f80163","5f60e3c0a3b16e07647b2ff9","5f60e9f0cc1021000b90b791","false","null","<div style=""align-items: center; display: flex; color: darkorange; font-size: 90px""><b>ø</b></div>","null","","","","forget_cue","","","","","","","","","","","","","","","",""
"html-keyboard-response","163","584148","0.0-4.0-1.0-0.13","njqacn2gndn9jdo","prime","5af2f6c0c36b060001f80163","5f60e3c0a3b16e07647b2ff9","5f60e9f0cc1021000b90b791","false","null","<span style=""color: black; font-size: 48px"">M + N</span>","null","","","","resp_prompt","","","","","","","","","","","","","","","",""
"categorize-image","164","585923","0.0-4.0-1.0-1.13","njqacn2gndn9jdo","prime","5af2f6c0c36b060001f80163","5f60e3c0a3b16e07647b2ff9","5f60e9f0cc1021000b90b791","true","1764.5100000081584","./Stimuli/SelectedImages/LM/LM157.bmp","83","","","","test","true","M + N","83","switch","LM","LM157.bmp","forget","","62","3","prime1","left","","","",""
"html-keyboard-response","165","587931","0.0-4.0-1.0-3.13","njqacn2gndn9jdo","prime","5af2f6c0c36b060001f80163","5f60e3c0a3b16e07647b2ff9","5f60e9f0cc1021000b90b791","false","null","<div style=""align-items: center; display: flex; color: darkorange; font-size: 90px""><b>ø</b></div>","null","","","","forget_cue","","","","","","","","","","","","","","","",""
"html-keyboard-response","166","588635","0.0-4.0-1.0-0.14","njqacn2gndn9jdo","prime","5af2f6c0c36b060001f80163","5f60e3c0a3b16e07647b2ff9","5f60e9f0cc1021000b90b791","false","null","<span style=""color: black; font-size: 48px"">N + M</span>","null","","","","resp_prompt","","","","","","","","","","","","","","","",""
"categorize-image","167","589229","0.0-4.0-1.0-1.14","njqacn2gndn9jdo","prime","5af2f6c0c36b060001f80163","5f60e3c0a3b16e07647b2ff9","5f60e9f0cc1021000b90b791","true","587.5350000569597","./Stimuli/SelectedImages/LM/LM75.bmp","76","","","","test","true","N + M","76","switch","LM","LM75.bmp","remember","","63","3","prime1","right","","","",""
"html-keyboard-response","168","591239","0.0-4.0-1.0-3.14","njqacn2gndn9jdo","prime","5af2f6c0c36b060001f80163","5f60e3c0a3b16e07647b2ff9","5f60e9f0cc1021000b90b791","false","null","<div style=""align-items: center; display: flex; color: dodgerblue; font-size: 90px""><b>o</b></div>","null","","","","forget_cue","","","","","","","","","","","","","","","",""
"html-keyboard-response","169","591943","0.0-4.0-1.0-0.15","njqacn2gndn9jdo","prime","5af2f6c0c36b060001f80163","5f60e3c0a3b16e07647b2ff9","5f60e9f0cc1021000b90b791","false","null","<span style=""color: black; font-size: 48px"">N + M</span>","null","","","","resp_prompt","","","","","","","","","","","","","","","",""
"categorize-image","170","592639","0.0-4.0-1.0-1.15","njqacn2gndn9jdo","prime","5af2f6c0c36b060001f80163","5f60e3c0a3b16e07647b2ff9","5f60e9f0cc1021000b90b791","true","689.1899999463931","./Stimuli/SelectedImages/LN/LN150.bmp","83","","","","test","true","N + M","83","repetition","LN","LN150.bmp","remember","","64","3","prime1","left","","","",""
"html-keyboard-response","171","594647","0.0-4.0-1.0-3.15","njqacn2gndn9jdo","prime","5af2f6c0c36b060001f80163","5f60e3c0a3b16e07647b2ff9","5f60e9f0cc1021000b90b791","false","null","<div style=""align-items: center; display: flex; color: dodgerblue; font-size: 90px""><b>o</b></div>","null","","","","forget_cue","","","","","","","","","","","","","","","",""
"html-keyboard-response","172","595363","0.0-4.0-1.0-0.16","njqacn2gndn9jdo","prime","5af2f6c0c36b060001f80163","5f60e3c0a3b16e07647b2ff9","5f60e9f0cc1021000b90b791","false","null","<span style=""color: black; font-size: 48px"">M + N</span>","null","","","","resp_prompt","","","","","","","","","","","","","","","",""
"categorize-image","173","596167","0.0-4.0-1.0-1.16","njqacn2gndn9jdo","prime","5af2f6c0c36b060001f80163","5f60e3c0a3b16e07647b2ff9","5f60e9f0cc1021000b90b791","true","796.1849999846891","./Stimuli/SelectedImages/SN/SN64.bmp","76","","","","test","true","M + N","76","repetition","SN","SN64.bmp","forget","","65","3","prime1","right","","","",""
"html-keyboard-response","174","598179","0.0-4.0-1.0-3.16","njqacn2gndn9jdo","prime","5af2f6c0c36b060001f80163","5f60e3c0a3b16e07647b2ff9","5f60e9f0cc1021000b90b791","false","null","<div style=""align-items: center; display: flex; color: darkorange; font-size: 90px""><b>ø</b></div>","null","","","","forget_cue","","","","","","","","","","","","","","","",""
"html-keyboard-response","175","598895","0.0-4.0-1.0-0.17","njqacn2gndn9jdo","prime","5af2f6c0c36b060001f80163","5f60e3c0a3b16e07647b2ff9","5f60e9f0cc1021000b90b791","false","null","<span style=""color: black; font-size: 48px"">N + M</span>","null","","","","resp_prompt","","","","","","","","","","","","","","","",""
"categorize-image","176","599871","0.0-4.0-1.0-1.17","njqacn2gndn9jdo","prime","5af2f6c0c36b060001f80163","5f60e3c0a3b16e07647b2ff9","5f60e9f0cc1021000b90b791","true","970.1999999815598","./Stimuli/SelectedImages/SM/SM106.bmp","76","","","","test","true","N + M","76","repetition","SM","SM106.bmp","remember","","66","3","prime1","right","","","",""
"html-keyboard-response","177","601881","0.0-4.0-1.0-3.17","njqacn2gndn9jdo","prime","5af2f6c0c36b060001f80163","5f60e3c0a3b16e07647b2ff9","5f60e9f0cc1021000b90b791","false","null","<div style=""align-items: center; display: flex; color: dodgerblue; font-size: 90px""><b>o</b></div>","null","","","","forget_cue","","","","","","","","","","","","","","","",""
"html-keyboard-response","178","602598","0.0-4.0-1.0-0.18","njqacn2gndn9jdo","prime","5af2f6c0c36b060001f80163","5f60e3c0a3b16e07647b2ff9","5f60e9f0cc1021000b90b791","false","null","<span style=""color: black; font-size: 48px"">M + N</span>","null","","","","resp_prompt","","","","","","","","","","","","","","","",""
"categorize-image","179","603568","0.0-4.0-1.0-1.18","njqacn2gndn9jdo","prime","5af2f6c0c36b060001f80163","5f60e3c0a3b16e07647b2ff9","5f60e9f0cc1021000b90b791","true","962.5849999720231","./Stimuli/SelectedImages/SM/SM128.bmp","76","","","","test","false","M + N","83","switch","SM","SM128.bmp","forget","","67","3","prime1","right","","","",""
"html-keyboard-response","180","604079","0.0-4.0-1.0-2.18-0.18","njqacn2gndn9jdo","prime","5af2f6c0c36b060001f80163","5f60e3c0a3b16e07647b2ff9","5f60e9f0cc1021000b90b791","false","null","<span style=""color: red; font-size: 48px"">Error!</span>","null","","","","feedback","","","","","","","","","","","","","","","",""
"html-keyboard-response","181","606082","0.0-4.0-1.0-3.18","njqacn2gndn9jdo","prime","5af2f6c0c36b060001f80163","5f60e3c0a3b16e07647b2ff9","5f60e9f0cc1021000b90b791","false","null","<div style=""align-items: center; display: flex; color: darkorange; font-size: 90px""><b>ø</b></div>","null","","","","forget_cue","","","","","","","","","","","","","","","",""
"html-keyboard-response","182","606793","0.0-4.0-1.0-0.19","njqacn2gndn9jdo","prime","5af2f6c0c36b060001f80163","5f60e3c0a3b16e07647b2ff9","5f60e9f0cc1021000b90b791","false","null","<span style=""color: black; font-size: 48px"">N + M</span>","null","","","","resp_prompt","","","","","","","","","","","","","","","",""
"categorize-image","183","608022","0.0-4.0-1.0-1.19","njqacn2gndn9jdo","prime","5af2f6c0c36b060001f80163","5f60e3c0a3b16e07647b2ff9","5f60e9f0cc1021000b90b791","true","1221.3599999668077","./Stimuli/SelectedImages/SM/SM78.bmp","76","","","","test","true","N + M","76","switch","SM","SM78.bmp","remember","","68","3","prime1","right","","","",""
"html-keyboard-response","184","610034","0.0-4.0-1.0-3.19","njqacn2gndn9jdo","prime","5af2f6c0c36b060001f80163","5f60e3c0a3b16e07647b2ff9","5f60e9f0cc1021000b90b791","false","null","<div style=""align-items: center; display: flex; color: dodgerblue; font-size: 90px""><b>o</b></div>","null","","","","forget_cue","","","","","","","","","","","","","","","",""
"html-keyboard-response","185","610751","0.0-4.0-1.0-0.20","njqacn2gndn9jdo","prime","5af2f6c0c36b060001f80163","5f60e3c0a3b16e07647b2ff9","5f60e9f0cc1021000b90b791","false","null","<span style=""color: black; font-size: 48px"">M + N</span>","null","","","","resp_prompt","","","","","","","","","","","","","","","",""
"categorize-image","186","611727","0.0-4.0-1.0-1.20","njqacn2gndn9jdo","prime","5af2f6c0c36b060001f80163","5f60e3c0a3b16e07647b2ff9","5f60e9f0cc1021000b90b791","true","968.8449999084696","./Stimuli/SelectedImages/SN/SN181.bmp","76","","","","test","true","M + N","76","switch","SN","SN181.bmp","forget","","69","3","prime1","right","","","",""
"html-keyboard-response","187","613733","0.0-4.0-1.0-3.20","njqacn2gndn9jdo","prime","5af2f6c0c36b060001f80163","5f60e3c0a3b16e07647b2ff9","5f60e9f0cc1021000b90b791","false","null","<div style=""align-items: center; display: flex; color: darkorange; font-size: 90px""><b>ø</b></div>","null","","","","forget_cue","","","","","","","","","","","","","","","",""
"html-keyboard-response","188","614436","0.0-4.0-1.0-0.21","njqacn2gndn9jdo","prime","5af2f6c0c36b060001f80163","5f60e3c0a3b16e07647b2ff9","5f60e9f0cc1021000b90b791","false","null","<span style=""color: black; font-size: 48px"">N + M</span>","null","","","","resp_prompt","","","","","","","","","","","","","","","",""
"categorize-image","189","615055","0.0-4.0-1.0-1.21","njqacn2gndn9jdo","prime","5af2f6c0c36b060001f80163","5f60e3c0a3b16e07647b2ff9","5f60e9f0cc1021000b90b791","true","611.2349999602884","./Stimuli/SelectedImages/LM/LM167.bmp","76","","","","test","true","N + M","76","repetition","LM","LM167.bmp","forget","","70","3","prime1","right","","","",""
"html-keyboard-response","190","617067","0.0-4.0-1.0-3.21","njqacn2gndn9jdo","prime","5af2f6c0c36b060001f80163","5f60e3c0a3b16e07647b2ff9","5f60e9f0cc1021000b90b791","false","null","<div style=""align-items: center; display: flex; color: darkorange; font-size: 90px""><b>ø</b></div>","null","","","","forget_cue","","","","","","","","","","","","","","","",""
"html-keyboard-response","191","617783","0.0-4.0-1.0-0.22","njqacn2gndn9jdo","prime","5af2f6c0c36b060001f80163","5f60e3c0a3b16e07647b2ff9","5f60e9f0cc1021000b90b791","false","null","<span style=""color: black; font-size: 48px"">M + N</span>","null","","","","resp_prompt","","","","","","","","","","","","","","","",""
"categorize-image","192","618721","0.0-4.0-1.0-1.22","njqacn2gndn9jdo","prime","5af2f6c0c36b060001f80163","5f60e3c0a3b16e07647b2ff9","5f60e9f0cc1021000b90b791","true","930.5250000907108","./Stimuli/SelectedImages/SN/SN128.bmp","76","","","","test","true","M + N","76","repetition","SN","SN128.bmp","forget","","71","3","prime1","right","","","",""
"html-keyboard-response","193","620737","0.0-4.0-1.0-3.22","njqacn2gndn9jdo","prime","5af2f6c0c36b060001f80163","5f60e3c0a3b16e07647b2ff9","5f60e9f0cc1021000b90b791","false","null","<div style=""align-items: center; display: flex; color: darkorange; font-size: 90px""><b>ø</b></div>","null","","","","forget_cue","","","","","","","","","","","","","","","",""
"html-keyboard-response","194","621453","0.0-4.0-1.0-0.23","njqacn2gndn9jdo","prime","5af2f6c0c36b060001f80163","5f60e3c0a3b16e07647b2ff9","5f60e9f0cc1021000b90b791","false","null","<span style=""color: black; font-size: 48px"">N + M</span>","null","","","","resp_prompt","","","","","","","","","","","","","","","",""
"categorize-image","195","622018","0.0-4.0-1.0-1.23","njqacn2gndn9jdo","prime","5af2f6c0c36b060001f80163","5f60e3c0a3b16e07647b2ff9","5f60e9f0cc1021000b90b791","true","556.0350000159815","./Stimuli/SelectedImages/LN/LN128.bmp","83","","","","test","true","N + M","83","switch","LN","LN128.bmp","forget","","72","3","prime1","left","","","",""
"html-keyboard-response","196","624031","0.0-4.0-1.0-3.23","njqacn2gndn9jdo","prime","5af2f6c0c36b060001f80163","5f60e3c0a3b16e07647b2ff9","5f60e9f0cc1021000b90b791","false","null","<div style=""align-items: center; display: flex; color: darkorange; font-size: 90px""><b>ø</b></div>","null","","","","forget_cue","","","","","","","","","","","","","","","",""
"html-keyboard-response","197","624734","0.0-4.0-1.0-0.24","njqacn2gndn9jdo","prime","5af2f6c0c36b060001f80163","5f60e3c0a3b16e07647b2ff9","5f60e9f0cc1021000b90b791","false","null","<span style=""color: black; font-size: 48px"">N + M</span>","null","","","","resp_prompt","","","","","","","","","","","","","","","",""
"categorize-image","198","625587","0.0-4.0-1.0-1.24","njqacn2gndn9jdo","prime","5af2f6c0c36b060001f80163","5f60e3c0a3b16e07647b2ff9","5f60e9f0cc1021000b90b791","true","846.6300000436604","./Stimuli/SelectedImages/SM/SM195.bmp","76","","","","test","true","N + M","76","repetition","SM","SM195.bmp","forget","","73","3","prime1","right","","","",""
"html-keyboard-response","199","627595","0.0-4.0-1.0-3.24","njqacn2gndn9jdo","prime","5af2f6c0c36b060001f80163","5f60e3c0a3b16e07647b2ff9","5f60e9f0cc1021000b90b791","false","null","<div style=""align-items: center; display: flex; color: darkorange; font-size: 90px""><b>ø</b></div>","null","","","","forget_cue","","","","","","","","","","","","","","","",""
"html-keyboard-response","200","628304","0.0-4.0-1.0-0.25","njqacn2gndn9jdo","prime","5af2f6c0c36b060001f80163","5f60e3c0a3b16e07647b2ff9","5f60e9f0cc1021000b90b791","false","null","<span style=""color: black; font-size: 48px"">M + N</span>","null","","","","resp_prompt","","","","","","","","","","","","","","","",""
"categorize-image","201","629592","0.0-4.0-1.0-1.25","njqacn2gndn9jdo","prime","5af2f6c0c36b060001f80163","5f60e3c0a3b16e07647b2ff9","5f60e9f0cc1021000b90b791","true","1280.1300000865012","./Stimuli/SelectedImages/SM/SM17.bmp","83","","","","test","true","M + N","83","switch","SM","SM17.bmp","remember","","74","3","prime1","left","","","",""
"html-keyboard-response","202","631598","0.0-4.0-1.0-3.25","njqacn2gndn9jdo","prime","5af2f6c0c36b060001f80163","5f60e3c0a3b16e07647b2ff9","5f60e9f0cc1021000b90b791","false","null","<div style=""align-items: center; display: flex; color: dodgerblue; font-size: 90px""><b>o</b></div>","null","","","","forget_cue","","","","","","","","","","","","","","","",""
"html-keyboard-response","203","632313","0.0-4.0-1.0-0.26","njqacn2gndn9jdo","prime","5af2f6c0c36b060001f80163","5f60e3c0a3b16e07647b2ff9","5f60e9f0cc1021000b90b791","false","null","<span style=""color: black; font-size: 48px"">N + M</span>","null","","","","resp_prompt","","","","","","","","","","","","","","","",""
"categorize-image","204","632910","0.0-4.0-1.0-1.26","njqacn2gndn9jdo","prime","5af2f6c0c36b060001f80163","5f60e3c0a3b16e07647b2ff9","5f60e9f0cc1021000b90b791","true","589.2549999989569","./Stimuli/SelectedImages/SN/SN182.bmp","83","","","","test","true","N + M","83","switch","SN","SN182.bmp","forget","","75","3","prime1","left","","","",""
"html-keyboard-response","205","634916","0.0-4.0-1.0-3.26","njqacn2gndn9jdo","prime","5af2f6c0c36b060001f80163","5f60e3c0a3b16e07647b2ff9","5f60e9f0cc1021000b90b791","false","null","<div style=""align-items: center; display: flex; color: darkorange; font-size: 90px""><b>ø</b></div>","null","","","","forget_cue","","","","","","","","","","","","","","","",""
"html-keyboard-response","206","635625","0.0-4.0-1.0-0.27","njqacn2gndn9jdo","prime","5af2f6c0c36b060001f80163","5f60e3c0a3b16e07647b2ff9","5f60e9f0cc1021000b90b791","false","null","<span style=""color: black; font-size: 48px"">N + M</span>","null","","","","resp_prompt","","","","","","","","","","","","","","","",""
"categorize-image","207","636249","0.0-4.0-1.0-1.27","njqacn2gndn9jdo","prime","5af2f6c0c36b060001f80163","5f60e3c0a3b16e07647b2ff9","5f60e9f0cc1021000b90b791","true","616.9099999824539","./Stimuli/SelectedImages/SN/SN140.bmp","83","","","","test","true","N + M","83","repetition","SN","SN140.bmp","remember","","76","3","prime1","left","","","",""
"html-keyboard-response","208","638262","0.0-4.0-1.0-3.27","njqacn2gndn9jdo","prime","5af2f6c0c36b060001f80163","5f60e3c0a3b16e07647b2ff9","5f60e9f0cc1021000b90b791","false","null","<div style=""align-items: center; display: flex; color: dodgerblue; font-size: 90px""><b>o</b></div>","null","","","","forget_cue","","","","","","","","","","","","","","","",""
"html-keyboard-response","209","638978","0.0-4.0-1.0-0.28","njqacn2gndn9jdo","prime","5af2f6c0c36b060001f80163","5f60e3c0a3b16e07647b2ff9","5f60e9f0cc1021000b90b791","false","null","<span style=""color: black; font-size: 48px"">N + M</span>","null","","","","resp_prompt","","","","","","","","","","","","","","","",""
"categorize-image","210","640027","0.0-4.0-1.0-1.28","njqacn2gndn9jdo","prime","5af2f6c0c36b060001f80163","5f60e3c0a3b16e07647b2ff9","5f60e9f0cc1021000b90b791","true","1041.8049999279901","./Stimuli/SelectedImages/SN/SN155.bmp","83","","","","test","true","N + M","83","switch","SN","SN155.bmp","forget","","77","3","prime1","left","","","",""
"html-keyboard-response","211","642035","0.0-4.0-1.0-3.28","njqacn2gndn9jdo","prime","5af2f6c0c36b060001f80163","5f60e3c0a3b16e07647b2ff9","5f60e9f0cc1021000b90b791","false","null","<div style=""align-items: center; display: flex; color: darkorange; font-size: 90px""><b>ø</b></div>","null","","","","forget_cue","","","","","","","","","","","","","","","",""
"html-keyboard-response","212","642738","0.0-4.0-1.0-0.29","njqacn2gndn9jdo","prime","5af2f6c0c36b060001f80163","5f60e3c0a3b16e07647b2ff9","5f60e9f0cc1021000b90b791","false","null","<span style=""color: black; font-size: 48px"">N + M</span>","null","","","","resp_prompt","","","","","","","","","","","","","","","",""
"categorize-image","213","643236","0.0-4.0-1.0-1.29","njqacn2gndn9jdo","prime","5af2f6c0c36b060001f80163","5f60e3c0a3b16e07647b2ff9","5f60e9f0cc1021000b90b791","true","491.0300000337884","./Stimuli/SelectedImages/LM/LM100.bmp","76","","","","test","true","N + M","76","repetition","LM","LM100.bmp","forget","","78","3","prime1","right","","","",""
"html-keyboard-response","214","645251","0.0-4.0-1.0-3.29","njqacn2gndn9jdo","prime","5af2f6c0c36b060001f80163","5f60e3c0a3b16e07647b2ff9","5f60e9f0cc1021000b90b791","false","null","<div style=""align-items: center; display: flex; color: darkorange; font-size: 90px""><b>ø</b></div>","null","","","","forget_cue","","","","","","","","","","","","","","","",""
"html-keyboard-response","215","645965","0.0-4.0-1.0-0.30","njqacn2gndn9jdo","prime","5af2f6c0c36b060001f80163","5f60e3c0a3b16e07647b2ff9","5f60e9f0cc1021000b90b791","false","null","<span style=""color: black; font-size: 48px"">N + M</span>","null","","","","resp_prompt","","","","","","","","","","","","","","","",""
"categorize-image","216","646752","0.0-4.0-1.0-1.30","njqacn2gndn9jdo","prime","5af2f6c0c36b060001f80163","5f60e3c0a3b16e07647b2ff9","5f60e9f0cc1021000b90b791","true","780.1100000506267","./Stimuli/SelectedImages/SM/SM24.bmp","76","","","","test","true","N + M","76","switch","SM","SM24.bmp","forget","","79","3","prime1","right","","","",""
"html-keyboard-response","217","648761","0.0-4.0-1.0-3.30","njqacn2gndn9jdo","prime","5af2f6c0c36b060001f80163","5f60e3c0a3b16e07647b2ff9","5f60e9f0cc1021000b90b791","false","null","<div style=""align-items: center; display: flex; color: darkorange; font-size: 90px""><b>ø</b></div>","null","","","","forget_cue","","","","","","","","","","","","","","","",""
"html-keyboard-response","218","649465","0.0-4.0-1.0-0.31","njqacn2gndn9jdo","prime","5af2f6c0c36b060001f80163","5f60e3c0a3b16e07647b2ff9","5f60e9f0cc1021000b90b791","false","null","<span style=""color: black; font-size: 48px"">M + N</span>","null","","","","resp_prompt","","","","","","","","","","","","","","","",""
"categorize-image","219","650184","0.0-4.0-1.0-1.31","njqacn2gndn9jdo","prime","5af2f6c0c36b060001f80163","5f60e3c0a3b16e07647b2ff9","5f60e9f0cc1021000b90b791","true","711.1649999860674","./Stimuli/SelectedImages/SN/SN179.bmp","83","","","","test","false","M + N","76","switch","SN","SN179.bmp","remember","","80","3","prime1","left","","","",""
"html-keyboard-response","220","650700","0.0-4.0-1.0-2.31-0.31","njqacn2gndn9jdo","prime","5af2f6c0c36b060001f80163","5f60e3c0a3b16e07647b2ff9","5f60e9f0cc1021000b90b791","false","null","<span style=""color: red; font-size: 48px"">Error!</span>","null","","","","feedback","","","","","","","","","","","","","","","",""
"html-keyboard-response","221","652711","0.0-4.0-1.0-3.31","njqacn2gndn9jdo","prime","5af2f6c0c36b060001f80163","5f60e3c0a3b16e07647b2ff9","5f60e9f0cc1021000b90b791","false","null","<div style=""align-items: center; display: flex; color: dodgerblue; font-size: 90px""><b>o</b></div>","null","","","","forget_cue","","","","","","","","","","","","","","","",""
"html-keyboard-response","222","653426","0.0-4.0-1.0-0.32","njqacn2gndn9jdo","prime","5af2f6c0c36b060001f80163","5f60e3c0a3b16e07647b2ff9","5f60e9f0cc1021000b90b791","false","null","<span style=""color: black; font-size: 48px"">M + N</span>","null","","","","resp_prompt","","","","","","","","","","","","","","","",""
"categorize-image","223","654039","0.0-4.0-1.0-1.32","njqacn2gndn9jdo","prime","5af2f6c0c36b060001f80163","5f60e3c0a3b16e07647b2ff9","5f60e9f0cc1021000b90b791","true","606.0450000222772","./Stimuli/SelectedImages/SM/SM76.bmp","83","","","","test","true","M + N","83","repetition","SM","SM76.bmp","forget","","81","3","prime1","left","","","",""
"html-keyboard-response","224","656045","0.0-4.0-1.0-3.32","njqacn2gndn9jdo","prime","5af2f6c0c36b060001f80163","5f60e3c0a3b16e07647b2ff9","5f60e9f0cc1021000b90b791","false","null","<div style=""align-items: center; display: flex; color: darkorange; font-size: 90px""><b>ø</b></div>","null","","","","forget_cue","","","","","","","","","","","","","","","",""
"html-keyboard-response","225","656746","0.0-4.0-1.0-0.33","njqacn2gndn9jdo","prime","5af2f6c0c36b060001f80163","5f60e3c0a3b16e07647b2ff9","5f60e9f0cc1021000b90b791","false","null","<span style=""color: black; font-size: 48px"">N + M</span>","null","","","","resp_prompt","","","","","","","","","","","","","","","",""
"categorize-image","226","657508","0.0-4.0-1.0-1.33","njqacn2gndn9jdo","prime","5af2f6c0c36b060001f80163","5f60e3c0a3b16e07647b2ff9","5f60e9f0cc1021000b90b791","true","755.9550000587478","./Stimuli/SelectedImages/LM/LM179.bmp","76","","","","test","true","N + M","76","switch","LM","LM179.bmp","remember","","82","3","prime1","right","","","",""
"html-keyboard-response","227","659522","0.0-4.0-1.0-3.33","njqacn2gndn9jdo","prime","5af2f6c0c36b060001f80163","5f60e3c0a3b16e07647b2ff9","5f60e9f0cc1021000b90b791","false","null","<div style=""align-items: center; display: flex; color: dodgerblue; font-size: 90px""><b>o</b></div>","null","","","","forget_cue","","","","","","","","","","","","","","","",""
"html-keyboard-response","228","660236","0.0-4.0-1.0-0.34","njqacn2gndn9jdo","prime","5af2f6c0c36b060001f80163","5f60e3c0a3b16e07647b2ff9","5f60e9f0cc1021000b90b791","false","null","<span style=""color: black; font-size: 48px"">M + N</span>","null","","","","resp_prompt","","","","","","","","","","","","","","","",""
"categorize-image","229","661009","0.0-4.0-1.0-1.34","njqacn2gndn9jdo","prime","5af2f6c0c36b060001f80163","5f60e3c0a3b16e07647b2ff9","5f60e9f0cc1021000b90b791","true","765.6949999509379","./Stimuli/SelectedImages/LN/LN111.bmp","76","","","","test","true","M + N","76","switch","LN","LN111.bmp","remember","","83","3","prime1","right","","","",""
"html-keyboard-response","230","663016","0.0-4.0-1.0-3.34","njqacn2gndn9jdo","prime","5af2f6c0c36b060001f80163","5f60e3c0a3b16e07647b2ff9","5f60e9f0cc1021000b90b791","false","null","<div style=""align-items: center; display: flex; color: dodgerblue; font-size: 90px""><b>o</b></div>","null","","","","forget_cue","","","","","","","","","","","","","","","",""
"html-keyboard-response","231","663724","0.0-4.0-1.0-0.35","njqacn2gndn9jdo","prime","5af2f6c0c36b060001f80163","5f60e3c0a3b16e07647b2ff9","5f60e9f0cc1021000b90b791","false","null","<span style=""color: black; font-size: 48px"">N + M</span>","null","","","","resp_prompt","","","","","","","","","","","","","","","",""
"categorize-image","232","664477","0.0-4.0-1.0-1.35","njqacn2gndn9jdo","prime","5af2f6c0c36b060001f80163","5f60e3c0a3b16e07647b2ff9","5f60e9f0cc1021000b90b791","true","745.7799999974668","./Stimuli/SelectedImages/SN/SN240.bmp","83","","","","test","true","N + M","83","repetition","SN","SN240.bmp","forget","","84","3","prime1","left","","","",""
"html-keyboard-response","233","666494","0.0-4.0-1.0-3.35","njqacn2gndn9jdo","prime","5af2f6c0c36b060001f80163","5f60e3c0a3b16e07647b2ff9","5f60e9f0cc1021000b90b791","false","null","<div style=""align-items: center; display: flex; color: darkorange; font-size: 90px""><b>ø</b></div>","null","","","","forget_cue","","","","","","","","","","","","","","","",""
"html-keyboard-response","234","667206","0.0-4.0-1.0-0.36","njqacn2gndn9jdo","prime","5af2f6c0c36b060001f80163","5f60e3c0a3b16e07647b2ff9","5f60e9f0cc1021000b90b791","false","null","<span style=""color: black; font-size: 48px"">N + M</span>","null","","","","resp_prompt","","","","","","","","","","","","","","","",""
"categorize-image","235","667916","0.0-4.0-1.0-1.36","njqacn2gndn9jdo","prime","5af2f6c0c36b060001f80163","5f60e3c0a3b16e07647b2ff9","5f60e9f0cc1021000b90b791","true","705.0149999558926","./Stimuli/SelectedImages/SN/SN60.bmp","83","","","","test","true","N + M","83","switch","SN","SN60.bmp","remember","","85","3","prime1","left","","","",""
"html-keyboard-response","236","669930","0.0-4.0-1.0-3.36","njqacn2gndn9jdo","prime","5af2f6c0c36b060001f80163","5f60e3c0a3b16e07647b2ff9","5f60e9f0cc1021000b90b791","false","null","<div style=""align-items: center; display: flex; color: dodgerblue; font-size: 90px""><b>o</b></div>","null","","","","forget_cue","","","","","","","","","","","","","","","",""
"html-keyboard-response","237","670632","0.0-4.0-1.0-0.37","njqacn2gndn9jdo","prime","5af2f6c0c36b060001f80163","5f60e3c0a3b16e07647b2ff9","5f60e9f0cc1021000b90b791","false","null","<span style=""color: black; font-size: 48px"">N + M</span>","null","","","","resp_prompt","","","","","","","","","","","","","","","",""
"categorize-image","238","671366","0.0-4.0-1.0-1.37","njqacn2gndn9jdo","prime","5af2f6c0c36b060001f80163","5f60e3c0a3b16e07647b2ff9","5f60e9f0cc1021000b90b791","true","721.0250000935048","./Stimuli/SelectedImages/SM/SM200.bmp","76","","","","test","true","N + M","76","repetition","SM","SM200.bmp","remember","","86","3","prime1","right","","","",""
"html-keyboard-response","239","673379","0.0-4.0-1.0-3.37","njqacn2gndn9jdo","prime","5af2f6c0c36b060001f80163","5f60e3c0a3b16e07647b2ff9","5f60e9f0cc1021000b90b791","false","null","<div style=""align-items: center; display: flex; color: dodgerblue; font-size: 90px""><b>o</b></div>","null","","","","forget_cue","","","","","","","","","","","","","","","",""
"html-keyboard-response","240","674094","0.0-4.0-1.0-0.38","njqacn2gndn9jdo","prime","5af2f6c0c36b060001f80163","5f60e3c0a3b16e07647b2ff9","5f60e9f0cc1021000b90b791","false","null","<span style=""color: black; font-size: 48px"">M + N</span>","null","","","","resp_prompt","","","","","","","","","","","","","","","",""
"categorize-image","241","674753","0.0-4.0-1.0-1.38","njqacn2gndn9jdo","prime","5af2f6c0c36b060001f80163","5f60e3c0a3b16e07647b2ff9","5f60e9f0cc1021000b90b791","true","651.7100000055507","./Stimuli/SelectedImages/LM/LM235.bmp","83","","","","test","true","M + N","83","switch","LM","LM235.bmp","remember","","87","3","prime1","left","","","",""
"html-keyboard-response","242","676766","0.0-4.0-1.0-3.38","njqacn2gndn9jdo","prime","5af2f6c0c36b060001f80163","5f60e3c0a3b16e07647b2ff9","5f60e9f0cc1021000b90b791","false","null","<div style=""align-items: center; display: flex; color: dodgerblue; font-size: 90px""><b>o</b></div>","null","","","","forget_cue","","","","","","","","","","","","","","","",""
"html-keyboard-response","243","677469","0.0-4.0-1.0-0.39","njqacn2gndn9jdo","prime","5af2f6c0c36b060001f80163","5f60e3c0a3b16e07647b2ff9","5f60e9f0cc1021000b90b791","false","null","<span style=""color: black; font-size: 48px"">M + N</span>","null","","","","resp_prompt","","","","","","","","","","","","","","","",""
"categorize-image","244","678500","0.0-4.0-1.0-1.39","njqacn2gndn9jdo","prime","5af2f6c0c36b060001f80163","5f60e3c0a3b16e07647b2ff9","5f60e9f0cc1021000b90b791","true","1024.0650000050664","./Stimuli/SelectedImages/LN/LN82.bmp","76","","","","test","true","M + N","76","switch","LN","LN82.bmp","remember","","88","3","prime1","right","","","",""
"html-keyboard-response","245","680503","0.0-4.0-1.0-3.39","njqacn2gndn9jdo","prime","5af2f6c0c36b060001f80163","5f60e3c0a3b16e07647b2ff9","5f60e9f0cc1021000b90b791","false","null","<div style=""align-items: center; display: flex; color: dodgerblue; font-size: 90px""><b>o</b></div>","null","","","","forget_cue","","","","","","","","","","","","","","","",""
"html-keyboard-response","246","681217","0.0-4.0-1.0-0.40","njqacn2gndn9jdo","prime","5af2f6c0c36b060001f80163","5f60e3c0a3b16e07647b2ff9","5f60e9f0cc1021000b90b791","false","null","<span style=""color: black; font-size: 48px"">M + N</span>","null","","","","resp_prompt","","","","","","","","","","","","","","","",""
"categorize-image","247","681804","0.0-4.0-1.0-1.40","njqacn2gndn9jdo","prime","5af2f6c0c36b060001f80163","5f60e3c0a3b16e07647b2ff9","5f60e9f0cc1021000b90b791","true","580.5349999573082","./Stimuli/SelectedImages/SN/SN111.bmp","76","","","","test","true","M + N","76","repetition","SN","SN111.bmp","remember","","89","3","prime1","right","","","",""
"html-keyboard-response","248","683821","0.0-4.0-1.0-3.40","njqacn2gndn9jdo","prime","5af2f6c0c36b060001f80163","5f60e3c0a3b16e07647b2ff9","5f60e9f0cc1021000b90b791","false","null","<div style=""align-items: center; display: flex; color: dodgerblue; font-size: 90px""><b>o</b></div>","null","","","","forget_cue","","","","","","","","","","","","","","","",""
"html-keyboard-response","249","684538","0.0-4.0-1.0-0.41","njqacn2gndn9jdo","prime","5af2f6c0c36b060001f80163","5f60e3c0a3b16e07647b2ff9","5f60e9f0cc1021000b90b791","false","null","<span style=""color: black; font-size: 48px"">M + N</span>","null","","","","resp_prompt","","","","","","","","","","","","","","","",""
"categorize-image","250","685349","0.0-4.0-1.0-1.41","njqacn2gndn9jdo","prime","5af2f6c0c36b060001f80163","5f60e3c0a3b16e07647b2ff9","5f60e9f0cc1021000b90b791","true","804.6799999428913","./Stimuli/SelectedImages/LM/LM58.bmp","83","","","","test","true","M + N","83","repetition","LM","LM58.bmp","remember","","90","3","prime1","left","","","",""
"html-keyboard-response","251","687355","0.0-4.0-1.0-3.41","njqacn2gndn9jdo","prime","5af2f6c0c36b060001f80163","5f60e3c0a3b16e07647b2ff9","5f60e9f0cc1021000b90b791","false","null","<div style=""align-items: center; display: flex; color: dodgerblue; font-size: 90px""><b>o</b></div>","null","","","","forget_cue","","","","","","","","","","","","","","","",""
"html-keyboard-response","252","688072","0.0-4.0-1.0-0.42","njqacn2gndn9jdo","prime","5af2f6c0c36b060001f80163","5f60e3c0a3b16e07647b2ff9","5f60e9f0cc1021000b90b791","false","null","<span style=""color: black; font-size: 48px"">M + N</span>","null","","","","resp_prompt","","","","","","","","","","","","","","","",""
"categorize-image","253","688888","0.0-4.0-1.0-1.42","njqacn2gndn9jdo","prime","5af2f6c0c36b060001f80163","5f60e3c0a3b16e07647b2ff9","5f60e9f0cc1021000b90b791","true","809.5800000010058","./Stimuli/SelectedImages/SM/SM148.bmp","83","","","","test","true","M + N","83","switch","SM","SM148.bmp","remember","","91","3","prime1","left","","","",""
