"trial_type","trial_index","time_elapsed","internal_node_id","subject","exp_part","prolific_PID","study_ID","session_ID","use","rt","stimulus","key_press","button_pressed","responses","question_order","trial_part","correct","resp_map","correct_resp","probe_condition","category","image","forget_condition","list","trial_num","block_num","block","response","test_part","n_span","sequence","num_spaces"
"pavlovia","0","5","0.0-0.0","ug484mfjan2qbe1","","5ecac697f9abb5240d3468d4","5f60e3c0a3b16e07647b2ff9","5f638034a83a7d064d65f3bb","false","","","","","","","","","","","","","","","","","","","","","","",""
"html-keyboard-response","1","2314","0.0-1.0-0.0-0.0","ug484mfjan2qbe1","welcome","5ecac697f9abb5240d3468d4","5f60e3c0a3b16e07647b2ff9","5f638034a83a7d064d65f3bb","false","2307.165000005625","<div align=left>Dear participant, <br> thank you for participating in an online study of the Cognition, Action, and Sustainability Unit of the University of Freiburg! <br> <br>The aim of this study is to examine our ability to remember previously learned information. <br>Our goal is to find out, whether our memory improves, when we only remember information that is relevant to us. <br>The experiment will take about 35 minutes to complete. <br> <br>Please, note that you can only participate in this study if you are using a device with a keyboard (PC, Laptop etc.) <br>and not if you are using a mobile device such as a tablet or smartphone.<br> <br>Press 'SPACE' to proceed to the experiment. </div>","32","","","","","","","","","","","","","","","","","","","",""
"html-keyboard-response","2","6553","0.0-1.0-0.0-1.0","ug484mfjan2qbe1","welcome","5ecac697f9abb5240d3468d4","5f60e3c0a3b16e07647b2ff9","5f638034a83a7d064d65f3bb","false","4237.800000002608","<div align=left><strong> Time Course of this experiment: </strong> <br><br> <strong> 1.</strong>  First, please fill in some information regarding your demographic data. <br><br> <strong> 2.</strong>  Next, your task will be to classify everyday objects. <br>In addition, you will be asked to remember certain objects and recall them later. <br>Working on these tasks requires your undivided attention and concentration.<br>It is therefore essential that you eliminate any sources of distraction in your  <br>environment and ensure that you will not be disturbed. <br><br><strong> 3.</strong>  At the end of the experiment, you will be asked to answer a few additional questions. <br> <br><strong> Important:</strong> After finishing the experiment, only close the browser window <br> by clicking on the 'end the experiment'-button when you are asked to do so. <br>Closing the browser window prematurely will make the allocation of your participation credit impossible. <br><br> Press 'SPACE' to start the experiment. </div>","32","","","","","","","","","","","","","","","","","","","",""
"html-button-response","3","9134","0.0-1.0-0.0-2.0","ug484mfjan2qbe1","welcome","5ecac697f9abb5240d3468d4","5f60e3c0a3b16e07647b2ff9","5f638034a83a7d064d65f3bb","true","2577.385000011418","<div align=left><strong> Informed consent </strong>  <br>The aim of our research is to better understand human behavior and mental processes. <br>In the following study your behavior (e.g. choices, reaction times) will be studied. <br> <br><strong> Voluntariness and Anonymity </strong> <br>Your participation in this study is  <strong> voluntary</strong>.<br>You may withdraw your consent to participate at any time without providing a reason for doing so and without fear of prejudice. <br><br>As no personal data will be collected, <strong>your data and your person cannot be connected after data collection</strong> – the data-set is anonymous. <br>Respectively, deletion of your data will not be possible after data collection has been completed, as we cannot retrace your data-set.<br>The results and anonymized data collected in this study will be published as a scientific publication. <br>This will happen in an <strong>anonymized format</strong>, so that no data can be traced back to a specific person. <br> <br>The anonymized data of this study will be made available to other researchers and/or in a data archive on the Internet as a means of transparency and to enable subsequent re-use. By doing so, this study follows the recommendations of the Deutsche Forschungsgemeinschaft (DFG, German Research Foundation) and Deutsche Gesellschaft für Psychologie (DGPS, German Psychological Society) regarding quality assurance in research.<br>If you have any questions now or after the experiment, please contact our team (experiments@cs.uni-freiburg.de).<br><br><br>I hereby declare, that I understand the above described conditions of participation and I agree to participate under these conditions. <br><br> </div>","","0","","","","","","","","","","","","","","","","","","",""
"html-keyboard-response","4","65089","0.0-1.0-0.0-3.0","ug484mfjan2qbe1","welcome","5ecac697f9abb5240d3468d4","5f60e3c0a3b16e07647b2ff9","5f638034a83a7d064d65f3bb","false","55948.17000004696","<div align=left><strong> General information concerning the experiment </strong>  <br> <br>Please follow the instructions:<ol> <li><strong> Do not leave this tab (your browser window) during the experiment and do not reload this tab! </strong>  <br>If you do switch tabs/windows during the experiment (to check your mail or visit another website, for example), <br>the experiment will end automatically and you will <strong>not receive credit</strong> for your participation. <br>Repeated participation or resumption of the experiment is impossible.</li> <br><li>Please close all other programs for the duration of your participation. </li> <br><li>Please mute or turn off your phone and put it out of your reach. </li> <br><li>Please also take off any disturbing accessories (such as wristwatches, bracelets, etc.). </li> <br><li>If you have music playing in the background, please turn it off now. </li> <br></ol>Thank you! <br>Press 'SPACE' to continue. </div>","32","","","","","","","","","","","","","","","","","","","",""
"survey-text","5","68177","0.0-1.0-1.0-0.0","ug484mfjan2qbe1","demographics","5ecac697f9abb5240d3468d4","5f60e3c0a3b16e07647b2ff9","5f638034a83a7d064d65f3bb","true","3079.700000002049","","","","{""age"":""24""}","","","","","","","","","","","","","","","","","",""
"survey-multi-choice","6","94122","0.0-1.0-1.0-1.0","ug484mfjan2qbe1","demographics","5ecac697f9abb5240d3468d4","5f60e3c0a3b16e07647b2ff9","5f638034a83a7d064d65f3bb","true","25939.62499999907","","","","{""gender"":""female"",""school"":""others"",""education"":""Completed university degree or equivalent""}","[0,1,2]","","","","","","","","","","","","","","","","",""
"html-keyboard-response","7","101870","0.0-1.0-2.0","ug484mfjan2qbe1","instructions","5ecac697f9abb5240d3468d4","5f60e3c0a3b16e07647b2ff9","5f638034a83a7d064d65f3bb","false","7736.589999985881","<div align=left> The experiment is now about to start: <br> <br>In the following part, you will be presented pictures of everyday objects. <br>Your first task is to <strong>classify these objects. </strong> <br> <br> You will classify them either as mechanical or non-mechanical objects. <br> <br>Objects that include any kind of technical mechanism (for example, wheels, switches, levers, <br> electronic components) fall under the category of <strong>mechanical</strong> objects. <br>Only objects without any kind of technical mechanism should be classified as <strong>non-mechanical</strong>. <br><br>Press 'SPACE' to continue. </div>","32","","","","","","","","","","","","","","","","","","","",""
"html-keyboard-response","8","154740","0.0-2.0-0.0","ug484mfjan2qbe1","instructions","5ecac697f9abb5240d3468d4","5f60e3c0a3b16e07647b2ff9","5f638034a83a7d064d65f3bb","false","52866.734999988694","<div align=justify>You will classify the objects using the <strong>'S'</strong> and the <strong>'L'</strong> keys on your keyboard.<br>For doing so, please place your <strong>left index finger</strong> on the <strong>'S'</strong> key and place your <strong>right index finger</strong> on the <strong>'L'</strong> key. <br><br> Each trial starts with an instruction, indicating which key ('S'/'L') you need to press to classify <br>the object as mechanical (letter M) or non-mechanical (letter N).<br>The instruction <strong>M + N</strong> indicates that, in the current trial, by pressing the left key ('S') you classify the displayed object as mechanical (M) <br> and by pressing the right key ('L') you classify the object as non-mechanical (N). <br>The instruction <strong>N + M</strong> on the other hand indicates that by pressing the left key ('S') you classify the displayed object as non-mechanical (N) <br> and by pressing the right key ('L') you classify the object as mechanical (M). <br><br>Please press the key corresponding to the correct classification as fast as possible as soon as the object is displayed and try to avoid making mistakes.<br>If you do not respond within a 2 second window, a corresponding feedback will be displayed and the next trial will start.<br> The experiment is divided into multiple blocks to give you the opportunity to take a break after each block. <br>First, you can now practice this task. <br><br>Please place your <strong>LEFT INDEX FINGER</strong> on the 'S' key and your <strong>RIGHT INDEX FINGER</strong> on the 'L' key now. <br><br>Press SPACE to continue.</div>","32","","","","","","","","","","","","","","","","","","","",""
"html-keyboard-response","9","160075","0.0-2.0-1.0","ug484mfjan2qbe1","instructions","5ecac697f9abb5240d3468d4","5f60e3c0a3b16e07647b2ff9","5f638034a83a7d064d65f3bb","false","5333.135000022594","<div align=left> You will now have time to practice this task.<br><br>Remember: <br> <br><li>Please place your index fingers on the <strong>'S'</strong> and <strong>'L'</strong> keys <br>to respond as fast and accurately as possible.</li><li>Every picture can be classified as either mechanical or non-mechanical.</li><li>If you do not respond in time or commit an error, you will receive a corresponding feedback. </li><li> Please try to respond as <strong> fast </strong> and as <strong> accurately as possible </strong> .<br><li>To ensure optimal results, please minimize distractions and stay focused. </li><br><br>Press SPACE to continue.</div>","32","","","","","","","","","","","","","","","","","","","",""
"html-keyboard-response","10","160782","0.0-2.0-2.0-0.0","ug484mfjan2qbe1","practice_no_cue","5ecac697f9abb5240d3468d4","5f60e3c0a3b16e07647b2ff9","5f638034a83a7d064d65f3bb","false","null","<span style=""color: black; font-size: 48px"">M + N</span>","null","","","","resp_prompt","","","","","","","","","","","","","","","",""
"categorize-image","11","162707","0.0-2.0-2.0-1.0","ug484mfjan2qbe1","practice_no_cue","5ecac697f9abb5240d3468d4","5f60e3c0a3b16e07647b2ff9","5f638034a83a7d064d65f3bb","true","1421.1250000516884","./Stimuli/ImagesPractice/LM55.jpg","83","","","","test","true","M + N","83","","LM","LM55.jpg","remember","old","1","1","start","left","","","",""
"html-keyboard-response","12","163414","0.0-2.0-2.0-0.1","ug484mfjan2qbe1","practice_no_cue","5ecac697f9abb5240d3468d4","5f60e3c0a3b16e07647b2ff9","5f638034a83a7d064d65f3bb","false","null","<span style=""color: black; font-size: 48px"">M + N</span>","null","","","","resp_prompt","","","","","","","","","","","","","","","",""
"categorize-image","13","164684","0.0-2.0-2.0-1.1","ug484mfjan2qbe1","practice_no_cue","5ecac697f9abb5240d3468d4","5f60e3c0a3b16e07647b2ff9","5f638034a83a7d064d65f3bb","true","762.8099999856204","./Stimuli/ImagesPractice/LN2.jpg","76","","","","test","true","M + N","76","","LN","LN2.jpg","forget","old","2","1","start","right","","","",""
"html-keyboard-response","14","165389","0.0-2.0-2.0-0.2","ug484mfjan2qbe1","practice_no_cue","5ecac697f9abb5240d3468d4","5f60e3c0a3b16e07647b2ff9","5f638034a83a7d064d65f3bb","false","null","<span style=""color: black; font-size: 48px"">N + M</span>","null","","","","resp_prompt","","","","","","","","","","","","","","","",""
"categorize-image","15","166534","0.0-2.0-2.0-1.2","ug484mfjan2qbe1","practice_no_cue","5ecac697f9abb5240d3468d4","5f60e3c0a3b16e07647b2ff9","5f638034a83a7d064d65f3bb","true","638.039999990724","./Stimuli/ImagesPractice/SN220.jpg","76","","","","test","false","N + M","83","","SN","SN220.jpg","remember","old","3","1","start","right","","","",""
"html-keyboard-response","16","167237","0.0-2.0-2.0-0.3","ug484mfjan2qbe1","practice_no_cue","5ecac697f9abb5240d3468d4","5f60e3c0a3b16e07647b2ff9","5f638034a83a7d064d65f3bb","false","null","<span style=""color: black; font-size: 48px"">N + M</span>","null","","","","resp_prompt","","","","","","","","","","","","","","","",""
"categorize-image","17","168575","0.0-2.0-2.0-1.3","ug484mfjan2qbe1","practice_no_cue","5ecac697f9abb5240d3468d4","5f60e3c0a3b16e07647b2ff9","5f638034a83a7d064d65f3bb","true","832.3300000047311","./Stimuli/ImagesPractice/SN222.jpg","83","","","","test","true","N + M","83","","SN","SN222.jpg","forget","old","4","1","start","left","","","",""
"html-keyboard-response","18","169280","0.0-2.0-2.0-0.4","ug484mfjan2qbe1","practice_no_cue","5ecac697f9abb5240d3468d4","5f60e3c0a3b16e07647b2ff9","5f638034a83a7d064d65f3bb","false","null","<span style=""color: black; font-size: 48px"">M + N</span>","null","","","","resp_prompt","","","","","","","","","","","","","","","",""
"categorize-image","19","170553","0.0-2.0-2.0-1.4","ug484mfjan2qbe1","practice_no_cue","5ecac697f9abb5240d3468d4","5f60e3c0a3b16e07647b2ff9","5f638034a83a7d064d65f3bb","true","771.3450000155717","./Stimuli/ImagesPractice/LM230.jpg","83","","","","test","true","M + N","83","","LM","LM230.jpg","remember","old","5","1","start","left","","","",""
"html-keyboard-response","20","171256","0.0-2.0-2.0-0.5","ug484mfjan2qbe1","practice_no_cue","5ecac697f9abb5240d3468d4","5f60e3c0a3b16e07647b2ff9","5f638034a83a7d064d65f3bb","false","null","<span style=""color: black; font-size: 48px"">M + N</span>","null","","","","resp_prompt","","","","","","","","","","","","","","","",""
"categorize-image","21","172596","0.0-2.0-2.0-1.5","ug484mfjan2qbe1","practice_no_cue","5ecac697f9abb5240d3468d4","5f60e3c0a3b16e07647b2ff9","5f638034a83a7d064d65f3bb","true","836.719999962952","./Stimuli/ImagesPractice/LN15.jpg","76","","","","test","true","M + N","76","","LN","LN15.jpg","forget","old","6","1","start","right","","","",""
"html-keyboard-response","22","173303","0.0-2.0-2.0-0.6","ug484mfjan2qbe1","practice_no_cue","5ecac697f9abb5240d3468d4","5f60e3c0a3b16e07647b2ff9","5f638034a83a7d064d65f3bb","false","null","<span style=""color: black; font-size: 48px"">N + M</span>","null","","","","resp_prompt","","","","","","","","","","","","","","","",""
"categorize-image","23","174883","0.0-2.0-2.0-1.6","ug484mfjan2qbe1","practice_no_cue","5ecac697f9abb5240d3468d4","5f60e3c0a3b16e07647b2ff9","5f638034a83a7d064d65f3bb","true","1074.4500000146218","./Stimuli/ImagesPractice/SM62.jpg","76","","","","test","true","N + M","76","","SM","SM62.jpg","remember","old","7","1","start","right","","","",""
"html-keyboard-response","24","175588","0.0-2.0-2.0-0.7","ug484mfjan2qbe1","practice_no_cue","5ecac697f9abb5240d3468d4","5f60e3c0a3b16e07647b2ff9","5f638034a83a7d064d65f3bb","false","null","<span style=""color: black; font-size: 48px"">M + N</span>","null","","","","resp_prompt","","","","","","","","","","","","","","","",""
"categorize-image","25","176913","0.0-2.0-2.0-1.7","ug484mfjan2qbe1","practice_no_cue","5ecac697f9abb5240d3468d4","5f60e3c0a3b16e07647b2ff9","5f638034a83a7d064d65f3bb","true","822.8249999810942","./Stimuli/ImagesPractice/SN76.jpg","76","","","","test","true","M + N","76","","SN","SN76.jpg","remember","old","8","1","start","right","","","",""
"html-keyboard-response","26","177619","0.0-2.0-2.0-0.8","ug484mfjan2qbe1","practice_no_cue","5ecac697f9abb5240d3468d4","5f60e3c0a3b16e07647b2ff9","5f638034a83a7d064d65f3bb","false","null","<span style=""color: black; font-size: 48px"">N + M</span>","null","","","","resp_prompt","","","","","","","","","","","","","","","",""
"categorize-image","27","178988","0.0-2.0-2.0-1.8","ug484mfjan2qbe1","practice_no_cue","5ecac697f9abb5240d3468d4","5f60e3c0a3b16e07647b2ff9","5f638034a83a7d064d65f3bb","true","861.8400000268593","./Stimuli/ImagesPractice/LM143.jpg","76","","","","test","true","N + M","76","","LM","LM143.jpg","remember","old","9","1","start","right","","","",""
"html-keyboard-response","28","179690","0.0-2.0-2.0-0.9","ug484mfjan2qbe1","practice_no_cue","5ecac697f9abb5240d3468d4","5f60e3c0a3b16e07647b2ff9","5f638034a83a7d064d65f3bb","false","null","<span style=""color: black; font-size: 48px"">M + N</span>","null","","","","resp_prompt","","","","","","","","","","","","","","","",""
"categorize-image","29","181335","0.0-2.0-2.0-1.9","ug484mfjan2qbe1","practice_no_cue","5ecac697f9abb5240d3468d4","5f60e3c0a3b16e07647b2ff9","5f638034a83a7d064d65f3bb","true","1139.580000017304","./Stimuli/ImagesPractice/LN4.jpg","76","","","","test","true","M + N","76","","LN","LN4.jpg","remember","old","10","1","start","right","","","",""
"html-keyboard-response","30","182040","0.0-2.0-2.0-0.10","ug484mfjan2qbe1","practice_no_cue","5ecac697f9abb5240d3468d4","5f60e3c0a3b16e07647b2ff9","5f638034a83a7d064d65f3bb","false","null","<span style=""color: black; font-size: 48px"">M + N</span>","null","","","","resp_prompt","","","","","","","","","","","","","","","",""
"categorize-image","31","183418","0.0-2.0-2.0-1.10","ug484mfjan2qbe1","practice_no_cue","5ecac697f9abb5240d3468d4","5f60e3c0a3b16e07647b2ff9","5f638034a83a7d064d65f3bb","true","876.0500000207685","./Stimuli/ImagesPractice/SN75.jpg","76","","","","test","true","M + N","76","","SN","SN75.jpg","forget","old","11","1","start","right","","","",""
"html-keyboard-response","32","184123","0.0-2.0-2.0-0.11","ug484mfjan2qbe1","practice_no_cue","5ecac697f9abb5240d3468d4","5f60e3c0a3b16e07647b2ff9","5f638034a83a7d064d65f3bb","false","null","<span style=""color: black; font-size: 48px"">M + N</span>","null","","","","resp_prompt","","","","","","","","","","","","","","","",""
"categorize-image","33","185483","0.0-2.0-2.0-1.11","ug484mfjan2qbe1","practice_no_cue","5ecac697f9abb5240d3468d4","5f60e3c0a3b16e07647b2ff9","5f638034a83a7d064d65f3bb","true","853.7699999869801","./Stimuli/ImagesPractice/SM97.jpg","83","","","","test","true","M + N","83","","SM","SM97.jpg","forget","old","12","1","start","left","","","",""
"html-keyboard-response","34","186190","0.0-2.0-2.0-0.12","ug484mfjan2qbe1","practice_no_cue","5ecac697f9abb5240d3468d4","5f60e3c0a3b16e07647b2ff9","5f638034a83a7d064d65f3bb","false","null","<span style=""color: black; font-size: 48px"">N + M</span>","null","","","","resp_prompt","","","","","","","","","","","","","","","",""
"categorize-image","35","187400","0.0-2.0-2.0-1.12","ug484mfjan2qbe1","practice_no_cue","5ecac697f9abb5240d3468d4","5f60e3c0a3b16e07647b2ff9","5f638034a83a7d064d65f3bb","true","708.6800000397488","./Stimuli/ImagesPractice/SM35.jpg","76","","","","test","true","N + M","76","","SM","SM35.jpg","forget","old","13","1","start","right","","","",""
"html-keyboard-response","36","188106","0.0-2.0-2.0-0.13","ug484mfjan2qbe1","practice_no_cue","5ecac697f9abb5240d3468d4","5f60e3c0a3b16e07647b2ff9","5f638034a83a7d064d65f3bb","false","null","<span style=""color: black; font-size: 48px"">N + M</span>","null","","","","resp_prompt","","","","","","","","","","","","","","","",""
"categorize-image","37","189343","0.0-2.0-2.0-1.13","ug484mfjan2qbe1","practice_no_cue","5ecac697f9abb5240d3468d4","5f60e3c0a3b16e07647b2ff9","5f638034a83a7d064d65f3bb","true","733.4499999997206","./Stimuli/ImagesPractice/SN221.jpg","83","","","","test","true","N + M","83","","SN","SN221.jpg","forget","old","14","1","start","left","","","",""
"html-keyboard-response","38","190044","0.0-2.0-2.0-0.14","ug484mfjan2qbe1","practice_no_cue","5ecac697f9abb5240d3468d4","5f60e3c0a3b16e07647b2ff9","5f638034a83a7d064d65f3bb","false","null","<span style=""color: black; font-size: 48px"">N + M</span>","null","","","","resp_prompt","","","","","","","","","","","","","","","",""
"categorize-image","39","191294","0.0-2.0-2.0-1.14","ug484mfjan2qbe1","practice_no_cue","5ecac697f9abb5240d3468d4","5f60e3c0a3b16e07647b2ff9","5f638034a83a7d064d65f3bb","true","747.2950000083074","./Stimuli/ImagesPractice/LN17.jpg","83","","","","test","true","N + M","83","","LN","LN17.jpg","forget","old","15","1","start","left","","","",""
"html-keyboard-response","40","191995","0.0-2.0-2.0-0.15","ug484mfjan2qbe1","practice_no_cue","5ecac697f9abb5240d3468d4","5f60e3c0a3b16e07647b2ff9","5f638034a83a7d064d65f3bb","false","null","<span style=""color: black; font-size: 48px"">N + M</span>","null","","","","resp_prompt","","","","","","","","","","","","","","","",""
"categorize-image","41","193428","0.0-2.0-2.0-1.15","ug484mfjan2qbe1","practice_no_cue","5ecac697f9abb5240d3468d4","5f60e3c0a3b16e07647b2ff9","5f638034a83a7d064d65f3bb","true","929.3349999934435","./Stimuli/ImagesPractice/LM239.jpg","76","","","","test","true","N + M","76","","LM","LM239.jpg","remember","old","16","1","start","right","","","",""
"html-keyboard-response","42","198559","0.0-2.0-3.0","ug484mfjan2qbe1","break","5ecac697f9abb5240d3468d4","5f60e3c0a3b16e07647b2ff9","5f638034a83a7d064d65f3bb","false","5128.415000042878","<p style='font-size: 32px;'>Break</><br><br><br><br><br><p style='font-size: 24px;'>In the last block, you committed 1 errors and did not respond in time on 0 trials.
</p><p style='font-size: 24px;'>Try to respond as fast and accurately as possible in the next block as well! </p><p style='font-size: 24px;'>Press SPACE to continue.</p>","32","","","","","","","","","","","","","","","","","","","",""
"html-keyboard-response","43","203024","0.0-2.0-4.0","ug484mfjan2qbe1","instructions","5ecac697f9abb5240d3468d4","5f60e3c0a3b16e07647b2ff9","5f638034a83a7d064d65f3bb","false","4463.394999969751","<div align=left> Great!<br><br>Are you ready to continue?<br><br>If you want to reread the instructions and redo the practice trials, <br>please press „Z“. <br><br>Press SPACE to CONTINUE with the experiment when you are ready. </div>","32","","","","","","","","","","","","","","","","","","","",""
"html-keyboard-response","44","265732","0.0-3.0-0.0","ug484mfjan2qbe1","instructions","5ecac697f9abb5240d3468d4","5f60e3c0a3b16e07647b2ff9","5f638034a83a7d064d65f3bb","false","62704.345000034664","<div align=left>Great!<br> <strong>Attention</strong>! You will now receive a second, additional task! <br><br>To this point it was you <strong>first task</strong> to correctly <strong>classify objects</strong>. <br><br>As mentioned in the beginning, we aim to examine how well humans can remember previously learned information.<br>We would like to find out whether our memory improves if we only remember information that is relevant to us. <br><br>Therefore, your <strong>second task</strong> will be to <strong>remember</strong> the pictures you are to categorize. <br> After the learning phase, there will be a memory test phase, in which you will be asked to indicate whether you have seen a picture before or not. <br>Some, but not all pictures shown in the learning phase will appear in the memory test phase.<br>After classifying a picture, you will be told whether you should remember it for the memory test phase or not. <br>Thus, some pictures can be forgotten, whereas others have to be remembered. <br><br>Note: From now on, feedback will only be displayed if you responded incorrectly or not in time.<br><br>Press SPACE to continue.</div>","32","","","","","","","","","","","","","","","","","","","",""
"html-keyboard-response","45","279717","0.0-3.0-1.0","ug484mfjan2qbe1","instructions","5ecac697f9abb5240d3468d4","5f60e3c0a3b16e07647b2ff9","5f638034a83a7d064d65f3bb","false","13983.48499997519","<div align=left>In the following part, you will thus have to remember only some pictures. <br>Immediately after seeing and classifying the picture, a symbol will be displayed, indicating whether you should remember or forget the previous picture. <br><br>A <span style='color: dodgerblue; font-size: 28px'>O</span> indicates REMEMBER. That means, you have to remember this picture, because it will be tested later. <br><br>A <span style='color: darkorange; font-size:28px'>Ø</span> indicates FORGET. You do not have to remember this picture. <br><br> As you will have to remember a lot of pictures, it will be hard for you to remember all of them. <br>It will put you at an advantage if you instantly forget the pictures you are not asked to remember. <br> This will make it easier for you to remember the pictures that will be tested afterwards. <br><br>Press SPACE to continue.</div>","32","","","","","","","","","","","","","","","","","","","",""
"html-keyboard-response","46","285370","0.0-3.0-2.0","ug484mfjan2qbe1","instructions","5ecac697f9abb5240d3468d4","5f60e3c0a3b16e07647b2ff9","5f638034a83a7d064d65f3bb","false","5651.889999979176","<div align=left> Now you have the chance to practice both tasks together.<br><br>Remember: <br> <br><li>Please place your index fingers on the <strong>'S'</strong> and <strong>'L'</strong> keys <br>to respond as fast and accurately as possible.</li><li>Every picture can be classified as either mechanical or non-mechanical.</li><li>If you do not respond in time or commit an error, you will receive a corresponding feedback. <br>Please try to respond as <strong> fast </strong> and as <strong> accurately as possible </strong>.</li><li> Please remember only the to-be-remembered <span style='color: dodgerblue; font-size: 28px'>O</span> pictures. <br></li><li> Please minimize distractions and stay focused. </li><br><br>Press SPACE to START</div>","32","","","","","","","","","","","","","","","","","","","",""
"html-keyboard-response","47","286072","0.0-3.0-3.0-0.0","ug484mfjan2qbe1","practice_cue","5ecac697f9abb5240d3468d4","5f60e3c0a3b16e07647b2ff9","5f638034a83a7d064d65f3bb","false","null","<span style=""color: black; font-size: 48px"">M + N</span>","null","","","","resp_prompt","","","","","","","","","","","","","","","",""
"categorize-image","48","286835","0.0-3.0-3.0-1.0","ug484mfjan2qbe1","practice_cue","5ecac697f9abb5240d3468d4","5f60e3c0a3b16e07647b2ff9","5f638034a83a7d064d65f3bb","true","757.9399999813177","./Stimuli/ImagesPractice/LM230.jpg","83","","","","test","true","M + N","83","","LM","LM230.jpg","remember","old","17","2","practice_forget","left","","","",""
"html-keyboard-response","49","288842","0.0-3.0-3.0-3.0","ug484mfjan2qbe1","practice_cue","5ecac697f9abb5240d3468d4","5f60e3c0a3b16e07647b2ff9","5f638034a83a7d064d65f3bb","false","null","<div style=""align-items: center; display: flex; color: dodgerblue; font-size: 90px""><b>o</b></div>","null","","","","forget_cue","","","","","","","","","","","","","","","",""
"html-keyboard-response","50","289547","0.0-3.0-3.0-0.1","ug484mfjan2qbe1","practice_cue","5ecac697f9abb5240d3468d4","5f60e3c0a3b16e07647b2ff9","5f638034a83a7d064d65f3bb","false","null","<span style=""color: black; font-size: 48px"">N + M</span>","null","","","","resp_prompt","","","","","","","","","","","","","","","",""
"categorize-image","51","290400","0.0-3.0-3.0-1.1","ug484mfjan2qbe1","practice_cue","5ecac697f9abb5240d3468d4","5f60e3c0a3b16e07647b2ff9","5f638034a83a7d064d65f3bb","true","849.4500000379048","./Stimuli/ImagesPractice/SN221.jpg","83","","","","test","true","N + M","83","","SN","SN221.jpg","forget","old","18","2","practice_forget","left","","","",""
"html-keyboard-response","52","292402","0.0-3.0-3.0-3.1","ug484mfjan2qbe1","practice_cue","5ecac697f9abb5240d3468d4","5f60e3c0a3b16e07647b2ff9","5f638034a83a7d064d65f3bb","false","null","<div style=""align-items: center; display: flex; color: darkorange; font-size: 90px""><b>ø</b></div>","null","","","","forget_cue","","","","","","","","","","","","","","","",""
"html-keyboard-response","53","293103","0.0-3.0-3.0-0.2","ug484mfjan2qbe1","practice_cue","5ecac697f9abb5240d3468d4","5f60e3c0a3b16e07647b2ff9","5f638034a83a7d064d65f3bb","false","null","<span style=""color: black; font-size: 48px"">N + M</span>","null","","","","resp_prompt","","","","","","","","","","","","","","","",""
"categorize-image","54","293877","0.0-3.0-3.0-1.2","ug484mfjan2qbe1","practice_cue","5ecac697f9abb5240d3468d4","5f60e3c0a3b16e07647b2ff9","5f638034a83a7d064d65f3bb","true","770.2350000035949","./Stimuli/ImagesPractice/SN220.jpg","83","","","","test","true","N + M","83","","SN","SN220.jpg","remember","old","19","2","practice_forget","left","","","",""
"html-keyboard-response","55","295880","0.0-3.0-3.0-3.2","ug484mfjan2qbe1","practice_cue","5ecac697f9abb5240d3468d4","5f60e3c0a3b16e07647b2ff9","5f638034a83a7d064d65f3bb","false","null","<div style=""align-items: center; display: flex; color: dodgerblue; font-size: 90px""><b>o</b></div>","null","","","","forget_cue","","","","","","","","","","","","","","","",""
"html-keyboard-response","56","296585","0.0-3.0-3.0-0.3","ug484mfjan2qbe1","practice_cue","5ecac697f9abb5240d3468d4","5f60e3c0a3b16e07647b2ff9","5f638034a83a7d064d65f3bb","false","null","<span style=""color: black; font-size: 48px"">N + M</span>","null","","","","resp_prompt","","","","","","","","","","","","","","","",""
"categorize-image","57","297526","0.0-3.0-3.0-1.3","ug484mfjan2qbe1","practice_cue","5ecac697f9abb5240d3468d4","5f60e3c0a3b16e07647b2ff9","5f638034a83a7d064d65f3bb","true","937.305000028573","./Stimuli/ImagesPractice/LN17.jpg","83","","","","test","true","N + M","83","","LN","LN17.jpg","forget","old","20","2","practice_forget","left","","","",""
"html-keyboard-response","58","299530","0.0-3.0-3.0-3.3","ug484mfjan2qbe1","practice_cue","5ecac697f9abb5240d3468d4","5f60e3c0a3b16e07647b2ff9","5f638034a83a7d064d65f3bb","false","null","<div style=""align-items: center; display: flex; color: darkorange; font-size: 90px""><b>ø</b></div>","null","","","","forget_cue","","","","","","","","","","","","","","","",""
"html-keyboard-response","59","300235","0.0-3.0-3.0-0.4","ug484mfjan2qbe1","practice_cue","5ecac697f9abb5240d3468d4","5f60e3c0a3b16e07647b2ff9","5f638034a83a7d064d65f3bb","false","null","<span style=""color: black; font-size: 48px"">M + N</span>","null","","","","resp_prompt","","","","","","","","","","","","","","","",""
"categorize-image","60","301152","0.0-3.0-3.0-1.4","ug484mfjan2qbe1","practice_cue","5ecac697f9abb5240d3468d4","5f60e3c0a3b16e07647b2ff9","5f638034a83a7d064d65f3bb","true","913.2849999587052","./Stimuli/ImagesPractice/LN4.jpg","83","","","","test","false","M + N","76","","LN","LN4.jpg","remember","old","21","2","practice_forget","left","","","",""
"html-keyboard-response","61","301654","0.0-3.0-3.0-2.4-0.4","ug484mfjan2qbe1","practice_cue","5ecac697f9abb5240d3468d4","5f60e3c0a3b16e07647b2ff9","5f638034a83a7d064d65f3bb","false","null","<span style=""color: red; font-size: 48px"">Error!</span>","null","","","","feedback","","","","","","","","","","","","","","","",""
"html-keyboard-response","62","303658","0.0-3.0-3.0-3.4","ug484mfjan2qbe1","practice_cue","5ecac697f9abb5240d3468d4","5f60e3c0a3b16e07647b2ff9","5f638034a83a7d064d65f3bb","false","null","<div style=""align-items: center; display: flex; color: dodgerblue; font-size: 90px""><b>o</b></div>","null","","","","forget_cue","","","","","","","","","","","","","","","",""
"html-keyboard-response","63","304361","0.0-3.0-3.0-0.5","ug484mfjan2qbe1","practice_cue","5ecac697f9abb5240d3468d4","5f60e3c0a3b16e07647b2ff9","5f638034a83a7d064d65f3bb","false","null","<span style=""color: black; font-size: 48px"">N + M</span>","null","","","","resp_prompt","","","","","","","","","","","","","","","",""
"categorize-image","64","305289","0.0-3.0-3.0-1.5","ug484mfjan2qbe1","practice_cue","5ecac697f9abb5240d3468d4","5f60e3c0a3b16e07647b2ff9","5f638034a83a7d064d65f3bb","true","924.4850000250153","./Stimuli/ImagesPractice/SM62.jpg","83","","","","test","false","N + M","76","","SM","SM62.jpg","remember","old","22","2","practice_forget","left","","","",""
"html-keyboard-response","65","305791","0.0-3.0-3.0-2.5-0.5","ug484mfjan2qbe1","practice_cue","5ecac697f9abb5240d3468d4","5f60e3c0a3b16e07647b2ff9","5f638034a83a7d064d65f3bb","false","null","<span style=""color: red; font-size: 48px"">Error!</span>","null","","","","feedback","","","","","","","","","","","","","","","",""
"html-keyboard-response","66","307794","0.0-3.0-3.0-3.5","ug484mfjan2qbe1","practice_cue","5ecac697f9abb5240d3468d4","5f60e3c0a3b16e07647b2ff9","5f638034a83a7d064d65f3bb","false","null","<div style=""align-items: center; display: flex; color: dodgerblue; font-size: 90px""><b>o</b></div>","null","","","","forget_cue","","","","","","","","","","","","","","","",""
"html-keyboard-response","67","308499","0.0-3.0-3.0-0.6","ug484mfjan2qbe1","practice_cue","5ecac697f9abb5240d3468d4","5f60e3c0a3b16e07647b2ff9","5f638034a83a7d064d65f3bb","false","null","<span style=""color: black; font-size: 48px"">M + N</span>","null","","","","resp_prompt","","","","","","","","","","","","","","","",""
"categorize-image","68","309246","0.0-3.0-3.0-1.6","ug484mfjan2qbe1","practice_cue","5ecac697f9abb5240d3468d4","5f60e3c0a3b16e07647b2ff9","5f638034a83a7d064d65f3bb","true","743.7500000232831","./Stimuli/ImagesPractice/LN2.jpg","76","","","","test","true","M + N","76","","LN","LN2.jpg","forget","old","23","2","practice_forget","right","","","",""
"html-keyboard-response","69","311250","0.0-3.0-3.0-3.6","ug484mfjan2qbe1","practice_cue","5ecac697f9abb5240d3468d4","5f60e3c0a3b16e07647b2ff9","5f638034a83a7d064d65f3bb","false","null","<div style=""align-items: center; display: flex; color: darkorange; font-size: 90px""><b>ø</b></div>","null","","","","forget_cue","","","","","","","","","","","","","","","",""
"html-keyboard-response","70","311952","0.0-3.0-3.0-0.7","ug484mfjan2qbe1","practice_cue","5ecac697f9abb5240d3468d4","5f60e3c0a3b16e07647b2ff9","5f638034a83a7d064d65f3bb","false","null","<span style=""color: black; font-size: 48px"">M + N</span>","null","","","","resp_prompt","","","","","","","","","","","","","","","",""
"categorize-image","71","312936","0.0-3.0-3.0-1.7","ug484mfjan2qbe1","practice_cue","5ecac697f9abb5240d3468d4","5f60e3c0a3b16e07647b2ff9","5f638034a83a7d064d65f3bb","true","977.1099999779835","./Stimuli/ImagesPractice/SM97.jpg","83","","","","test","true","M + N","83","","SM","SM97.jpg","forget","old","24","2","practice_forget","left","","","",""
"html-keyboard-response","72","314938","0.0-3.0-3.0-3.7","ug484mfjan2qbe1","practice_cue","5ecac697f9abb5240d3468d4","5f60e3c0a3b16e07647b2ff9","5f638034a83a7d064d65f3bb","false","null","<div style=""align-items: center; display: flex; color: darkorange; font-size: 90px""><b>ø</b></div>","null","","","","forget_cue","","","","","","","","","","","","","","","",""
"html-keyboard-response","73","315640","0.0-3.0-3.0-0.8","ug484mfjan2qbe1","practice_cue","5ecac697f9abb5240d3468d4","5f60e3c0a3b16e07647b2ff9","5f638034a83a7d064d65f3bb","false","null","<span style=""color: black; font-size: 48px"">M + N</span>","null","","","","resp_prompt","","","","","","","","","","","","","","","",""
"categorize-image","74","316547","0.0-3.0-3.0-1.8","ug484mfjan2qbe1","practice_cue","5ecac697f9abb5240d3468d4","5f60e3c0a3b16e07647b2ff9","5f638034a83a7d064d65f3bb","true","903.8249999866821","./Stimuli/ImagesPractice/LM55.jpg","83","","","","test","true","M + N","83","","LM","LM55.jpg","remember","old","25","2","practice_forget","left","","","",""
"html-keyboard-response","75","318552","0.0-3.0-3.0-3.8","ug484mfjan2qbe1","practice_cue","5ecac697f9abb5240d3468d4","5f60e3c0a3b16e07647b2ff9","5f638034a83a7d064d65f3bb","false","null","<div style=""align-items: center; display: flex; color: dodgerblue; font-size: 90px""><b>o</b></div>","null","","","","forget_cue","","","","","","","","","","","","","","","",""
"html-keyboard-response","76","319258","0.0-3.0-3.0-0.9","ug484mfjan2qbe1","practice_cue","5ecac697f9abb5240d3468d4","5f60e3c0a3b16e07647b2ff9","5f638034a83a7d064d65f3bb","false","null","<span style=""color: black; font-size: 48px"">N + M</span>","null","","","","resp_prompt","","","","","","","","","","","","","","","",""
"categorize-image","77","320097","0.0-3.0-3.0-1.9","ug484mfjan2qbe1","practice_cue","5ecac697f9abb5240d3468d4","5f60e3c0a3b16e07647b2ff9","5f638034a83a7d064d65f3bb","true","834.2950000078417","./Stimuli/ImagesPractice/SN222.jpg","76","","","","test","false","N + M","83","","SN","SN222.jpg","forget","old","26","2","practice_forget","right","","","",""
"html-keyboard-response","78","320601","0.0-3.0-3.0-2.9-0.9","ug484mfjan2qbe1","practice_cue","5ecac697f9abb5240d3468d4","5f60e3c0a3b16e07647b2ff9","5f638034a83a7d064d65f3bb","false","null","<span style=""color: red; font-size: 48px"">Error!</span>","null","","","","feedback","","","","","","","","","","","","","","","",""
"html-keyboard-response","79","322606","0.0-3.0-3.0-3.9","ug484mfjan2qbe1","practice_cue","5ecac697f9abb5240d3468d4","5f60e3c0a3b16e07647b2ff9","5f638034a83a7d064d65f3bb","false","null","<div style=""align-items: center; display: flex; color: darkorange; font-size: 90px""><b>ø</b></div>","null","","","","forget_cue","","","","","","","","","","","","","","","",""
"html-keyboard-response","80","323312","0.0-3.0-3.0-0.10","ug484mfjan2qbe1","practice_cue","5ecac697f9abb5240d3468d4","5f60e3c0a3b16e07647b2ff9","5f638034a83a7d064d65f3bb","false","null","<span style=""color: black; font-size: 48px"">N + M</span>","null","","","","resp_prompt","","","","","","","","","","","","","","","",""
"categorize-image","81","324071","0.0-3.0-3.0-1.10","ug484mfjan2qbe1","practice_cue","5ecac697f9abb5240d3468d4","5f60e3c0a3b16e07647b2ff9","5f638034a83a7d064d65f3bb","true","754.784999997355","./Stimuli/ImagesPractice/LM143.jpg","76","","","","test","true","N + M","76","","LM","LM143.jpg","remember","old","27","2","practice_forget","right","","","",""
"html-keyboard-response","82","326072","0.0-3.0-3.0-3.10","ug484mfjan2qbe1","practice_cue","5ecac697f9abb5240d3468d4","5f60e3c0a3b16e07647b2ff9","5f638034a83a7d064d65f3bb","false","null","<div style=""align-items: center; display: flex; color: dodgerblue; font-size: 90px""><b>o</b></div>","null","","","","forget_cue","","","","","","","","","","","","","","","",""
"html-keyboard-response","83","326777","0.0-3.0-3.0-0.11","ug484mfjan2qbe1","practice_cue","5ecac697f9abb5240d3468d4","5f60e3c0a3b16e07647b2ff9","5f638034a83a7d064d65f3bb","false","null","<span style=""color: black; font-size: 48px"">N + M</span>","null","","","","resp_prompt","","","","","","","","","","","","","","","",""
"categorize-image","84","327544","0.0-3.0-3.0-1.11","ug484mfjan2qbe1","practice_cue","5ecac697f9abb5240d3468d4","5f60e3c0a3b16e07647b2ff9","5f638034a83a7d064d65f3bb","true","763.1450000335462","./Stimuli/ImagesPractice/LM239.jpg","76","","","","test","true","N + M","76","","LM","LM239.jpg","remember","old","28","2","practice_forget","right","","","",""
"html-keyboard-response","85","329548","0.0-3.0-3.0-3.11","ug484mfjan2qbe1","practice_cue","5ecac697f9abb5240d3468d4","5f60e3c0a3b16e07647b2ff9","5f638034a83a7d064d65f3bb","false","null","<div style=""align-items: center; display: flex; color: dodgerblue; font-size: 90px""><b>o</b></div>","null","","","","forget_cue","","","","","","","","","","","","","","","",""
"html-keyboard-response","86","330252","0.0-3.0-3.0-0.12","ug484mfjan2qbe1","practice_cue","5ecac697f9abb5240d3468d4","5f60e3c0a3b16e07647b2ff9","5f638034a83a7d064d65f3bb","false","null","<span style=""color: black; font-size: 48px"">M + N</span>","null","","","","resp_prompt","","","","","","","","","","","","","","","",""
"categorize-image","87","331130","0.0-3.0-3.0-1.12","ug484mfjan2qbe1","practice_cue","5ecac697f9abb5240d3468d4","5f60e3c0a3b16e07647b2ff9","5f638034a83a7d064d65f3bb","true","872.9649999877438","./Stimuli/ImagesPractice/LN15.jpg","76","","","","test","true","M + N","76","","LN","LN15.jpg","forget","old","29","2","practice_forget","right","","","",""
"html-keyboard-response","88","333135","0.0-3.0-3.0-3.12","ug484mfjan2qbe1","practice_cue","5ecac697f9abb5240d3468d4","5f60e3c0a3b16e07647b2ff9","5f638034a83a7d064d65f3bb","false","null","<div style=""align-items: center; display: flex; color: darkorange; font-size: 90px""><b>ø</b></div>","null","","","","forget_cue","","","","","","","","","","","","","","","",""
"html-keyboard-response","89","333841","0.0-3.0-3.0-0.13","ug484mfjan2qbe1","practice_cue","5ecac697f9abb5240d3468d4","5f60e3c0a3b16e07647b2ff9","5f638034a83a7d064d65f3bb","false","null","<span style=""color: black; font-size: 48px"">M + N</span>","null","","","","resp_prompt","","","","","","","","","","","","","","","",""
"categorize-image","90","334975","0.0-3.0-3.0-1.13","ug484mfjan2qbe1","practice_cue","5ecac697f9abb5240d3468d4","5f60e3c0a3b16e07647b2ff9","5f638034a83a7d064d65f3bb","true","1129.3249999871477","./Stimuli/ImagesPractice/SN75.jpg","83","","","","test","false","M + N","76","","SN","SN75.jpg","forget","old","30","2","practice_forget","left","","","",""
"html-keyboard-response","91","335478","0.0-3.0-3.0-2.13-0.13","ug484mfjan2qbe1","practice_cue","5ecac697f9abb5240d3468d4","5f60e3c0a3b16e07647b2ff9","5f638034a83a7d064d65f3bb","false","null","<span style=""color: red; font-size: 48px"">Error!</span>","null","","","","feedback","","","","","","","","","","","","","","","",""
"html-keyboard-response","92","337479","0.0-3.0-3.0-3.13","ug484mfjan2qbe1","practice_cue","5ecac697f9abb5240d3468d4","5f60e3c0a3b16e07647b2ff9","5f638034a83a7d064d65f3bb","false","null","<div style=""align-items: center; display: flex; color: darkorange; font-size: 90px""><b>ø</b></div>","null","","","","forget_cue","","","","","","","","","","","","","","","",""
"html-keyboard-response","93","338186","0.0-3.0-3.0-0.14","ug484mfjan2qbe1","practice_cue","5ecac697f9abb5240d3468d4","5f60e3c0a3b16e07647b2ff9","5f638034a83a7d064d65f3bb","false","null","<span style=""color: black; font-size: 48px"">N + M</span>","null","","","","resp_prompt","","","","","","","","","","","","","","","",""
"categorize-image","94","338986","0.0-3.0-3.0-1.14","ug484mfjan2qbe1","practice_cue","5ecac697f9abb5240d3468d4","5f60e3c0a3b16e07647b2ff9","5f638034a83a7d064d65f3bb","true","796.2149999802932","./Stimuli/ImagesPractice/SM35.jpg","76","","","","test","true","N + M","76","","SM","SM35.jpg","forget","old","31","2","practice_forget","right","","","",""
"html-keyboard-response","95","340992","0.0-3.0-3.0-3.14","ug484mfjan2qbe1","practice_cue","5ecac697f9abb5240d3468d4","5f60e3c0a3b16e07647b2ff9","5f638034a83a7d064d65f3bb","false","null","<div style=""align-items: center; display: flex; color: darkorange; font-size: 90px""><b>ø</b></div>","null","","","","forget_cue","","","","","","","","","","","","","","","",""
"html-keyboard-response","96","341695","0.0-3.0-3.0-0.15","ug484mfjan2qbe1","practice_cue","5ecac697f9abb5240d3468d4","5f60e3c0a3b16e07647b2ff9","5f638034a83a7d064d65f3bb","false","null","<span style=""color: black; font-size: 48px"">M + N</span>","null","","","","resp_prompt","","","","","","","","","","","","","","","",""
"categorize-image","97","342619","0.0-3.0-3.0-1.15","ug484mfjan2qbe1","practice_cue","5ecac697f9abb5240d3468d4","5f60e3c0a3b16e07647b2ff9","5f638034a83a7d064d65f3bb","true","919.8050000122748","./Stimuli/ImagesPractice/SN76.jpg","76","","","","test","true","M + N","76","","SN","SN76.jpg","remember","old","32","2","practice_forget","right","","","",""
"html-keyboard-response","98","344622","0.0-3.0-3.0-3.15","ug484mfjan2qbe1","practice_cue","5ecac697f9abb5240d3468d4","5f60e3c0a3b16e07647b2ff9","5f638034a83a7d064d65f3bb","false","null","<div style=""align-items: center; display: flex; color: dodgerblue; font-size: 90px""><b>o</b></div>","null","","","","forget_cue","","","","","","","","","","","","","","","",""
"html-keyboard-response","99","346858","0.0-3.0-4.0","ug484mfjan2qbe1","break","5ecac697f9abb5240d3468d4","5f60e3c0a3b16e07647b2ff9","5f638034a83a7d064d65f3bb","false","2234.4649999868125","<p style='font-size: 32px;'>Break</><br><br><br><br><br><p style='font-size: 24px;'>In the last block, you committed 4 errors and did not respond in time on 0 trials.
</p><p style='font-size: 24px;'>Try to respond as fast and accurately as possible in the next block as well! </p><p style='font-size: 24px;'>Press SPACE to continue.</p>","32","","","","","","","","","","","","","","","","","","","",""
"html-keyboard-response","100","348237","0.0-3.0-5.0","ug484mfjan2qbe1","instructions","5ecac697f9abb5240d3468d4","5f60e3c0a3b16e07647b2ff9","5f638034a83a7d064d65f3bb","false","1377.7199999894947","<div align=left> Now, to practice, we kindly ask you to remember as many of the to-be-remembered pictures<br>of the previous learning phase as possible.<br><br>The pictures you were instructed to remember were the pictures followed by a <span style='color: dodgerblue; font-size: 28px'>O</span>.<br><br>In this memory test phase, you will also see some new pictures.<br>It is your task to remember whether you were presented with this specific picture in this study so far or not.<br>If you recognize an object (you have already seen it in this study), it is an OLD object. <br>If you do not recognize an object (you have NOT seen it in this study), it is a NEW object. <br><strong> Attention</strong>: As already mentioned, <span style='color: darkorange; font-size:28px'>Ø</span>-pictures will <strong>never</strong> appear in this memory test (neither as new objects). <br><br>Press SPACE to continue. </div>","32","","","","","","","","","","","","","","","","","","","",""
"html-keyboard-response","101","350664","0.0-3.0-6.0","ug484mfjan2qbe1","instructions","5ecac697f9abb5240d3468d4","5f60e3c0a3b16e07647b2ff9","5f638034a83a7d064d65f3bb","false","2425.649999990128","<div align=left> M and N no longer will appear on the left/right of the fixation cross. <br>Instead there will be a note at the bottom of the left or right side  <br>indicating which key you should press for an old or new object:  <br> <br>Press the <strong>right</strong> key to classify an object as <strong>old</strong> and press the <strong>left</strong>, to classify an object as <strong>new</strong>.<br>Please classify the objects as new/old by again placing your index finger on the 'S' and 'L' keys <br>and press them accordingly.<br><br><strong>Old:</strong> This object has been presented before. <br><strong>New:</strong> This object has <strong>not</strong> been presented.<br><br>Now please put your right and left index fingers on the 'S' and 'L' keys of your keyboard. <br>Please respond as fast and as accurately as possible!<br><br>Press SPACE to continue. </div>","32","","","","","","","","","","","","","","","","","","","",""
"categorize-image","102","353769","0.0-3.0-7.0-0.0","ug484mfjan2qbe1","practice_recog","5ecac697f9abb5240d3468d4","5f60e3c0a3b16e07647b2ff9","5f638034a83a7d064d65f3bb","true","2600.380000018049","./Stimuli/ImagesPractice/LM143.jpg","76","","","","test","true","","76","","LM","LM143.jpg","","old","33","3","practice_recog","right","","","",""
"categorize-image","103","355353","0.0-3.0-7.0-0.1","ug484mfjan2qbe1","practice_recog","5ecac697f9abb5240d3468d4","5f60e3c0a3b16e07647b2ff9","5f638034a83a7d064d65f3bb","true","1077.4300000048243","./Stimuli/ImagesPractice/SM98.jpg","83","","","","test","true","","83","","SM","SM98.jpg","","new","34","3","practice_recog","left","","","",""
"categorize-image","104","358003","0.0-3.0-7.0-0.2","ug484mfjan2qbe1","practice_recog","5ecac697f9abb5240d3468d4","5f60e3c0a3b16e07647b2ff9","5f638034a83a7d064d65f3bb","true","2146.4450000203215","./Stimuli/ImagesPractice/SN76.jpg","83","","","","test","false","","76","","SN","SN76.jpg","","old","35","3","practice_recog","left","","","",""
"categorize-image","105","359754","0.0-3.0-7.0-0.3","ug484mfjan2qbe1","practice_recog","5ecac697f9abb5240d3468d4","5f60e3c0a3b16e07647b2ff9","5f638034a83a7d064d65f3bb","true","1246.3050000369549","./Stimuli/ImagesPractice/LM147.jpg","83","","","","test","true","","83","","LM","LM147.jpg","","new","36","3","practice_recog","left","","","",""
"categorize-image","106","361253","0.0-3.0-7.0-0.4","ug484mfjan2qbe1","practice_recog","5ecac697f9abb5240d3468d4","5f60e3c0a3b16e07647b2ff9","5f638034a83a7d064d65f3bb","true","995.920000015758","./Stimuli/ImagesPractice/LM239.jpg","76","","","","test","true","","76","","LM","LM239.jpg","","old","37","3","practice_recog","right","","","",""
"categorize-image","107","362774","0.0-3.0-7.0-0.5","ug484mfjan2qbe1","practice_recog","5ecac697f9abb5240d3468d4","5f60e3c0a3b16e07647b2ff9","5f638034a83a7d064d65f3bb","true","1016.5600000182167","./Stimuli/ImagesPractice/SM61.jpg","83","","","","test","true","","83","","SM","SM61.jpg","","new","38","3","practice_recog","left","","","",""
"categorize-image","108","364895","0.0-3.0-7.0-0.6","ug484mfjan2qbe1","practice_recog","5ecac697f9abb5240d3468d4","5f60e3c0a3b16e07647b2ff9","5f638034a83a7d064d65f3bb","true","1614.8549999925308","./Stimuli/ImagesPractice/SM37.jpg","76","","","","test","false","","83","","SM","SM37.jpg","","new","39","3","practice_recog","right","","","",""
"categorize-image","109","366236","0.0-3.0-7.0-0.7","ug484mfjan2qbe1","practice_recog","5ecac697f9abb5240d3468d4","5f60e3c0a3b16e07647b2ff9","5f638034a83a7d064d65f3bb","true","838.5349999880418","./Stimuli/ImagesPractice/SN220.jpg","76","","","","test","true","","76","","SN","SN220.jpg","","old","40","3","practice_recog","right","","","",""
"categorize-image","110","367762","0.0-3.0-7.0-0.8","ug484mfjan2qbe1","practice_recog","5ecac697f9abb5240d3468d4","5f60e3c0a3b16e07647b2ff9","5f638034a83a7d064d65f3bb","true","1021.4849999756552","./Stimuli/ImagesPractice/SN205.jpg","83","","","","test","true","","83","","SN","SN205.jpg","","new","41","3","practice_recog","left","","","",""
"categorize-image","111","369606","0.0-3.0-7.0-0.9","ug484mfjan2qbe1","practice_recog","5ecac697f9abb5240d3468d4","5f60e3c0a3b16e07647b2ff9","5f638034a83a7d064d65f3bb","true","1341.7200000258163","./Stimuli/ImagesPractice/LN72.jpg","83","","","","test","true","","83","","LN","LN72.jpg","","new","42","3","practice_recog","left","","","",""
"categorize-image","112","370812","0.0-3.0-7.0-0.10","ug484mfjan2qbe1","practice_recog","5ecac697f9abb5240d3468d4","5f60e3c0a3b16e07647b2ff9","5f638034a83a7d064d65f3bb","true","700.9249999537133","./Stimuli/ImagesPractice/LM230.jpg","76","","","","test","true","","76","","LM","LM230.jpg","","old","43","3","practice_recog","right","","","",""
"categorize-image","113","372406","0.0-3.0-7.0-0.11","ug484mfjan2qbe1","practice_recog","5ecac697f9abb5240d3468d4","5f60e3c0a3b16e07647b2ff9","5f638034a83a7d064d65f3bb","true","1091.2549999775365","./Stimuli/ImagesPractice/LM55.jpg","83","","","","test","false","","76","","LM","LM55.jpg","","old","44","3","practice_recog","left","","","",""
"categorize-image","114","375170","0.0-3.0-7.0-0.12","ug484mfjan2qbe1","practice_recog","5ecac697f9abb5240d3468d4","5f60e3c0a3b16e07647b2ff9","5f638034a83a7d064d65f3bb","true","2258.4899999783374","./Stimuli/ImagesPractice/LN109.jpg","83","","","","test","true","","83","","LN","LN109.jpg","","new","45","3","practice_recog","left","","","",""
"categorize-image","115","376453","0.0-3.0-7.0-0.13","ug484mfjan2qbe1","practice_recog","5ecac697f9abb5240d3468d4","5f60e3c0a3b16e07647b2ff9","5f638034a83a7d064d65f3bb","true","777.9549999977462","./Stimuli/ImagesPractice/SM62.jpg","76","","","","test","true","","76","","SM","SM62.jpg","","old","46","3","practice_recog","right","","","",""
"categorize-image","116","377986","0.0-3.0-7.0-0.14","ug484mfjan2qbe1","practice_recog","5ecac697f9abb5240d3468d4","5f60e3c0a3b16e07647b2ff9","5f638034a83a7d064d65f3bb","true","1030.8200000436045","./Stimuli/ImagesPractice/LM224.jpg","83","","","","test","true","","83","","LM","LM224.jpg","","new","47","3","practice_recog","left","","","",""
"categorize-image","117","379665","0.0-3.0-7.0-0.15","ug484mfjan2qbe1","practice_recog","5ecac697f9abb5240d3468d4","5f60e3c0a3b16e07647b2ff9","5f638034a83a7d064d65f3bb","true","1176.1650000116788","./Stimuli/ImagesPractice/LN4.jpg","76","","","","test","true","","76","","LN","LN4.jpg","","old","48","3","practice_recog","right","","","",""
"html-keyboard-response","118","382680","0.0-3.0-8.0","ug484mfjan2qbe1","instructions","5ecac697f9abb5240d3468d4","5f60e3c0a3b16e07647b2ff9","5f638034a83a7d064d65f3bb","false","3013.3550000027753","<div align=left> Great!<br><br>Are you ready to continue?<br>If you want to reread the instructions and redo the practice trials, please <br>press „Z“.<br><br>You can proceed when you are ready.<br><br>After the presentation of each object, you will receive an instruction whether to <br>remember or to forget the object.<br>We will test your memory of the following pictures only at the very end of <br>the experiment after all learning blocks are completed. <br><br>Press SPACE to CONTINUE when you are ready. </div>","32","","","","","","","","","","","","","","","","","","","",""
"html-keyboard-response","119","384067","0.0-4.0-0.0","ug484mfjan2qbe1","instructions","5ecac697f9abb5240d3468d4","5f60e3c0a3b16e07647b2ff9","5f638034a83a7d064d65f3bb","false","1385.5099999927916","<div align=left> The actual experiment is about to start.<br>The practice trials are over!<br><br>Please always respond both fast and accurately!<br><br>Remember: <br> <br><li> Please place your index fingers on the <strong>'S'</strong> and <strong>'L'</strong> keys <br>to respond as fast and accurately as possible.</li><li> Every picture can be classified as either mechanical or non-mechanical.</li><li> If you do not respond in time or commit an error, you will receive a corresponding feedback.<br> Please try to respond as <strong> fast </strong> and as <strong> accurately as possible </strong>.</li><li> Remember the <span style='color: dodgerblue; font-size: 28px'>O</span> pictures. <br></li><li> Please minimize distractions and stay focused. </li><br><br>Press SPACE to START.</div>","32","","","","","","","","","","","","","","","","","","","",""
"html-keyboard-response","120","384770","0.0-4.0-1.0-0.0","ug484mfjan2qbe1","prime","5ecac697f9abb5240d3468d4","5f60e3c0a3b16e07647b2ff9","5f638034a83a7d064d65f3bb","false","null","<span style=""color: black; font-size: 48px"">M + N</span>","null","","","","resp_prompt","","","","","","","","","","","","","","","",""
"categorize-image","121","386779","0.0-4.0-1.0-1.0","ug484mfjan2qbe1","prime","5ecac697f9abb5240d3468d4","5f60e3c0a3b16e07647b2ff9","5f638034a83a7d064d65f3bb","true","null","./Stimuli/SelectedImages/LM/LM103.bmp","null","","","","test","false","M + N","83","switch","LM","LM103.bmp","remember","","49","3","prime1","too_slow","","","",""
"html-keyboard-response","122","387281","0.0-4.0-1.0-2.0-0.0","ug484mfjan2qbe1","prime","5ecac697f9abb5240d3468d4","5f60e3c0a3b16e07647b2ff9","5f638034a83a7d064d65f3bb","false","null","<span style=""color: red; font-size: 48px"">Too slow!</span>","null","","","","feedback","","","","","","","","","","","","","","","",""
"html-keyboard-response","123","389287","0.0-4.0-1.0-3.0","ug484mfjan2qbe1","prime","5ecac697f9abb5240d3468d4","5f60e3c0a3b16e07647b2ff9","5f638034a83a7d064d65f3bb","false","null","<div style=""align-items: center; display: flex; color: dodgerblue; font-size: 90px""><b>o</b></div>","null","","","","forget_cue","","","","","","","","","","","","","","","",""
"html-keyboard-response","124","389992","0.0-4.0-1.0-0.1","ug484mfjan2qbe1","prime","5ecac697f9abb5240d3468d4","5f60e3c0a3b16e07647b2ff9","5f638034a83a7d064d65f3bb","false","null","<span style=""color: black; font-size: 48px"">M + N</span>","null","","","","resp_prompt","","","","","","","","","","","","","","","",""
"categorize-image","125","391161","0.0-4.0-1.0-1.1","ug484mfjan2qbe1","prime","5ecac697f9abb5240d3468d4","5f60e3c0a3b16e07647b2ff9","5f638034a83a7d064d65f3bb","true","1165.1199999614619","./Stimuli/SelectedImages/SM/SM205.bmp","83","","","","test","true","M + N","83","switch","SM","SM205.bmp","remember","","50","3","prime1","left","","","",""
"html-keyboard-response","126","393164","0.0-4.0-1.0-3.1","ug484mfjan2qbe1","prime","5ecac697f9abb5240d3468d4","5f60e3c0a3b16e07647b2ff9","5f638034a83a7d064d65f3bb","false","null","<div style=""align-items: center; display: flex; color: dodgerblue; font-size: 90px""><b>o</b></div>","null","","","","forget_cue","","","","","","","","","","","","","","","",""
"html-keyboard-response","127","393870","0.0-4.0-1.0-0.2","ug484mfjan2qbe1","prime","5ecac697f9abb5240d3468d4","5f60e3c0a3b16e07647b2ff9","5f638034a83a7d064d65f3bb","false","null","<span style=""color: black; font-size: 48px"">N + M</span>","null","","","","resp_prompt","","","","","","","","","","","","","","","",""
"categorize-image","128","394643","0.0-4.0-1.0-1.2","ug484mfjan2qbe1","prime","5ecac697f9abb5240d3468d4","5f60e3c0a3b16e07647b2ff9","5f638034a83a7d064d65f3bb","true","769.5899999816902","./Stimuli/SelectedImages/SN/SN49.bmp","83","","","","test","true","N + M","83","switch","SN","SN49.bmp","forget","","51","3","prime1","left","","","",""
"html-keyboard-response","129","396645","0.0-4.0-1.0-3.2","ug484mfjan2qbe1","prime","5ecac697f9abb5240d3468d4","5f60e3c0a3b16e07647b2ff9","5f638034a83a7d064d65f3bb","false","null","<div style=""align-items: center; display: flex; color: darkorange; font-size: 90px""><b>ø</b></div>","null","","","","forget_cue","","","","","","","","","","","","","","","",""
"html-keyboard-response","130","397348","0.0-4.0-1.0-0.3","ug484mfjan2qbe1","prime","5ecac697f9abb5240d3468d4","5f60e3c0a3b16e07647b2ff9","5f638034a83a7d064d65f3bb","false","null","<span style=""color: black; font-size: 48px"">N + M</span>","null","","","","resp_prompt","","","","","","","","","","","","","","","",""
"categorize-image","131","398247","0.0-4.0-1.0-1.3","ug484mfjan2qbe1","prime","5ecac697f9abb5240d3468d4","5f60e3c0a3b16e07647b2ff9","5f638034a83a7d064d65f3bb","true","896.100000012666","./Stimuli/SelectedImages/SN/SN52.bmp","83","","","","test","true","N + M","83","repetition","SN","SN52.bmp","remember","","52","3","prime1","left","","","",""
"html-keyboard-response","132","400250","0.0-4.0-1.0-3.3","ug484mfjan2qbe1","prime","5ecac697f9abb5240d3468d4","5f60e3c0a3b16e07647b2ff9","5f638034a83a7d064d65f3bb","false","null","<div style=""align-items: center; display: flex; color: dodgerblue; font-size: 90px""><b>o</b></div>","null","","","","forget_cue","","","","","","","","","","","","","","","",""
"html-keyboard-response","133","400953","0.0-4.0-1.0-0.4","ug484mfjan2qbe1","prime","5ecac697f9abb5240d3468d4","5f60e3c0a3b16e07647b2ff9","5f638034a83a7d064d65f3bb","false","null","<span style=""color: black; font-size: 48px"">M + N</span>","null","","","","resp_prompt","","","","","","","","","","","","","","","",""
"categorize-image","134","402775","0.0-4.0-1.0-1.4","ug484mfjan2qbe1","prime","5ecac697f9abb5240d3468d4","5f60e3c0a3b16e07647b2ff9","5f638034a83a7d064d65f3bb","true","1817.1549999970011","./Stimuli/SelectedImages/SM/SM73.bmp","76","","","","test","false","M + N","83","repetition","SM","SM73.bmp","forget","","53","3","prime1","right","","","",""
"html-keyboard-response","135","403275","0.0-4.0-1.0-2.4-0.4","ug484mfjan2qbe1","prime","5ecac697f9abb5240d3468d4","5f60e3c0a3b16e07647b2ff9","5f638034a83a7d064d65f3bb","false","null","<span style=""color: red; font-size: 48px"">Error!</span>","null","","","","feedback","","","","","","","","","","","","","","","",""
"html-keyboard-response","136","405279","0.0-4.0-1.0-3.4","ug484mfjan2qbe1","prime","5ecac697f9abb5240d3468d4","5f60e3c0a3b16e07647b2ff9","5f638034a83a7d064d65f3bb","false","null","<div style=""align-items: center; display: flex; color: darkorange; font-size: 90px""><b>ø</b></div>","null","","","","forget_cue","","","","","","","","","","","","","","","",""
"html-keyboard-response","137","405982","0.0-4.0-1.0-0.5","ug484mfjan2qbe1","prime","5ecac697f9abb5240d3468d4","5f60e3c0a3b16e07647b2ff9","5f638034a83a7d064d65f3bb","false","null","<span style=""color: black; font-size: 48px"">N + M</span>","null","","","","resp_prompt","","","","","","","","","","","","","","","",""
"categorize-image","138","407205","0.0-4.0-1.0-1.5","ug484mfjan2qbe1","prime","5ecac697f9abb5240d3468d4","5f60e3c0a3b16e07647b2ff9","5f638034a83a7d064d65f3bb","true","1220.2950000064448","./Stimuli/SelectedImages/LN/LN12.bmp","83","","","","test","true","N + M","83","repetition","LN","LN12.bmp","remember","","54","3","prime1","left","","","",""
"html-keyboard-response","139","409207","0.0-4.0-1.0-3.5","ug484mfjan2qbe1","prime","5ecac697f9abb5240d3468d4","5f60e3c0a3b16e07647b2ff9","5f638034a83a7d064d65f3bb","false","null","<div style=""align-items: center; display: flex; color: dodgerblue; font-size: 90px""><b>o</b></div>","null","","","","forget_cue","","","","","","","","","","","","","","","",""
"html-keyboard-response","140","409913","0.0-4.0-1.0-0.6","ug484mfjan2qbe1","prime","5ecac697f9abb5240d3468d4","5f60e3c0a3b16e07647b2ff9","5f638034a83a7d064d65f3bb","false","null","<span style=""color: black; font-size: 48px"">N + M</span>","null","","","","resp_prompt","","","","","","","","","","","","","","","",""
"categorize-image","141","410857","0.0-4.0-1.0-1.6","ug484mfjan2qbe1","prime","5ecac697f9abb5240d3468d4","5f60e3c0a3b16e07647b2ff9","5f638034a83a7d064d65f3bb","true","941.0849999985658","./Stimuli/SelectedImages/SN/SN128.bmp","83","","","","test","true","N + M","83","repetition","SN","SN128.bmp","remember","","55","3","prime1","left","","","",""
"html-keyboard-response","142","412862","0.0-4.0-1.0-3.6","ug484mfjan2qbe1","prime","5ecac697f9abb5240d3468d4","5f60e3c0a3b16e07647b2ff9","5f638034a83a7d064d65f3bb","false","null","<div style=""align-items: center; display: flex; color: dodgerblue; font-size: 90px""><b>o</b></div>","null","","","","forget_cue","","","","","","","","","","","","","","","",""
"html-keyboard-response","143","413565","0.0-4.0-1.0-0.7","ug484mfjan2qbe1","prime","5ecac697f9abb5240d3468d4","5f60e3c0a3b16e07647b2ff9","5f638034a83a7d064d65f3bb","false","null","<span style=""color: black; font-size: 48px"">M + N</span>","null","","","","resp_prompt","","","","","","","","","","","","","","","",""
"categorize-image","144","414942","0.0-4.0-1.0-1.7","ug484mfjan2qbe1","prime","5ecac697f9abb5240d3468d4","5f60e3c0a3b16e07647b2ff9","5f638034a83a7d064d65f3bb","true","1370.4300000099465","./Stimuli/SelectedImages/LM/LM100.bmp","83","","","","test","true","M + N","83","switch","LM","LM100.bmp","forget","","56","3","prime1","left","","","",""
"html-keyboard-response","145","416943","0.0-4.0-1.0-3.7","ug484mfjan2qbe1","prime","5ecac697f9abb5240d3468d4","5f60e3c0a3b16e07647b2ff9","5f638034a83a7d064d65f3bb","false","null","<div style=""align-items: center; display: flex; color: darkorange; font-size: 90px""><b>ø</b></div>","null","","","","forget_cue","","","","","","","","","","","","","","","",""
"html-keyboard-response","146","417646","0.0-4.0-1.0-0.8","ug484mfjan2qbe1","prime","5ecac697f9abb5240d3468d4","5f60e3c0a3b16e07647b2ff9","5f638034a83a7d064d65f3bb","false","null","<span style=""color: black; font-size: 48px"">M + N</span>","null","","","","resp_prompt","","","","","","","","","","","","","","","",""
"categorize-image","147","418323","0.0-4.0-1.0-1.8","ug484mfjan2qbe1","prime","5ecac697f9abb5240d3468d4","5f60e3c0a3b16e07647b2ff9","5f638034a83a7d064d65f3bb","true","671.7049999861047","./Stimuli/SelectedImages/SN/SN140.bmp","76","","","","test","true","M + N","76","switch","SN","SN140.bmp","forget","","57","3","prime1","right","","","",""
"html-keyboard-response","148","420325","0.0-4.0-1.0-3.8","ug484mfjan2qbe1","prime","5ecac697f9abb5240d3468d4","5f60e3c0a3b16e07647b2ff9","5f638034a83a7d064d65f3bb","false","null","<div style=""align-items: center; display: flex; color: darkorange; font-size: 90px""><b>ø</b></div>","null","","","","forget_cue","","","","","","","","","","","","","","","",""
"html-keyboard-response","149","421029","0.0-4.0-1.0-0.9","ug484mfjan2qbe1","prime","5ecac697f9abb5240d3468d4","5f60e3c0a3b16e07647b2ff9","5f638034a83a7d064d65f3bb","false","null","<span style=""color: black; font-size: 48px"">N + M</span>","null","","","","resp_prompt","","","","","","","","","","","","","","","",""
"categorize-image","150","421995","0.0-4.0-1.0-1.9","ug484mfjan2qbe1","prime","5ecac697f9abb5240d3468d4","5f60e3c0a3b16e07647b2ff9","5f638034a83a7d064d65f3bb","true","962.7099999925122","./Stimuli/SelectedImages/SN/SN93.bmp","83","","","","test","true","N + M","83","repetition","SN","SN93.bmp","forget","","58","3","prime1","left","","","",""
"html-keyboard-response","151","423997","0.0-4.0-1.0-3.9","ug484mfjan2qbe1","prime","5ecac697f9abb5240d3468d4","5f60e3c0a3b16e07647b2ff9","5f638034a83a7d064d65f3bb","false","null","<div style=""align-items: center; display: flex; color: darkorange; font-size: 90px""><b>ø</b></div>","null","","","","forget_cue","","","","","","","","","","","","","","","",""
"html-keyboard-response","152","424704","0.0-4.0-1.0-0.10","ug484mfjan2qbe1","prime","5ecac697f9abb5240d3468d4","5f60e3c0a3b16e07647b2ff9","5f638034a83a7d064d65f3bb","false","null","<span style=""color: black; font-size: 48px"">N + M</span>","null","","","","resp_prompt","","","","","","","","","","","","","","","",""
"categorize-image","153","425836","0.0-4.0-1.0-1.10","ug484mfjan2qbe1","prime","5ecac697f9abb5240d3468d4","5f60e3c0a3b16e07647b2ff9","5f638034a83a7d064d65f3bb","true","1128.8800000329502","./Stimuli/SelectedImages/LN/LN166.bmp","83","","","","test","true","N + M","83","switch","LN","LN166.bmp","forget","","59","3","prime1","left","","","",""
"html-keyboard-response","154","427842","0.0-4.0-1.0-3.10","ug484mfjan2qbe1","prime","5ecac697f9abb5240d3468d4","5f60e3c0a3b16e07647b2ff9","5f638034a83a7d064d65f3bb","false","null","<div style=""align-items: center; display: flex; color: darkorange; font-size: 90px""><b>ø</b></div>","null","","","","forget_cue","","","","","","","","","","","","","","","",""
"html-keyboard-response","155","428546","0.0-4.0-1.0-0.11","ug484mfjan2qbe1","prime","5ecac697f9abb5240d3468d4","5f60e3c0a3b16e07647b2ff9","5f638034a83a7d064d65f3bb","false","null","<span style=""color: black; font-size: 48px"">M + N</span>","null","","","","resp_prompt","","","","","","","","","","","","","","","",""
"categorize-image","156","429771","0.0-4.0-1.0-1.11","ug484mfjan2qbe1","prime","5ecac697f9abb5240d3468d4","5f60e3c0a3b16e07647b2ff9","5f638034a83a7d064d65f3bb","true","1220.5299999914132","./Stimuli/SelectedImages/SN/SN187.bmp","76","","","","test","true","M + N","76","switch","SN","SN187.bmp","forget","","60","3","prime1","right","","","",""
"html-keyboard-response","157","431775","0.0-4.0-1.0-3.11","ug484mfjan2qbe1","prime","5ecac697f9abb5240d3468d4","5f60e3c0a3b16e07647b2ff9","5f638034a83a7d064d65f3bb","false","null","<div style=""align-items: center; display: flex; color: darkorange; font-size: 90px""><b>ø</b></div>","null","","","","forget_cue","","","","","","","","","","","","","","","",""
"html-keyboard-response","158","432480","0.0-4.0-1.0-0.12","ug484mfjan2qbe1","prime","5ecac697f9abb5240d3468d4","5f60e3c0a3b16e07647b2ff9","5f638034a83a7d064d65f3bb","false","null","<span style=""color: black; font-size: 48px"">M + N</span>","null","","","","resp_prompt","","","","","","","","","","","","","","","",""
"categorize-image","159","433794","0.0-4.0-1.0-1.12","ug484mfjan2qbe1","prime","5ecac697f9abb5240d3468d4","5f60e3c0a3b16e07647b2ff9","5f638034a83a7d064d65f3bb","true","1308.835000032559","./Stimuli/SelectedImages/LM/LM75.bmp","83","","","","test","true","M + N","83","repetition","LM","LM75.bmp","remember","","61","3","prime1","left","","","",""
"html-keyboard-response","160","435796","0.0-4.0-1.0-3.12","ug484mfjan2qbe1","prime","5ecac697f9abb5240d3468d4","5f60e3c0a3b16e07647b2ff9","5f638034a83a7d064d65f3bb","false","null","<div style=""align-items: center; display: flex; color: dodgerblue; font-size: 90px""><b>o</b></div>","null","","","","forget_cue","","","","","","","","","","","","","","","",""
"html-keyboard-response","161","436499","0.0-4.0-1.0-0.13","ug484mfjan2qbe1","prime","5ecac697f9abb5240d3468d4","5f60e3c0a3b16e07647b2ff9","5f638034a83a7d064d65f3bb","false","null","<span style=""color: black; font-size: 48px"">M + N</span>","null","","","","resp_prompt","","","","","","","","","","","","","","","",""
"categorize-image","162","437628","0.0-4.0-1.0-1.13","ug484mfjan2qbe1","prime","5ecac697f9abb5240d3468d4","5f60e3c0a3b16e07647b2ff9","5f638034a83a7d064d65f3bb","true","1125.8299999753945","./Stimuli/SelectedImages/LN/LN82.bmp","76","","","","test","true","M + N","76","repetition","LN","LN82.bmp","remember","","62","3","prime1","right","","","",""
"html-keyboard-response","163","439633","0.0-4.0-1.0-3.13","ug484mfjan2qbe1","prime","5ecac697f9abb5240d3468d4","5f60e3c0a3b16e07647b2ff9","5f638034a83a7d064d65f3bb","false","null","<div style=""align-items: center; display: flex; color: dodgerblue; font-size: 90px""><b>o</b></div>","null","","","","forget_cue","","","","","","","","","","","","","","","",""
"html-keyboard-response","164","440337","0.0-4.0-1.0-0.14","ug484mfjan2qbe1","prime","5ecac697f9abb5240d3468d4","5f60e3c0a3b16e07647b2ff9","5f638034a83a7d064d65f3bb","false","null","<span style=""color: black; font-size: 48px"">M + N</span>","null","","","","resp_prompt","","","","","","","","","","","","","","","",""
"categorize-image","165","442348","0.0-4.0-1.0-1.14","ug484mfjan2qbe1","prime","5ecac697f9abb5240d3468d4","5f60e3c0a3b16e07647b2ff9","5f638034a83a7d064d65f3bb","true","null","./Stimuli/SelectedImages/SM/SM184.bmp","null","","","","test","false","M + N","83","switch","SM","SM184.bmp","remember","","63","3","prime1","too_slow","","","",""
"html-keyboard-response","166","442849","0.0-4.0-1.0-2.14-0.14","ug484mfjan2qbe1","prime","5ecac697f9abb5240d3468d4","5f60e3c0a3b16e07647b2ff9","5f638034a83a7d064d65f3bb","false","null","<span style=""color: red; font-size: 48px"">Too slow!</span>","null","","","","feedback","","","","","","","","","","","","","","","",""
"html-keyboard-response","167","444854","0.0-4.0-1.0-3.14","ug484mfjan2qbe1","prime","5ecac697f9abb5240d3468d4","5f60e3c0a3b16e07647b2ff9","5f638034a83a7d064d65f3bb","false","null","<div style=""align-items: center; display: flex; color: dodgerblue; font-size: 90px""><b>o</b></div>","null","","","","forget_cue","","","","","","","","","","","","","","","",""
"html-keyboard-response","168","445557","0.0-4.0-1.0-0.15","ug484mfjan2qbe1","prime","5ecac697f9abb5240d3468d4","5f60e3c0a3b16e07647b2ff9","5f638034a83a7d064d65f3bb","false","null","<span style=""color: black; font-size: 48px"">N + M</span>","null","","","","resp_prompt","","","","","","","","","","","","","","","",""
"categorize-image","169","446285","0.0-4.0-1.0-1.15","ug484mfjan2qbe1","prime","5ecac697f9abb5240d3468d4","5f60e3c0a3b16e07647b2ff9","5f638034a83a7d064d65f3bb","true","723.8750000251457","./Stimuli/SelectedImages/LN/LN59.bmp","83","","","","test","true","N + M","83","repetition","LN","LN59.bmp","remember","","64","3","prime1","left","","","",""
"html-keyboard-response","170","448288","0.0-4.0-1.0-3.15","ug484mfjan2qbe1","prime","5ecac697f9abb5240d3468d4","5f60e3c0a3b16e07647b2ff9","5f638034a83a7d064d65f3bb","false","null","<div style=""align-items: center; display: flex; color: dodgerblue; font-size: 90px""><b>o</b></div>","null","","","","forget_cue","","","","","","","","","","","","","","","",""
"html-keyboard-response","171","448989","0.0-4.0-1.0-0.16","ug484mfjan2qbe1","prime","5ecac697f9abb5240d3468d4","5f60e3c0a3b16e07647b2ff9","5f638034a83a7d064d65f3bb","false","null","<span style=""color: black; font-size: 48px"">N + M</span>","null","","","","resp_prompt","","","","","","","","","","","","","","","",""
"categorize-image","172","449784","0.0-4.0-1.0-1.16","ug484mfjan2qbe1","prime","5ecac697f9abb5240d3468d4","5f60e3c0a3b16e07647b2ff9","5f638034a83a7d064d65f3bb","true","789.2550000105985","./Stimuli/SelectedImages/LN/LN28.bmp","83","","","","test","true","N + M","83","switch","LN","LN28.bmp","remember","","65","3","prime1","left","","","",""
"html-keyboard-response","173","451788","0.0-4.0-1.0-3.16","ug484mfjan2qbe1","prime","5ecac697f9abb5240d3468d4","5f60e3c0a3b16e07647b2ff9","5f638034a83a7d064d65f3bb","false","null","<div style=""align-items: center; display: flex; color: dodgerblue; font-size: 90px""><b>o</b></div>","null","","","","forget_cue","","","","","","","","","","","","","","","",""
"html-keyboard-response","174","452493","0.0-4.0-1.0-0.17","ug484mfjan2qbe1","prime","5ecac697f9abb5240d3468d4","5f60e3c0a3b16e07647b2ff9","5f638034a83a7d064d65f3bb","false","null","<span style=""color: black; font-size: 48px"">N + M</span>","null","","","","resp_prompt","","","","","","","","","","","","","","","",""
"categorize-image","175","453661","0.0-4.0-1.0-1.17","ug484mfjan2qbe1","prime","5ecac697f9abb5240d3468d4","5f60e3c0a3b16e07647b2ff9","5f638034a83a7d064d65f3bb","true","1164.775000012014","./Stimuli/SelectedImages/LM/LM129.bmp","76","","","","test","true","N + M","76","repetition","LM","LM129.bmp","forget","","66","3","prime1","right","","","",""
"html-keyboard-response","176","455663","0.0-4.0-1.0-3.17","ug484mfjan2qbe1","prime","5ecac697f9abb5240d3468d4","5f60e3c0a3b16e07647b2ff9","5f638034a83a7d064d65f3bb","false","null","<div style=""align-items: center; display: flex; color: darkorange; font-size: 90px""><b>ø</b></div>","null","","","","forget_cue","","","","","","","","","","","","","","","",""
"html-keyboard-response","177","456364","0.0-4.0-1.0-0.18","ug484mfjan2qbe1","prime","5ecac697f9abb5240d3468d4","5f60e3c0a3b16e07647b2ff9","5f638034a83a7d064d65f3bb","false","null","<span style=""color: black; font-size: 48px"">M + N</span>","null","","","","resp_prompt","","","","","","","","","","","","","","","",""
"categorize-image","178","457291","0.0-4.0-1.0-1.18","ug484mfjan2qbe1","prime","5ecac697f9abb5240d3468d4","5f60e3c0a3b16e07647b2ff9","5f638034a83a7d064d65f3bb","true","922.0150000182912","./Stimuli/SelectedImages/LM/LM167.bmp","76","","","","test","false","M + N","83","repetition","LM","LM167.bmp","forget","","67","3","prime1","right","","","",""
"html-keyboard-response","179","457792","0.0-4.0-1.0-2.18-0.18","ug484mfjan2qbe1","prime","5ecac697f9abb5240d3468d4","5f60e3c0a3b16e07647b2ff9","5f638034a83a7d064d65f3bb","false","null","<span style=""color: red; font-size: 48px"">Error!</span>","null","","","","feedback","","","","","","","","","","","","","","","",""
"html-keyboard-response","180","459797","0.0-4.0-1.0-3.18","ug484mfjan2qbe1","prime","5ecac697f9abb5240d3468d4","5f60e3c0a3b16e07647b2ff9","5f638034a83a7d064d65f3bb","false","null","<div style=""align-items: center; display: flex; color: darkorange; font-size: 90px""><b>ø</b></div>","null","","","","forget_cue","","","","","","","","","","","","","","","",""
"html-keyboard-response","181","460499","0.0-4.0-1.0-0.19","ug484mfjan2qbe1","prime","5ecac697f9abb5240d3468d4","5f60e3c0a3b16e07647b2ff9","5f638034a83a7d064d65f3bb","false","null","<span style=""color: black; font-size: 48px"">N + M</span>","null","","","","resp_prompt","","","","","","","","","","","","","","","",""
"categorize-image","182","461435","0.0-4.0-1.0-1.19","ug484mfjan2qbe1","prime","5ecac697f9abb5240d3468d4","5f60e3c0a3b16e07647b2ff9","5f638034a83a7d064d65f3bb","true","931.8349999957718","./Stimuli/SelectedImages/SM/SM17.bmp","76","","","","test","true","N + M","76","switch","SM","SM17.bmp","remember","","68","3","prime1","right","","","",""
"html-keyboard-response","183","463438","0.0-4.0-1.0-3.19","ug484mfjan2qbe1","prime","5ecac697f9abb5240d3468d4","5f60e3c0a3b16e07647b2ff9","5f638034a83a7d064d65f3bb","false","null","<div style=""align-items: center; display: flex; color: dodgerblue; font-size: 90px""><b>o</b></div>","null","","","","forget_cue","","","","","","","","","","","","","","","",""
"html-keyboard-response","184","464141","0.0-4.0-1.0-0.20","ug484mfjan2qbe1","prime","5ecac697f9abb5240d3468d4","5f60e3c0a3b16e07647b2ff9","5f638034a83a7d064d65f3bb","false","null","<span style=""color: black; font-size: 48px"">N + M</span>","null","","","","resp_prompt","","","","","","","","","","","","","","","",""
"categorize-image","185","464911","0.0-4.0-1.0-1.20","ug484mfjan2qbe1","prime","5ecac697f9abb5240d3468d4","5f60e3c0a3b16e07647b2ff9","5f638034a83a7d064d65f3bb","true","766.5900000138208","./Stimuli/SelectedImages/SN/SN179.bmp","83","","","","test","true","N + M","83","switch","SN","SN179.bmp","remember","","69","3","prime1","left","","","",""
"html-keyboard-response","186","466913","0.0-4.0-1.0-3.20","ug484mfjan2qbe1","prime","5ecac697f9abb5240d3468d4","5f60e3c0a3b16e07647b2ff9","5f638034a83a7d064d65f3bb","false","null","<div style=""align-items: center; display: flex; color: dodgerblue; font-size: 90px""><b>o</b></div>","null","","","","forget_cue","","","","","","","","","","","","","","","",""
"html-keyboard-response","187","467619","0.0-4.0-1.0-0.21","ug484mfjan2qbe1","prime","5ecac697f9abb5240d3468d4","5f60e3c0a3b16e07647b2ff9","5f638034a83a7d064d65f3bb","false","null","<span style=""color: black; font-size: 48px"">N + M</span>","null","","","","resp_prompt","","","","","","","","","","","","","","","",""
"categorize-image","188","469627","0.0-4.0-1.0-1.21","ug484mfjan2qbe1","prime","5ecac697f9abb5240d3468d4","5f60e3c0a3b16e07647b2ff9","5f638034a83a7d064d65f3bb","true","null","./Stimuli/SelectedImages/LM/LM51.bmp","null","","","","test","false","N + M","76","switch","LM","LM51.bmp","remember","","70","3","prime1","too_slow","","","",""
"html-keyboard-response","189","470130","0.0-4.0-1.0-2.21-0.21","ug484mfjan2qbe1","prime","5ecac697f9abb5240d3468d4","5f60e3c0a3b16e07647b2ff9","5f638034a83a7d064d65f3bb","false","null","<span style=""color: red; font-size: 48px"">Too slow!</span>","null","","","","feedback","","","","","","","","","","","","","","","",""
"html-keyboard-response","190","472134","0.0-4.0-1.0-3.21","ug484mfjan2qbe1","prime","5ecac697f9abb5240d3468d4","5f60e3c0a3b16e07647b2ff9","5f638034a83a7d064d65f3bb","false","null","<div style=""align-items: center; display: flex; color: dodgerblue; font-size: 90px""><b>o</b></div>","null","","","","forget_cue","","","","","","","","","","","","","","","",""
"html-keyboard-response","191","472838","0.0-4.0-1.0-0.22","ug484mfjan2qbe1","prime","5ecac697f9abb5240d3468d4","5f60e3c0a3b16e07647b2ff9","5f638034a83a7d064d65f3bb","false","null","<span style=""color: black; font-size: 48px"">N + M</span>","null","","","","resp_prompt","","","","","","","","","","","","","","","",""
"categorize-image","192","473336","0.0-4.0-1.0-1.22","ug484mfjan2qbe1","prime","5ecac697f9abb5240d3468d4","5f60e3c0a3b16e07647b2ff9","5f638034a83a7d064d65f3bb","true","494.48500003200024","./Stimuli/SelectedImages/LM/LM209.bmp","76","","","","test","true","N + M","76","repetition","LM","LM209.bmp","remember","","71","3","prime1","right","","","",""
"html-keyboard-response","193","475338","0.0-4.0-1.0-3.22","ug484mfjan2qbe1","prime","5ecac697f9abb5240d3468d4","5f60e3c0a3b16e07647b2ff9","5f638034a83a7d064d65f3bb","false","null","<div style=""align-items: center; display: flex; color: dodgerblue; font-size: 90px""><b>o</b></div>","null","","","","forget_cue","","","","","","","","","","","","","","","",""
"html-keyboard-response","194","476039","0.0-4.0-1.0-0.23","ug484mfjan2qbe1","prime","5ecac697f9abb5240d3468d4","5f60e3c0a3b16e07647b2ff9","5f638034a83a7d064d65f3bb","false","null","<span style=""color: black; font-size: 48px"">N + M</span>","null","","","","resp_prompt","","","","","","","","","","","","","","","",""
"categorize-image","195","476862","0.0-4.0-1.0-1.23","ug484mfjan2qbe1","prime","5ecac697f9abb5240d3468d4","5f60e3c0a3b16e07647b2ff9","5f638034a83a7d064d65f3bb","true","819.1099999821745","./Stimuli/SelectedImages/LN/LN9.bmp","83","","","","test","true","N + M","83","switch","LN","LN9.bmp","forget","","72","3","prime1","left","","","",""
"html-keyboard-response","196","478863","0.0-4.0-1.0-3.23","ug484mfjan2qbe1","prime","5ecac697f9abb5240d3468d4","5f60e3c0a3b16e07647b2ff9","5f638034a83a7d064d65f3bb","false","null","<div style=""align-items: center; display: flex; color: darkorange; font-size: 90px""><b>ø</b></div>","null","","","","forget_cue","","","","","","","","","","","","","","","",""
"html-keyboard-response","197","479566","0.0-4.0-1.0-0.24","ug484mfjan2qbe1","prime","5ecac697f9abb5240d3468d4","5f60e3c0a3b16e07647b2ff9","5f638034a83a7d064d65f3bb","false","null","<span style=""color: black; font-size: 48px"">N + M</span>","null","","","","resp_prompt","","","","","","","","","","","","","","","",""
"categorize-image","198","481576","0.0-4.0-1.0-1.24","ug484mfjan2qbe1","prime","5ecac697f9abb5240d3468d4","5f60e3c0a3b16e07647b2ff9","5f638034a83a7d064d65f3bb","true","null","./Stimuli/SelectedImages/SM/SM106.bmp","null","","","","test","false","N + M","76","switch","SM","SM106.bmp","forget","","73","3","prime1","too_slow","","","",""
"html-keyboard-response","199","482080","0.0-4.0-1.0-2.24-0.24","ug484mfjan2qbe1","prime","5ecac697f9abb5240d3468d4","5f60e3c0a3b16e07647b2ff9","5f638034a83a7d064d65f3bb","false","null","<span style=""color: red; font-size: 48px"">Too slow!</span>","null","","","","feedback","","","","","","","","","","","","","","","",""
"html-keyboard-response","200","484085","0.0-4.0-1.0-3.24","ug484mfjan2qbe1","prime","5ecac697f9abb5240d3468d4","5f60e3c0a3b16e07647b2ff9","5f638034a83a7d064d65f3bb","false","null","<div style=""align-items: center; display: flex; color: darkorange; font-size: 90px""><b>ø</b></div>","null","","","","forget_cue","","","","","","","","","","","","","","","",""
"html-keyboard-response","201","484788","0.0-4.0-1.0-0.25","ug484mfjan2qbe1","prime","5ecac697f9abb5240d3468d4","5f60e3c0a3b16e07647b2ff9","5f638034a83a7d064d65f3bb","false","null","<span style=""color: black; font-size: 48px"">M + N</span>","null","","","","resp_prompt","","","","","","","","","","","","","","","",""
"categorize-image","202","485413","0.0-4.0-1.0-1.25","ug484mfjan2qbe1","prime","5ecac697f9abb5240d3468d4","5f60e3c0a3b16e07647b2ff9","5f638034a83a7d064d65f3bb","true","621.030000038445","./Stimuli/SelectedImages/LN/LN13.bmp","76","","","","test","true","M + N","76","switch","LN","LN13.bmp","remember","","74","3","prime1","right","","","",""
"html-keyboard-response","203","487416","0.0-4.0-1.0-3.25","ug484mfjan2qbe1","prime","5ecac697f9abb5240d3468d4","5f60e3c0a3b16e07647b2ff9","5f638034a83a7d064d65f3bb","false","null","<div style=""align-items: center; display: flex; color: dodgerblue; font-size: 90px""><b>o</b></div>","null","","","","forget_cue","","","","","","","","","","","","","","","",""
"html-keyboard-response","204","488121","0.0-4.0-1.0-0.26","ug484mfjan2qbe1","prime","5ecac697f9abb5240d3468d4","5f60e3c0a3b16e07647b2ff9","5f638034a83a7d064d65f3bb","false","null","<span style=""color: black; font-size: 48px"">N + M</span>","null","","","","resp_prompt","","","","","","","","","","","","","","","",""
"categorize-image","205","489566","0.0-4.0-1.0-1.26","ug484mfjan2qbe1","prime","5ecac697f9abb5240d3468d4","5f60e3c0a3b16e07647b2ff9","5f638034a83a7d064d65f3bb","true","1440.1899999938905","./Stimuli/SelectedImages/SM/SM128.bmp","83","","","","test","false","N + M","76","switch","SM","SM128.bmp","remember","","75","3","prime1","left","","","",""
"html-keyboard-response","206","490068","0.0-4.0-1.0-2.26-0.26","ug484mfjan2qbe1","prime","5ecac697f9abb5240d3468d4","5f60e3c0a3b16e07647b2ff9","5f638034a83a7d064d65f3bb","false","null","<span style=""color: red; font-size: 48px"">Error!</span>","null","","","","feedback","","","","","","","","","","","","","","","",""
"html-keyboard-response","207","492072","0.0-4.0-1.0-3.26","ug484mfjan2qbe1","prime","5ecac697f9abb5240d3468d4","5f60e3c0a3b16e07647b2ff9","5f638034a83a7d064d65f3bb","false","null","<div style=""align-items: center; display: flex; color: dodgerblue; font-size: 90px""><b>o</b></div>","null","","","","forget_cue","","","","","","","","","","","","","","","",""
"html-keyboard-response","208","492776","0.0-4.0-1.0-0.27","ug484mfjan2qbe1","prime","5ecac697f9abb5240d3468d4","5f60e3c0a3b16e07647b2ff9","5f638034a83a7d064d65f3bb","false","null","<span style=""color: black; font-size: 48px"">N + M</span>","null","","","","resp_prompt","","","","","","","","","","","","","","","",""
"categorize-image","209","493668","0.0-4.0-1.0-1.27","ug484mfjan2qbe1","prime","5ecac697f9abb5240d3468d4","5f60e3c0a3b16e07647b2ff9","5f638034a83a7d064d65f3bb","true","886.4399999729358","./Stimuli/SelectedImages/LM/LM216.bmp","76","","","","test","true","N + M","76","switch","LM","LM216.bmp","forget","","76","3","prime1","right","","","",""
"html-keyboard-response","210","495672","0.0-4.0-1.0-3.27","ug484mfjan2qbe1","prime","5ecac697f9abb5240d3468d4","5f60e3c0a3b16e07647b2ff9","5f638034a83a7d064d65f3bb","false","null","<div style=""align-items: center; display: flex; color: darkorange; font-size: 90px""><b>ø</b></div>","null","","","","forget_cue","","","","","","","","","","","","","","","",""
"html-keyboard-response","211","496373","0.0-4.0-1.0-0.28","ug484mfjan2qbe1","prime","5ecac697f9abb5240d3468d4","5f60e3c0a3b16e07647b2ff9","5f638034a83a7d064d65f3bb","false","null","<span style=""color: black; font-size: 48px"">N + M</span>","null","","","","resp_prompt","","","","","","","","","","","","","","","",""
"categorize-image","212","496987","0.0-4.0-1.0-1.28","ug484mfjan2qbe1","prime","5ecac697f9abb5240d3468d4","5f60e3c0a3b16e07647b2ff9","5f638034a83a7d064d65f3bb","true","609.82499999227","./Stimuli/SelectedImages/LM/LM179.bmp","76","","","","test","true","N + M","76","repetition","LM","LM179.bmp","remember","","77","3","prime1","right","","","",""
"html-keyboard-response","213","498988","0.0-4.0-1.0-3.28","ug484mfjan2qbe1","prime","5ecac697f9abb5240d3468d4","5f60e3c0a3b16e07647b2ff9","5f638034a83a7d064d65f3bb","false","null","<div style=""align-items: center; display: flex; color: dodgerblue; font-size: 90px""><b>o</b></div>","null","","","","forget_cue","","","","","","","","","","","","","","","",""
"html-keyboard-response","214","499694","0.0-4.0-1.0-0.29","ug484mfjan2qbe1","prime","5ecac697f9abb5240d3468d4","5f60e3c0a3b16e07647b2ff9","5f638034a83a7d064d65f3bb","false","null","<span style=""color: black; font-size: 48px"">M + N</span>","null","","","","resp_prompt","","","","","","","","","","","","","","","",""
"categorize-image","215","499839","0.0-4.0-1.0-1.29","ug484mfjan2qbe1","prime","5ecac697f9abb5240d3468d4","5f60e3c0a3b16e07647b2ff9","5f638034a83a7d064d65f3bb","true","141.53999998234212","./Stimuli/SelectedImages/SM/SM24.bmp","76","","","","test","false","M + N","83","repetition","SM","SM24.bmp","forget","","78","3","prime1","right","","","",""
"html-keyboard-response","216","500340","0.0-4.0-1.0-2.29-0.29","ug484mfjan2qbe1","prime","5ecac697f9abb5240d3468d4","5f60e3c0a3b16e07647b2ff9","5f638034a83a7d064d65f3bb","false","null","<span style=""color: red; font-size: 48px"">Error!</span>","null","","","","feedback","","","","","","","","","","","","","","","",""
"html-keyboard-response","217","502341","0.0-4.0-1.0-3.29","ug484mfjan2qbe1","prime","5ecac697f9abb5240d3468d4","5f60e3c0a3b16e07647b2ff9","5f638034a83a7d064d65f3bb","false","null","<div style=""align-items: center; display: flex; color: darkorange; font-size: 90px""><b>ø</b></div>","null","","","","forget_cue","","","","","","","","","","","","","","","",""
"html-keyboard-response","218","503047","0.0-4.0-1.0-0.30","ug484mfjan2qbe1","prime","5ecac697f9abb5240d3468d4","5f60e3c0a3b16e07647b2ff9","5f638034a83a7d064d65f3bb","false","null","<span style=""color: black; font-size: 48px"">N + M</span>","null","","","","resp_prompt","","","","","","","","","","","","","","","",""
"categorize-image","219","503638","0.0-4.0-1.0-1.30","ug484mfjan2qbe1","prime","5ecac697f9abb5240d3468d4","5f60e3c0a3b16e07647b2ff9","5f638034a83a7d064d65f3bb","true","586.490000016056","./Stimuli/SelectedImages/SN/SN27.bmp","83","","","","test","true","N + M","83","repetition","SN","SN27.bmp","forget","","79","3","prime1","left","","","",""
"html-keyboard-response","220","505641","0.0-4.0-1.0-3.30","ug484mfjan2qbe1","prime","5ecac697f9abb5240d3468d4","5f60e3c0a3b16e07647b2ff9","5f638034a83a7d064d65f3bb","false","null","<div style=""align-items: center; display: flex; color: darkorange; font-size: 90px""><b>ø</b></div>","null","","","","forget_cue","","","","","","","","","","","","","","","",""
"html-keyboard-response","221","506347","0.0-4.0-1.0-0.31","ug484mfjan2qbe1","prime","5ecac697f9abb5240d3468d4","5f60e3c0a3b16e07647b2ff9","5f638034a83a7d064d65f3bb","false","null","<span style=""color: black; font-size: 48px"">M + N</span>","null","","","","resp_prompt","","","","","","","","","","","","","","","",""
"categorize-image","222","507437","0.0-4.0-1.0-1.31","ug484mfjan2qbe1","prime","5ecac697f9abb5240d3468d4","5f60e3c0a3b16e07647b2ff9","5f638034a83a7d064d65f3bb","true","1085.9049999853596","./Stimuli/SelectedImages/SN/SN64.bmp","76","","","","test","true","M + N","76","switch","SN","SN64.bmp","remember","","80","3","prime1","right","","","",""
"html-keyboard-response","223","509442","0.0-4.0-1.0-3.31","ug484mfjan2qbe1","prime","5ecac697f9abb5240d3468d4","5f60e3c0a3b16e07647b2ff9","5f638034a83a7d064d65f3bb","false","null","<div style=""align-items: center; display: flex; color: dodgerblue; font-size: 90px""><b>o</b></div>","null","","","","forget_cue","","","","","","","","","","","","","","","",""
"html-keyboard-response","224","510144","0.0-4.0-1.0-0.32","ug484mfjan2qbe1","prime","5ecac697f9abb5240d3468d4","5f60e3c0a3b16e07647b2ff9","5f638034a83a7d064d65f3bb","false","null","<span style=""color: black; font-size: 48px"">M + N</span>","null","","","","resp_prompt","","","","","","","","","","","","","","","",""
"categorize-image","225","510777","0.0-4.0-1.0-1.32","ug484mfjan2qbe1","prime","5ecac697f9abb5240d3468d4","5f60e3c0a3b16e07647b2ff9","5f638034a83a7d064d65f3bb","true","628.3100000000559","./Stimuli/SelectedImages/LM/LM58.bmp","83","","","","test","true","M + N","83","repetition","LM","LM58.bmp","remember","","81","3","prime1","left","","","",""
"html-keyboard-response","226","512781","0.0-4.0-1.0-3.32","ug484mfjan2qbe1","prime","5ecac697f9abb5240d3468d4","5f60e3c0a3b16e07647b2ff9","5f638034a83a7d064d65f3bb","false","null","<div style=""align-items: center; display: flex; color: dodgerblue; font-size: 90px""><b>o</b></div>","null","","","","forget_cue","","","","","","","","","","","","","","","",""
"html-keyboard-response","227","513485","0.0-4.0-1.0-0.33","ug484mfjan2qbe1","prime","5ecac697f9abb5240d3468d4","5f60e3c0a3b16e07647b2ff9","5f638034a83a7d064d65f3bb","false","null","<span style=""color: black; font-size: 48px"">N + M</span>","null","","","","resp_prompt","","","","","","","","","","","","","","","",""
"categorize-image","228","514381","0.0-4.0-1.0-1.33","ug484mfjan2qbe1","prime","5ecac697f9abb5240d3468d4","5f60e3c0a3b16e07647b2ff9","5f638034a83a7d064d65f3bb","true","892.6449999562465","./Stimuli/SelectedImages/LN/LN131.bmp","83","","","","test","true","N + M","83","repetition","LN","LN131.bmp","forget","","82","3","prime1","left","","","",""
"html-keyboard-response","229","516382","0.0-4.0-1.0-3.33","ug484mfjan2qbe1","prime","5ecac697f9abb5240d3468d4","5f60e3c0a3b16e07647b2ff9","5f638034a83a7d064d65f3bb","false","null","<div style=""align-items: center; display: flex; color: darkorange; font-size: 90px""><b>ø</b></div>","null","","","","forget_cue","","","","","","","","","","","","","","","",""
"html-keyboard-response","230","517084","0.0-4.0-1.0-0.34","ug484mfjan2qbe1","prime","5ecac697f9abb5240d3468d4","5f60e3c0a3b16e07647b2ff9","5f638034a83a7d064d65f3bb","false","null","<span style=""color: black; font-size: 48px"">M + N</span>","null","","","","resp_prompt","","","","","","","","","","","","","","","",""
"categorize-image","231","517830","0.0-4.0-1.0-1.34","ug484mfjan2qbe1","prime","5ecac697f9abb5240d3468d4","5f60e3c0a3b16e07647b2ff9","5f638034a83a7d064d65f3bb","true","741.6899999952875","./Stimuli/SelectedImages/LN/LN92.bmp","76","","","","test","true","M + N","76","switch","LN","LN92.bmp","remember","","83","3","prime1","right","","","",""
"html-keyboard-response","232","519832","0.0-4.0-1.0-3.34","ug484mfjan2qbe1","prime","5ecac697f9abb5240d3468d4","5f60e3c0a3b16e07647b2ff9","5f638034a83a7d064d65f3bb","false","null","<div style=""align-items: center; display: flex; color: dodgerblue; font-size: 90px""><b>o</b></div>","null","","","","forget_cue","","","","","","","","","","","","","","","",""
"html-keyboard-response","233","520536","0.0-4.0-1.0-0.35","ug484mfjan2qbe1","prime","5ecac697f9abb5240d3468d4","5f60e3c0a3b16e07647b2ff9","5f638034a83a7d064d65f3bb","false","null","<span style=""color: black; font-size: 48px"">M + N</span>","null","","","","resp_prompt","","","","","","","","","","","","","","","",""
"categorize-image","234","521199","0.0-4.0-1.0-1.35","ug484mfjan2qbe1","prime","5ecac697f9abb5240d3468d4","5f60e3c0a3b16e07647b2ff9","5f638034a83a7d064d65f3bb","true","657.8350000199862","./Stimuli/SelectedImages/SM/SM148.bmp","83","","","","test","true","M + N","83","repetition","SM","SM148.bmp","remember","","84","3","prime1","left","","","",""
"html-keyboard-response","235","523205","0.0-4.0-1.0-3.35","ug484mfjan2qbe1","prime","5ecac697f9abb5240d3468d4","5f60e3c0a3b16e07647b2ff9","5f638034a83a7d064d65f3bb","false","null","<div style=""align-items: center; display: flex; color: dodgerblue; font-size: 90px""><b>o</b></div>","null","","","","forget_cue","","","","","","","","","","","","","","","",""
"html-keyboard-response","236","523910","0.0-4.0-1.0-0.36","ug484mfjan2qbe1","prime","5ecac697f9abb5240d3468d4","5f60e3c0a3b16e07647b2ff9","5f638034a83a7d064d65f3bb","false","null","<span style=""color: black; font-size: 48px"">M + N</span>","null","","","","resp_prompt","","","","","","","","","","","","","","","",""
"categorize-image","237","524762","0.0-4.0-1.0-1.36","ug484mfjan2qbe1","prime","5ecac697f9abb5240d3468d4","5f60e3c0a3b16e07647b2ff9","5f638034a83a7d064d65f3bb","true","846.1499999975786","./Stimuli/SelectedImages/SN/SN111.bmp","76","","","","test","true","M + N","76","repetition","SN","SN111.bmp","forget","","85","3","prime1","right","","","",""
"html-keyboard-response","238","526764","0.0-4.0-1.0-3.36","ug484mfjan2qbe1","prime","5ecac697f9abb5240d3468d4","5f60e3c0a3b16e07647b2ff9","5f638034a83a7d064d65f3bb","false","null","<div style=""align-items: center; display: flex; color: darkorange; font-size: 90px""><b>ø</b></div>","null","","","","forget_cue","","","","","","","","","","","","","","","",""
"html-keyboard-response","239","527466","0.0-4.0-1.0-0.37","ug484mfjan2qbe1","prime","5ecac697f9abb5240d3468d4","5f60e3c0a3b16e07647b2ff9","5f638034a83a7d064d65f3bb","false","null","<span style=""color: black; font-size: 48px"">N + M</span>","null","","","","resp_prompt","","","","","","","","","","","","","","","",""
"categorize-image","240","528212","0.0-4.0-1.0-1.37","ug484mfjan2qbe1","prime","5ecac697f9abb5240d3468d4","5f60e3c0a3b16e07647b2ff9","5f638034a83a7d064d65f3bb","true","742.0799999963492","./Stimuli/SelectedImages/SM/SM76.bmp","76","","","","test","true","N + M","76","repetition","SM","SM76.bmp","remember","","86","3","prime1","right","","","",""
"html-keyboard-response","241","530214","0.0-4.0-1.0-3.37","ug484mfjan2qbe1","prime","5ecac697f9abb5240d3468d4","5f60e3c0a3b16e07647b2ff9","5f638034a83a7d064d65f3bb","false","null","<div style=""align-items: center; display: flex; color: dodgerblue; font-size: 90px""><b>o</b></div>","null","","","","forget_cue","","","","","","","","","","","","","","","",""
"html-keyboard-response","242","530916","0.0-4.0-1.0-0.38","ug484mfjan2qbe1","prime","5ecac697f9abb5240d3468d4","5f60e3c0a3b16e07647b2ff9","5f638034a83a7d064d65f3bb","false","null","<span style=""color: black; font-size: 48px"">M + N</span>","null","","","","resp_prompt","","","","","","","","","","","","","","","",""
"categorize-image","243","531622","0.0-4.0-1.0-1.38","ug484mfjan2qbe1","prime","5ecac697f9abb5240d3468d4","5f60e3c0a3b16e07647b2ff9","5f638034a83a7d064d65f3bb","true","702.9399999883026","./Stimuli/SelectedImages/SN/SN181.bmp","76","","","","test","true","M + N","76","repetition","SN","SN181.bmp","remember","","87","3","prime1","right","","","",""
"html-keyboard-response","244","533624","0.0-4.0-1.0-3.38","ug484mfjan2qbe1","prime","5ecac697f9abb5240d3468d4","5f60e3c0a3b16e07647b2ff9","5f638034a83a7d064d65f3bb","false","null","<div style=""align-items: center; display: flex; color: dodgerblue; font-size: 90px""><b>o</b></div>","null","","","","forget_cue","","","","","","","","","","","","","","","",""
"html-keyboard-response","245","534327","0.0-4.0-1.0-0.39","ug484mfjan2qbe1","prime","5ecac697f9abb5240d3468d4","5f60e3c0a3b16e07647b2ff9","5f638034a83a7d064d65f3bb","false","null","<span style=""color: black; font-size: 48px"">N + M</span>","null","","","","resp_prompt","","","","","","","","","","","","","","","",""
"categorize-image","246","535158","0.0-4.0-1.0-1.39","ug484mfjan2qbe1","prime","5ecac697f9abb5240d3468d4","5f60e3c0a3b16e07647b2ff9","5f638034a83a7d064d65f3bb","true","827.4749999982305","./Stimuli/SelectedImages/SN/SN18.bmp","83","","","","test","true","N + M","83","switch","SN","SN18.bmp","forget","","88","3","prime1","left","","","",""
"html-keyboard-response","247","537163","0.0-4.0-1.0-3.39","ug484mfjan2qbe1","prime","5ecac697f9abb5240d3468d4","5f60e3c0a3b16e07647b2ff9","5f638034a83a7d064d65f3bb","false","null","<div style=""align-items: center; display: flex; color: darkorange; font-size: 90px""><b>ø</b></div>","null","","","","forget_cue","","","","","","","","","","","","","","","",""
"html-keyboard-response","248","537867","0.0-4.0-1.0-0.40","ug484mfjan2qbe1","prime","5ecac697f9abb5240d3468d4","5f60e3c0a3b16e07647b2ff9","5f638034a83a7d064d65f3bb","false","null","<span style=""color: black; font-size: 48px"">N + M</span>","null","","","","resp_prompt","","","","","","","","","","","","","","","",""
"categorize-image","249","538599","0.0-4.0-1.0-1.40","ug484mfjan2qbe1","prime","5ecac697f9abb5240d3468d4","5f60e3c0a3b16e07647b2ff9","5f638034a83a7d064d65f3bb","true","727.6200000196695","./Stimuli/SelectedImages/LM/LM59.bmp","76","","","","test","true","N + M","76","switch","LM","LM59.bmp","forget","","89","3","prime1","right","","","",""
"html-keyboard-response","250","540601","0.0-4.0-1.0-3.40","ug484mfjan2qbe1","prime","5ecac697f9abb5240d3468d4","5f60e3c0a3b16e07647b2ff9","5f638034a83a7d064d65f3bb","false","null","<div style=""align-items: center; display: flex; color: darkorange; font-size: 90px""><b>ø</b></div>","null","","","","forget_cue","","","","","","","","","","","","","","","",""
"html-keyboard-response","251","541306","0.0-4.0-1.0-0.41","ug484mfjan2qbe1","prime","5ecac697f9abb5240d3468d4","5f60e3c0a3b16e07647b2ff9","5f638034a83a7d064d65f3bb","false","null","<span style=""color: black; font-size: 48px"">N + M</span>","null","","","","resp_prompt","","","","","","","","","","","","","","","",""
"categorize-image","252","541950","0.0-4.0-1.0-1.41","ug484mfjan2qbe1","prime","5ecac697f9abb5240d3468d4","5f60e3c0a3b16e07647b2ff9","5f638034a83a7d064d65f3bb","true","641.5500000002794","./Stimuli/SelectedImages/SM/SM200.bmp","76","","","","test","true","N + M","76","repetition","SM","SM200.bmp","forget","","90","3","prime1","right","","","",""
"html-keyboard-response","253","543956","0.0-4.0-1.0-3.41","ug484mfjan2qbe1","prime","5ecac697f9abb5240d3468d4","5f60e3c0a3b16e07647b2ff9","5f638034a83a7d064d65f3bb","false","null","<div style=""align-items: center; display: flex; color: darkorange; font-size: 90px""><b>ø</b></div>","null","","","","forget_cue","","","","","","","","","","","","","","","",""
