"trial_type","trial_index","time_elapsed","internal_node_id","subject","exp_part","prolific_PID","study_ID","session_ID","use","rt","stimulus","key_press","button_pressed","responses","question_order","trial_part","correct","resp_map","correct_resp","probe_condition","category","image","forget_condition","list","trial_num","block_num","block","response","test_part","n_span","sequence","num_spaces"
"pavlovia","0","5","0.0-0.0","v1gp1eq074cvqta","","5f311b3a87147c59ced74eac","5f60e3c0a3b16e07647b2ff9","5f60ee9cc0acc9000906632a","false","","","","","","","","","","","","","","","","","","","","","","",""
"html-keyboard-response","1","15822","0.0-1.0-0.0-0.0","v1gp1eq074cvqta","welcome","5f311b3a87147c59ced74eac","5f60e3c0a3b16e07647b2ff9","5f60ee9cc0acc9000906632a","false","15815.58500000392","<div align=left>Dear participant, <br> thank you for participating in an online study of the Cognition, Action, and Sustainability Unit of the University of Freiburg! <br> <br>The aim of this study is to examine our ability to remember previously learned information. <br>Our goal is to find out, whether our memory improves, when we only remember information that is relevant to us. <br>The experiment will take about 35 minutes to complete. <br> <br>Please, note that you can only participate in this study if you are using a device with a keyboard (PC, Laptop etc.) <br>and not if you are using a mobile device such as a tablet or smartphone.<br> <br>Press 'SPACE' to proceed to the experiment. </div>","32","","","","","","","","","","","","","","","","","","","",""
"html-keyboard-response","2","43988","0.0-1.0-0.0-1.0","v1gp1eq074cvqta","welcome","5f311b3a87147c59ced74eac","5f60e3c0a3b16e07647b2ff9","5f60ee9cc0acc9000906632a","false","28166.09499999322","<div align=left><strong> Time Course of this experiment: </strong> <br><br> <strong> 1.</strong>  First, please fill in some information regarding your demographic data. <br><br> <strong> 2.</strong>  Next, your task will be to classify everyday objects. <br>In addition, you will be asked to remember certain objects and recall them later. <br>Working on these tasks requires your undivided attention and concentration.<br>It is therefore essential that you eliminate any sources of distraction in your  <br>environment and ensure that you will not be disturbed. <br><br><strong> 3.</strong>  At the end of the experiment, you will be asked to answer a few additional questions. <br> <br><strong> Important:</strong> After finishing the experiment, only close the browser window <br> by clicking on the 'end the experiment'-button when you are asked to do so. <br>Closing the browser window prematurely will make the allocation of your participation credit impossible. <br><br> Press 'SPACE' to start the experiment. </div>","32","","","","","","","","","","","","","","","","","","","",""
"html-button-response","3","51371","0.0-1.0-0.0-2.0","v1gp1eq074cvqta","welcome","5f311b3a87147c59ced74eac","5f60e3c0a3b16e07647b2ff9","5f60ee9cc0acc9000906632a","true","7380.920000010519","<div align=left><strong> Informed consent </strong>  <br>The aim of our research is to better understand human behavior and mental processes. <br>In the following study your behavior (e.g. choices, reaction times) will be studied. <br> <br><strong> Voluntariness and Anonymity </strong> <br>Your participation in this study is  <strong> voluntary</strong>.<br>You may withdraw your consent to participate at any time without providing a reason for doing so and without fear of prejudice. <br><br>As no personal data will be collected, <strong>your data and your person cannot be connected after data collection</strong> – the data-set is anonymous. <br>Respectively, deletion of your data will not be possible after data collection has been completed, as we cannot retrace your data-set.<br>The results and anonymized data collected in this study will be published as a scientific publication. <br>This will happen in an <strong>anonymized format</strong>, so that no data can be traced back to a specific person. <br> <br>The anonymized data of this study will be made available to other researchers and/or in a data archive on the Internet as a means of transparency and to enable subsequent re-use. By doing so, this study follows the recommendations of the Deutsche Forschungsgemeinschaft (DFG, German Research Foundation) and Deutsche Gesellschaft für Psychologie (DGPS, German Psychological Society) regarding quality assurance in research.<br>If you have any questions now or after the experiment, please contact our team (experiments@cs.uni-freiburg.de).<br><br><br>I hereby declare, that I understand the above described conditions of participation and I agree to participate under these conditions. <br><br> </div>","","0","","","","","","","","","","","","","","","","","","",""
"html-keyboard-response","4","80931","0.0-1.0-0.0-3.0","v1gp1eq074cvqta","welcome","5f311b3a87147c59ced74eac","5f60e3c0a3b16e07647b2ff9","5f60ee9cc0acc9000906632a","false","29559.265000003506","<div align=left><strong> General information concerning the experiment </strong>  <br> <br>Please follow the instructions:<ol> <li><strong> Do not leave this tab (your browser window) during the experiment and do not reload this tab! </strong>  <br>If you do switch tabs/windows during the experiment (to check your mail or visit another website, for example), <br>the experiment will end automatically and you will <strong>not receive credit</strong> for your participation. <br>Repeated participation or resumption of the experiment is impossible.</li> <br><li>Please close all other programs for the duration of your participation. </li> <br><li>Please mute or turn off your phone and put it out of your reach. </li> <br><li>Please also take off any disturbing accessories (such as wristwatches, bracelets, etc.). </li> <br><li>If you have music playing in the background, please turn it off now. </li> <br></ol>Thank you! <br>Press 'SPACE' to continue. </div>","32","","","","","","","","","","","","","","","","","","","",""
"survey-text","5","87713","0.0-1.0-1.0-0.0","v1gp1eq074cvqta","demographics","5f311b3a87147c59ced74eac","5f60e3c0a3b16e07647b2ff9","5f60ee9cc0acc9000906632a","true","6776.985000004061","","","","{""age"":""28""}","","","","","","","","","","","","","","","","","",""
"survey-multi-choice","6","131286","0.0-1.0-1.0-1.0","v1gp1eq074cvqta","demographics","5f311b3a87147c59ced74eac","5f60e3c0a3b16e07647b2ff9","5f60ee9cc0acc9000906632a","true","43571.37000000512","","","","{""gender"":""female"",""school"":""others"",""education"":""Completed university degree or equivalent""}","[0,1,2]","","","","","","","","","","","","","","","","",""
"html-keyboard-response","7","153801","0.0-1.0-2.0","v1gp1eq074cvqta","instructions","5f311b3a87147c59ced74eac","5f60e3c0a3b16e07647b2ff9","5f60ee9cc0acc9000906632a","false","22505.195000005187","<div align=left> The experiment is now about to start: <br> <br>In the following part, you will be presented pictures of everyday objects. <br>Your first task is to <strong>classify these objects. </strong> <br> <br> You will classify them either as mechanical or non-mechanical objects. <br> <br>Objects that include any kind of technical mechanism (for example, wheels, switches, levers, <br> electronic components) fall under the category of <strong>mechanical</strong> objects. <br>Only objects without any kind of technical mechanism should be classified as <strong>non-mechanical</strong>. <br><br>Press 'SPACE' to continue. </div>","32","","","","","","","","","","","","","","","","","","","",""
"html-keyboard-response","8","227751","0.0-2.0-0.0","v1gp1eq074cvqta","instructions","5f311b3a87147c59ced74eac","5f60e3c0a3b16e07647b2ff9","5f60ee9cc0acc9000906632a","false","73951.02500000212","<div align=justify>You will classify the objects using the <strong>'S'</strong> and the <strong>'L'</strong> keys on your keyboard.<br>For doing so, please place your <strong>left index finger</strong> on the <strong>'S'</strong> key and place your <strong>right index finger</strong> on the <strong>'L'</strong> key. <br><br> Each trial starts with an instruction, indicating which key ('S'/'L') you need to press to classify <br>the object as mechanical (letter M) or non-mechanical (letter N).<br>The instruction <strong>M + N</strong> indicates that, in the current trial, by pressing the left key ('S') you classify the displayed object as mechanical (M) <br> and by pressing the right key ('L') you classify the object as non-mechanical (N). <br>The instruction <strong>N + M</strong> on the other hand indicates that by pressing the left key ('S') you classify the displayed object as non-mechanical (N) <br> and by pressing the right key ('L') you classify the object as mechanical (M). <br><br>Please press the key corresponding to the correct classification as fast as possible as soon as the object is displayed and try to avoid making mistakes.<br>If you do not respond within a 2 second window, a corresponding feedback will be displayed and the next trial will start.<br> The experiment is divided into multiple blocks to give you the opportunity to take a break after each block. <br>First, you can now practice this task. <br><br>Please place your <strong>LEFT INDEX FINGER</strong> on the 'S' key and your <strong>RIGHT INDEX FINGER</strong> on the 'L' key now. <br><br>Press SPACE to continue.</div>","32","","","","","","","","","","","","","","","","","","","",""
"html-keyboard-response","9","246630","0.0-2.0-1.0","v1gp1eq074cvqta","instructions","5f311b3a87147c59ced74eac","5f60e3c0a3b16e07647b2ff9","5f60ee9cc0acc9000906632a","false","18878.78999998793","<div align=left> You will now have time to practice this task.<br><br>Remember: <br> <br><li>Please place your index fingers on the <strong>'S'</strong> and <strong>'L'</strong> keys <br>to respond as fast and accurately as possible.</li><li>Every picture can be classified as either mechanical or non-mechanical.</li><li>If you do not respond in time or commit an error, you will receive a corresponding feedback. </li><li> Please try to respond as <strong> fast </strong> and as <strong> accurately as possible </strong> .<br><li>To ensure optimal results, please minimize distractions and stay focused. </li><br><br>Press SPACE to continue.</div>","32","","","","","","","","","","","","","","","","","","","",""
"html-keyboard-response","10","247335","0.0-2.0-2.0-0.0","v1gp1eq074cvqta","practice_no_cue","5f311b3a87147c59ced74eac","5f60e3c0a3b16e07647b2ff9","5f60ee9cc0acc9000906632a","false","null","<span style=""color: black; font-size: 48px"">M + N</span>","null","","","","resp_prompt","","","","","","","","","","","","","","","",""
"categorize-image","11","249132","0.0-2.0-2.0-1.0","v1gp1eq074cvqta","practice_no_cue","5f311b3a87147c59ced74eac","5f60e3c0a3b16e07647b2ff9","5f60ee9cc0acc9000906632a","true","1291.4100000052713","./Stimuli/ImagesPractice/SN205.jpg","76","","","","test","true","M + N","76","","SN","SN205.jpg","remember","old","1","1","start","right","","","",""
"html-keyboard-response","12","249836","0.0-2.0-2.0-0.1","v1gp1eq074cvqta","practice_no_cue","5f311b3a87147c59ced74eac","5f60e3c0a3b16e07647b2ff9","5f60ee9cc0acc9000906632a","false","null","<span style=""color: black; font-size: 48px"">M + N</span>","null","","","","resp_prompt","","","","","","","","","","","","","","","",""
"categorize-image","13","252340","0.0-2.0-2.0-1.1","v1gp1eq074cvqta","practice_no_cue","5f311b3a87147c59ced74eac","5f60e3c0a3b16e07647b2ff9","5f60ee9cc0acc9000906632a","true","null","./Stimuli/ImagesPractice/SN75.jpg","null","","","","test","false","M + N","76","","SN","SN75.jpg","remember","old","2","1","start","too_slow","","","",""
"html-keyboard-response","14","253041","0.0-2.0-2.0-0.2","v1gp1eq074cvqta","practice_no_cue","5f311b3a87147c59ced74eac","5f60e3c0a3b16e07647b2ff9","5f60ee9cc0acc9000906632a","false","null","<span style=""color: black; font-size: 48px"">N + M</span>","null","","","","resp_prompt","","","","","","","","","","","","","","","",""
"categorize-image","15","255050","0.0-2.0-2.0-1.2","v1gp1eq074cvqta","practice_no_cue","5f311b3a87147c59ced74eac","5f60e3c0a3b16e07647b2ff9","5f60ee9cc0acc9000906632a","true","1505.0650000048336","./Stimuli/ImagesPractice/LN15.jpg","83","","","","test","true","N + M","83","","LN","LN15.jpg","forget","old","3","1","start","left","","","",""
"html-keyboard-response","16","255753","0.0-2.0-2.0-0.3","v1gp1eq074cvqta","practice_no_cue","5f311b3a87147c59ced74eac","5f60e3c0a3b16e07647b2ff9","5f60ee9cc0acc9000906632a","false","null","<span style=""color: black; font-size: 48px"">M + N</span>","null","","","","resp_prompt","","","","","","","","","","","","","","","",""
"categorize-image","17","257406","0.0-2.0-2.0-1.3","v1gp1eq074cvqta","practice_no_cue","5f311b3a87147c59ced74eac","5f60e3c0a3b16e07647b2ff9","5f60ee9cc0acc9000906632a","true","1146.9700000016019","./Stimuli/ImagesPractice/LN17.jpg","76","","","","test","true","M + N","76","","LN","LN17.jpg","forget","old","4","1","start","right","","","",""
"html-keyboard-response","18","258110","0.0-2.0-2.0-0.4","v1gp1eq074cvqta","practice_no_cue","5f311b3a87147c59ced74eac","5f60e3c0a3b16e07647b2ff9","5f60ee9cc0acc9000906632a","false","null","<span style=""color: black; font-size: 48px"">N + M</span>","null","","","","resp_prompt","","","","","","","","","","","","","","","",""
"categorize-image","19","259729","0.0-2.0-2.0-1.4","v1gp1eq074cvqta","practice_no_cue","5f311b3a87147c59ced74eac","5f60e3c0a3b16e07647b2ff9","5f60ee9cc0acc9000906632a","true","1116.7399999976624","./Stimuli/ImagesPractice/LM55.jpg","76","","","","test","true","N + M","76","","LM","LM55.jpg","forget","old","5","1","start","right","","","",""
"html-keyboard-response","20","260433","0.0-2.0-2.0-0.5","v1gp1eq074cvqta","practice_no_cue","5f311b3a87147c59ced74eac","5f60e3c0a3b16e07647b2ff9","5f60ee9cc0acc9000906632a","false","null","<span style=""color: black; font-size: 48px"">N + M</span>","null","","","","resp_prompt","","","","","","","","","","","","","","","",""
"categorize-image","21","261841","0.0-2.0-2.0-1.5","v1gp1eq074cvqta","practice_no_cue","5f311b3a87147c59ced74eac","5f60e3c0a3b16e07647b2ff9","5f60ee9cc0acc9000906632a","true","905.2599999995437","./Stimuli/ImagesPractice/LN2.jpg","83","","","","test","true","N + M","83","","LN","LN2.jpg","remember","old","6","1","start","left","","","",""
"html-keyboard-response","22","262542","0.0-2.0-2.0-0.6","v1gp1eq074cvqta","practice_no_cue","5f311b3a87147c59ced74eac","5f60e3c0a3b16e07647b2ff9","5f60ee9cc0acc9000906632a","false","null","<span style=""color: black; font-size: 48px"">M + N</span>","null","","","","resp_prompt","","","","","","","","","","","","","","","",""
"categorize-image","23","264003","0.0-2.0-2.0-1.6","v1gp1eq074cvqta","practice_no_cue","5f311b3a87147c59ced74eac","5f60e3c0a3b16e07647b2ff9","5f60ee9cc0acc9000906632a","true","956.8949999957113","./Stimuli/ImagesPractice/SM35.jpg","76","","","","test","false","M + N","83","","SM","SM35.jpg","forget","old","7","1","start","right","","","",""
"html-keyboard-response","24","264706","0.0-2.0-2.0-0.7","v1gp1eq074cvqta","practice_no_cue","5f311b3a87147c59ced74eac","5f60e3c0a3b16e07647b2ff9","5f60ee9cc0acc9000906632a","false","null","<span style=""color: black; font-size: 48px"">N + M</span>","null","","","","resp_prompt","","","","","","","","","","","","","","","",""
"categorize-image","25","266613","0.0-2.0-2.0-1.7","v1gp1eq074cvqta","practice_no_cue","5f311b3a87147c59ced74eac","5f60e3c0a3b16e07647b2ff9","5f60ee9cc0acc9000906632a","true","1400.1450000068871","./Stimuli/ImagesPractice/LM230.jpg","76","","","","test","true","N + M","76","","LM","LM230.jpg","remember","old","8","1","start","right","","","",""
"html-keyboard-response","26","267317","0.0-2.0-2.0-0.8","v1gp1eq074cvqta","practice_no_cue","5f311b3a87147c59ced74eac","5f60e3c0a3b16e07647b2ff9","5f60ee9cc0acc9000906632a","false","null","<span style=""color: black; font-size: 48px"">M + N</span>","null","","","","resp_prompt","","","","","","","","","","","","","","","",""
"categorize-image","27","268910","0.0-2.0-2.0-1.8","v1gp1eq074cvqta","practice_no_cue","5f311b3a87147c59ced74eac","5f60e3c0a3b16e07647b2ff9","5f60ee9cc0acc9000906632a","true","1086.6300000052433","./Stimuli/ImagesPractice/LN109.jpg","76","","","","test","true","M + N","76","","LN","LN109.jpg","remember","old","9","1","start","right","","","",""
"html-keyboard-response","28","269611","0.0-2.0-2.0-0.9","v1gp1eq074cvqta","practice_no_cue","5f311b3a87147c59ced74eac","5f60e3c0a3b16e07647b2ff9","5f60ee9cc0acc9000906632a","false","null","<span style=""color: black; font-size: 48px"">N + M</span>","null","","","","resp_prompt","","","","","","","","","","","","","","","",""
"categorize-image","29","271016","0.0-2.0-2.0-1.9","v1gp1eq074cvqta","practice_no_cue","5f311b3a87147c59ced74eac","5f60e3c0a3b16e07647b2ff9","5f60ee9cc0acc9000906632a","true","903.1249999970896","./Stimuli/ImagesPractice/SN221.jpg","83","","","","test","true","N + M","83","","SN","SN221.jpg","forget","old","10","1","start","left","","","",""
"html-keyboard-response","30","271718","0.0-2.0-2.0-0.10","v1gp1eq074cvqta","practice_no_cue","5f311b3a87147c59ced74eac","5f60e3c0a3b16e07647b2ff9","5f60ee9cc0acc9000906632a","false","null","<span style=""color: black; font-size: 48px"">M + N</span>","null","","","","resp_prompt","","","","","","","","","","","","","","","",""
"categorize-image","31","273301","0.0-2.0-2.0-1.10","v1gp1eq074cvqta","practice_no_cue","5f311b3a87147c59ced74eac","5f60e3c0a3b16e07647b2ff9","5f60ee9cc0acc9000906632a","true","1076.1050000000978","./Stimuli/ImagesPractice/SM98.jpg","83","","","","test","true","M + N","83","","SM","SM98.jpg","forget","old","11","1","start","left","","","",""
"html-keyboard-response","32","274002","0.0-2.0-2.0-0.11","v1gp1eq074cvqta","practice_no_cue","5f311b3a87147c59ced74eac","5f60e3c0a3b16e07647b2ff9","5f60ee9cc0acc9000906632a","false","null","<span style=""color: black; font-size: 48px"">M + N</span>","null","","","","resp_prompt","","","","","","","","","","","","","","","",""
"categorize-image","33","275740","0.0-2.0-2.0-1.11","v1gp1eq074cvqta","practice_no_cue","5f311b3a87147c59ced74eac","5f60e3c0a3b16e07647b2ff9","5f60ee9cc0acc9000906632a","true","1231.5349999989849","./Stimuli/ImagesPractice/LN4.jpg","76","","","","test","true","M + N","76","","LN","LN4.jpg","remember","old","12","1","start","right","","","",""
"html-keyboard-response","34","276441","0.0-2.0-2.0-0.12","v1gp1eq074cvqta","practice_no_cue","5f311b3a87147c59ced74eac","5f60e3c0a3b16e07647b2ff9","5f60ee9cc0acc9000906632a","false","null","<span style=""color: black; font-size: 48px"">N + M</span>","null","","","","resp_prompt","","","","","","","","","","","","","","","",""
"categorize-image","35","277893","0.0-2.0-2.0-1.12","v1gp1eq074cvqta","practice_no_cue","5f311b3a87147c59ced74eac","5f60e3c0a3b16e07647b2ff9","5f60ee9cc0acc9000906632a","true","944.7300000028918","./Stimuli/ImagesPractice/SM37.jpg","76","","","","test","true","N + M","76","","SM","SM37.jpg","remember","old","13","1","start","right","","","",""
"html-keyboard-response","36","278599","0.0-2.0-2.0-0.13","v1gp1eq074cvqta","practice_no_cue","5f311b3a87147c59ced74eac","5f60e3c0a3b16e07647b2ff9","5f60ee9cc0acc9000906632a","false","null","<span style=""color: black; font-size: 48px"">M + N</span>","null","","","","resp_prompt","","","","","","","","","","","","","","","",""
"categorize-image","37","280190","0.0-2.0-2.0-1.13","v1gp1eq074cvqta","practice_no_cue","5f311b3a87147c59ced74eac","5f60e3c0a3b16e07647b2ff9","5f60ee9cc0acc9000906632a","true","1084.8949999926845","./Stimuli/ImagesPractice/LM239.jpg","83","","","","test","true","M + N","83","","LM","LM239.jpg","forget","old","14","1","start","left","","","",""
"html-keyboard-response","38","280896","0.0-2.0-2.0-0.14","v1gp1eq074cvqta","practice_no_cue","5f311b3a87147c59ced74eac","5f60e3c0a3b16e07647b2ff9","5f60ee9cc0acc9000906632a","false","null","<span style=""color: black; font-size: 48px"">N + M</span>","null","","","","resp_prompt","","","","","","","","","","","","","","","",""
"categorize-image","39","282608","0.0-2.0-2.0-1.14","v1gp1eq074cvqta","practice_no_cue","5f311b3a87147c59ced74eac","5f60e3c0a3b16e07647b2ff9","5f60ee9cc0acc9000906632a","true","1209.6049999963725","./Stimuli/ImagesPractice/LN72.jpg","76","","","","test","false","N + M","83","","LN","LN72.jpg","forget","old","15","1","start","right","","","",""
"html-keyboard-response","40","283312","0.0-2.0-2.0-0.15","v1gp1eq074cvqta","practice_no_cue","5f311b3a87147c59ced74eac","5f60e3c0a3b16e07647b2ff9","5f60ee9cc0acc9000906632a","false","null","<span style=""color: black; font-size: 48px"">N + M</span>","null","","","","resp_prompt","","","","","","","","","","","","","","","",""
"categorize-image","41","284656","0.0-2.0-2.0-1.15","v1gp1eq074cvqta","practice_no_cue","5f311b3a87147c59ced74eac","5f60e3c0a3b16e07647b2ff9","5f60ee9cc0acc9000906632a","true","841.6950000100769","./Stimuli/ImagesPractice/LM224.jpg","76","","","","test","true","N + M","76","","LM","LM224.jpg","remember","old","16","1","start","right","","","",""
"html-keyboard-response","42","297388","0.0-2.0-3.0","v1gp1eq074cvqta","break","5f311b3a87147c59ced74eac","5f60e3c0a3b16e07647b2ff9","5f60ee9cc0acc9000906632a","false","12729.684999998426","<p style='font-size: 32px;'>Break</><br><br><br><br><br><p style='font-size: 24px;'>In the last block, you committed 2 errors and did not respond in time on 1 trials.
</p><p style='font-size: 24px;'>Try to respond as fast and accurately as possible in the next block as well! </p><p style='font-size: 24px;'>Press SPACE to continue.</p>","32","","","","","","","","","","","","","","","","","","","",""
"html-keyboard-response","43","308180","0.0-2.0-4.0","v1gp1eq074cvqta","instructions","5f311b3a87147c59ced74eac","5f60e3c0a3b16e07647b2ff9","5f60ee9cc0acc9000906632a","false","10792.31499999878","<div align=left> Great!<br><br>Are you ready to continue?<br><br>If you want to reread the instructions and redo the practice trials, <br>please press „Z“. <br><br>Press SPACE to CONTINUE with the experiment when you are ready. </div>","32","","","","","","","","","","","","","","","","","","","",""
"html-keyboard-response","44","352435","0.0-3.0-0.0","v1gp1eq074cvqta","instructions","5f311b3a87147c59ced74eac","5f60e3c0a3b16e07647b2ff9","5f60ee9cc0acc9000906632a","false","44254.47999998869","<div align=left>Great!<br> <strong>Attention</strong>! You will now receive a second, additional task! <br><br>To this point it was you <strong>first task</strong> to correctly <strong>classify objects</strong>. <br><br>As mentioned in the beginning, we aim to examine how well humans can remember previously learned information.<br>We would like to find out whether our memory improves if we only remember information that is relevant to us. <br><br>Therefore, your <strong>second task</strong> will be to <strong>remember</strong> the pictures you are to categorize. <br> After the learning phase, there will be a memory test phase, in which you will be asked to indicate whether you have seen a picture before or not. <br>Some, but not all pictures shown in the learning phase will appear in the memory test phase.<br>After classifying a picture, you will be told whether you should remember it for the memory test phase or not. <br>Thus, some pictures can be forgotten, whereas others have to be remembered. <br><br>Note: From now on, feedback will only be displayed if you responded incorrectly or not in time.<br><br>Press SPACE to continue.</div>","32","","","","","","","","","","","","","","","","","","","",""
"html-keyboard-response","45","384810","0.0-3.0-1.0","v1gp1eq074cvqta","instructions","5f311b3a87147c59ced74eac","5f60e3c0a3b16e07647b2ff9","5f60ee9cc0acc9000906632a","false","32374.70500000927","<div align=left>In the following part, you will thus have to remember only some pictures. <br>Immediately after seeing and classifying the picture, a symbol will be displayed, indicating whether you should remember or forget the previous picture. <br><br>A <span style='color: dodgerblue; font-size: 28px'>O</span> indicates REMEMBER. That means, you have to remember this picture, because it will be tested later. <br><br>A <span style='color: darkorange; font-size:28px'>Ø</span> indicates FORGET. You do not have to remember this picture. <br><br> As you will have to remember a lot of pictures, it will be hard for you to remember all of them. <br>It will put you at an advantage if you instantly forget the pictures you are not asked to remember. <br> This will make it easier for you to remember the pictures that will be tested afterwards. <br><br>Press SPACE to continue.</div>","32","","","","","","","","","","","","","","","","","","","",""
"html-keyboard-response","46","407281","0.0-3.0-2.0","v1gp1eq074cvqta","instructions","5f311b3a87147c59ced74eac","5f60e3c0a3b16e07647b2ff9","5f60ee9cc0acc9000906632a","false","22471.31000000809","<div align=left> Now you have the chance to practice both tasks together.<br><br>Remember: <br> <br><li>Please place your index fingers on the <strong>'S'</strong> and <strong>'L'</strong> keys <br>to respond as fast and accurately as possible.</li><li>Every picture can be classified as either mechanical or non-mechanical.</li><li>If you do not respond in time or commit an error, you will receive a corresponding feedback. <br>Please try to respond as <strong> fast </strong> and as <strong> accurately as possible </strong>.</li><li> Please remember only the to-be-remembered <span style='color: dodgerblue; font-size: 28px'>O</span> pictures. <br></li><li> Please minimize distractions and stay focused. </li><br><br>Press SPACE to START</div>","32","","","","","","","","","","","","","","","","","","","",""
"html-keyboard-response","47","407987","0.0-3.0-3.0-0.0","v1gp1eq074cvqta","practice_cue","5f311b3a87147c59ced74eac","5f60e3c0a3b16e07647b2ff9","5f60ee9cc0acc9000906632a","false","null","<span style=""color: black; font-size: 48px"">N + M</span>","null","","","","resp_prompt","","","","","","","","","","","","","","","",""
"categorize-image","48","409025","0.0-3.0-3.0-1.0","v1gp1eq074cvqta","practice_cue","5f311b3a87147c59ced74eac","5f60e3c0a3b16e07647b2ff9","5f60ee9cc0acc9000906632a","true","1035.0199999957113","./Stimuli/ImagesPractice/LM224.jpg","76","","","","test","true","N + M","76","","LM","LM224.jpg","remember","old","17","2","practice_forget","right","","","",""
"html-keyboard-response","49","411029","0.0-3.0-3.0-3.0","v1gp1eq074cvqta","practice_cue","5f311b3a87147c59ced74eac","5f60e3c0a3b16e07647b2ff9","5f60ee9cc0acc9000906632a","false","null","<div style=""align-items: center; display: flex; color: dodgerblue; font-size: 90px""><b>o</b></div>","null","","","","forget_cue","","","","","","","","","","","","","","","",""
"html-keyboard-response","50","411735","0.0-3.0-3.0-0.1","v1gp1eq074cvqta","practice_cue","5f311b3a87147c59ced74eac","5f60e3c0a3b16e07647b2ff9","5f60ee9cc0acc9000906632a","false","null","<span style=""color: black; font-size: 48px"">M + N</span>","null","","","","resp_prompt","","","","","","","","","","","","","","","",""
"categorize-image","51","412825","0.0-3.0-3.0-1.1","v1gp1eq074cvqta","practice_cue","5f311b3a87147c59ced74eac","5f60e3c0a3b16e07647b2ff9","5f60ee9cc0acc9000906632a","true","1086.5250000060769","./Stimuli/ImagesPractice/LN109.jpg","76","","","","test","true","M + N","76","","LN","LN109.jpg","remember","old","18","2","practice_forget","right","","","",""
"html-keyboard-response","52","414830","0.0-3.0-3.0-3.1","v1gp1eq074cvqta","practice_cue","5f311b3a87147c59ced74eac","5f60e3c0a3b16e07647b2ff9","5f60ee9cc0acc9000906632a","false","null","<div style=""align-items: center; display: flex; color: dodgerblue; font-size: 90px""><b>o</b></div>","null","","","","forget_cue","","","","","","","","","","","","","","","",""
"html-keyboard-response","53","415536","0.0-3.0-3.0-0.2","v1gp1eq074cvqta","practice_cue","5f311b3a87147c59ced74eac","5f60e3c0a3b16e07647b2ff9","5f60ee9cc0acc9000906632a","false","null","<span style=""color: black; font-size: 48px"">N + M</span>","null","","","","resp_prompt","","","","","","","","","","","","","","","",""
"categorize-image","54","416537","0.0-3.0-3.0-1.2","v1gp1eq074cvqta","practice_cue","5f311b3a87147c59ced74eac","5f60e3c0a3b16e07647b2ff9","5f60ee9cc0acc9000906632a","true","997.4550000042655","./Stimuli/ImagesPractice/SM37.jpg","76","","","","test","true","N + M","76","","SM","SM37.jpg","remember","old","19","2","practice_forget","right","","","",""
"html-keyboard-response","55","418538","0.0-3.0-3.0-3.2","v1gp1eq074cvqta","practice_cue","5f311b3a87147c59ced74eac","5f60e3c0a3b16e07647b2ff9","5f60ee9cc0acc9000906632a","false","null","<div style=""align-items: center; display: flex; color: dodgerblue; font-size: 90px""><b>o</b></div>","null","","","","forget_cue","","","","","","","","","","","","","","","",""
"html-keyboard-response","56","419240","0.0-3.0-3.0-0.3","v1gp1eq074cvqta","practice_cue","5f311b3a87147c59ced74eac","5f60e3c0a3b16e07647b2ff9","5f60ee9cc0acc9000906632a","false","null","<span style=""color: black; font-size: 48px"">M + N</span>","null","","","","resp_prompt","","","","","","","","","","","","","","","",""
"categorize-image","57","419898","0.0-3.0-3.0-1.3","v1gp1eq074cvqta","practice_cue","5f311b3a87147c59ced74eac","5f60e3c0a3b16e07647b2ff9","5f60ee9cc0acc9000906632a","true","654.9050000030547","./Stimuli/ImagesPractice/LN17.jpg","76","","","","test","true","M + N","76","","LN","LN17.jpg","forget","old","20","2","practice_forget","right","","","",""
"html-keyboard-response","58","421903","0.0-3.0-3.0-3.3","v1gp1eq074cvqta","practice_cue","5f311b3a87147c59ced74eac","5f60e3c0a3b16e07647b2ff9","5f60ee9cc0acc9000906632a","false","null","<div style=""align-items: center; display: flex; color: darkorange; font-size: 90px""><b>ø</b></div>","null","","","","forget_cue","","","","","","","","","","","","","","","",""
"html-keyboard-response","59","422608","0.0-3.0-3.0-0.4","v1gp1eq074cvqta","practice_cue","5f311b3a87147c59ced74eac","5f60e3c0a3b16e07647b2ff9","5f60ee9cc0acc9000906632a","false","null","<span style=""color: black; font-size: 48px"">N + M</span>","null","","","","resp_prompt","","","","","","","","","","","","","","","",""
"categorize-image","60","423432","0.0-3.0-3.0-1.4","v1gp1eq074cvqta","practice_cue","5f311b3a87147c59ced74eac","5f60e3c0a3b16e07647b2ff9","5f60ee9cc0acc9000906632a","true","820.9849999984726","./Stimuli/ImagesPractice/LM55.jpg","76","","","","test","true","N + M","76","","LM","LM55.jpg","forget","old","21","2","practice_forget","right","","","",""
"html-keyboard-response","61","425436","0.0-3.0-3.0-3.4","v1gp1eq074cvqta","practice_cue","5f311b3a87147c59ced74eac","5f60e3c0a3b16e07647b2ff9","5f60ee9cc0acc9000906632a","false","null","<div style=""align-items: center; display: flex; color: darkorange; font-size: 90px""><b>ø</b></div>","null","","","","forget_cue","","","","","","","","","","","","","","","",""
"html-keyboard-response","62","426137","0.0-3.0-3.0-0.5","v1gp1eq074cvqta","practice_cue","5f311b3a87147c59ced74eac","5f60e3c0a3b16e07647b2ff9","5f60ee9cc0acc9000906632a","false","null","<span style=""color: black; font-size: 48px"">N + M</span>","null","","","","resp_prompt","","","","","","","","","","","","","","","",""
"categorize-image","63","426977","0.0-3.0-3.0-1.5","v1gp1eq074cvqta","practice_cue","5f311b3a87147c59ced74eac","5f60e3c0a3b16e07647b2ff9","5f60ee9cc0acc9000906632a","true","836.3499999977648","./Stimuli/ImagesPractice/LM230.jpg","76","","","","test","true","N + M","76","","LM","LM230.jpg","remember","old","22","2","practice_forget","right","","","",""
"html-keyboard-response","64","428983","0.0-3.0-3.0-3.5","v1gp1eq074cvqta","practice_cue","5f311b3a87147c59ced74eac","5f60e3c0a3b16e07647b2ff9","5f60ee9cc0acc9000906632a","false","null","<div style=""align-items: center; display: flex; color: dodgerblue; font-size: 90px""><b>o</b></div>","null","","","","forget_cue","","","","","","","","","","","","","","","",""
"html-keyboard-response","65","429689","0.0-3.0-3.0-0.6","v1gp1eq074cvqta","practice_cue","5f311b3a87147c59ced74eac","5f60e3c0a3b16e07647b2ff9","5f60ee9cc0acc9000906632a","false","null","<span style=""color: black; font-size: 48px"">M + N</span>","null","","","","resp_prompt","","","","","","","","","","","","","","","",""
"categorize-image","66","430450","0.0-3.0-3.0-1.6","v1gp1eq074cvqta","practice_cue","5f311b3a87147c59ced74eac","5f60e3c0a3b16e07647b2ff9","5f60ee9cc0acc9000906632a","true","757.9299999924842","./Stimuli/ImagesPractice/SM98.jpg","83","","","","test","true","M + N","83","","SM","SM98.jpg","forget","old","23","2","practice_forget","left","","","",""
"html-keyboard-response","67","432455","0.0-3.0-3.0-3.6","v1gp1eq074cvqta","practice_cue","5f311b3a87147c59ced74eac","5f60e3c0a3b16e07647b2ff9","5f60ee9cc0acc9000906632a","false","null","<div style=""align-items: center; display: flex; color: darkorange; font-size: 90px""><b>ø</b></div>","null","","","","forget_cue","","","","","","","","","","","","","","","",""
"html-keyboard-response","68","433162","0.0-3.0-3.0-0.7","v1gp1eq074cvqta","practice_cue","5f311b3a87147c59ced74eac","5f60e3c0a3b16e07647b2ff9","5f60ee9cc0acc9000906632a","false","null","<span style=""color: black; font-size: 48px"">N + M</span>","null","","","","resp_prompt","","","","","","","","","","","","","","","",""
"categorize-image","69","433784","0.0-3.0-3.0-1.7","v1gp1eq074cvqta","practice_cue","5f311b3a87147c59ced74eac","5f60e3c0a3b16e07647b2ff9","5f60ee9cc0acc9000906632a","true","619.9850000120932","./Stimuli/ImagesPractice/LN72.jpg","83","","","","test","true","N + M","83","","LN","LN72.jpg","forget","old","24","2","practice_forget","left","","","",""
"html-keyboard-response","70","435790","0.0-3.0-3.0-3.7","v1gp1eq074cvqta","practice_cue","5f311b3a87147c59ced74eac","5f60e3c0a3b16e07647b2ff9","5f60ee9cc0acc9000906632a","false","null","<div style=""align-items: center; display: flex; color: darkorange; font-size: 90px""><b>ø</b></div>","null","","","","forget_cue","","","","","","","","","","","","","","","",""
"html-keyboard-response","71","436497","0.0-3.0-3.0-0.8","v1gp1eq074cvqta","practice_cue","5f311b3a87147c59ced74eac","5f60e3c0a3b16e07647b2ff9","5f60ee9cc0acc9000906632a","false","null","<span style=""color: black; font-size: 48px"">N + M</span>","null","","","","resp_prompt","","","","","","","","","","","","","","","",""
"categorize-image","72","437089","0.0-3.0-3.0-1.8","v1gp1eq074cvqta","practice_cue","5f311b3a87147c59ced74eac","5f60e3c0a3b16e07647b2ff9","5f60ee9cc0acc9000906632a","true","586.5300000004936","./Stimuli/ImagesPractice/LN2.jpg","83","","","","test","true","N + M","83","","LN","LN2.jpg","remember","old","25","2","practice_forget","left","","","",""
"html-keyboard-response","73","439092","0.0-3.0-3.0-3.8","v1gp1eq074cvqta","practice_cue","5f311b3a87147c59ced74eac","5f60e3c0a3b16e07647b2ff9","5f60ee9cc0acc9000906632a","false","null","<div style=""align-items: center; display: flex; color: dodgerblue; font-size: 90px""><b>o</b></div>","null","","","","forget_cue","","","","","","","","","","","","","","","",""
"html-keyboard-response","74","439797","0.0-3.0-3.0-0.9","v1gp1eq074cvqta","practice_cue","5f311b3a87147c59ced74eac","5f60e3c0a3b16e07647b2ff9","5f60ee9cc0acc9000906632a","false","null","<span style=""color: black; font-size: 48px"">N + M</span>","null","","","","resp_prompt","","","","","","","","","","","","","","","",""
"categorize-image","75","440360","0.0-3.0-3.0-1.9","v1gp1eq074cvqta","practice_cue","5f311b3a87147c59ced74eac","5f60e3c0a3b16e07647b2ff9","5f60ee9cc0acc9000906632a","true","560.2700000017649","./Stimuli/ImagesPractice/LN15.jpg","83","","","","test","true","N + M","83","","LN","LN15.jpg","forget","old","26","2","practice_forget","left","","","",""
"html-keyboard-response","76","442365","0.0-3.0-3.0-3.9","v1gp1eq074cvqta","practice_cue","5f311b3a87147c59ced74eac","5f60e3c0a3b16e07647b2ff9","5f60ee9cc0acc9000906632a","false","null","<div style=""align-items: center; display: flex; color: darkorange; font-size: 90px""><b>ø</b></div>","null","","","","forget_cue","","","","","","","","","","","","","","","",""
"html-keyboard-response","77","443071","0.0-3.0-3.0-0.10","v1gp1eq074cvqta","practice_cue","5f311b3a87147c59ced74eac","5f60e3c0a3b16e07647b2ff9","5f60ee9cc0acc9000906632a","false","null","<span style=""color: black; font-size: 48px"">M + N</span>","null","","","","resp_prompt","","","","","","","","","","","","","","","",""
"categorize-image","78","443738","0.0-3.0-3.0-1.10","v1gp1eq074cvqta","practice_cue","5f311b3a87147c59ced74eac","5f60e3c0a3b16e07647b2ff9","5f60ee9cc0acc9000906632a","true","662.3799999943003","./Stimuli/ImagesPractice/SN75.jpg","76","","","","test","true","M + N","76","","SN","SN75.jpg","remember","old","27","2","practice_forget","right","","","",""
"html-keyboard-response","79","445739","0.0-3.0-3.0-3.10","v1gp1eq074cvqta","practice_cue","5f311b3a87147c59ced74eac","5f60e3c0a3b16e07647b2ff9","5f60ee9cc0acc9000906632a","false","null","<div style=""align-items: center; display: flex; color: dodgerblue; font-size: 90px""><b>o</b></div>","null","","","","forget_cue","","","","","","","","","","","","","","","",""
"html-keyboard-response","80","446441","0.0-3.0-3.0-0.11","v1gp1eq074cvqta","practice_cue","5f311b3a87147c59ced74eac","5f60e3c0a3b16e07647b2ff9","5f60ee9cc0acc9000906632a","false","null","<span style=""color: black; font-size: 48px"">M + N</span>","null","","","","resp_prompt","","","","","","","","","","","","","","","",""
"categorize-image","81","447312","0.0-3.0-3.0-1.11","v1gp1eq074cvqta","practice_cue","5f311b3a87147c59ced74eac","5f60e3c0a3b16e07647b2ff9","5f60ee9cc0acc9000906632a","true","867.3600000038277","./Stimuli/ImagesPractice/SM35.jpg","83","","","","test","true","M + N","83","","SM","SM35.jpg","forget","old","28","2","practice_forget","left","","","",""
"html-keyboard-response","82","449315","0.0-3.0-3.0-3.11","v1gp1eq074cvqta","practice_cue","5f311b3a87147c59ced74eac","5f60e3c0a3b16e07647b2ff9","5f60ee9cc0acc9000906632a","false","null","<div style=""align-items: center; display: flex; color: darkorange; font-size: 90px""><b>ø</b></div>","null","","","","forget_cue","","","","","","","","","","","","","","","",""
"html-keyboard-response","83","450017","0.0-3.0-3.0-0.12","v1gp1eq074cvqta","practice_cue","5f311b3a87147c59ced74eac","5f60e3c0a3b16e07647b2ff9","5f60ee9cc0acc9000906632a","false","null","<span style=""color: black; font-size: 48px"">M + N</span>","null","","","","resp_prompt","","","","","","","","","","","","","","","",""
"categorize-image","84","450808","0.0-3.0-3.0-1.12","v1gp1eq074cvqta","practice_cue","5f311b3a87147c59ced74eac","5f60e3c0a3b16e07647b2ff9","5f60ee9cc0acc9000906632a","true","787.7900000021327","./Stimuli/ImagesPractice/LN4.jpg","76","","","","test","true","M + N","76","","LN","LN4.jpg","remember","old","29","2","practice_forget","right","","","",""
"html-keyboard-response","85","452809","0.0-3.0-3.0-3.12","v1gp1eq074cvqta","practice_cue","5f311b3a87147c59ced74eac","5f60e3c0a3b16e07647b2ff9","5f60ee9cc0acc9000906632a","false","null","<div style=""align-items: center; display: flex; color: dodgerblue; font-size: 90px""><b>o</b></div>","null","","","","forget_cue","","","","","","","","","","","","","","","",""
"html-keyboard-response","86","453511","0.0-3.0-3.0-0.13","v1gp1eq074cvqta","practice_cue","5f311b3a87147c59ced74eac","5f60e3c0a3b16e07647b2ff9","5f60ee9cc0acc9000906632a","false","null","<span style=""color: black; font-size: 48px"">M + N</span>","null","","","","resp_prompt","","","","","","","","","","","","","","","",""
"categorize-image","87","454274","0.0-3.0-3.0-1.13","v1gp1eq074cvqta","practice_cue","5f311b3a87147c59ced74eac","5f60e3c0a3b16e07647b2ff9","5f60ee9cc0acc9000906632a","true","759.9049999989802","./Stimuli/ImagesPractice/LM239.jpg","76","","","","test","false","M + N","83","","LM","LM239.jpg","forget","old","30","2","practice_forget","right","","","",""
"html-keyboard-response","88","454777","0.0-3.0-3.0-2.13-0.13","v1gp1eq074cvqta","practice_cue","5f311b3a87147c59ced74eac","5f60e3c0a3b16e07647b2ff9","5f60ee9cc0acc9000906632a","false","null","<span style=""color: red; font-size: 48px"">Error!</span>","null","","","","feedback","","","","","","","","","","","","","","","",""
"html-keyboard-response","89","456778","0.0-3.0-3.0-3.13","v1gp1eq074cvqta","practice_cue","5f311b3a87147c59ced74eac","5f60e3c0a3b16e07647b2ff9","5f60ee9cc0acc9000906632a","false","null","<div style=""align-items: center; display: flex; color: darkorange; font-size: 90px""><b>ø</b></div>","null","","","","forget_cue","","","","","","","","","","","","","","","",""
"html-keyboard-response","90","457484","0.0-3.0-3.0-0.14","v1gp1eq074cvqta","practice_cue","5f311b3a87147c59ced74eac","5f60e3c0a3b16e07647b2ff9","5f60ee9cc0acc9000906632a","false","null","<span style=""color: black; font-size: 48px"">M + N</span>","null","","","","resp_prompt","","","","","","","","","","","","","","","",""
"categorize-image","91","458328","0.0-3.0-3.0-1.14","v1gp1eq074cvqta","practice_cue","5f311b3a87147c59ced74eac","5f60e3c0a3b16e07647b2ff9","5f60ee9cc0acc9000906632a","true","839.9050000007264","./Stimuli/ImagesPractice/SN205.jpg","76","","","","test","true","M + N","76","","SN","SN205.jpg","remember","old","31","2","practice_forget","right","","","",""
"html-keyboard-response","92","460330","0.0-3.0-3.0-3.14","v1gp1eq074cvqta","practice_cue","5f311b3a87147c59ced74eac","5f60e3c0a3b16e07647b2ff9","5f60ee9cc0acc9000906632a","false","null","<div style=""align-items: center; display: flex; color: dodgerblue; font-size: 90px""><b>o</b></div>","null","","","","forget_cue","","","","","","","","","","","","","","","",""
"html-keyboard-response","93","461031","0.0-3.0-3.0-0.15","v1gp1eq074cvqta","practice_cue","5f311b3a87147c59ced74eac","5f60e3c0a3b16e07647b2ff9","5f60ee9cc0acc9000906632a","false","null","<span style=""color: black; font-size: 48px"">N + M</span>","null","","","","resp_prompt","","","","","","","","","","","","","","","",""
"categorize-image","94","461600","0.0-3.0-3.0-1.15","v1gp1eq074cvqta","practice_cue","5f311b3a87147c59ced74eac","5f60e3c0a3b16e07647b2ff9","5f60ee9cc0acc9000906632a","true","565.2399999962654","./Stimuli/ImagesPractice/SN221.jpg","83","","","","test","true","N + M","83","","SN","SN221.jpg","forget","old","32","2","practice_forget","left","","","",""
"html-keyboard-response","95","463605","0.0-3.0-3.0-3.15","v1gp1eq074cvqta","practice_cue","5f311b3a87147c59ced74eac","5f60e3c0a3b16e07647b2ff9","5f60ee9cc0acc9000906632a","false","null","<div style=""align-items: center; display: flex; color: darkorange; font-size: 90px""><b>ø</b></div>","null","","","","forget_cue","","","","","","","","","","","","","","","",""
"html-keyboard-response","96","469543","0.0-3.0-4.0","v1gp1eq074cvqta","break","5f311b3a87147c59ced74eac","5f60e3c0a3b16e07647b2ff9","5f60ee9cc0acc9000906632a","false","5936.620000007679","<p style='font-size: 32px;'>Break</><br><br><br><br><br><p style='font-size: 24px;'>In the last block, you committed 1 errors and did not respond in time on 0 trials.
</p><p style='font-size: 24px;'>Try to respond as fast and accurately as possible in the next block as well! </p><p style='font-size: 24px;'>Press SPACE to continue.</p>","32","","","","","","","","","","","","","","","","","","","",""
"html-keyboard-response","97","509086","0.0-3.0-5.0","v1gp1eq074cvqta","instructions","5f311b3a87147c59ced74eac","5f60e3c0a3b16e07647b2ff9","5f60ee9cc0acc9000906632a","false","39543.250000002445","<div align=left> Now, to practice, we kindly ask you to remember as many of the to-be-remembered pictures<br>of the previous learning phase as possible.<br><br>The pictures you were instructed to remember were the pictures followed by a <span style='color: dodgerblue; font-size: 28px'>O</span>.<br><br>In this memory test phase, you will also see some new pictures.<br>It is your task to remember whether you were presented with this specific picture in this study so far or not.<br>If you recognize an object (you have already seen it in this study), it is an OLD object. <br>If you do not recognize an object (you have NOT seen it in this study), it is a NEW object. <br><strong> Attention</strong>: As already mentioned, <span style='color: darkorange; font-size:28px'>Ø</span>-pictures will <strong>never</strong> appear in this memory test (neither as new objects). <br><br>Press SPACE to continue. </div>","32","","","","","","","","","","","","","","","","","","","",""
"html-keyboard-response","98","577492","0.0-3.0-6.0","v1gp1eq074cvqta","instructions","5f311b3a87147c59ced74eac","5f60e3c0a3b16e07647b2ff9","5f60ee9cc0acc9000906632a","false","68407.04499999993","<div align=left> M and N no longer will appear on the left/right of the fixation cross. <br>Instead there will be a note at the bottom of the left or right side  <br>indicating which key you should press for an old or new object:  <br> <br>Press the <strong>right</strong> key to classify an object as <strong>old</strong> and press the <strong>left</strong>, to classify an object as <strong>new</strong>.<br>Please classify the objects as new/old by again placing your index finger on the 'S' and 'L' keys <br>and press them accordingly.<br><br><strong>Old:</strong> This object has been presented before. <br><strong>New:</strong> This object has <strong>not</strong> been presented.<br><br>Now please put your right and left index fingers on the 'S' and 'L' keys of your keyboard. <br>Please respond as fast and as accurately as possible!<br><br>Press SPACE to continue. </div>","32","","","","","","","","","","","","","","","","","","","",""
"categorize-image","99","579720","0.0-3.0-7.0-0.0","v1gp1eq074cvqta","practice_recog","5f311b3a87147c59ced74eac","5f60e3c0a3b16e07647b2ff9","5f60ee9cc0acc9000906632a","true","1723.8800000050105","./Stimuli/ImagesPractice/SM61.jpg","83","","","","test","true","","83","","SM","SM61.jpg","","new","33","3","practice_recog","left","","","",""
"categorize-image","100","581227","0.0-3.0-7.0-0.1","v1gp1eq074cvqta","practice_recog","5f311b3a87147c59ced74eac","5f60e3c0a3b16e07647b2ff9","5f60ee9cc0acc9000906632a","true","1000.9649999992689","./Stimuli/ImagesPractice/SN205.jpg","76","","","","test","true","","76","","SN","SN205.jpg","","old","34","3","practice_recog","right","","","",""
"categorize-image","101","582632","0.0-3.0-7.0-0.2","v1gp1eq074cvqta","practice_recog","5f311b3a87147c59ced74eac","5f60e3c0a3b16e07647b2ff9","5f60ee9cc0acc9000906632a","true","901.4700000116136","./Stimuli/ImagesPractice/LM230.jpg","76","","","","test","true","","76","","LM","LM230.jpg","","old","35","3","practice_recog","right","","","",""
"categorize-image","102","584202","0.0-3.0-7.0-0.3","v1gp1eq074cvqta","practice_recog","5f311b3a87147c59ced74eac","5f60e3c0a3b16e07647b2ff9","5f60ee9cc0acc9000906632a","true","1064.9049999919953","./Stimuli/ImagesPractice/SN76.jpg","83","","","","test","true","","83","","SN","SN76.jpg","","new","36","3","practice_recog","left","","","",""
"categorize-image","103","585752","0.0-3.0-7.0-0.4","v1gp1eq074cvqta","practice_recog","5f311b3a87147c59ced74eac","5f60e3c0a3b16e07647b2ff9","5f60ee9cc0acc9000906632a","true","1047.3150000034366","./Stimuli/ImagesPractice/SN220.jpg","83","","","","test","true","","83","","SN","SN220.jpg","","new","37","3","practice_recog","left","","","",""
"categorize-image","104","587202","0.0-3.0-7.0-0.5","v1gp1eq074cvqta","practice_recog","5f311b3a87147c59ced74eac","5f60e3c0a3b16e07647b2ff9","5f60ee9cc0acc9000906632a","true","944.854999994277","./Stimuli/ImagesPractice/LN109.jpg","76","","","","test","true","","76","","LN","LN109.jpg","","old","38","3","practice_recog","right","","","",""
"categorize-image","105","588473","0.0-3.0-7.0-0.6","v1gp1eq074cvqta","practice_recog","5f311b3a87147c59ced74eac","5f60e3c0a3b16e07647b2ff9","5f60ee9cc0acc9000906632a","true","768.7050000095041","./Stimuli/ImagesPractice/SN75.jpg","76","","","","test","true","","76","","SN","SN75.jpg","","old","39","3","practice_recog","right","","","",""
"categorize-image","106","589875","0.0-3.0-7.0-0.7","v1gp1eq074cvqta","practice_recog","5f311b3a87147c59ced74eac","5f60e3c0a3b16e07647b2ff9","5f60ee9cc0acc9000906632a","true","896.2200000096345","./Stimuli/ImagesPractice/SN222.jpg","83","","","","test","true","","83","","SN","SN222.jpg","","new","40","3","practice_recog","left","","","",""
"categorize-image","107","591439","0.0-3.0-7.0-0.8","v1gp1eq074cvqta","practice_recog","5f311b3a87147c59ced74eac","5f60e3c0a3b16e07647b2ff9","5f60ee9cc0acc9000906632a","true","1061.6100000042934","./Stimuli/ImagesPractice/LM147.jpg","83","","","","test","true","","83","","LM","LM147.jpg","","new","41","3","practice_recog","left","","","",""
"categorize-image","108","592615","0.0-3.0-7.0-0.9","v1gp1eq074cvqta","practice_recog","5f311b3a87147c59ced74eac","5f60e3c0a3b16e07647b2ff9","5f60ee9cc0acc9000906632a","true","673.5549999866635","./Stimuli/ImagesPractice/SM37.jpg","76","","","","test","true","","76","","SM","SM37.jpg","","old","42","3","practice_recog","right","","","",""
"categorize-image","109","593971","0.0-3.0-7.0-0.10","v1gp1eq074cvqta","practice_recog","5f311b3a87147c59ced74eac","5f60e3c0a3b16e07647b2ff9","5f60ee9cc0acc9000906632a","true","849.9299999966752","./Stimuli/ImagesPractice/SM97.jpg","83","","","","test","true","","83","","SM","SM97.jpg","","new","43","3","practice_recog","left","","","",""
"categorize-image","110","595291","0.0-3.0-7.0-0.11","v1gp1eq074cvqta","practice_recog","5f311b3a87147c59ced74eac","5f60e3c0a3b16e07647b2ff9","5f60ee9cc0acc9000906632a","true","813.2100000075297","./Stimuli/ImagesPractice/LM224.jpg","76","","","","test","true","","76","","LM","LM224.jpg","","old","44","3","practice_recog","right","","","",""
"categorize-image","111","596530","0.0-3.0-7.0-0.12","v1gp1eq074cvqta","practice_recog","5f311b3a87147c59ced74eac","5f60e3c0a3b16e07647b2ff9","5f60ee9cc0acc9000906632a","true","732.7349999977741","./Stimuli/ImagesPractice/LM143.jpg","83","","","","test","true","","83","","LM","LM143.jpg","","new","45","3","practice_recog","left","","","",""
"categorize-image","112","597787","0.0-3.0-7.0-0.13","v1gp1eq074cvqta","practice_recog","5f311b3a87147c59ced74eac","5f60e3c0a3b16e07647b2ff9","5f60ee9cc0acc9000906632a","true","749.5400000043446","./Stimuli/ImagesPractice/LN4.jpg","76","","","","test","true","","76","","LN","LN4.jpg","","old","46","3","practice_recog","right","","","",""
"categorize-image","113","599275","0.0-3.0-7.0-0.14","v1gp1eq074cvqta","practice_recog","5f311b3a87147c59ced74eac","5f60e3c0a3b16e07647b2ff9","5f60ee9cc0acc9000906632a","true","983.475000000908","./Stimuli/ImagesPractice/SM62.jpg","83","","","","test","true","","83","","SM","SM62.jpg","","new","47","3","practice_recog","left","","","",""
"categorize-image","114","600667","0.0-3.0-7.0-0.15","v1gp1eq074cvqta","practice_recog","5f311b3a87147c59ced74eac","5f60e3c0a3b16e07647b2ff9","5f60ee9cc0acc9000906632a","true","885.2199999964796","./Stimuli/ImagesPractice/LN2.jpg","76","","","","test","true","","76","","LN","LN2.jpg","","old","48","3","practice_recog","right","","","",""
"html-keyboard-response","115","631706","0.0-3.0-8.0","v1gp1eq074cvqta","instructions","5f311b3a87147c59ced74eac","5f60e3c0a3b16e07647b2ff9","5f60ee9cc0acc9000906632a","false","31038.769999999204","<div align=left> Great!<br><br>Are you ready to continue?<br>If you want to reread the instructions and redo the practice trials, please <br>press „Z“.<br><br>You can proceed when you are ready.<br><br>After the presentation of each object, you will receive an instruction whether to <br>remember or to forget the object.<br>We will test your memory of the following pictures only at the very end of <br>the experiment after all learning blocks are completed. <br><br>Press SPACE to CONTINUE when you are ready. </div>","32","","","","","","","","","","","","","","","","","","","",""
"html-keyboard-response","116","655522","0.0-4.0-0.0","v1gp1eq074cvqta","instructions","5f311b3a87147c59ced74eac","5f60e3c0a3b16e07647b2ff9","5f60ee9cc0acc9000906632a","false","23815.90000000142","<div align=left> The actual experiment is about to start.<br>The practice trials are over!<br><br>Please always respond both fast and accurately!<br><br>Remember: <br> <br><li> Please place your index fingers on the <strong>'S'</strong> and <strong>'L'</strong> keys <br>to respond as fast and accurately as possible.</li><li> Every picture can be classified as either mechanical or non-mechanical.</li><li> If you do not respond in time or commit an error, you will receive a corresponding feedback.<br> Please try to respond as <strong> fast </strong> and as <strong> accurately as possible </strong>.</li><li> Remember the <span style='color: dodgerblue; font-size: 28px'>O</span> pictures. <br></li><li> Please minimize distractions and stay focused. </li><br><br>Press SPACE to START.</div>","32","","","","","","","","","","","","","","","","","","","",""
"html-keyboard-response","117","656228","0.0-4.0-1.0-0.0","v1gp1eq074cvqta","prime","5f311b3a87147c59ced74eac","5f60e3c0a3b16e07647b2ff9","5f60ee9cc0acc9000906632a","false","null","<span style=""color: black; font-size: 48px"">N + M</span>","null","","","","resp_prompt","","","","","","","","","","","","","","","",""
"categorize-image","118","656834","0.0-4.0-1.0-1.0","v1gp1eq074cvqta","prime","5f311b3a87147c59ced74eac","5f60e3c0a3b16e07647b2ff9","5f60ee9cc0acc9000906632a","true","601.8250000051921","./Stimuli/SelectedImages/SN/SN140.bmp","83","","","","test","true","N + M","83","repetition","SN","SN140.bmp","remember","","49","3","prime1","left","","","",""
"html-keyboard-response","119","658836","0.0-4.0-1.0-3.0","v1gp1eq074cvqta","prime","5f311b3a87147c59ced74eac","5f60e3c0a3b16e07647b2ff9","5f60ee9cc0acc9000906632a","false","null","<div style=""align-items: center; display: flex; color: dodgerblue; font-size: 90px""><b>o</b></div>","null","","","","forget_cue","","","","","","","","","","","","","","","",""
"html-keyboard-response","120","659539","0.0-4.0-1.0-0.1","v1gp1eq074cvqta","prime","5f311b3a87147c59ced74eac","5f60e3c0a3b16e07647b2ff9","5f60ee9cc0acc9000906632a","false","null","<span style=""color: black; font-size: 48px"">M + N</span>","null","","","","resp_prompt","","","","","","","","","","","","","","","",""
"categorize-image","121","660170","0.0-4.0-1.0-1.1","v1gp1eq074cvqta","prime","5f311b3a87147c59ced74eac","5f60e3c0a3b16e07647b2ff9","5f60ee9cc0acc9000906632a","true","628.6249999975553","./Stimuli/SelectedImages/SN/SN93.bmp","76","","","","test","true","M + N","76","switch","SN","SN93.bmp","remember","","50","3","prime1","right","","","",""
"html-keyboard-response","122","662176","0.0-4.0-1.0-3.1","v1gp1eq074cvqta","prime","5f311b3a87147c59ced74eac","5f60e3c0a3b16e07647b2ff9","5f60ee9cc0acc9000906632a","false","null","<div style=""align-items: center; display: flex; color: dodgerblue; font-size: 90px""><b>o</b></div>","null","","","","forget_cue","","","","","","","","","","","","","","","",""
"html-keyboard-response","123","662880","0.0-4.0-1.0-0.2","v1gp1eq074cvqta","prime","5f311b3a87147c59ced74eac","5f60e3c0a3b16e07647b2ff9","5f60ee9cc0acc9000906632a","false","null","<span style=""color: black; font-size: 48px"">N + M</span>","null","","","","resp_prompt","","","","","","","","","","","","","","","",""
"categorize-image","124","663706","0.0-4.0-1.0-1.2","v1gp1eq074cvqta","prime","5f311b3a87147c59ced74eac","5f60e3c0a3b16e07647b2ff9","5f60ee9cc0acc9000906632a","true","823.4700000029989","./Stimuli/SelectedImages/LM/LM157.bmp","76","","","","test","true","N + M","76","repetition","LM","LM157.bmp","forget","","51","3","prime1","right","","","",""
"html-keyboard-response","125","665708","0.0-4.0-1.0-3.2","v1gp1eq074cvqta","prime","5f311b3a87147c59ced74eac","5f60e3c0a3b16e07647b2ff9","5f60ee9cc0acc9000906632a","false","null","<div style=""align-items: center; display: flex; color: darkorange; font-size: 90px""><b>ø</b></div>","null","","","","forget_cue","","","","","","","","","","","","","","","",""
"html-keyboard-response","126","666411","0.0-4.0-1.0-0.3","v1gp1eq074cvqta","prime","5f311b3a87147c59ced74eac","5f60e3c0a3b16e07647b2ff9","5f60ee9cc0acc9000906632a","false","null","<span style=""color: black; font-size: 48px"">N + M</span>","null","","","","resp_prompt","","","","","","","","","","","","","","","",""
"categorize-image","127","667171","0.0-4.0-1.0-1.3","v1gp1eq074cvqta","prime","5f311b3a87147c59ced74eac","5f60e3c0a3b16e07647b2ff9","5f60ee9cc0acc9000906632a","true","757.129999998142","./Stimuli/SelectedImages/LM/LM51.bmp","76","","","","test","true","N + M","76","switch","LM","LM51.bmp","remember","","52","3","prime1","right","","","",""
"html-keyboard-response","128","669176","0.0-4.0-1.0-3.3","v1gp1eq074cvqta","prime","5f311b3a87147c59ced74eac","5f60e3c0a3b16e07647b2ff9","5f60ee9cc0acc9000906632a","false","null","<div style=""align-items: center; display: flex; color: dodgerblue; font-size: 90px""><b>o</b></div>","null","","","","forget_cue","","","","","","","","","","","","","","","",""
"html-keyboard-response","129","669882","0.0-4.0-1.0-0.4","v1gp1eq074cvqta","prime","5f311b3a87147c59ced74eac","5f60e3c0a3b16e07647b2ff9","5f60ee9cc0acc9000906632a","false","null","<span style=""color: black; font-size: 48px"">M + N</span>","null","","","","resp_prompt","","","","","","","","","","","","","","","",""
"categorize-image","130","670593","0.0-4.0-1.0-1.4","v1gp1eq074cvqta","prime","5f311b3a87147c59ced74eac","5f60e3c0a3b16e07647b2ff9","5f60ee9cc0acc9000906632a","true","707.7550000103656","./Stimuli/SelectedImages/LM/LM129.bmp","83","","","","test","true","M + N","83","switch","LM","LM129.bmp","forget","","53","3","prime1","left","","","",""
"html-keyboard-response","131","672599","0.0-4.0-1.0-3.4","v1gp1eq074cvqta","prime","5f311b3a87147c59ced74eac","5f60e3c0a3b16e07647b2ff9","5f60ee9cc0acc9000906632a","false","null","<div style=""align-items: center; display: flex; color: darkorange; font-size: 90px""><b>ø</b></div>","null","","","","forget_cue","","","","","","","","","","","","","","","",""
"html-keyboard-response","132","673301","0.0-4.0-1.0-0.5","v1gp1eq074cvqta","prime","5f311b3a87147c59ced74eac","5f60e3c0a3b16e07647b2ff9","5f60ee9cc0acc9000906632a","false","null","<span style=""color: black; font-size: 48px"">M + N</span>","null","","","","resp_prompt","","","","","","","","","","","","","","","",""
"categorize-image","133","673937","0.0-4.0-1.0-1.5","v1gp1eq074cvqta","prime","5f311b3a87147c59ced74eac","5f60e3c0a3b16e07647b2ff9","5f60ee9cc0acc9000906632a","true","633.6650000012014","./Stimuli/SelectedImages/SN/SN52.bmp","76","","","","test","true","M + N","76","switch","SN","SN52.bmp","forget","","54","3","prime1","right","","","",""
"html-keyboard-response","134","675940","0.0-4.0-1.0-3.5","v1gp1eq074cvqta","prime","5f311b3a87147c59ced74eac","5f60e3c0a3b16e07647b2ff9","5f60ee9cc0acc9000906632a","false","null","<div style=""align-items: center; display: flex; color: darkorange; font-size: 90px""><b>ø</b></div>","null","","","","forget_cue","","","","","","","","","","","","","","","",""
"html-keyboard-response","135","676642","0.0-4.0-1.0-0.6","v1gp1eq074cvqta","prime","5f311b3a87147c59ced74eac","5f60e3c0a3b16e07647b2ff9","5f60ee9cc0acc9000906632a","false","null","<span style=""color: black; font-size: 48px"">N + M</span>","null","","","","resp_prompt","","","","","","","","","","","","","","","",""
"categorize-image","136","677283","0.0-4.0-1.0-1.6","v1gp1eq074cvqta","prime","5f311b3a87147c59ced74eac","5f60e3c0a3b16e07647b2ff9","5f60ee9cc0acc9000906632a","true","637.430000002496","./Stimuli/SelectedImages/LN/LN128.bmp","83","","","","test","true","N + M","83","repetition","LN","LN128.bmp","remember","","55","3","prime1","left","","","",""
"html-keyboard-response","137","679289","0.0-4.0-1.0-3.6","v1gp1eq074cvqta","prime","5f311b3a87147c59ced74eac","5f60e3c0a3b16e07647b2ff9","5f60ee9cc0acc9000906632a","false","null","<div style=""align-items: center; display: flex; color: dodgerblue; font-size: 90px""><b>o</b></div>","null","","","","forget_cue","","","","","","","","","","","","","","","",""
"html-keyboard-response","138","679990","0.0-4.0-1.0-0.7","v1gp1eq074cvqta","prime","5f311b3a87147c59ced74eac","5f60e3c0a3b16e07647b2ff9","5f60ee9cc0acc9000906632a","false","null","<span style=""color: black; font-size: 48px"">N + M</span>","null","","","","resp_prompt","","","","","","","","","","","","","","","",""
"categorize-image","139","680545","0.0-4.0-1.0-1.7","v1gp1eq074cvqta","prime","5f311b3a87147c59ced74eac","5f60e3c0a3b16e07647b2ff9","5f60ee9cc0acc9000906632a","true","552.1549999975832","./Stimuli/SelectedImages/SN/SN181.bmp","83","","","","test","true","N + M","83","repetition","SN","SN181.bmp","forget","","56","3","prime1","left","","","",""
"html-keyboard-response","140","682550","0.0-4.0-1.0-3.7","v1gp1eq074cvqta","prime","5f311b3a87147c59ced74eac","5f60e3c0a3b16e07647b2ff9","5f60ee9cc0acc9000906632a","false","null","<div style=""align-items: center; display: flex; color: darkorange; font-size: 90px""><b>ø</b></div>","null","","","","forget_cue","","","","","","","","","","","","","","","",""
"html-keyboard-response","141","683251","0.0-4.0-1.0-0.8","v1gp1eq074cvqta","prime","5f311b3a87147c59ced74eac","5f60e3c0a3b16e07647b2ff9","5f60ee9cc0acc9000906632a","false","null","<span style=""color: black; font-size: 48px"">M + N</span>","null","","","","resp_prompt","","","","","","","","","","","","","","","",""
"categorize-image","142","683801","0.0-4.0-1.0-1.8","v1gp1eq074cvqta","prime","5f311b3a87147c59ced74eac","5f60e3c0a3b16e07647b2ff9","5f60ee9cc0acc9000906632a","true","547.3849999980303","./Stimuli/SelectedImages/LM/LM216.bmp","83","","","","test","true","M + N","83","switch","LM","LM216.bmp","forget","","57","3","prime1","left","","","",""
"html-keyboard-response","143","685803","0.0-4.0-1.0-3.8","v1gp1eq074cvqta","prime","5f311b3a87147c59ced74eac","5f60e3c0a3b16e07647b2ff9","5f60ee9cc0acc9000906632a","false","null","<div style=""align-items: center; display: flex; color: darkorange; font-size: 90px""><b>ø</b></div>","null","","","","forget_cue","","","","","","","","","","","","","","","",""
"html-keyboard-response","144","686504","0.0-4.0-1.0-0.9","v1gp1eq074cvqta","prime","5f311b3a87147c59ced74eac","5f60e3c0a3b16e07647b2ff9","5f60ee9cc0acc9000906632a","false","null","<span style=""color: black; font-size: 48px"">N + M</span>","null","","","","resp_prompt","","","","","","","","","","","","","","","",""
"categorize-image","145","687153","0.0-4.0-1.0-1.9","v1gp1eq074cvqta","prime","5f311b3a87147c59ced74eac","5f60e3c0a3b16e07647b2ff9","5f60ee9cc0acc9000906632a","true","645.3700000129174","./Stimuli/SelectedImages/SM/SM184.bmp","76","","","","test","true","N + M","76","repetition","SM","SM184.bmp","remember","","58","3","prime1","right","","","",""
"html-keyboard-response","146","689159","0.0-4.0-1.0-3.9","v1gp1eq074cvqta","prime","5f311b3a87147c59ced74eac","5f60e3c0a3b16e07647b2ff9","5f60ee9cc0acc9000906632a","false","null","<div style=""align-items: center; display: flex; color: dodgerblue; font-size: 90px""><b>o</b></div>","null","","","","forget_cue","","","","","","","","","","","","","","","",""
"html-keyboard-response","147","689865","0.0-4.0-1.0-0.10","v1gp1eq074cvqta","prime","5f311b3a87147c59ced74eac","5f60e3c0a3b16e07647b2ff9","5f60ee9cc0acc9000906632a","false","null","<span style=""color: black; font-size: 48px"">M + N</span>","null","","","","resp_prompt","","","","","","","","","","","","","","","",""
"categorize-image","148","690442","0.0-4.0-1.0-1.10","v1gp1eq074cvqta","prime","5f311b3a87147c59ced74eac","5f60e3c0a3b16e07647b2ff9","5f60ee9cc0acc9000906632a","true","574.6150000049965","./Stimuli/SelectedImages/SN/SN182.bmp","76","","","","test","true","M + N","76","repetition","SN","SN182.bmp","forget","","59","3","prime1","right","","","",""
"html-keyboard-response","149","692448","0.0-4.0-1.0-3.10","v1gp1eq074cvqta","prime","5f311b3a87147c59ced74eac","5f60e3c0a3b16e07647b2ff9","5f60ee9cc0acc9000906632a","false","null","<div style=""align-items: center; display: flex; color: darkorange; font-size: 90px""><b>ø</b></div>","null","","","","forget_cue","","","","","","","","","","","","","","","",""
"html-keyboard-response","150","693151","0.0-4.0-1.0-0.11","v1gp1eq074cvqta","prime","5f311b3a87147c59ced74eac","5f60e3c0a3b16e07647b2ff9","5f60ee9cc0acc9000906632a","false","null","<span style=""color: black; font-size: 48px"">M + N</span>","null","","","","resp_prompt","","","","","","","","","","","","","","","",""
"categorize-image","151","693817","0.0-4.0-1.0-1.11","v1gp1eq074cvqta","prime","5f311b3a87147c59ced74eac","5f60e3c0a3b16e07647b2ff9","5f60ee9cc0acc9000906632a","true","663.2099999987986","./Stimuli/SelectedImages/SM/SM148.bmp","83","","","","test","true","M + N","83","switch","SM","SM148.bmp","forget","","60","3","prime1","left","","","",""
"html-keyboard-response","152","695822","0.0-4.0-1.0-3.11","v1gp1eq074cvqta","prime","5f311b3a87147c59ced74eac","5f60e3c0a3b16e07647b2ff9","5f60ee9cc0acc9000906632a","false","null","<div style=""align-items: center; display: flex; color: darkorange; font-size: 90px""><b>ø</b></div>","null","","","","forget_cue","","","","","","","","","","","","","","","",""
"html-keyboard-response","153","696528","0.0-4.0-1.0-0.12","v1gp1eq074cvqta","prime","5f311b3a87147c59ced74eac","5f60e3c0a3b16e07647b2ff9","5f60ee9cc0acc9000906632a","false","null","<span style=""color: black; font-size: 48px"">N + M</span>","null","","","","resp_prompt","","","","","","","","","","","","","","","",""
"categorize-image","154","697161","0.0-4.0-1.0-1.12","v1gp1eq074cvqta","prime","5f311b3a87147c59ced74eac","5f60e3c0a3b16e07647b2ff9","5f60ee9cc0acc9000906632a","true","629.6350000047823","./Stimuli/SelectedImages/SM/SM207.bmp","76","","","","test","true","N + M","76","switch","SM","SM207.bmp","remember","","61","3","prime1","right","","","",""
"html-keyboard-response","155","699167","0.0-4.0-1.0-3.12","v1gp1eq074cvqta","prime","5f311b3a87147c59ced74eac","5f60e3c0a3b16e07647b2ff9","5f60ee9cc0acc9000906632a","false","null","<div style=""align-items: center; display: flex; color: dodgerblue; font-size: 90px""><b>o</b></div>","null","","","","forget_cue","","","","","","","","","","","","","","","",""
"html-keyboard-response","156","699872","0.0-4.0-1.0-0.13","v1gp1eq074cvqta","prime","5f311b3a87147c59ced74eac","5f60e3c0a3b16e07647b2ff9","5f60ee9cc0acc9000906632a","false","null","<span style=""color: black; font-size: 48px"">N + M</span>","null","","","","resp_prompt","","","","","","","","","","","","","","","",""
"categorize-image","157","700466","0.0-4.0-1.0-1.13","v1gp1eq074cvqta","prime","5f311b3a87147c59ced74eac","5f60e3c0a3b16e07647b2ff9","5f60ee9cc0acc9000906632a","true","591.4550000015879","./Stimuli/SelectedImages/SM/SM200.bmp","76","","","","test","true","N + M","76","switch","SM","SM200.bmp","forget","","62","3","prime1","right","","","",""
"html-keyboard-response","158","702469","0.0-4.0-1.0-3.13","v1gp1eq074cvqta","prime","5f311b3a87147c59ced74eac","5f60e3c0a3b16e07647b2ff9","5f60ee9cc0acc9000906632a","false","null","<div style=""align-items: center; display: flex; color: darkorange; font-size: 90px""><b>ø</b></div>","null","","","","forget_cue","","","","","","","","","","","","","","","",""
"html-keyboard-response","159","703173","0.0-4.0-1.0-0.14","v1gp1eq074cvqta","prime","5f311b3a87147c59ced74eac","5f60e3c0a3b16e07647b2ff9","5f60ee9cc0acc9000906632a","false","null","<span style=""color: black; font-size: 48px"">M + N</span>","null","","","","resp_prompt","","","","","","","","","","","","","","","",""
"categorize-image","160","703920","0.0-4.0-1.0-1.14","v1gp1eq074cvqta","prime","5f311b3a87147c59ced74eac","5f60e3c0a3b16e07647b2ff9","5f60ee9cc0acc9000906632a","true","744.3599999969592","./Stimuli/SelectedImages/LN/LN59.bmp","76","","","","test","true","M + N","76","repetition","LN","LN59.bmp","forget","","63","3","prime1","right","","","",""
"html-keyboard-response","161","705925","0.0-4.0-1.0-3.14","v1gp1eq074cvqta","prime","5f311b3a87147c59ced74eac","5f60e3c0a3b16e07647b2ff9","5f60ee9cc0acc9000906632a","false","null","<div style=""align-items: center; display: flex; color: darkorange; font-size: 90px""><b>ø</b></div>","null","","","","forget_cue","","","","","","","","","","","","","","","",""
"html-keyboard-response","162","706628","0.0-4.0-1.0-0.15","v1gp1eq074cvqta","prime","5f311b3a87147c59ced74eac","5f60e3c0a3b16e07647b2ff9","5f60ee9cc0acc9000906632a","false","null","<span style=""color: black; font-size: 48px"">N + M</span>","null","","","","resp_prompt","","","","","","","","","","","","","","","",""
"categorize-image","163","707392","0.0-4.0-1.0-1.15","v1gp1eq074cvqta","prime","5f311b3a87147c59ced74eac","5f60e3c0a3b16e07647b2ff9","5f60ee9cc0acc9000906632a","true","760.9850000008009","./Stimuli/SelectedImages/LN/LN92.bmp","83","","","","test","true","N + M","83","repetition","LN","LN92.bmp","forget","","64","3","prime1","left","","","",""
"html-keyboard-response","164","709396","0.0-4.0-1.0-3.15","v1gp1eq074cvqta","prime","5f311b3a87147c59ced74eac","5f60e3c0a3b16e07647b2ff9","5f60ee9cc0acc9000906632a","false","null","<div style=""align-items: center; display: flex; color: darkorange; font-size: 90px""><b>ø</b></div>","null","","","","forget_cue","","","","","","","","","","","","","","","",""
"html-keyboard-response","165","710099","0.0-4.0-1.0-0.16","v1gp1eq074cvqta","prime","5f311b3a87147c59ced74eac","5f60e3c0a3b16e07647b2ff9","5f60ee9cc0acc9000906632a","false","null","<span style=""color: black; font-size: 48px"">M + N</span>","null","","","","resp_prompt","","","","","","","","","","","","","","","",""
"categorize-image","166","710610","0.0-4.0-1.0-1.16","v1gp1eq074cvqta","prime","5f311b3a87147c59ced74eac","5f60e3c0a3b16e07647b2ff9","5f60ee9cc0acc9000906632a","true","507.4000000022352","./Stimuli/SelectedImages/LN/LN42.bmp","76","","","","test","true","M + N","76","switch","LN","LN42.bmp","forget","","65","3","prime1","right","","","",""
"html-keyboard-response","167","712611","0.0-4.0-1.0-3.16","v1gp1eq074cvqta","prime","5f311b3a87147c59ced74eac","5f60e3c0a3b16e07647b2ff9","5f60ee9cc0acc9000906632a","false","null","<div style=""align-items: center; display: flex; color: darkorange; font-size: 90px""><b>ø</b></div>","null","","","","forget_cue","","","","","","","","","","","","","","","",""
"html-keyboard-response","168","713315","0.0-4.0-1.0-0.17","v1gp1eq074cvqta","prime","5f311b3a87147c59ced74eac","5f60e3c0a3b16e07647b2ff9","5f60ee9cc0acc9000906632a","false","null","<span style=""color: black; font-size: 48px"">N + M</span>","null","","","","resp_prompt","","","","","","","","","","","","","","","",""
"categorize-image","169","713880","0.0-4.0-1.0-1.17","v1gp1eq074cvqta","prime","5f311b3a87147c59ced74eac","5f60e3c0a3b16e07647b2ff9","5f60ee9cc0acc9000906632a","true","561.7200000124285","./Stimuli/SelectedImages/SN/SN155.bmp","83","","","","test","true","N + M","83","switch","SN","SN155.bmp","remember","","66","3","prime1","left","","","",""
"html-keyboard-response","170","715886","0.0-4.0-1.0-3.17","v1gp1eq074cvqta","prime","5f311b3a87147c59ced74eac","5f60e3c0a3b16e07647b2ff9","5f60ee9cc0acc9000906632a","false","null","<div style=""align-items: center; display: flex; color: dodgerblue; font-size: 90px""><b>o</b></div>","null","","","","forget_cue","","","","","","","","","","","","","","","",""
"html-keyboard-response","171","716588","0.0-4.0-1.0-0.18","v1gp1eq074cvqta","prime","5f311b3a87147c59ced74eac","5f60e3c0a3b16e07647b2ff9","5f60ee9cc0acc9000906632a","false","null","<span style=""color: black; font-size: 48px"">N + M</span>","null","","","","resp_prompt","","","","","","","","","","","","","","","",""
"categorize-image","172","717096","0.0-4.0-1.0-1.18","v1gp1eq074cvqta","prime","5f311b3a87147c59ced74eac","5f60e3c0a3b16e07647b2ff9","5f60ee9cc0acc9000906632a","true","504.61500001256354","./Stimuli/SelectedImages/LM/LM75.bmp","76","","","","test","true","N + M","76","switch","LM","LM75.bmp","forget","","67","3","prime1","right","","","",""
"html-keyboard-response","173","719099","0.0-4.0-1.0-3.18","v1gp1eq074cvqta","prime","5f311b3a87147c59ced74eac","5f60e3c0a3b16e07647b2ff9","5f60ee9cc0acc9000906632a","false","null","<div style=""align-items: center; display: flex; color: darkorange; font-size: 90px""><b>ø</b></div>","null","","","","forget_cue","","","","","","","","","","","","","","","",""
"html-keyboard-response","174","719801","0.0-4.0-1.0-0.19","v1gp1eq074cvqta","prime","5f311b3a87147c59ced74eac","5f60e3c0a3b16e07647b2ff9","5f60ee9cc0acc9000906632a","false","null","<span style=""color: black; font-size: 48px"">N + M</span>","null","","","","resp_prompt","","","","","","","","","","","","","","","",""
"categorize-image","175","720649","0.0-4.0-1.0-1.19","v1gp1eq074cvqta","prime","5f311b3a87147c59ced74eac","5f60e3c0a3b16e07647b2ff9","5f60ee9cc0acc9000906632a","true","845.7699999999022","./Stimuli/SelectedImages/LN/LN131.bmp","83","","","","test","true","N + M","83","switch","LN","LN131.bmp","forget","","68","3","prime1","left","","","",""
"html-keyboard-response","176","722651","0.0-4.0-1.0-3.19","v1gp1eq074cvqta","prime","5f311b3a87147c59ced74eac","5f60e3c0a3b16e07647b2ff9","5f60ee9cc0acc9000906632a","false","null","<div style=""align-items: center; display: flex; color: darkorange; font-size: 90px""><b>ø</b></div>","null","","","","forget_cue","","","","","","","","","","","","","","","",""
"html-keyboard-response","177","723357","0.0-4.0-1.0-0.20","v1gp1eq074cvqta","prime","5f311b3a87147c59ced74eac","5f60e3c0a3b16e07647b2ff9","5f60ee9cc0acc9000906632a","false","null","<span style=""color: black; font-size: 48px"">M + N</span>","null","","","","resp_prompt","","","","","","","","","","","","","","","",""
"categorize-image","178","723848","0.0-4.0-1.0-1.20","v1gp1eq074cvqta","prime","5f311b3a87147c59ced74eac","5f60e3c0a3b16e07647b2ff9","5f60ee9cc0acc9000906632a","true","487.91999999957625","./Stimuli/SelectedImages/LM/LM150.bmp","83","","","","test","true","M + N","83","repetition","LM","LM150.bmp","forget","","69","3","prime1","left","","","",""
"html-keyboard-response","179","725852","0.0-4.0-1.0-3.20","v1gp1eq074cvqta","prime","5f311b3a87147c59ced74eac","5f60e3c0a3b16e07647b2ff9","5f60ee9cc0acc9000906632a","false","null","<div style=""align-items: center; display: flex; color: darkorange; font-size: 90px""><b>ø</b></div>","null","","","","forget_cue","","","","","","","","","","","","","","","",""
"html-keyboard-response","180","726558","0.0-4.0-1.0-0.21","v1gp1eq074cvqta","prime","5f311b3a87147c59ced74eac","5f60e3c0a3b16e07647b2ff9","5f60ee9cc0acc9000906632a","false","null","<span style=""color: black; font-size: 48px"">M + N</span>","null","","","","resp_prompt","","","","","","","","","","","","","","","",""
"categorize-image","181","727104","0.0-4.0-1.0-1.21","v1gp1eq074cvqta","prime","5f311b3a87147c59ced74eac","5f60e3c0a3b16e07647b2ff9","5f60ee9cc0acc9000906632a","true","542.7799999888521","./Stimuli/SelectedImages/LN/LN111.bmp","76","","","","test","true","M + N","76","switch","LN","LN111.bmp","remember","","70","3","prime1","right","","","",""
"html-keyboard-response","182","729106","0.0-4.0-1.0-3.21","v1gp1eq074cvqta","prime","5f311b3a87147c59ced74eac","5f60e3c0a3b16e07647b2ff9","5f60ee9cc0acc9000906632a","false","null","<div style=""align-items: center; display: flex; color: dodgerblue; font-size: 90px""><b>o</b></div>","null","","","","forget_cue","","","","","","","","","","","","","","","",""
"html-keyboard-response","183","729808","0.0-4.0-1.0-0.22","v1gp1eq074cvqta","prime","5f311b3a87147c59ced74eac","5f60e3c0a3b16e07647b2ff9","5f60ee9cc0acc9000906632a","false","null","<span style=""color: black; font-size: 48px"">M + N</span>","null","","","","resp_prompt","","","","","","","","","","","","","","","",""
"categorize-image","184","730312","0.0-4.0-1.0-1.22","v1gp1eq074cvqta","prime","5f311b3a87147c59ced74eac","5f60e3c0a3b16e07647b2ff9","5f60ee9cc0acc9000906632a","true","501.30499999795575","./Stimuli/SelectedImages/SN/SN179.bmp","76","","","","test","true","M + N","76","repetition","SN","SN179.bmp","remember","","71","3","prime1","right","","","",""
"html-keyboard-response","185","732317","0.0-4.0-1.0-3.22","v1gp1eq074cvqta","prime","5f311b3a87147c59ced74eac","5f60e3c0a3b16e07647b2ff9","5f60ee9cc0acc9000906632a","false","null","<div style=""align-items: center; display: flex; color: dodgerblue; font-size: 90px""><b>o</b></div>","null","","","","forget_cue","","","","","","","","","","","","","","","",""
"html-keyboard-response","186","733023","0.0-4.0-1.0-0.23","v1gp1eq074cvqta","prime","5f311b3a87147c59ced74eac","5f60e3c0a3b16e07647b2ff9","5f60ee9cc0acc9000906632a","false","null","<span style=""color: black; font-size: 48px"">M + N</span>","null","","","","resp_prompt","","","","","","","","","","","","","","","",""
"categorize-image","187","733513","0.0-4.0-1.0-1.23","v1gp1eq074cvqta","prime","5f311b3a87147c59ced74eac","5f60e3c0a3b16e07647b2ff9","5f60ee9cc0acc9000906632a","true","487.26999999780674","./Stimuli/SelectedImages/LM/LM103.bmp","83","","","","test","true","M + N","83","repetition","LM","LM103.bmp","remember","","72","3","prime1","left","","","",""
"html-keyboard-response","188","735519","0.0-4.0-1.0-3.23","v1gp1eq074cvqta","prime","5f311b3a87147c59ced74eac","5f60e3c0a3b16e07647b2ff9","5f60ee9cc0acc9000906632a","false","null","<div style=""align-items: center; display: flex; color: dodgerblue; font-size: 90px""><b>o</b></div>","null","","","","forget_cue","","","","","","","","","","","","","","","",""
"html-keyboard-response","189","736225","0.0-4.0-1.0-0.24","v1gp1eq074cvqta","prime","5f311b3a87147c59ced74eac","5f60e3c0a3b16e07647b2ff9","5f60ee9cc0acc9000906632a","false","null","<span style=""color: black; font-size: 48px"">M + N</span>","null","","","","resp_prompt","","","","","","","","","","","","","","","",""
"categorize-image","190","736727","0.0-4.0-1.0-1.24","v1gp1eq074cvqta","prime","5f311b3a87147c59ced74eac","5f60e3c0a3b16e07647b2ff9","5f60ee9cc0acc9000906632a","true","499.5950000011362","./Stimuli/SelectedImages/SN/SN60.bmp","76","","","","test","true","M + N","76","switch","SN","SN60.bmp","forget","","73","3","prime1","right","","","",""
"html-keyboard-response","191","738729","0.0-4.0-1.0-3.24","v1gp1eq074cvqta","prime","5f311b3a87147c59ced74eac","5f60e3c0a3b16e07647b2ff9","5f60ee9cc0acc9000906632a","false","null","<div style=""align-items: center; display: flex; color: darkorange; font-size: 90px""><b>ø</b></div>","null","","","","forget_cue","","","","","","","","","","","","","","","",""
"html-keyboard-response","192","739430","0.0-4.0-1.0-0.25","v1gp1eq074cvqta","prime","5f311b3a87147c59ced74eac","5f60e3c0a3b16e07647b2ff9","5f60ee9cc0acc9000906632a","false","null","<span style=""color: black; font-size: 48px"">M + N</span>","null","","","","resp_prompt","","","","","","","","","","","","","","","",""
"categorize-image","193","740040","0.0-4.0-1.0-1.25","v1gp1eq074cvqta","prime","5f311b3a87147c59ced74eac","5f60e3c0a3b16e07647b2ff9","5f60ee9cc0acc9000906632a","true","607.0449999970151","./Stimuli/SelectedImages/LN/LN13.bmp","76","","","","test","true","M + N","76","switch","LN","LN13.bmp","forget","","74","3","prime1","right","","","",""
"html-keyboard-response","194","742042","0.0-4.0-1.0-3.25","v1gp1eq074cvqta","prime","5f311b3a87147c59ced74eac","5f60e3c0a3b16e07647b2ff9","5f60ee9cc0acc9000906632a","false","null","<div style=""align-items: center; display: flex; color: darkorange; font-size: 90px""><b>ø</b></div>","null","","","","forget_cue","","","","","","","","","","","","","","","",""
"html-keyboard-response","195","742743","0.0-4.0-1.0-0.26","v1gp1eq074cvqta","prime","5f311b3a87147c59ced74eac","5f60e3c0a3b16e07647b2ff9","5f60ee9cc0acc9000906632a","false","null","<span style=""color: black; font-size: 48px"">M + N</span>","null","","","","resp_prompt","","","","","","","","","","","","","","","",""
"categorize-image","196","743335","0.0-4.0-1.0-1.26","v1gp1eq074cvqta","prime","5f311b3a87147c59ced74eac","5f60e3c0a3b16e07647b2ff9","5f60ee9cc0acc9000906632a","true","589.4200000038836","./Stimuli/SelectedImages/LM/LM100.bmp","83","","","","test","true","M + N","83","switch","LM","LM100.bmp","remember","","75","3","prime1","left","","","",""
"html-keyboard-response","197","745337","0.0-4.0-1.0-3.26","v1gp1eq074cvqta","prime","5f311b3a87147c59ced74eac","5f60e3c0a3b16e07647b2ff9","5f60ee9cc0acc9000906632a","false","null","<div style=""align-items: center; display: flex; color: dodgerblue; font-size: 90px""><b>o</b></div>","null","","","","forget_cue","","","","","","","","","","","","","","","",""
"html-keyboard-response","198","746041","0.0-4.0-1.0-0.27","v1gp1eq074cvqta","prime","5f311b3a87147c59ced74eac","5f60e3c0a3b16e07647b2ff9","5f60ee9cc0acc9000906632a","false","null","<span style=""color: black; font-size: 48px"">M + N</span>","null","","","","resp_prompt","","","","","","","","","","","","","","","",""
"categorize-image","199","746649","0.0-4.0-1.0-1.27","v1gp1eq074cvqta","prime","5f311b3a87147c59ced74eac","5f60e3c0a3b16e07647b2ff9","5f60ee9cc0acc9000906632a","true","604.1950000071665","./Stimuli/SelectedImages/SM/SM108.bmp","83","","","","test","true","M + N","83","repetition","SM","SM108.bmp","remember","","76","3","prime1","left","","","",""
"html-keyboard-response","200","748655","0.0-4.0-1.0-3.27","v1gp1eq074cvqta","prime","5f311b3a87147c59ced74eac","5f60e3c0a3b16e07647b2ff9","5f60ee9cc0acc9000906632a","false","null","<div style=""align-items: center; display: flex; color: dodgerblue; font-size: 90px""><b>o</b></div>","null","","","","forget_cue","","","","","","","","","","","","","","","",""
"html-keyboard-response","201","749358","0.0-4.0-1.0-0.28","v1gp1eq074cvqta","prime","5f311b3a87147c59ced74eac","5f60e3c0a3b16e07647b2ff9","5f60ee9cc0acc9000906632a","false","null","<span style=""color: black; font-size: 48px"">M + N</span>","null","","","","resp_prompt","","","","","","","","","","","","","","","",""
"categorize-image","202","750208","0.0-4.0-1.0-1.28","v1gp1eq074cvqta","prime","5f311b3a87147c59ced74eac","5f60e3c0a3b16e07647b2ff9","5f60ee9cc0acc9000906632a","true","847.315000006347","./Stimuli/SelectedImages/LM/LM209.bmp","83","","","","test","true","M + N","83","repetition","LM","LM209.bmp","remember","","77","3","prime1","left","","","",""
"html-keyboard-response","203","752209","0.0-4.0-1.0-3.28","v1gp1eq074cvqta","prime","5f311b3a87147c59ced74eac","5f60e3c0a3b16e07647b2ff9","5f60ee9cc0acc9000906632a","false","null","<div style=""align-items: center; display: flex; color: dodgerblue; font-size: 90px""><b>o</b></div>","null","","","","forget_cue","","","","","","","","","","","","","","","",""
"html-keyboard-response","204","752913","0.0-4.0-1.0-0.29","v1gp1eq074cvqta","prime","5f311b3a87147c59ced74eac","5f60e3c0a3b16e07647b2ff9","5f60ee9cc0acc9000906632a","false","null","<span style=""color: black; font-size: 48px"">N + M</span>","null","","","","resp_prompt","","","","","","","","","","","","","","","",""
"categorize-image","205","753503","0.0-4.0-1.0-1.29","v1gp1eq074cvqta","prime","5f311b3a87147c59ced74eac","5f60e3c0a3b16e07647b2ff9","5f60ee9cc0acc9000906632a","true","587.1800000022631","./Stimuli/SelectedImages/SM/SM74.bmp","76","","","","test","true","N + M","76","repetition","SM","SM74.bmp","forget","","78","3","prime1","right","","","",""
"html-keyboard-response","206","755505","0.0-4.0-1.0-3.29","v1gp1eq074cvqta","prime","5f311b3a87147c59ced74eac","5f60e3c0a3b16e07647b2ff9","5f60ee9cc0acc9000906632a","false","null","<div style=""align-items: center; display: flex; color: darkorange; font-size: 90px""><b>ø</b></div>","null","","","","forget_cue","","","","","","","","","","","","","","","",""
"html-keyboard-response","207","756206","0.0-4.0-1.0-0.30","v1gp1eq074cvqta","prime","5f311b3a87147c59ced74eac","5f60e3c0a3b16e07647b2ff9","5f60ee9cc0acc9000906632a","false","null","<span style=""color: black; font-size: 48px"">N + M</span>","null","","","","resp_prompt","","","","","","","","","","","","","","","",""
"categorize-image","208","756753","0.0-4.0-1.0-1.30","v1gp1eq074cvqta","prime","5f311b3a87147c59ced74eac","5f60e3c0a3b16e07647b2ff9","5f60ee9cc0acc9000906632a","true","543.2349999900907","./Stimuli/SelectedImages/SM/SM78.bmp","76","","","","test","true","N + M","76","repetition","SM","SM78.bmp","remember","","79","3","prime1","right","","","",""
"html-keyboard-response","209","758757","0.0-4.0-1.0-3.30","v1gp1eq074cvqta","prime","5f311b3a87147c59ced74eac","5f60e3c0a3b16e07647b2ff9","5f60ee9cc0acc9000906632a","false","null","<div style=""align-items: center; display: flex; color: dodgerblue; font-size: 90px""><b>o</b></div>","null","","","","forget_cue","","","","","","","","","","","","","","","",""
"html-keyboard-response","210","759463","0.0-4.0-1.0-0.31","v1gp1eq074cvqta","prime","5f311b3a87147c59ced74eac","5f60e3c0a3b16e07647b2ff9","5f60ee9cc0acc9000906632a","false","null","<span style=""color: black; font-size: 48px"">N + M</span>","null","","","","resp_prompt","","","","","","","","","","","","","","","",""
"categorize-image","211","760127","0.0-4.0-1.0-1.31","v1gp1eq074cvqta","prime","5f311b3a87147c59ced74eac","5f60e3c0a3b16e07647b2ff9","5f60ee9cc0acc9000906632a","true","661.2150000000838","./Stimuli/SelectedImages/LM/LM179.bmp","76","","","","test","true","N + M","76","repetition","LM","LM179.bmp","remember","","80","3","prime1","right","","","",""
"html-keyboard-response","212","762128","0.0-4.0-1.0-3.31","v1gp1eq074cvqta","prime","5f311b3a87147c59ced74eac","5f60e3c0a3b16e07647b2ff9","5f60ee9cc0acc9000906632a","false","null","<div style=""align-items: center; display: flex; color: dodgerblue; font-size: 90px""><b>o</b></div>","null","","","","forget_cue","","","","","","","","","","","","","","","",""
"html-keyboard-response","213","762830","0.0-4.0-1.0-0.32","v1gp1eq074cvqta","prime","5f311b3a87147c59ced74eac","5f60e3c0a3b16e07647b2ff9","5f60ee9cc0acc9000906632a","false","null","<span style=""color: black; font-size: 48px"">M + N</span>","null","","","","resp_prompt","","","","","","","","","","","","","","","",""
"categorize-image","214","763367","0.0-4.0-1.0-1.32","v1gp1eq074cvqta","prime","5f311b3a87147c59ced74eac","5f60e3c0a3b16e07647b2ff9","5f60ee9cc0acc9000906632a","true","533.5100000083912","./Stimuli/SelectedImages/SM/SM106.bmp","83","","","","test","true","M + N","83","switch","SM","SM106.bmp","remember","","81","3","prime1","left","","","",""
"html-keyboard-response","215","765368","0.0-4.0-1.0-3.32","v1gp1eq074cvqta","prime","5f311b3a87147c59ced74eac","5f60e3c0a3b16e07647b2ff9","5f60ee9cc0acc9000906632a","false","null","<div style=""align-items: center; display: flex; color: dodgerblue; font-size: 90px""><b>o</b></div>","null","","","","forget_cue","","","","","","","","","","","","","","","",""
"html-keyboard-response","216","766072","0.0-4.0-1.0-0.33","v1gp1eq074cvqta","prime","5f311b3a87147c59ced74eac","5f60e3c0a3b16e07647b2ff9","5f60ee9cc0acc9000906632a","false","null","<span style=""color: black; font-size: 48px"">M + N</span>","null","","","","resp_prompt","","","","","","","","","","","","","","","",""
"categorize-image","217","766784","0.0-4.0-1.0-1.33","v1gp1eq074cvqta","prime","5f311b3a87147c59ced74eac","5f60e3c0a3b16e07647b2ff9","5f60ee9cc0acc9000906632a","true","708.3549999952083","./Stimuli/SelectedImages/SM/SM24.bmp","83","","","","test","true","M + N","83","switch","SM","SM24.bmp","forget","","82","3","prime1","left","","","",""
"html-keyboard-response","218","768787","0.0-4.0-1.0-3.33","v1gp1eq074cvqta","prime","5f311b3a87147c59ced74eac","5f60e3c0a3b16e07647b2ff9","5f60ee9cc0acc9000906632a","false","null","<div style=""align-items: center; display: flex; color: darkorange; font-size: 90px""><b>ø</b></div>","null","","","","forget_cue","","","","","","","","","","","","","","","",""
"html-keyboard-response","219","769493","0.0-4.0-1.0-0.34","v1gp1eq074cvqta","prime","5f311b3a87147c59ced74eac","5f60e3c0a3b16e07647b2ff9","5f60ee9cc0acc9000906632a","false","null","<span style=""color: black; font-size: 48px"">M + N</span>","null","","","","resp_prompt","","","","","","","","","","","","","","","",""
"categorize-image","220","770118","0.0-4.0-1.0-1.34","v1gp1eq074cvqta","prime","5f311b3a87147c59ced74eac","5f60e3c0a3b16e07647b2ff9","5f60ee9cc0acc9000906632a","true","622.4699999875156","./Stimuli/SelectedImages/SM/SM205.bmp","83","","","","test","true","M + N","83","repetition","SM","SM205.bmp","forget","","83","3","prime1","left","","","",""
"html-keyboard-response","221","772124","0.0-4.0-1.0-3.34","v1gp1eq074cvqta","prime","5f311b3a87147c59ced74eac","5f60e3c0a3b16e07647b2ff9","5f60ee9cc0acc9000906632a","false","null","<div style=""align-items: center; display: flex; color: darkorange; font-size: 90px""><b>ø</b></div>","null","","","","forget_cue","","","","","","","","","","","","","","","",""
"html-keyboard-response","222","772826","0.0-4.0-1.0-0.35","v1gp1eq074cvqta","prime","5f311b3a87147c59ced74eac","5f60e3c0a3b16e07647b2ff9","5f60ee9cc0acc9000906632a","false","null","<span style=""color: black; font-size: 48px"">N + M</span>","null","","","","resp_prompt","","","","","","","","","","","","","","","",""
"categorize-image","223","773374","0.0-4.0-1.0-1.35","v1gp1eq074cvqta","prime","5f311b3a87147c59ced74eac","5f60e3c0a3b16e07647b2ff9","5f60ee9cc0acc9000906632a","true","545.4699999972945","./Stimuli/SelectedImages/SM/SM76.bmp","76","","","","test","true","N + M","76","switch","SM","SM76.bmp","remember","","84","3","prime1","right","","","",""
"html-keyboard-response","224","775377","0.0-4.0-1.0-3.35","v1gp1eq074cvqta","prime","5f311b3a87147c59ced74eac","5f60e3c0a3b16e07647b2ff9","5f60ee9cc0acc9000906632a","false","null","<div style=""align-items: center; display: flex; color: dodgerblue; font-size: 90px""><b>o</b></div>","null","","","","forget_cue","","","","","","","","","","","","","","","",""
"html-keyboard-response","225","776083","0.0-4.0-1.0-0.36","v1gp1eq074cvqta","prime","5f311b3a87147c59ced74eac","5f60e3c0a3b16e07647b2ff9","5f60ee9cc0acc9000906632a","false","null","<span style=""color: black; font-size: 48px"">N + M</span>","null","","","","resp_prompt","","","","","","","","","","","","","","","",""
"categorize-image","226","777000","0.0-4.0-1.0-1.36","v1gp1eq074cvqta","prime","5f311b3a87147c59ced74eac","5f60e3c0a3b16e07647b2ff9","5f60ee9cc0acc9000906632a","true","913.990000000922","./Stimuli/SelectedImages/SN/SN187.bmp","83","","","","test","true","N + M","83","repetition","SN","SN187.bmp","forget","","85","3","prime1","left","","","",""
"html-keyboard-response","227","779003","0.0-4.0-1.0-3.36","v1gp1eq074cvqta","prime","5f311b3a87147c59ced74eac","5f60e3c0a3b16e07647b2ff9","5f60ee9cc0acc9000906632a","false","null","<div style=""align-items: center; display: flex; color: darkorange; font-size: 90px""><b>ø</b></div>","null","","","","forget_cue","","","","","","","","","","","","","","","",""
"html-keyboard-response","228","779705","0.0-4.0-1.0-0.37","v1gp1eq074cvqta","prime","5f311b3a87147c59ced74eac","5f60e3c0a3b16e07647b2ff9","5f60ee9cc0acc9000906632a","false","null","<span style=""color: black; font-size: 48px"">N + M</span>","null","","","","resp_prompt","","","","","","","","","","","","","","","",""
"categorize-image","229","780438","0.0-4.0-1.0-1.37","v1gp1eq074cvqta","prime","5f311b3a87147c59ced74eac","5f60e3c0a3b16e07647b2ff9","5f60ee9cc0acc9000906632a","true","730.215000003227","./Stimuli/SelectedImages/LN/LN166.bmp","83","","","","test","true","N + M","83","repetition","LN","LN166.bmp","forget","","86","3","prime1","left","","","",""
"html-keyboard-response","230","782443","0.0-4.0-1.0-3.37","v1gp1eq074cvqta","prime","5f311b3a87147c59ced74eac","5f60e3c0a3b16e07647b2ff9","5f60ee9cc0acc9000906632a","false","null","<div style=""align-items: center; display: flex; color: darkorange; font-size: 90px""><b>ø</b></div>","null","","","","forget_cue","","","","","","","","","","","","","","","",""
"html-keyboard-response","231","783149","0.0-4.0-1.0-0.38","v1gp1eq074cvqta","prime","5f311b3a87147c59ced74eac","5f60e3c0a3b16e07647b2ff9","5f60ee9cc0acc9000906632a","false","null","<span style=""color: black; font-size: 48px"">N + M</span>","null","","","","resp_prompt","","","","","","","","","","","","","","","",""
"categorize-image","232","783814","0.0-4.0-1.0-1.38","v1gp1eq074cvqta","prime","5f311b3a87147c59ced74eac","5f60e3c0a3b16e07647b2ff9","5f60ee9cc0acc9000906632a","true","661.8000000016764","./Stimuli/SelectedImages/SM/SM128.bmp","76","","","","test","true","N + M","76","switch","SM","SM128.bmp","forget","","87","3","prime1","right","","","",""
"html-keyboard-response","233","785819","0.0-4.0-1.0-3.38","v1gp1eq074cvqta","prime","5f311b3a87147c59ced74eac","5f60e3c0a3b16e07647b2ff9","5f60ee9cc0acc9000906632a","false","null","<div style=""align-items: center; display: flex; color: darkorange; font-size: 90px""><b>ø</b></div>","null","","","","forget_cue","","","","","","","","","","","","","","","",""
"html-keyboard-response","234","786525","0.0-4.0-1.0-0.39","v1gp1eq074cvqta","prime","5f311b3a87147c59ced74eac","5f60e3c0a3b16e07647b2ff9","5f60ee9cc0acc9000906632a","false","null","<span style=""color: black; font-size: 48px"">N + M</span>","null","","","","resp_prompt","","","","","","","","","","","","","","","",""
"categorize-image","235","787064","0.0-4.0-1.0-1.39","v1gp1eq074cvqta","prime","5f311b3a87147c59ced74eac","5f60e3c0a3b16e07647b2ff9","5f60ee9cc0acc9000906632a","true","535.3549999999814","./Stimuli/SelectedImages/SN/SN240.bmp","83","","","","test","true","N + M","83","switch","SN","SN240.bmp","forget","","88","3","prime1","left","","","",""
"html-keyboard-response","236","789067","0.0-4.0-1.0-3.39","v1gp1eq074cvqta","prime","5f311b3a87147c59ced74eac","5f60e3c0a3b16e07647b2ff9","5f60ee9cc0acc9000906632a","false","null","<div style=""align-items: center; display: flex; color: darkorange; font-size: 90px""><b>ø</b></div>","null","","","","forget_cue","","","","","","","","","","","","","","","",""
"html-keyboard-response","237","789772","0.0-4.0-1.0-0.40","v1gp1eq074cvqta","prime","5f311b3a87147c59ced74eac","5f60e3c0a3b16e07647b2ff9","5f60ee9cc0acc9000906632a","false","null","<span style=""color: black; font-size: 48px"">N + M</span>","null","","","","resp_prompt","","","","","","","","","","","","","","","",""
"categorize-image","238","790406","0.0-4.0-1.0-1.40","v1gp1eq074cvqta","prime","5f311b3a87147c59ced74eac","5f60e3c0a3b16e07647b2ff9","5f60ee9cc0acc9000906632a","true","630.9699999983422","./Stimuli/SelectedImages/LM/LM59.bmp","76","","","","test","true","N + M","76","repetition","LM","LM59.bmp","remember","","89","3","prime1","right","","","",""
"html-keyboard-response","239","792409","0.0-4.0-1.0-3.40","v1gp1eq074cvqta","prime","5f311b3a87147c59ced74eac","5f60e3c0a3b16e07647b2ff9","5f60ee9cc0acc9000906632a","false","null","<div style=""align-items: center; display: flex; color: dodgerblue; font-size: 90px""><b>o</b></div>","null","","","","forget_cue","","","","","","","","","","","","","","","",""
"html-keyboard-response","240","793114","0.0-4.0-1.0-0.41","v1gp1eq074cvqta","prime","5f311b3a87147c59ced74eac","5f60e3c0a3b16e07647b2ff9","5f60ee9cc0acc9000906632a","false","null","<span style=""color: black; font-size: 48px"">N + M</span>","null","","","","resp_prompt","","","","","","","","","","","","","","","",""
"categorize-image","241","793741","0.0-4.0-1.0-1.41","v1gp1eq074cvqta","prime","5f311b3a87147c59ced74eac","5f60e3c0a3b16e07647b2ff9","5f60ee9cc0acc9000906632a","true","624.2599999968661","./Stimuli/SelectedImages/LM/LM48.bmp","76","","","","test","true","N + M","76","switch","LM","LM48.bmp","forget","","90","3","prime1","right","","","",""
"html-keyboard-response","242","795742","0.0-4.0-1.0-3.41","v1gp1eq074cvqta","prime","5f311b3a87147c59ced74eac","5f60e3c0a3b16e07647b2ff9","5f60ee9cc0acc9000906632a","false","null","<div style=""align-items: center; display: flex; color: darkorange; font-size: 90px""><b>ø</b></div>","null","","","","forget_cue","","","","","","","","","","","","","","","",""
"html-keyboard-response","243","796448","0.0-4.0-1.0-0.42","v1gp1eq074cvqta","prime","5f311b3a87147c59ced74eac","5f60e3c0a3b16e07647b2ff9","5f60ee9cc0acc9000906632a","false","null","<span style=""color: black; font-size: 48px"">N + M</span>","null","","","","resp_prompt","","","","","","","","","","","","","","","",""
"categorize-image","244","797215","0.0-4.0-1.0-1.42","v1gp1eq074cvqta","prime","5f311b3a87147c59ced74eac","5f60e3c0a3b16e07647b2ff9","5f60ee9cc0acc9000906632a","true","763.3150000037858","./Stimuli/SelectedImages/SM/SM213.bmp","76","","","","test","true","N + M","76","repetition","SM","SM213.bmp","forget","","91","3","prime1","right","","","",""
"html-keyboard-response","245","799221","0.0-4.0-1.0-3.42","v1gp1eq074cvqta","prime","5f311b3a87147c59ced74eac","5f60e3c0a3b16e07647b2ff9","5f60ee9cc0acc9000906632a","false","null","<div style=""align-items: center; display: flex; color: darkorange; font-size: 90px""><b>ø</b></div>","null","","","","forget_cue","","","","","","","","","","","","","","","",""
"html-keyboard-response","246","799925","0.0-4.0-1.0-0.43","v1gp1eq074cvqta","prime","5f311b3a87147c59ced74eac","5f60e3c0a3b16e07647b2ff9","5f60ee9cc0acc9000906632a","false","null","<span style=""color: black; font-size: 48px"">M + N</span>","null","","","","resp_prompt","","","","","","","","","","","","","","","",""
"categorize-image","247","800646","0.0-4.0-1.0-1.43","v1gp1eq074cvqta","prime","5f311b3a87147c59ced74eac","5f60e3c0a3b16e07647b2ff9","5f60ee9cc0acc9000906632a","true","717.3449999972945","./Stimuli/SelectedImages/SN/SN128.bmp","83","","","","test","false","M + N","76","repetition","SN","SN128.bmp","forget","","92","3","prime1","left","","","",""
"html-keyboard-response","248","801147","0.0-4.0-1.0-2.43-0.43","v1gp1eq074cvqta","prime","5f311b3a87147c59ced74eac","5f60e3c0a3b16e07647b2ff9","5f60ee9cc0acc9000906632a","false","null","<span style=""color: red; font-size: 48px"">Error!</span>","null","","","","feedback","","","","","","","","","","","","","","","",""
"html-keyboard-response","249","803153","0.0-4.0-1.0-3.43","v1gp1eq074cvqta","prime","5f311b3a87147c59ced74eac","5f60e3c0a3b16e07647b2ff9","5f60ee9cc0acc9000906632a","false","null","<div style=""align-items: center; display: flex; color: darkorange; font-size: 90px""><b>ø</b></div>","null","","","","forget_cue","","","","","","","","","","","","","","","",""
"html-keyboard-response","250","803859","0.0-4.0-1.0-0.44","v1gp1eq074cvqta","prime","5f311b3a87147c59ced74eac","5f60e3c0a3b16e07647b2ff9","5f60ee9cc0acc9000906632a","false","null","<span style=""color: black; font-size: 48px"">M + N</span>","null","","","","resp_prompt","","","","","","","","","","","","","","","",""
"categorize-image","251","804493","0.0-4.0-1.0-1.44","v1gp1eq074cvqta","prime","5f311b3a87147c59ced74eac","5f60e3c0a3b16e07647b2ff9","5f60ee9cc0acc9000906632a","true","630.9349999937695","./Stimuli/SelectedImages/LN/LN82.bmp","76","","","","test","true","M + N","76","repetition","LN","LN82.bmp","remember","","93","3","prime1","right","","","",""
"html-keyboard-response","252","806497","0.0-4.0-1.0-3.44","v1gp1eq074cvqta","prime","5f311b3a87147c59ced74eac","5f60e3c0a3b16e07647b2ff9","5f60ee9cc0acc9000906632a","false","null","<div style=""align-items: center; display: flex; color: dodgerblue; font-size: 90px""><b>o</b></div>","null","","","","forget_cue","","","","","","","","","","","","","","","",""
