"trial_type","trial_index","time_elapsed","internal_node_id","subject","exp_part","prolific_PID","study_ID","session_ID","use","rt","stimulus","key_press","button_pressed","responses","question_order","trial_part","correct","resp_map","correct_resp","probe_condition","category","image","forget_condition","list","trial_num","block_num","block","response","test_part","n_span","sequence","num_spaces"
"pavlovia","0","4","0.0-0.0","6k17mqz9jm0zfqj","","5aad0a3e2788c10001d0e7e4","5f60e3c0a3b16e07647b2ff9","5f60ef1d6e7508000b74abe1","false","","","","","","","","","","","","","","","","","","","","","","",""
"html-keyboard-response","1","7416","0.0-1.0-0.0-0.0","6k17mqz9jm0zfqj","welcome","5aad0a3e2788c10001d0e7e4","5f60e3c0a3b16e07647b2ff9","5f60ef1d6e7508000b74abe1","false","7410.760000013397","<div align=left>Dear participant, <br> thank you for participating in an online study of the Cognition, Action, and Sustainability Unit of the University of Freiburg! <br> <br>The aim of this study is to examine our ability to remember previously learned information. <br>Our goal is to find out, whether our memory improves, when we only remember information that is relevant to us. <br>The experiment will take about 35 minutes to complete. <br> <br>Please, note that you can only participate in this study if you are using a device with a keyboard (PC, Laptop etc.) <br>and not if you are using a mobile device such as a tablet or smartphone.<br> <br>Press 'SPACE' to proceed to the experiment. </div>","32","","","","","","","","","","","","","","","","","","","",""
"html-keyboard-response","2","14445","0.0-1.0-0.0-1.0","6k17mqz9jm0zfqj","welcome","5aad0a3e2788c10001d0e7e4","5f60e3c0a3b16e07647b2ff9","5f60ef1d6e7508000b74abe1","false","7026.2649999931455","<div align=left><strong> Time Course of this experiment: </strong> <br><br> <strong> 1.</strong>  First, please fill in some information regarding your demographic data. <br><br> <strong> 2.</strong>  Next, your task will be to classify everyday objects. <br>In addition, you will be asked to remember certain objects and recall them later. <br>Working on these tasks requires your undivided attention and concentration.<br>It is therefore essential that you eliminate any sources of distraction in your  <br>environment and ensure that you will not be disturbed. <br><br><strong> 3.</strong>  At the end of the experiment, you will be asked to answer a few additional questions. <br> <br><strong> Important:</strong> After finishing the experiment, only close the browser window <br> by clicking on the 'end the experiment'-button when you are asked to do so. <br>Closing the browser window prematurely will make the allocation of your participation credit impossible. <br><br> Press 'SPACE' to start the experiment. </div>","32","","","","","","","","","","","","","","","","","","","",""
"html-button-response","3","17896","0.0-1.0-0.0-2.0","6k17mqz9jm0zfqj","welcome","5aad0a3e2788c10001d0e7e4","5f60e3c0a3b16e07647b2ff9","5f60ef1d6e7508000b74abe1","true","3449.3450000009034","<div align=left><strong> Informed consent </strong>  <br>The aim of our research is to better understand human behavior and mental processes. <br>In the following study your behavior (e.g. choices, reaction times) will be studied. <br> <br><strong> Voluntariness and Anonymity </strong> <br>Your participation in this study is  <strong> voluntary</strong>.<br>You may withdraw your consent to participate at any time without providing a reason for doing so and without fear of prejudice. <br><br>As no personal data will be collected, <strong>your data and your person cannot be connected after data collection</strong> – the data-set is anonymous. <br>Respectively, deletion of your data will not be possible after data collection has been completed, as we cannot retrace your data-set.<br>The results and anonymized data collected in this study will be published as a scientific publication. <br>This will happen in an <strong>anonymized format</strong>, so that no data can be traced back to a specific person. <br> <br>The anonymized data of this study will be made available to other researchers and/or in a data archive on the Internet as a means of transparency and to enable subsequent re-use. By doing so, this study follows the recommendations of the Deutsche Forschungsgemeinschaft (DFG, German Research Foundation) and Deutsche Gesellschaft für Psychologie (DGPS, German Psychological Society) regarding quality assurance in research.<br>If you have any questions now or after the experiment, please contact our team (experiments@cs.uni-freiburg.de).<br><br><br>I hereby declare, that I understand the above described conditions of participation and I agree to participate under these conditions. <br><br> </div>","","0","","","","","","","","","","","","","","","","","","",""
"html-keyboard-response","4","34290","0.0-1.0-0.0-3.0","6k17mqz9jm0zfqj","welcome","5aad0a3e2788c10001d0e7e4","5f60e3c0a3b16e07647b2ff9","5f60ef1d6e7508000b74abe1","false","16391.22999999381","<div align=left><strong> General information concerning the experiment </strong>  <br> <br>Please follow the instructions:<ol> <li><strong> Do not leave this tab (your browser window) during the experiment and do not reload this tab! </strong>  <br>If you do switch tabs/windows during the experiment (to check your mail or visit another website, for example), <br>the experiment will end automatically and you will <strong>not receive credit</strong> for your participation. <br>Repeated participation or resumption of the experiment is impossible.</li> <br><li>Please close all other programs for the duration of your participation. </li> <br><li>Please mute or turn off your phone and put it out of your reach. </li> <br><li>Please also take off any disturbing accessories (such as wristwatches, bracelets, etc.). </li> <br><li>If you have music playing in the background, please turn it off now. </li> <br></ol>Thank you! <br>Press 'SPACE' to continue. </div>","32","","","","","","","","","","","","","","","","","","","",""
"survey-text","5","38373","0.0-1.0-1.0-0.0","6k17mqz9jm0zfqj","demographics","5aad0a3e2788c10001d0e7e4","5f60e3c0a3b16e07647b2ff9","5f60ef1d6e7508000b74abe1","true","4053.1599999958416","","","","{""age"":""22""}","","","","","","","","","","","","","","","","","",""
"survey-multi-choice","6","53715","0.0-1.0-1.0-1.0","6k17mqz9jm0zfqj","demographics","5aad0a3e2788c10001d0e7e4","5f60e3c0a3b16e07647b2ff9","5f60ef1d6e7508000b74abe1","true","15338.43999999226","","","","{""gender"":""male"",""school"":""others"",""education"":""Doctorate degree""}","[0,1,2]","","","","","","","","","","","","","","","","",""
"html-keyboard-response","7","67719","0.0-1.0-2.0","6k17mqz9jm0zfqj","instructions","5aad0a3e2788c10001d0e7e4","5f60e3c0a3b16e07647b2ff9","5f60ef1d6e7508000b74abe1","false","14002.30000000738","<div align=left> The experiment is now about to start: <br> <br>In the following part, you will be presented pictures of everyday objects. <br>Your first task is to <strong>classify these objects. </strong> <br> <br> You will classify them either as mechanical or non-mechanical objects. <br> <br>Objects that include any kind of technical mechanism (for example, wheels, switches, levers, <br> electronic components) fall under the category of <strong>mechanical</strong> objects. <br>Only objects without any kind of technical mechanism should be classified as <strong>non-mechanical</strong>. <br><br>Press 'SPACE' to continue. </div>","32","","","","","","","","","","","","","","","","","","","",""
"html-keyboard-response","8","87231","0.0-2.0-0.0","6k17mqz9jm0zfqj","instructions","5aad0a3e2788c10001d0e7e4","5f60e3c0a3b16e07647b2ff9","5f60ef1d6e7508000b74abe1","false","19510.36000000022","<div align=justify>You will classify the objects using the <strong>'S'</strong> and the <strong>'L'</strong> keys on your keyboard.<br>For doing so, please place your <strong>left index finger</strong> on the <strong>'S'</strong> key and place your <strong>right index finger</strong> on the <strong>'L'</strong> key. <br><br> Each trial starts with an instruction, indicating which key ('S'/'L') you need to press to classify <br>the object as mechanical (letter M) or non-mechanical (letter N).<br>The instruction <strong>M + N</strong> indicates that, in the current trial, by pressing the left key ('S') you classify the displayed object as mechanical (M) <br> and by pressing the right key ('L') you classify the object as non-mechanical (N). <br>The instruction <strong>N + M</strong> on the other hand indicates that by pressing the left key ('S') you classify the displayed object as non-mechanical (N) <br> and by pressing the right key ('L') you classify the object as mechanical (M). <br><br>Please press the key corresponding to the correct classification as fast as possible as soon as the object is displayed and try to avoid making mistakes.<br>If you do not respond within a 2 second window, a corresponding feedback will be displayed and the next trial will start.<br> The experiment is divided into multiple blocks to give you the opportunity to take a break after each block. <br>First, you can now practice this task. <br><br>Please place your <strong>LEFT INDEX FINGER</strong> on the 'S' key and your <strong>RIGHT INDEX FINGER</strong> on the 'L' key now. <br><br>Press SPACE to continue.</div>","32","","","","","","","","","","","","","","","","","","","",""
"html-keyboard-response","9","92725","0.0-2.0-1.0","6k17mqz9jm0zfqj","instructions","5aad0a3e2788c10001d0e7e4","5f60e3c0a3b16e07647b2ff9","5f60ef1d6e7508000b74abe1","false","5492.9750000010245","<div align=left> You will now have time to practice this task.<br><br>Remember: <br> <br><li>Please place your index fingers on the <strong>'S'</strong> and <strong>'L'</strong> keys <br>to respond as fast and accurately as possible.</li><li>Every picture can be classified as either mechanical or non-mechanical.</li><li>If you do not respond in time or commit an error, you will receive a corresponding feedback. </li><li> Please try to respond as <strong> fast </strong> and as <strong> accurately as possible </strong> .<br><li>To ensure optimal results, please minimize distractions and stay focused. </li><br><br>Press SPACE to continue.</div>","32","","","","","","","","","","","","","","","","","","","",""
"html-keyboard-response","10","93430","0.0-2.0-2.0-0.0","6k17mqz9jm0zfqj","practice_no_cue","5aad0a3e2788c10001d0e7e4","5f60e3c0a3b16e07647b2ff9","5f60ef1d6e7508000b74abe1","false","null","<span style=""color: black; font-size: 48px"">N + M</span>","null","","","","resp_prompt","","","","","","","","","","","","","","","",""
"categorize-image","11","95421","0.0-2.0-2.0-1.0","6k17mqz9jm0zfqj","practice_no_cue","5aad0a3e2788c10001d0e7e4","5f60e3c0a3b16e07647b2ff9","5f60ef1d6e7508000b74abe1","true","1488.7049999961164","./Stimuli/ImagesPractice/LM224.jpg","76","","","","test","true","N + M","76","","LM","LM224.jpg","forget","old","1","1","start","right","","","",""
"html-keyboard-response","12","96123","0.0-2.0-2.0-0.1","6k17mqz9jm0zfqj","practice_no_cue","5aad0a3e2788c10001d0e7e4","5f60e3c0a3b16e07647b2ff9","5f60ef1d6e7508000b74abe1","false","null","<span style=""color: black; font-size: 48px"">N + M</span>","null","","","","resp_prompt","","","","","","","","","","","","","","","",""
"categorize-image","13","97452","0.0-2.0-2.0-1.1","6k17mqz9jm0zfqj","practice_no_cue","5aad0a3e2788c10001d0e7e4","5f60e3c0a3b16e07647b2ff9","5f60ef1d6e7508000b74abe1","true","825.8050000004005","./Stimuli/ImagesPractice/LN2.jpg","83","","","","test","true","N + M","83","","LN","LN2.jpg","forget","old","2","1","start","left","","","",""
"html-keyboard-response","14","98153","0.0-2.0-2.0-0.2","6k17mqz9jm0zfqj","practice_no_cue","5aad0a3e2788c10001d0e7e4","5f60e3c0a3b16e07647b2ff9","5f60ef1d6e7508000b74abe1","false","null","<span style=""color: black; font-size: 48px"">M + N</span>","null","","","","resp_prompt","","","","","","","","","","","","","","","",""
"categorize-image","15","99562","0.0-2.0-2.0-1.2","6k17mqz9jm0zfqj","practice_no_cue","5aad0a3e2788c10001d0e7e4","5f60e3c0a3b16e07647b2ff9","5f60ef1d6e7508000b74abe1","true","907.3449999996228","./Stimuli/ImagesPractice/SM37.jpg","83","","","","test","true","M + N","83","","SM","SM37.jpg","forget","old","3","1","start","left","","","",""
"html-keyboard-response","16","100263","0.0-2.0-2.0-0.3","6k17mqz9jm0zfqj","practice_no_cue","5aad0a3e2788c10001d0e7e4","5f60e3c0a3b16e07647b2ff9","5f60ef1d6e7508000b74abe1","false","null","<span style=""color: black; font-size: 48px"">N + M</span>","null","","","","resp_prompt","","","","","","","","","","","","","","","",""
"categorize-image","17","101259","0.0-2.0-2.0-1.3","6k17mqz9jm0zfqj","practice_no_cue","5aad0a3e2788c10001d0e7e4","5f60e3c0a3b16e07647b2ff9","5f60ef1d6e7508000b74abe1","true","493.705000000773","./Stimuli/ImagesPractice/LM143.jpg","76","","","","test","true","N + M","76","","LM","LM143.jpg","remember","old","4","1","start","right","","","",""
"html-keyboard-response","18","101960","0.0-2.0-2.0-0.4","6k17mqz9jm0zfqj","practice_no_cue","5aad0a3e2788c10001d0e7e4","5f60e3c0a3b16e07647b2ff9","5f60ef1d6e7508000b74abe1","false","null","<span style=""color: black; font-size: 48px"">N + M</span>","null","","","","resp_prompt","","","","","","","","","","","","","","","",""
"categorize-image","19","103032","0.0-2.0-2.0-1.4","6k17mqz9jm0zfqj","practice_no_cue","5aad0a3e2788c10001d0e7e4","5f60e3c0a3b16e07647b2ff9","5f60ef1d6e7508000b74abe1","true","570.0899999937974","./Stimuli/ImagesPractice/SM97.jpg","76","","","","test","true","N + M","76","","SM","SM97.jpg","remember","old","5","1","start","right","","","",""
"html-keyboard-response","20","103734","0.0-2.0-2.0-0.5","6k17mqz9jm0zfqj","practice_no_cue","5aad0a3e2788c10001d0e7e4","5f60e3c0a3b16e07647b2ff9","5f60ef1d6e7508000b74abe1","false","null","<span style=""color: black; font-size: 48px"">M + N</span>","null","","","","resp_prompt","","","","","","","","","","","","","","","",""
"categorize-image","21","104897","0.0-2.0-2.0-1.5","6k17mqz9jm0zfqj","practice_no_cue","5aad0a3e2788c10001d0e7e4","5f60e3c0a3b16e07647b2ff9","5f60ef1d6e7508000b74abe1","true","661.6349999967497","./Stimuli/ImagesPractice/SM61.jpg","76","","","","test","false","M + N","83","","SM","SM61.jpg","remember","old","6","1","start","right","","","",""
"html-keyboard-response","22","105598","0.0-2.0-2.0-0.6","6k17mqz9jm0zfqj","practice_no_cue","5aad0a3e2788c10001d0e7e4","5f60e3c0a3b16e07647b2ff9","5f60ef1d6e7508000b74abe1","false","null","<span style=""color: black; font-size: 48px"">M + N</span>","null","","","","resp_prompt","","","","","","","","","","","","","","","",""
"categorize-image","23","106631","0.0-2.0-2.0-1.6","6k17mqz9jm0zfqj","practice_no_cue","5aad0a3e2788c10001d0e7e4","5f60e3c0a3b16e07647b2ff9","5f60ef1d6e7508000b74abe1","true","531.4850000140723","./Stimuli/ImagesPractice/SM98.jpg","83","","","","test","true","M + N","83","","SM","SM98.jpg","remember","old","7","1","start","left","","","",""
"html-keyboard-response","24","107333","0.0-2.0-2.0-0.7","6k17mqz9jm0zfqj","practice_no_cue","5aad0a3e2788c10001d0e7e4","5f60e3c0a3b16e07647b2ff9","5f60ef1d6e7508000b74abe1","false","null","<span style=""color: black; font-size: 48px"">M + N</span>","null","","","","resp_prompt","","","","","","","","","","","","","","","",""
"categorize-image","25","108359","0.0-2.0-2.0-1.7","6k17mqz9jm0zfqj","practice_no_cue","5aad0a3e2788c10001d0e7e4","5f60e3c0a3b16e07647b2ff9","5f60ef1d6e7508000b74abe1","true","523.9800000126706","./Stimuli/ImagesPractice/LN15.jpg","76","","","","test","true","M + N","76","","LN","LN15.jpg","remember","old","8","1","start","right","","","",""
"html-keyboard-response","26","109060","0.0-2.0-2.0-0.8","6k17mqz9jm0zfqj","practice_no_cue","5aad0a3e2788c10001d0e7e4","5f60e3c0a3b16e07647b2ff9","5f60ef1d6e7508000b74abe1","false","null","<span style=""color: black; font-size: 48px"">N + M</span>","null","","","","resp_prompt","","","","","","","","","","","","","","","",""
"categorize-image","27","110228","0.0-2.0-2.0-1.8","6k17mqz9jm0zfqj","practice_no_cue","5aad0a3e2788c10001d0e7e4","5f60e3c0a3b16e07647b2ff9","5f60ef1d6e7508000b74abe1","true","666.1949999979697","./Stimuli/ImagesPractice/SN205.jpg","83","","","","test","true","N + M","83","","SN","SN205.jpg","remember","old","9","1","start","left","","","",""
"html-keyboard-response","28","110930","0.0-2.0-2.0-0.9","6k17mqz9jm0zfqj","practice_no_cue","5aad0a3e2788c10001d0e7e4","5f60e3c0a3b16e07647b2ff9","5f60ef1d6e7508000b74abe1","false","null","<span style=""color: black; font-size: 48px"">M + N</span>","null","","","","resp_prompt","","","","","","","","","","","","","","","",""
"categorize-image","29","111971","0.0-2.0-2.0-1.9","6k17mqz9jm0zfqj","practice_no_cue","5aad0a3e2788c10001d0e7e4","5f60e3c0a3b16e07647b2ff9","5f60ef1d6e7508000b74abe1","true","538.1049999996321","./Stimuli/ImagesPractice/SN221.jpg","76","","","","test","true","M + N","76","","SN","SN221.jpg","forget","old","10","1","start","right","","","",""
"html-keyboard-response","30","112672","0.0-2.0-2.0-0.10","6k17mqz9jm0zfqj","practice_no_cue","5aad0a3e2788c10001d0e7e4","5f60e3c0a3b16e07647b2ff9","5f60ef1d6e7508000b74abe1","false","null","<span style=""color: black; font-size: 48px"">N + M</span>","null","","","","resp_prompt","","","","","","","","","","","","","","","",""
"categorize-image","31","113849","0.0-2.0-2.0-1.10","6k17mqz9jm0zfqj","practice_no_cue","5aad0a3e2788c10001d0e7e4","5f60e3c0a3b16e07647b2ff9","5f60ef1d6e7508000b74abe1","true","675.7050000014715","./Stimuli/ImagesPractice/LN17.jpg","83","","","","test","true","N + M","83","","LN","LN17.jpg","remember","old","11","1","start","left","","","",""
"html-keyboard-response","32","114550","0.0-2.0-2.0-0.11","6k17mqz9jm0zfqj","practice_no_cue","5aad0a3e2788c10001d0e7e4","5f60e3c0a3b16e07647b2ff9","5f60ef1d6e7508000b74abe1","false","null","<span style=""color: black; font-size: 48px"">N + M</span>","null","","","","resp_prompt","","","","","","","","","","","","","","","",""
"categorize-image","33","115655","0.0-2.0-2.0-1.11","6k17mqz9jm0zfqj","practice_no_cue","5aad0a3e2788c10001d0e7e4","5f60e3c0a3b16e07647b2ff9","5f60ef1d6e7508000b74abe1","true","602.8949999890756","./Stimuli/ImagesPractice/SN220.jpg","83","","","","test","true","N + M","83","","SN","SN220.jpg","forget","old","12","1","start","left","","","",""
"html-keyboard-response","34","116356","0.0-2.0-2.0-0.12","6k17mqz9jm0zfqj","practice_no_cue","5aad0a3e2788c10001d0e7e4","5f60e3c0a3b16e07647b2ff9","5f60ef1d6e7508000b74abe1","false","null","<span style=""color: black; font-size: 48px"">N + M</span>","null","","","","resp_prompt","","","","","","","","","","","","","","","",""
"categorize-image","35","117391","0.0-2.0-2.0-1.12","6k17mqz9jm0zfqj","practice_no_cue","5aad0a3e2788c10001d0e7e4","5f60e3c0a3b16e07647b2ff9","5f60ef1d6e7508000b74abe1","true","532.9850000125589","./Stimuli/ImagesPractice/LM239.jpg","76","","","","test","true","N + M","76","","LM","LM239.jpg","forget","old","13","1","start","right","","","",""
"html-keyboard-response","36","118092","0.0-2.0-2.0-0.13","6k17mqz9jm0zfqj","practice_no_cue","5aad0a3e2788c10001d0e7e4","5f60e3c0a3b16e07647b2ff9","5f60ef1d6e7508000b74abe1","false","null","<span style=""color: black; font-size: 48px"">M + N</span>","null","","","","resp_prompt","","","","","","","","","","","","","","","",""
"categorize-image","37","118973","0.0-2.0-2.0-1.13","6k17mqz9jm0zfqj","practice_no_cue","5aad0a3e2788c10001d0e7e4","5f60e3c0a3b16e07647b2ff9","5f60ef1d6e7508000b74abe1","true","378.93500000063796","./Stimuli/ImagesPractice/SM35.jpg","83","","","","test","true","M + N","83","","SM","SM35.jpg","remember","old","14","1","start","left","","","",""
"html-keyboard-response","38","119675","0.0-2.0-2.0-0.14","6k17mqz9jm0zfqj","practice_no_cue","5aad0a3e2788c10001d0e7e4","5f60e3c0a3b16e07647b2ff9","5f60ef1d6e7508000b74abe1","false","null","<span style=""color: black; font-size: 48px"">M + N</span>","null","","","","resp_prompt","","","","","","","","","","","","","","","",""
"categorize-image","39","120678","0.0-2.0-2.0-1.14","6k17mqz9jm0zfqj","practice_no_cue","5aad0a3e2788c10001d0e7e4","5f60e3c0a3b16e07647b2ff9","5f60ef1d6e7508000b74abe1","true","501.6349999932572","./Stimuli/ImagesPractice/LN4.jpg","83","","","","test","false","M + N","76","","LN","LN4.jpg","forget","old","15","1","start","left","","","",""
"html-keyboard-response","40","121379","0.0-2.0-2.0-0.15","6k17mqz9jm0zfqj","practice_no_cue","5aad0a3e2788c10001d0e7e4","5f60e3c0a3b16e07647b2ff9","5f60ef1d6e7508000b74abe1","false","null","<span style=""color: black; font-size: 48px"">M + N</span>","null","","","","resp_prompt","","","","","","","","","","","","","","","",""
"categorize-image","41","122476","0.0-2.0-2.0-1.15","6k17mqz9jm0zfqj","practice_no_cue","5aad0a3e2788c10001d0e7e4","5f60e3c0a3b16e07647b2ff9","5f60ef1d6e7508000b74abe1","true","595.5749999993714","./Stimuli/ImagesPractice/LN109.jpg","83","","","","test","false","M + N","76","","LN","LN109.jpg","forget","old","16","1","start","left","","","",""
"html-keyboard-response","42","128924","0.0-2.0-3.0","6k17mqz9jm0zfqj","break","5aad0a3e2788c10001d0e7e4","5f60e3c0a3b16e07647b2ff9","5f60ef1d6e7508000b74abe1","false","6445.930000001681","<p style='font-size: 32px;'>Break</><br><br><br><br><br><p style='font-size: 24px;'>In the last block, you committed 3 errors and did not respond in time on 0 trials.
</p><p style='font-size: 24px;'>Try to respond as fast and accurately as possible in the next block as well! </p><p style='font-size: 24px;'>Press SPACE to continue.</p>","32","","","","","","","","","","","","","","","","","","","",""
"html-keyboard-response","43","131267","0.0-2.0-4.0","6k17mqz9jm0zfqj","instructions","5aad0a3e2788c10001d0e7e4","5f60e3c0a3b16e07647b2ff9","5f60ef1d6e7508000b74abe1","false","2341.7950000002747","<div align=left> Great!<br><br>Are you ready to continue?<br><br>If you want to reread the instructions and redo the practice trials, <br>please press „Z“. <br><br>Press SPACE to CONTINUE with the experiment when you are ready. </div>","32","","","","","","","","","","","","","","","","","","","",""
"html-keyboard-response","44","145436","0.0-3.0-0.0","6k17mqz9jm0zfqj","instructions","5aad0a3e2788c10001d0e7e4","5f60e3c0a3b16e07647b2ff9","5f60ef1d6e7508000b74abe1","false","14167.770000000019","<div align=left>Great!<br> <strong>Attention</strong>! You will now receive a second, additional task! <br><br>To this point it was you <strong>first task</strong> to correctly <strong>classify objects</strong>. <br><br>As mentioned in the beginning, we aim to examine how well humans can remember previously learned information.<br>We would like to find out whether our memory improves if we only remember information that is relevant to us. <br><br>Therefore, your <strong>second task</strong> will be to <strong>remember</strong> the pictures you are to categorize. <br> After the learning phase, there will be a memory test phase, in which you will be asked to indicate whether you have seen a picture before or not. <br>Some, but not all pictures shown in the learning phase will appear in the memory test phase.<br>After classifying a picture, you will be told whether you should remember it for the memory test phase or not. <br>Thus, some pictures can be forgotten, whereas others have to be remembered. <br><br>Note: From now on, feedback will only be displayed if you responded incorrectly or not in time.<br><br>Press SPACE to continue.</div>","32","","","","","","","","","","","","","","","","","","","",""
"html-keyboard-response","45","157278","0.0-3.0-1.0","6k17mqz9jm0zfqj","instructions","5aad0a3e2788c10001d0e7e4","5f60e3c0a3b16e07647b2ff9","5f60ef1d6e7508000b74abe1","false","11840.964999995776","<div align=left>In the following part, you will thus have to remember only some pictures. <br>Immediately after seeing and classifying the picture, a symbol will be displayed, indicating whether you should remember or forget the previous picture. <br><br>A <span style='color: dodgerblue; font-size: 28px'>O</span> indicates REMEMBER. That means, you have to remember this picture, because it will be tested later. <br><br>A <span style='color: darkorange; font-size:28px'>Ø</span> indicates FORGET. You do not have to remember this picture. <br><br> As you will have to remember a lot of pictures, it will be hard for you to remember all of them. <br>It will put you at an advantage if you instantly forget the pictures you are not asked to remember. <br> This will make it easier for you to remember the pictures that will be tested afterwards. <br><br>Press SPACE to continue.</div>","32","","","","","","","","","","","","","","","","","","","",""
"html-keyboard-response","46","160026","0.0-3.0-2.0","6k17mqz9jm0zfqj","instructions","5aad0a3e2788c10001d0e7e4","5f60e3c0a3b16e07647b2ff9","5f60ef1d6e7508000b74abe1","false","2746.759999994538","<div align=left> Now you have the chance to practice both tasks together.<br><br>Remember: <br> <br><li>Please place your index fingers on the <strong>'S'</strong> and <strong>'L'</strong> keys <br>to respond as fast and accurately as possible.</li><li>Every picture can be classified as either mechanical or non-mechanical.</li><li>If you do not respond in time or commit an error, you will receive a corresponding feedback. <br>Please try to respond as <strong> fast </strong> and as <strong> accurately as possible </strong>.</li><li> Please remember only the to-be-remembered <span style='color: dodgerblue; font-size: 28px'>O</span> pictures. <br></li><li> Please minimize distractions and stay focused. </li><br><br>Press SPACE to START</div>","32","","","","","","","","","","","","","","","","","","","",""
"html-keyboard-response","47","160728","0.0-3.0-3.0-0.0","6k17mqz9jm0zfqj","practice_cue","5aad0a3e2788c10001d0e7e4","5f60e3c0a3b16e07647b2ff9","5f60ef1d6e7508000b74abe1","false","null","<span style=""color: black; font-size: 48px"">M + N</span>","null","","","","resp_prompt","","","","","","","","","","","","","","","",""
"categorize-image","48","161219","0.0-3.0-3.0-1.0","6k17mqz9jm0zfqj","practice_cue","5aad0a3e2788c10001d0e7e4","5f60e3c0a3b16e07647b2ff9","5f60ef1d6e7508000b74abe1","true","487.5099999917438","./Stimuli/ImagesPractice/SN221.jpg","76","","","","test","true","M + N","76","","SN","SN221.jpg","forget","old","17","2","practice_forget","right","","","",""
"html-keyboard-response","49","163220","0.0-3.0-3.0-3.0","6k17mqz9jm0zfqj","practice_cue","5aad0a3e2788c10001d0e7e4","5f60e3c0a3b16e07647b2ff9","5f60ef1d6e7508000b74abe1","false","null","<div style=""align-items: center; display: flex; color: darkorange; font-size: 90px""><b>ø</b></div>","null","","","","forget_cue","","","","","","","","","","","","","","","",""
"html-keyboard-response","50","163922","0.0-3.0-3.0-0.1","6k17mqz9jm0zfqj","practice_cue","5aad0a3e2788c10001d0e7e4","5f60e3c0a3b16e07647b2ff9","5f60ef1d6e7508000b74abe1","false","null","<span style=""color: black; font-size: 48px"">M + N</span>","null","","","","resp_prompt","","","","","","","","","","","","","","","",""
"categorize-image","51","164499","0.0-3.0-3.0-1.1","6k17mqz9jm0zfqj","practice_cue","5aad0a3e2788c10001d0e7e4","5f60e3c0a3b16e07647b2ff9","5f60ef1d6e7508000b74abe1","true","574.7350000019651","./Stimuli/ImagesPractice/SM61.jpg","83","","","","test","true","M + N","83","","SM","SM61.jpg","remember","old","18","2","practice_forget","left","","","",""
"html-keyboard-response","52","166501","0.0-3.0-3.0-3.1","6k17mqz9jm0zfqj","practice_cue","5aad0a3e2788c10001d0e7e4","5f60e3c0a3b16e07647b2ff9","5f60ef1d6e7508000b74abe1","false","null","<div style=""align-items: center; display: flex; color: dodgerblue; font-size: 90px""><b>o</b></div>","null","","","","forget_cue","","","","","","","","","","","","","","","",""
"html-keyboard-response","53","167202","0.0-3.0-3.0-0.2","6k17mqz9jm0zfqj","practice_cue","5aad0a3e2788c10001d0e7e4","5f60e3c0a3b16e07647b2ff9","5f60ef1d6e7508000b74abe1","false","null","<span style=""color: black; font-size: 48px"">N + M</span>","null","","","","resp_prompt","","","","","","","","","","","","","","","",""
"categorize-image","54","167624","0.0-3.0-3.0-1.2","6k17mqz9jm0zfqj","practice_cue","5aad0a3e2788c10001d0e7e4","5f60e3c0a3b16e07647b2ff9","5f60ef1d6e7508000b74abe1","true","418.1049999897368","./Stimuli/ImagesPractice/LM143.jpg","76","","","","test","true","N + M","76","","LM","LM143.jpg","remember","old","19","2","practice_forget","right","","","",""
"html-keyboard-response","55","169626","0.0-3.0-3.0-3.2","6k17mqz9jm0zfqj","practice_cue","5aad0a3e2788c10001d0e7e4","5f60e3c0a3b16e07647b2ff9","5f60ef1d6e7508000b74abe1","false","null","<div style=""align-items: center; display: flex; color: dodgerblue; font-size: 90px""><b>o</b></div>","null","","","","forget_cue","","","","","","","","","","","","","","","",""
"html-keyboard-response","56","170327","0.0-3.0-3.0-0.3","6k17mqz9jm0zfqj","practice_cue","5aad0a3e2788c10001d0e7e4","5f60e3c0a3b16e07647b2ff9","5f60ef1d6e7508000b74abe1","false","null","<span style=""color: black; font-size: 48px"">M + N</span>","null","","","","resp_prompt","","","","","","","","","","","","","","","",""
"categorize-image","57","170819","0.0-3.0-3.0-1.3","6k17mqz9jm0zfqj","practice_cue","5aad0a3e2788c10001d0e7e4","5f60e3c0a3b16e07647b2ff9","5f60ef1d6e7508000b74abe1","true","488.54999999457505","./Stimuli/ImagesPractice/LN15.jpg","76","","","","test","true","M + N","76","","LN","LN15.jpg","remember","old","20","2","practice_forget","right","","","",""
"html-keyboard-response","58","172822","0.0-3.0-3.0-3.3","6k17mqz9jm0zfqj","practice_cue","5aad0a3e2788c10001d0e7e4","5f60e3c0a3b16e07647b2ff9","5f60ef1d6e7508000b74abe1","false","null","<div style=""align-items: center; display: flex; color: dodgerblue; font-size: 90px""><b>o</b></div>","null","","","","forget_cue","","","","","","","","","","","","","","","",""
"html-keyboard-response","59","173523","0.0-3.0-3.0-0.4","6k17mqz9jm0zfqj","practice_cue","5aad0a3e2788c10001d0e7e4","5f60e3c0a3b16e07647b2ff9","5f60ef1d6e7508000b74abe1","false","null","<span style=""color: black; font-size: 48px"">M + N</span>","null","","","","resp_prompt","","","","","","","","","","","","","","","",""
"categorize-image","60","174354","0.0-3.0-3.0-1.4","6k17mqz9jm0zfqj","practice_cue","5aad0a3e2788c10001d0e7e4","5f60e3c0a3b16e07647b2ff9","5f60ef1d6e7508000b74abe1","true","827.7800000068964","./Stimuli/ImagesPractice/LN109.jpg","76","","","","test","true","M + N","76","","LN","LN109.jpg","forget","old","21","2","practice_forget","right","","","",""
"html-keyboard-response","61","176355","0.0-3.0-3.0-3.4","6k17mqz9jm0zfqj","practice_cue","5aad0a3e2788c10001d0e7e4","5f60e3c0a3b16e07647b2ff9","5f60ef1d6e7508000b74abe1","false","null","<div style=""align-items: center; display: flex; color: darkorange; font-size: 90px""><b>ø</b></div>","null","","","","forget_cue","","","","","","","","","","","","","","","",""
"html-keyboard-response","62","177056","0.0-3.0-3.0-0.5","6k17mqz9jm0zfqj","practice_cue","5aad0a3e2788c10001d0e7e4","5f60e3c0a3b16e07647b2ff9","5f60ef1d6e7508000b74abe1","false","null","<span style=""color: black; font-size: 48px"">M + N</span>","null","","","","resp_prompt","","","","","","","","","","","","","","","",""
"categorize-image","63","177571","0.0-3.0-3.0-1.5","6k17mqz9jm0zfqj","practice_cue","5aad0a3e2788c10001d0e7e4","5f60e3c0a3b16e07647b2ff9","5f60ef1d6e7508000b74abe1","true","511.72999999835156","./Stimuli/ImagesPractice/SM35.jpg","83","","","","test","true","M + N","83","","SM","SM35.jpg","remember","old","22","2","practice_forget","left","","","",""
"html-keyboard-response","64","179573","0.0-3.0-3.0-3.5","6k17mqz9jm0zfqj","practice_cue","5aad0a3e2788c10001d0e7e4","5f60e3c0a3b16e07647b2ff9","5f60ef1d6e7508000b74abe1","false","null","<div style=""align-items: center; display: flex; color: dodgerblue; font-size: 90px""><b>o</b></div>","null","","","","forget_cue","","","","","","","","","","","","","","","",""
"html-keyboard-response","65","180276","0.0-3.0-3.0-0.6","6k17mqz9jm0zfqj","practice_cue","5aad0a3e2788c10001d0e7e4","5f60e3c0a3b16e07647b2ff9","5f60ef1d6e7508000b74abe1","false","null","<span style=""color: black; font-size: 48px"">M + N</span>","null","","","","resp_prompt","","","","","","","","","","","","","","","",""
"categorize-image","66","180936","0.0-3.0-3.0-1.6","6k17mqz9jm0zfqj","practice_cue","5aad0a3e2788c10001d0e7e4","5f60e3c0a3b16e07647b2ff9","5f60ef1d6e7508000b74abe1","true","657.0900000078836","./Stimuli/ImagesPractice/LN4.jpg","76","","","","test","true","M + N","76","","LN","LN4.jpg","forget","old","23","2","practice_forget","right","","","",""
"html-keyboard-response","67","182937","0.0-3.0-3.0-3.6","6k17mqz9jm0zfqj","practice_cue","5aad0a3e2788c10001d0e7e4","5f60e3c0a3b16e07647b2ff9","5f60ef1d6e7508000b74abe1","false","null","<div style=""align-items: center; display: flex; color: darkorange; font-size: 90px""><b>ø</b></div>","null","","","","forget_cue","","","","","","","","","","","","","","","",""
"html-keyboard-response","68","183638","0.0-3.0-3.0-0.7","6k17mqz9jm0zfqj","practice_cue","5aad0a3e2788c10001d0e7e4","5f60e3c0a3b16e07647b2ff9","5f60ef1d6e7508000b74abe1","false","null","<span style=""color: black; font-size: 48px"">N + M</span>","null","","","","resp_prompt","","","","","","","","","","","","","","","",""
"categorize-image","69","184175","0.0-3.0-3.0-1.7","6k17mqz9jm0zfqj","practice_cue","5aad0a3e2788c10001d0e7e4","5f60e3c0a3b16e07647b2ff9","5f60ef1d6e7508000b74abe1","true","533.370000004652","./Stimuli/ImagesPractice/LM239.jpg","76","","","","test","true","N + M","76","","LM","LM239.jpg","forget","old","24","2","practice_forget","right","","","",""
"html-keyboard-response","70","186176","0.0-3.0-3.0-3.7","6k17mqz9jm0zfqj","practice_cue","5aad0a3e2788c10001d0e7e4","5f60e3c0a3b16e07647b2ff9","5f60ef1d6e7508000b74abe1","false","null","<div style=""align-items: center; display: flex; color: darkorange; font-size: 90px""><b>ø</b></div>","null","","","","forget_cue","","","","","","","","","","","","","","","",""
"html-keyboard-response","71","186877","0.0-3.0-3.0-0.8","6k17mqz9jm0zfqj","practice_cue","5aad0a3e2788c10001d0e7e4","5f60e3c0a3b16e07647b2ff9","5f60ef1d6e7508000b74abe1","false","null","<span style=""color: black; font-size: 48px"">M + N</span>","null","","","","resp_prompt","","","","","","","","","","","","","","","",""
"categorize-image","72","187341","0.0-3.0-3.0-1.8","6k17mqz9jm0zfqj","practice_cue","5aad0a3e2788c10001d0e7e4","5f60e3c0a3b16e07647b2ff9","5f60ef1d6e7508000b74abe1","true","461.63000000524335","./Stimuli/ImagesPractice/SM37.jpg","83","","","","test","true","M + N","83","","SM","SM37.jpg","forget","old","25","2","practice_forget","left","","","",""
"html-keyboard-response","73","189343","0.0-3.0-3.0-3.8","6k17mqz9jm0zfqj","practice_cue","5aad0a3e2788c10001d0e7e4","5f60e3c0a3b16e07647b2ff9","5f60ef1d6e7508000b74abe1","false","null","<div style=""align-items: center; display: flex; color: darkorange; font-size: 90px""><b>ø</b></div>","null","","","","forget_cue","","","","","","","","","","","","","","","",""
"html-keyboard-response","74","190044","0.0-3.0-3.0-0.9","6k17mqz9jm0zfqj","practice_cue","5aad0a3e2788c10001d0e7e4","5f60e3c0a3b16e07647b2ff9","5f60ef1d6e7508000b74abe1","false","null","<span style=""color: black; font-size: 48px"">N + M</span>","null","","","","resp_prompt","","","","","","","","","","","","","","","",""
"categorize-image","75","190436","0.0-3.0-3.0-1.9","6k17mqz9jm0zfqj","practice_cue","5aad0a3e2788c10001d0e7e4","5f60e3c0a3b16e07647b2ff9","5f60ef1d6e7508000b74abe1","true","388.94999999320135","./Stimuli/ImagesPractice/LM224.jpg","76","","","","test","true","N + M","76","","LM","LM224.jpg","forget","old","26","2","practice_forget","right","","","",""
"html-keyboard-response","76","192438","0.0-3.0-3.0-3.9","6k17mqz9jm0zfqj","practice_cue","5aad0a3e2788c10001d0e7e4","5f60e3c0a3b16e07647b2ff9","5f60ef1d6e7508000b74abe1","false","null","<div style=""align-items: center; display: flex; color: darkorange; font-size: 90px""><b>ø</b></div>","null","","","","forget_cue","","","","","","","","","","","","","","","",""
"html-keyboard-response","77","193140","0.0-3.0-3.0-0.10","6k17mqz9jm0zfqj","practice_cue","5aad0a3e2788c10001d0e7e4","5f60e3c0a3b16e07647b2ff9","5f60ef1d6e7508000b74abe1","false","null","<span style=""color: black; font-size: 48px"">M + N</span>","null","","","","resp_prompt","","","","","","","","","","","","","","","",""
"categorize-image","78","193660","0.0-3.0-3.0-1.10","6k17mqz9jm0zfqj","practice_cue","5aad0a3e2788c10001d0e7e4","5f60e3c0a3b16e07647b2ff9","5f60ef1d6e7508000b74abe1","true","515.9200000052806","./Stimuli/ImagesPractice/SM98.jpg","83","","","","test","true","M + N","83","","SM","SM98.jpg","remember","old","27","2","practice_forget","left","","","",""
"html-keyboard-response","79","195661","0.0-3.0-3.0-3.10","6k17mqz9jm0zfqj","practice_cue","5aad0a3e2788c10001d0e7e4","5f60e3c0a3b16e07647b2ff9","5f60ef1d6e7508000b74abe1","false","null","<div style=""align-items: center; display: flex; color: dodgerblue; font-size: 90px""><b>o</b></div>","null","","","","forget_cue","","","","","","","","","","","","","","","",""
"html-keyboard-response","80","196362","0.0-3.0-3.0-0.11","6k17mqz9jm0zfqj","practice_cue","5aad0a3e2788c10001d0e7e4","5f60e3c0a3b16e07647b2ff9","5f60ef1d6e7508000b74abe1","false","null","<span style=""color: black; font-size: 48px"">N + M</span>","null","","","","resp_prompt","","","","","","","","","","","","","","","",""
"categorize-image","81","196858","0.0-3.0-3.0-1.11","6k17mqz9jm0zfqj","practice_cue","5aad0a3e2788c10001d0e7e4","5f60e3c0a3b16e07647b2ff9","5f60ef1d6e7508000b74abe1","true","492.3199999902863","./Stimuli/ImagesPractice/SN220.jpg","83","","","","test","true","N + M","83","","SN","SN220.jpg","forget","old","28","2","practice_forget","left","","","",""
"html-keyboard-response","82","198859","0.0-3.0-3.0-3.11","6k17mqz9jm0zfqj","practice_cue","5aad0a3e2788c10001d0e7e4","5f60e3c0a3b16e07647b2ff9","5f60ef1d6e7508000b74abe1","false","null","<div style=""align-items: center; display: flex; color: darkorange; font-size: 90px""><b>ø</b></div>","null","","","","forget_cue","","","","","","","","","","","","","","","",""
"html-keyboard-response","83","199560","0.0-3.0-3.0-0.12","6k17mqz9jm0zfqj","practice_cue","5aad0a3e2788c10001d0e7e4","5f60e3c0a3b16e07647b2ff9","5f60ef1d6e7508000b74abe1","false","null","<span style=""color: black; font-size: 48px"">N + M</span>","null","","","","resp_prompt","","","","","","","","","","","","","","","",""
"categorize-image","84","200196","0.0-3.0-3.0-1.12","6k17mqz9jm0zfqj","practice_cue","5aad0a3e2788c10001d0e7e4","5f60e3c0a3b16e07647b2ff9","5f60ef1d6e7508000b74abe1","true","633.2149999943795","./Stimuli/ImagesPractice/LN2.jpg","83","","","","test","true","N + M","83","","LN","LN2.jpg","forget","old","29","2","practice_forget","left","","","",""
"html-keyboard-response","85","202197","0.0-3.0-3.0-3.12","6k17mqz9jm0zfqj","practice_cue","5aad0a3e2788c10001d0e7e4","5f60e3c0a3b16e07647b2ff9","5f60ef1d6e7508000b74abe1","false","null","<div style=""align-items: center; display: flex; color: darkorange; font-size: 90px""><b>ø</b></div>","null","","","","forget_cue","","","","","","","","","","","","","","","",""
"html-keyboard-response","86","202899","0.0-3.0-3.0-0.13","6k17mqz9jm0zfqj","practice_cue","5aad0a3e2788c10001d0e7e4","5f60e3c0a3b16e07647b2ff9","5f60ef1d6e7508000b74abe1","false","null","<span style=""color: black; font-size: 48px"">N + M</span>","null","","","","resp_prompt","","","","","","","","","","","","","","","",""
"categorize-image","87","203604","0.0-3.0-3.0-1.13","6k17mqz9jm0zfqj","practice_cue","5aad0a3e2788c10001d0e7e4","5f60e3c0a3b16e07647b2ff9","5f60ef1d6e7508000b74abe1","true","701.9750000035856","./Stimuli/ImagesPractice/SN205.jpg","83","","","","test","true","N + M","83","","SN","SN205.jpg","remember","old","30","2","practice_forget","left","","","",""
"html-keyboard-response","88","205605","0.0-3.0-3.0-3.13","6k17mqz9jm0zfqj","practice_cue","5aad0a3e2788c10001d0e7e4","5f60e3c0a3b16e07647b2ff9","5f60ef1d6e7508000b74abe1","false","null","<div style=""align-items: center; display: flex; color: dodgerblue; font-size: 90px""><b>o</b></div>","null","","","","forget_cue","","","","","","","","","","","","","","","",""
"html-keyboard-response","89","206306","0.0-3.0-3.0-0.14","6k17mqz9jm0zfqj","practice_cue","5aad0a3e2788c10001d0e7e4","5f60e3c0a3b16e07647b2ff9","5f60ef1d6e7508000b74abe1","false","null","<span style=""color: black; font-size: 48px"">N + M</span>","null","","","","resp_prompt","","","","","","","","","","","","","","","",""
"categorize-image","90","206775","0.0-3.0-3.0-1.14","6k17mqz9jm0zfqj","practice_cue","5aad0a3e2788c10001d0e7e4","5f60e3c0a3b16e07647b2ff9","5f60ef1d6e7508000b74abe1","true","464.8849999939557","./Stimuli/ImagesPractice/SM97.jpg","76","","","","test","true","N + M","76","","SM","SM97.jpg","remember","old","31","2","practice_forget","right","","","",""
"html-keyboard-response","91","208776","0.0-3.0-3.0-3.14","6k17mqz9jm0zfqj","practice_cue","5aad0a3e2788c10001d0e7e4","5f60e3c0a3b16e07647b2ff9","5f60ef1d6e7508000b74abe1","false","null","<div style=""align-items: center; display: flex; color: dodgerblue; font-size: 90px""><b>o</b></div>","null","","","","forget_cue","","","","","","","","","","","","","","","",""
"html-keyboard-response","92","209478","0.0-3.0-3.0-0.15","6k17mqz9jm0zfqj","practice_cue","5aad0a3e2788c10001d0e7e4","5f60e3c0a3b16e07647b2ff9","5f60ef1d6e7508000b74abe1","false","null","<span style=""color: black; font-size: 48px"">N + M</span>","null","","","","resp_prompt","","","","","","","","","","","","","","","",""
"categorize-image","93","210026","0.0-3.0-3.0-1.15","6k17mqz9jm0zfqj","practice_cue","5aad0a3e2788c10001d0e7e4","5f60e3c0a3b16e07647b2ff9","5f60ef1d6e7508000b74abe1","true","544.5400000025984","./Stimuli/ImagesPractice/LN17.jpg","83","","","","test","true","N + M","83","","LN","LN17.jpg","remember","old","32","2","practice_forget","left","","","",""
"html-keyboard-response","94","212028","0.0-3.0-3.0-3.15","6k17mqz9jm0zfqj","practice_cue","5aad0a3e2788c10001d0e7e4","5f60e3c0a3b16e07647b2ff9","5f60ef1d6e7508000b74abe1","false","null","<div style=""align-items: center; display: flex; color: dodgerblue; font-size: 90px""><b>o</b></div>","null","","","","forget_cue","","","","","","","","","","","","","","","",""
"html-keyboard-response","95","214958","0.0-3.0-4.0","6k17mqz9jm0zfqj","break","5aad0a3e2788c10001d0e7e4","5f60e3c0a3b16e07647b2ff9","5f60ef1d6e7508000b74abe1","false","2928.8550000055693","<p style='font-size: 32px;'>Break</><br><br><br><br><br><p style='font-size: 24px;'>In the last block, you committed 0 errors and did not respond in time on 0 trials.
</p><p style='font-size: 24px;'>Try to respond as fast and accurately as possible in the next block as well! </p><p style='font-size: 24px;'>Press SPACE to continue.</p>","32","","","","","","","","","","","","","","","","","","","",""
"html-keyboard-response","96","222655","0.0-3.0-5.0","6k17mqz9jm0zfqj","instructions","5aad0a3e2788c10001d0e7e4","5f60e3c0a3b16e07647b2ff9","5f60ef1d6e7508000b74abe1","false","7695.540000000619","<div align=left> Now, to practice, we kindly ask you to remember as many of the to-be-remembered pictures<br>of the previous learning phase as possible.<br><br>The pictures you were instructed to remember were the pictures followed by a <span style='color: dodgerblue; font-size: 28px'>O</span>.<br><br>In this memory test phase, you will also see some new pictures.<br>It is your task to remember whether you were presented with this specific picture in this study so far or not.<br>If you recognize an object (you have already seen it in this study), it is an OLD object. <br>If you do not recognize an object (you have NOT seen it in this study), it is a NEW object. <br><strong> Attention</strong>: As already mentioned, <span style='color: darkorange; font-size:28px'>Ø</span>-pictures will <strong>never</strong> appear in this memory test (neither as new objects). <br><br>Press SPACE to continue. </div>","32","","","","","","","","","","","","","","","","","","","",""
"html-keyboard-response","97","244302","0.0-3.0-6.0","6k17mqz9jm0zfqj","instructions","5aad0a3e2788c10001d0e7e4","5f60e3c0a3b16e07647b2ff9","5f60ef1d6e7508000b74abe1","false","21645.69499999925","<div align=left> M and N no longer will appear on the left/right of the fixation cross. <br>Instead there will be a note at the bottom of the left or right side  <br>indicating which key you should press for an old or new object:  <br> <br>Press the <strong>right</strong> key to classify an object as <strong>old</strong> and press the <strong>left</strong>, to classify an object as <strong>new</strong>.<br>Please classify the objects as new/old by again placing your index finger on the 'S' and 'L' keys <br>and press them accordingly.<br><br><strong>Old:</strong> This object has been presented before. <br><strong>New:</strong> This object has <strong>not</strong> been presented.<br><br>Now please put your right and left index fingers on the 'S' and 'L' keys of your keyboard. <br>Please respond as fast and as accurately as possible!<br><br>Press SPACE to continue. </div>","32","","","","","","","","","","","","","","","","","","","",""
"categorize-image","98","246324","0.0-3.0-7.0-0.0","6k17mqz9jm0zfqj","practice_recog","5aad0a3e2788c10001d0e7e4","5f60e3c0a3b16e07647b2ff9","5f60ef1d6e7508000b74abe1","true","1519.2099999985658","./Stimuli/ImagesPractice/LN17.jpg","83","","","","test","true","","83","","LN","LN17.jpg","","old","33","3","practice_recog","left","","","",""
"categorize-image","99","247671","0.0-3.0-7.0-0.1","6k17mqz9jm0zfqj","practice_recog","5aad0a3e2788c10001d0e7e4","5f60e3c0a3b16e07647b2ff9","5f60ef1d6e7508000b74abe1","true","843.75","./Stimuli/ImagesPractice/SN222.jpg","76","","","","test","true","","76","","SN","SN222.jpg","","new","34","3","practice_recog","right","","","",""
"categorize-image","100","248672","0.0-3.0-7.0-0.2","6k17mqz9jm0zfqj","practice_recog","5aad0a3e2788c10001d0e7e4","5f60e3c0a3b16e07647b2ff9","5f60ef1d6e7508000b74abe1","true","498.7450000044191","./Stimuli/ImagesPractice/SN76.jpg","83","","","","test","false","","76","","SN","SN76.jpg","","new","35","3","practice_recog","left","","","",""
"categorize-image","101","249939","0.0-3.0-7.0-0.3","6k17mqz9jm0zfqj","practice_recog","5aad0a3e2788c10001d0e7e4","5f60e3c0a3b16e07647b2ff9","5f60ef1d6e7508000b74abe1","true","764.725000000908","./Stimuli/ImagesPractice/LN72.jpg","83","","","","test","false","","76","","LN","LN72.jpg","","new","36","3","practice_recog","left","","","",""
"categorize-image","102","251393","0.0-3.0-7.0-0.4","6k17mqz9jm0zfqj","practice_recog","5aad0a3e2788c10001d0e7e4","5f60e3c0a3b16e07647b2ff9","5f60ef1d6e7508000b74abe1","true","951.4099999942118","./Stimuli/ImagesPractice/LN15.jpg","83","","","","test","true","","83","","LN","LN15.jpg","","old","37","3","practice_recog","left","","","",""
"categorize-image","103","252497","0.0-3.0-7.0-0.5","6k17mqz9jm0zfqj","practice_recog","5aad0a3e2788c10001d0e7e4","5f60e3c0a3b16e07647b2ff9","5f60ef1d6e7508000b74abe1","true","601.5849999967031","./Stimuli/ImagesPractice/SM97.jpg","76","","","","test","false","","83","","SM","SM97.jpg","","old","38","3","practice_recog","right","","","",""
"categorize-image","104","254766","0.0-3.0-7.0-0.6","6k17mqz9jm0zfqj","practice_recog","5aad0a3e2788c10001d0e7e4","5f60e3c0a3b16e07647b2ff9","5f60ef1d6e7508000b74abe1","true","1766.220000004978","./Stimuli/ImagesPractice/LM147.jpg","76","","","","test","true","","76","","LM","LM147.jpg","","new","39","3","practice_recog","right","","","",""
"categorize-image","105","255875","0.0-3.0-7.0-0.7","6k17mqz9jm0zfqj","practice_recog","5aad0a3e2788c10001d0e7e4","5f60e3c0a3b16e07647b2ff9","5f60ef1d6e7508000b74abe1","true","607.4450000014622","./Stimuli/ImagesPractice/SM35.jpg","83","","","","test","true","","83","","SM","SM35.jpg","","old","40","3","practice_recog","left","","","",""
"categorize-image","106","257092","0.0-3.0-7.0-0.8","6k17mqz9jm0zfqj","practice_recog","5aad0a3e2788c10001d0e7e4","5f60e3c0a3b16e07647b2ff9","5f60ef1d6e7508000b74abe1","true","714.1950000077486","./Stimuli/ImagesPractice/SM61.jpg","83","","","","test","true","","83","","SM","SM61.jpg","","old","41","3","practice_recog","left","","","",""
"categorize-image","107","258397","0.0-3.0-7.0-0.9","6k17mqz9jm0zfqj","practice_recog","5aad0a3e2788c10001d0e7e4","5f60e3c0a3b16e07647b2ff9","5f60ef1d6e7508000b74abe1","true","802.8300000005402","./Stimuli/ImagesPractice/LM55.jpg","76","","","","test","true","","76","","LM","LM55.jpg","","new","42","3","practice_recog","right","","","",""
"categorize-image","108","259666","0.0-3.0-7.0-0.10","6k17mqz9jm0zfqj","practice_recog","5aad0a3e2788c10001d0e7e4","5f60e3c0a3b16e07647b2ff9","5f60ef1d6e7508000b74abe1","true","766.8149999954039","./Stimuli/ImagesPractice/LM143.jpg","83","","","","test","true","","83","","LM","LM143.jpg","","old","43","3","practice_recog","left","","","",""
"categorize-image","109","261042","0.0-3.0-7.0-0.11","6k17mqz9jm0zfqj","practice_recog","5aad0a3e2788c10001d0e7e4","5f60e3c0a3b16e07647b2ff9","5f60ef1d6e7508000b74abe1","true","873.9449999993667","./Stimuli/ImagesPractice/SM62.jpg","76","","","","test","true","","76","","SM","SM62.jpg","","new","44","3","practice_recog","right","","","",""
"categorize-image","110","262095","0.0-3.0-7.0-0.12","6k17mqz9jm0zfqj","practice_recog","5aad0a3e2788c10001d0e7e4","5f60e3c0a3b16e07647b2ff9","5f60ef1d6e7508000b74abe1","true","550.4650000075344","./Stimuli/ImagesPractice/SN205.jpg","83","","","","test","true","","83","","SN","SN205.jpg","","old","45","3","practice_recog","left","","","",""
"categorize-image","111","263251","0.0-3.0-7.0-0.13","6k17mqz9jm0zfqj","practice_recog","5aad0a3e2788c10001d0e7e4","5f60e3c0a3b16e07647b2ff9","5f60ef1d6e7508000b74abe1","true","653.8349999900674","./Stimuli/ImagesPractice/LM230.jpg","76","","","","test","true","","76","","LM","LM230.jpg","","new","46","3","practice_recog","right","","","",""
"categorize-image","112","264346","0.0-3.0-7.0-0.14","6k17mqz9jm0zfqj","practice_recog","5aad0a3e2788c10001d0e7e4","5f60e3c0a3b16e07647b2ff9","5f60ef1d6e7508000b74abe1","true","593.2250000041677","./Stimuli/ImagesPractice/SM98.jpg","83","","","","test","true","","83","","SM","SM98.jpg","","old","47","3","practice_recog","left","","","",""
"categorize-image","113","265509","0.0-3.0-7.0-0.15","6k17mqz9jm0zfqj","practice_recog","5aad0a3e2788c10001d0e7e4","5f60e3c0a3b16e07647b2ff9","5f60ef1d6e7508000b74abe1","true","660.185000000638","./Stimuli/ImagesPractice/SN75.jpg","76","","","","test","true","","76","","SN","SN75.jpg","","new","48","3","practice_recog","right","","","",""
"html-keyboard-response","114","268553","0.0-3.0-8.0","6k17mqz9jm0zfqj","instructions","5aad0a3e2788c10001d0e7e4","5f60e3c0a3b16e07647b2ff9","5f60ef1d6e7508000b74abe1","false","3043.6250000057044","<div align=left> Great!<br><br>Are you ready to continue?<br>If you want to reread the instructions and redo the practice trials, please <br>press „Z“.<br><br>You can proceed when you are ready.<br><br>After the presentation of each object, you will receive an instruction whether to <br>remember or to forget the object.<br>We will test your memory of the following pictures only at the very end of <br>the experiment after all learning blocks are completed. <br><br>Press SPACE to CONTINUE when you are ready. </div>","32","","","","","","","","","","","","","","","","","","","",""
"html-keyboard-response","115","280501","0.0-4.0-0.0","6k17mqz9jm0zfqj","instructions","5aad0a3e2788c10001d0e7e4","5f60e3c0a3b16e07647b2ff9","5f60ef1d6e7508000b74abe1","false","11946.404999995138","<div align=left> The actual experiment is about to start.<br>The practice trials are over!<br><br>Please always respond both fast and accurately!<br><br>Remember: <br> <br><li> Please place your index fingers on the <strong>'S'</strong> and <strong>'L'</strong> keys <br>to respond as fast and accurately as possible.</li><li> Every picture can be classified as either mechanical or non-mechanical.</li><li> If you do not respond in time or commit an error, you will receive a corresponding feedback.<br> Please try to respond as <strong> fast </strong> and as <strong> accurately as possible </strong>.</li><li> Remember the <span style='color: dodgerblue; font-size: 28px'>O</span> pictures. <br></li><li> Please minimize distractions and stay focused. </li><br><br>Press SPACE to START.</div>","32","","","","","","","","","","","","","","","","","","","",""
"html-keyboard-response","116","281203","0.0-4.0-1.0-0.0","6k17mqz9jm0zfqj","prime","5aad0a3e2788c10001d0e7e4","5f60e3c0a3b16e07647b2ff9","5f60ef1d6e7508000b74abe1","false","null","<span style=""color: black; font-size: 48px"">N + M</span>","null","","","","resp_prompt","","","","","","","","","","","","","","","",""
"categorize-image","117","281688","0.0-4.0-1.0-1.0","6k17mqz9jm0zfqj","prime","5aad0a3e2788c10001d0e7e4","5f60e3c0a3b16e07647b2ff9","5f60ef1d6e7508000b74abe1","true","481.84999999648426","./Stimuli/SelectedImages/SM/SM78.bmp","76","","","","test","true","N + M","76","switch","SM","SM78.bmp","remember","","49","3","prime1","right","","","",""
"html-keyboard-response","118","283690","0.0-4.0-1.0-3.0","6k17mqz9jm0zfqj","prime","5aad0a3e2788c10001d0e7e4","5f60e3c0a3b16e07647b2ff9","5f60ef1d6e7508000b74abe1","false","null","<div style=""align-items: center; display: flex; color: dodgerblue; font-size: 90px""><b>o</b></div>","null","","","","forget_cue","","","","","","","","","","","","","","","",""
"html-keyboard-response","119","284391","0.0-4.0-1.0-0.1","6k17mqz9jm0zfqj","prime","5aad0a3e2788c10001d0e7e4","5f60e3c0a3b16e07647b2ff9","5f60ef1d6e7508000b74abe1","false","null","<span style=""color: black; font-size: 48px"">N + M</span>","null","","","","resp_prompt","","","","","","","","","","","","","","","",""
"categorize-image","120","286398","0.0-4.0-1.0-1.1","6k17mqz9jm0zfqj","prime","5aad0a3e2788c10001d0e7e4","5f60e3c0a3b16e07647b2ff9","5f60ef1d6e7508000b74abe1","true","null","./Stimuli/SelectedImages/SN/SN60.bmp","null","","","","test","false","N + M","83","switch","SN","SN60.bmp","remember","","50","3","prime1","too_slow","","","",""
"html-keyboard-response","121","286899","0.0-4.0-1.0-2.1-0.1","6k17mqz9jm0zfqj","prime","5aad0a3e2788c10001d0e7e4","5f60e3c0a3b16e07647b2ff9","5f60ef1d6e7508000b74abe1","false","null","<span style=""color: red; font-size: 48px"">Too slow!</span>","null","","","","feedback","","","","","","","","","","","","","","","",""
"html-keyboard-response","122","288900","0.0-4.0-1.0-3.1","6k17mqz9jm0zfqj","prime","5aad0a3e2788c10001d0e7e4","5f60e3c0a3b16e07647b2ff9","5f60ef1d6e7508000b74abe1","false","null","<div style=""align-items: center; display: flex; color: dodgerblue; font-size: 90px""><b>o</b></div>","null","","","","forget_cue","","","","","","","","","","","","","","","",""
"html-keyboard-response","123","289601","0.0-4.0-1.0-0.2","6k17mqz9jm0zfqj","prime","5aad0a3e2788c10001d0e7e4","5f60e3c0a3b16e07647b2ff9","5f60ef1d6e7508000b74abe1","false","null","<span style=""color: black; font-size: 48px"">N + M</span>","null","","","","resp_prompt","","","","","","","","","","","","","","","",""
"categorize-image","124","290086","0.0-4.0-1.0-1.2","6k17mqz9jm0zfqj","prime","5aad0a3e2788c10001d0e7e4","5f60e3c0a3b16e07647b2ff9","5f60ef1d6e7508000b74abe1","true","481.805000003078","./Stimuli/SelectedImages/LM/LM58.bmp","76","","","","test","true","N + M","76","repetition","LM","LM58.bmp","forget","","51","3","prime1","right","","","",""
"html-keyboard-response","125","292088","0.0-4.0-1.0-3.2","6k17mqz9jm0zfqj","prime","5aad0a3e2788c10001d0e7e4","5f60e3c0a3b16e07647b2ff9","5f60ef1d6e7508000b74abe1","false","null","<div style=""align-items: center; display: flex; color: darkorange; font-size: 90px""><b>ø</b></div>","null","","","","forget_cue","","","","","","","","","","","","","","","",""
"html-keyboard-response","126","292789","0.0-4.0-1.0-0.3","6k17mqz9jm0zfqj","prime","5aad0a3e2788c10001d0e7e4","5f60e3c0a3b16e07647b2ff9","5f60ef1d6e7508000b74abe1","false","null","<span style=""color: black; font-size: 48px"">M + N</span>","null","","","","resp_prompt","","","","","","","","","","","","","","","",""
"categorize-image","127","293312","0.0-4.0-1.0-1.3","6k17mqz9jm0zfqj","prime","5aad0a3e2788c10001d0e7e4","5f60e3c0a3b16e07647b2ff9","5f60ef1d6e7508000b74abe1","true","520.3449999971781","./Stimuli/SelectedImages/SM/SM207.bmp","83","","","","test","true","M + N","83","switch","SM","SM207.bmp","forget","","52","3","prime1","left","","","",""
"html-keyboard-response","128","295313","0.0-4.0-1.0-3.3","6k17mqz9jm0zfqj","prime","5aad0a3e2788c10001d0e7e4","5f60e3c0a3b16e07647b2ff9","5f60ef1d6e7508000b74abe1","false","null","<div style=""align-items: center; display: flex; color: darkorange; font-size: 90px""><b>ø</b></div>","null","","","","forget_cue","","","","","","","","","","","","","","","",""
"html-keyboard-response","129","296015","0.0-4.0-1.0-0.4","6k17mqz9jm0zfqj","prime","5aad0a3e2788c10001d0e7e4","5f60e3c0a3b16e07647b2ff9","5f60ef1d6e7508000b74abe1","false","null","<span style=""color: black; font-size: 48px"">M + N</span>","null","","","","resp_prompt","","","","","","","","","","","","","","","",""
"categorize-image","130","296663","0.0-4.0-1.0-1.4","6k17mqz9jm0zfqj","prime","5aad0a3e2788c10001d0e7e4","5f60e3c0a3b16e07647b2ff9","5f60ef1d6e7508000b74abe1","true","646.3599999988219","./Stimuli/SelectedImages/SM/SM213.bmp","83","","","","test","true","M + N","83","repetition","SM","SM213.bmp","remember","","53","3","prime1","left","","","",""
"html-keyboard-response","131","298665","0.0-4.0-1.0-3.4","6k17mqz9jm0zfqj","prime","5aad0a3e2788c10001d0e7e4","5f60e3c0a3b16e07647b2ff9","5f60ef1d6e7508000b74abe1","false","null","<div style=""align-items: center; display: flex; color: dodgerblue; font-size: 90px""><b>o</b></div>","null","","","","forget_cue","","","","","","","","","","","","","","","",""
"html-keyboard-response","132","299366","0.0-4.0-1.0-0.5","6k17mqz9jm0zfqj","prime","5aad0a3e2788c10001d0e7e4","5f60e3c0a3b16e07647b2ff9","5f60ef1d6e7508000b74abe1","false","null","<span style=""color: black; font-size: 48px"">M + N</span>","null","","","","resp_prompt","","","","","","","","","","","","","","","",""
"categorize-image","133","300276","0.0-4.0-1.0-1.5","6k17mqz9jm0zfqj","prime","5aad0a3e2788c10001d0e7e4","5f60e3c0a3b16e07647b2ff9","5f60ef1d6e7508000b74abe1","true","907.4450000043726","./Stimuli/SelectedImages/SN/SN49.bmp","76","","","","test","true","M + N","76","repetition","SN","SN49.bmp","forget","","54","3","prime1","right","","","",""
"html-keyboard-response","134","302278","0.0-4.0-1.0-3.5","6k17mqz9jm0zfqj","prime","5aad0a3e2788c10001d0e7e4","5f60e3c0a3b16e07647b2ff9","5f60ef1d6e7508000b74abe1","false","null","<div style=""align-items: center; display: flex; color: darkorange; font-size: 90px""><b>ø</b></div>","null","","","","forget_cue","","","","","","","","","","","","","","","",""
"html-keyboard-response","135","302979","0.0-4.0-1.0-0.6","6k17mqz9jm0zfqj","prime","5aad0a3e2788c10001d0e7e4","5f60e3c0a3b16e07647b2ff9","5f60ef1d6e7508000b74abe1","false","null","<span style=""color: black; font-size: 48px"">N + M</span>","null","","","","resp_prompt","","","","","","","","","","","","","","","",""
"categorize-image","136","303351","0.0-4.0-1.0-1.6","6k17mqz9jm0zfqj","prime","5aad0a3e2788c10001d0e7e4","5f60e3c0a3b16e07647b2ff9","5f60ef1d6e7508000b74abe1","true","367.9449999908684","./Stimuli/SelectedImages/SM/SM205.bmp","76","","","","test","true","N + M","76","repetition","SM","SM205.bmp","forget","","55","3","prime1","right","","","",""
"html-keyboard-response","137","305352","0.0-4.0-1.0-3.6","6k17mqz9jm0zfqj","prime","5aad0a3e2788c10001d0e7e4","5f60e3c0a3b16e07647b2ff9","5f60ef1d6e7508000b74abe1","false","null","<div style=""align-items: center; display: flex; color: darkorange; font-size: 90px""><b>ø</b></div>","null","","","","forget_cue","","","","","","","","","","","","","","","",""
"html-keyboard-response","138","306053","0.0-4.0-1.0-0.7","6k17mqz9jm0zfqj","prime","5aad0a3e2788c10001d0e7e4","5f60e3c0a3b16e07647b2ff9","5f60ef1d6e7508000b74abe1","false","null","<span style=""color: black; font-size: 48px"">M + N</span>","null","","","","resp_prompt","","","","","","","","","","","","","","","",""
"categorize-image","139","306515","0.0-4.0-1.0-1.7","6k17mqz9jm0zfqj","prime","5aad0a3e2788c10001d0e7e4","5f60e3c0a3b16e07647b2ff9","5f60ef1d6e7508000b74abe1","true","459.6200000087265","./Stimuli/SelectedImages/LN/LN111.bmp","76","","","","test","true","M + N","76","repetition","LN","LN111.bmp","forget","","56","3","prime1","right","","","",""
"html-keyboard-response","140","308517","0.0-4.0-1.0-3.7","6k17mqz9jm0zfqj","prime","5aad0a3e2788c10001d0e7e4","5f60e3c0a3b16e07647b2ff9","5f60ef1d6e7508000b74abe1","false","null","<div style=""align-items: center; display: flex; color: darkorange; font-size: 90px""><b>ø</b></div>","null","","","","forget_cue","","","","","","","","","","","","","","","",""
"html-keyboard-response","141","309218","0.0-4.0-1.0-0.8","6k17mqz9jm0zfqj","prime","5aad0a3e2788c10001d0e7e4","5f60e3c0a3b16e07647b2ff9","5f60ef1d6e7508000b74abe1","false","null","<span style=""color: black; font-size: 48px"">M + N</span>","null","","","","resp_prompt","","","","","","","","","","","","","","","",""
"categorize-image","142","309654","0.0-4.0-1.0-1.8","6k17mqz9jm0zfqj","prime","5aad0a3e2788c10001d0e7e4","5f60e3c0a3b16e07647b2ff9","5f60ef1d6e7508000b74abe1","true","432.9799999977695","./Stimuli/SelectedImages/LM/LM157.bmp","83","","","","test","true","M + N","83","repetition","LM","LM157.bmp","forget","","57","3","prime1","left","","","",""
"html-keyboard-response","143","311655","0.0-4.0-1.0-3.8","6k17mqz9jm0zfqj","prime","5aad0a3e2788c10001d0e7e4","5f60e3c0a3b16e07647b2ff9","5f60ef1d6e7508000b74abe1","false","null","<div style=""align-items: center; display: flex; color: darkorange; font-size: 90px""><b>ø</b></div>","null","","","","forget_cue","","","","","","","","","","","","","","","",""
"html-keyboard-response","144","312357","0.0-4.0-1.0-0.9","6k17mqz9jm0zfqj","prime","5aad0a3e2788c10001d0e7e4","5f60e3c0a3b16e07647b2ff9","5f60ef1d6e7508000b74abe1","false","null","<span style=""color: black; font-size: 48px"">N + M</span>","null","","","","resp_prompt","","","","","","","","","","","","","","","",""
"categorize-image","145","312883","0.0-4.0-1.0-1.9","6k17mqz9jm0zfqj","prime","5aad0a3e2788c10001d0e7e4","5f60e3c0a3b16e07647b2ff9","5f60ef1d6e7508000b74abe1","true","523.8499999977648","./Stimuli/SelectedImages/SM/SM17.bmp","76","","","","test","true","N + M","76","switch","SM","SM17.bmp","forget","","58","3","prime1","right","","","",""
"html-keyboard-response","146","314884","0.0-4.0-1.0-3.9","6k17mqz9jm0zfqj","prime","5aad0a3e2788c10001d0e7e4","5f60e3c0a3b16e07647b2ff9","5f60ef1d6e7508000b74abe1","false","null","<div style=""align-items: center; display: flex; color: darkorange; font-size: 90px""><b>ø</b></div>","null","","","","forget_cue","","","","","","","","","","","","","","","",""
"html-keyboard-response","147","315585","0.0-4.0-1.0-0.10","6k17mqz9jm0zfqj","prime","5aad0a3e2788c10001d0e7e4","5f60e3c0a3b16e07647b2ff9","5f60ef1d6e7508000b74abe1","false","null","<span style=""color: black; font-size: 48px"">M + N</span>","null","","","","resp_prompt","","","","","","","","","","","","","","","",""
"categorize-image","148","316334","0.0-4.0-1.0-1.10","6k17mqz9jm0zfqj","prime","5aad0a3e2788c10001d0e7e4","5f60e3c0a3b16e07647b2ff9","5f60ef1d6e7508000b74abe1","true","745.7050000084564","./Stimuli/SelectedImages/LN/LN42.bmp","76","","","","test","true","M + N","76","repetition","LN","LN42.bmp","forget","","59","3","prime1","right","","","",""
"html-keyboard-response","149","318335","0.0-4.0-1.0-3.10","6k17mqz9jm0zfqj","prime","5aad0a3e2788c10001d0e7e4","5f60e3c0a3b16e07647b2ff9","5f60ef1d6e7508000b74abe1","false","null","<div style=""align-items: center; display: flex; color: darkorange; font-size: 90px""><b>ø</b></div>","null","","","","forget_cue","","","","","","","","","","","","","","","",""
"html-keyboard-response","150","319036","0.0-4.0-1.0-0.11","6k17mqz9jm0zfqj","prime","5aad0a3e2788c10001d0e7e4","5f60e3c0a3b16e07647b2ff9","5f60ef1d6e7508000b74abe1","false","null","<span style=""color: black; font-size: 48px"">M + N</span>","null","","","","resp_prompt","","","","","","","","","","","","","","","",""
"categorize-image","151","319625","0.0-4.0-1.0-1.11","6k17mqz9jm0zfqj","prime","5aad0a3e2788c10001d0e7e4","5f60e3c0a3b16e07647b2ff9","5f60ef1d6e7508000b74abe1","true","584.789999993518","./Stimuli/SelectedImages/LM/LM209.bmp","83","","","","test","true","M + N","83","repetition","LM","LM209.bmp","remember","","60","3","prime1","left","","","",""
"html-keyboard-response","152","321626","0.0-4.0-1.0-3.11","6k17mqz9jm0zfqj","prime","5aad0a3e2788c10001d0e7e4","5f60e3c0a3b16e07647b2ff9","5f60ef1d6e7508000b74abe1","false","null","<div style=""align-items: center; display: flex; color: dodgerblue; font-size: 90px""><b>o</b></div>","null","","","","forget_cue","","","","","","","","","","","","","","","",""
"html-keyboard-response","153","322327","0.0-4.0-1.0-0.12","6k17mqz9jm0zfqj","prime","5aad0a3e2788c10001d0e7e4","5f60e3c0a3b16e07647b2ff9","5f60ef1d6e7508000b74abe1","false","null","<span style=""color: black; font-size: 48px"">N + M</span>","null","","","","resp_prompt","","","","","","","","","","","","","","","",""
"categorize-image","154","323182","0.0-4.0-1.0-1.12","6k17mqz9jm0zfqj","prime","5aad0a3e2788c10001d0e7e4","5f60e3c0a3b16e07647b2ff9","5f60ef1d6e7508000b74abe1","true","852.3200000054203","./Stimuli/SelectedImages/SN/SN111.bmp","83","","","","test","true","N + M","83","switch","SN","SN111.bmp","forget","","61","3","prime1","left","","","",""
"html-keyboard-response","155","325184","0.0-4.0-1.0-3.12","6k17mqz9jm0zfqj","prime","5aad0a3e2788c10001d0e7e4","5f60e3c0a3b16e07647b2ff9","5f60ef1d6e7508000b74abe1","false","null","<div style=""align-items: center; display: flex; color: darkorange; font-size: 90px""><b>ø</b></div>","null","","","","forget_cue","","","","","","","","","","","","","","","",""
"html-keyboard-response","156","325887","0.0-4.0-1.0-0.13","6k17mqz9jm0zfqj","prime","5aad0a3e2788c10001d0e7e4","5f60e3c0a3b16e07647b2ff9","5f60ef1d6e7508000b74abe1","false","null","<span style=""color: black; font-size: 48px"">N + M</span>","null","","","","resp_prompt","","","","","","","","","","","","","","","",""
"categorize-image","157","326777","0.0-4.0-1.0-1.13","6k17mqz9jm0zfqj","prime","5aad0a3e2788c10001d0e7e4","5f60e3c0a3b16e07647b2ff9","5f60ef1d6e7508000b74abe1","true","886.4999999932479","./Stimuli/SelectedImages/LM/LM48.bmp","76","","","","test","true","N + M","76","switch","LM","LM48.bmp","forget","","62","3","prime1","right","","","",""
"html-keyboard-response","158","328779","0.0-4.0-1.0-3.13","6k17mqz9jm0zfqj","prime","5aad0a3e2788c10001d0e7e4","5f60e3c0a3b16e07647b2ff9","5f60ef1d6e7508000b74abe1","false","null","<div style=""align-items: center; display: flex; color: darkorange; font-size: 90px""><b>ø</b></div>","null","","","","forget_cue","","","","","","","","","","","","","","","",""
"html-keyboard-response","159","329480","0.0-4.0-1.0-0.14","6k17mqz9jm0zfqj","prime","5aad0a3e2788c10001d0e7e4","5f60e3c0a3b16e07647b2ff9","5f60ef1d6e7508000b74abe1","false","null","<span style=""color: black; font-size: 48px"">M + N</span>","null","","","","resp_prompt","","","","","","","","","","","","","","","",""
"categorize-image","160","330067","0.0-4.0-1.0-1.14","6k17mqz9jm0zfqj","prime","5aad0a3e2788c10001d0e7e4","5f60e3c0a3b16e07647b2ff9","5f60ef1d6e7508000b74abe1","true","583.5600000136765","./Stimuli/SelectedImages/SM/SM106.bmp","83","","","","test","true","M + N","83","switch","SM","SM106.bmp","remember","","63","3","prime1","left","","","",""
"html-keyboard-response","161","332068","0.0-4.0-1.0-3.14","6k17mqz9jm0zfqj","prime","5aad0a3e2788c10001d0e7e4","5f60e3c0a3b16e07647b2ff9","5f60ef1d6e7508000b74abe1","false","null","<div style=""align-items: center; display: flex; color: dodgerblue; font-size: 90px""><b>o</b></div>","null","","","","forget_cue","","","","","","","","","","","","","","","",""
"html-keyboard-response","162","332770","0.0-4.0-1.0-0.15","6k17mqz9jm0zfqj","prime","5aad0a3e2788c10001d0e7e4","5f60e3c0a3b16e07647b2ff9","5f60ef1d6e7508000b74abe1","false","null","<span style=""color: black; font-size: 48px"">M + N</span>","null","","","","resp_prompt","","","","","","","","","","","","","","","",""
"categorize-image","163","333359","0.0-4.0-1.0-1.15","6k17mqz9jm0zfqj","prime","5aad0a3e2788c10001d0e7e4","5f60e3c0a3b16e07647b2ff9","5f60ef1d6e7508000b74abe1","true","586.3349999999627","./Stimuli/SelectedImages/LM/LM59.bmp","83","","","","test","true","M + N","83","repetition","LM","LM59.bmp","remember","","64","3","prime1","left","","","",""
"html-keyboard-response","164","335361","0.0-4.0-1.0-3.15","6k17mqz9jm0zfqj","prime","5aad0a3e2788c10001d0e7e4","5f60e3c0a3b16e07647b2ff9","5f60ef1d6e7508000b74abe1","false","null","<div style=""align-items: center; display: flex; color: dodgerblue; font-size: 90px""><b>o</b></div>","null","","","","forget_cue","","","","","","","","","","","","","","","",""
"html-keyboard-response","165","336062","0.0-4.0-1.0-0.16","6k17mqz9jm0zfqj","prime","5aad0a3e2788c10001d0e7e4","5f60e3c0a3b16e07647b2ff9","5f60ef1d6e7508000b74abe1","false","null","<span style=""color: black; font-size: 48px"">N + M</span>","null","","","","resp_prompt","","","","","","","","","","","","","","","",""
"categorize-image","166","336536","0.0-4.0-1.0-1.16","6k17mqz9jm0zfqj","prime","5aad0a3e2788c10001d0e7e4","5f60e3c0a3b16e07647b2ff9","5f60ef1d6e7508000b74abe1","true","471.4349999994738","./Stimuli/SelectedImages/SM/SM128.bmp","76","","","","test","true","N + M","76","repetition","SM","SM128.bmp","remember","","65","3","prime1","right","","","",""
"html-keyboard-response","167","338537","0.0-4.0-1.0-3.16","6k17mqz9jm0zfqj","prime","5aad0a3e2788c10001d0e7e4","5f60e3c0a3b16e07647b2ff9","5f60ef1d6e7508000b74abe1","false","null","<div style=""align-items: center; display: flex; color: dodgerblue; font-size: 90px""><b>o</b></div>","null","","","","forget_cue","","","","","","","","","","","","","","","",""
"html-keyboard-response","168","339239","0.0-4.0-1.0-0.17","6k17mqz9jm0zfqj","prime","5aad0a3e2788c10001d0e7e4","5f60e3c0a3b16e07647b2ff9","5f60ef1d6e7508000b74abe1","false","null","<span style=""color: black; font-size: 48px"">M + N</span>","null","","","","resp_prompt","","","","","","","","","","","","","","","",""
"categorize-image","169","339820","0.0-4.0-1.0-1.17","6k17mqz9jm0zfqj","prime","5aad0a3e2788c10001d0e7e4","5f60e3c0a3b16e07647b2ff9","5f60ef1d6e7508000b74abe1","true","578.5049999976764","./Stimuli/SelectedImages/SN/SN182.bmp","76","","","","test","true","M + N","76","switch","SN","SN182.bmp","forget","","66","3","prime1","right","","","",""
"html-keyboard-response","170","341821","0.0-4.0-1.0-3.17","6k17mqz9jm0zfqj","prime","5aad0a3e2788c10001d0e7e4","5f60e3c0a3b16e07647b2ff9","5f60ef1d6e7508000b74abe1","false","null","<div style=""align-items: center; display: flex; color: darkorange; font-size: 90px""><b>ø</b></div>","null","","","","forget_cue","","","","","","","","","","","","","","","",""
"html-keyboard-response","171","342522","0.0-4.0-1.0-0.18","6k17mqz9jm0zfqj","prime","5aad0a3e2788c10001d0e7e4","5f60e3c0a3b16e07647b2ff9","5f60ef1d6e7508000b74abe1","false","null","<span style=""color: black; font-size: 48px"">N + M</span>","null","","","","resp_prompt","","","","","","","","","","","","","","","",""
"categorize-image","172","343067","0.0-4.0-1.0-1.18","6k17mqz9jm0zfqj","prime","5aad0a3e2788c10001d0e7e4","5f60e3c0a3b16e07647b2ff9","5f60ef1d6e7508000b74abe1","true","541.479999999865","./Stimuli/SelectedImages/LM/LM75.bmp","76","","","","test","true","N + M","76","switch","LM","LM75.bmp","forget","","67","3","prime1","right","","","",""
"html-keyboard-response","173","345069","0.0-4.0-1.0-3.18","6k17mqz9jm0zfqj","prime","5aad0a3e2788c10001d0e7e4","5f60e3c0a3b16e07647b2ff9","5f60ef1d6e7508000b74abe1","false","null","<div style=""align-items: center; display: flex; color: darkorange; font-size: 90px""><b>ø</b></div>","null","","","","forget_cue","","","","","","","","","","","","","","","",""
"html-keyboard-response","174","345770","0.0-4.0-1.0-0.19","6k17mqz9jm0zfqj","prime","5aad0a3e2788c10001d0e7e4","5f60e3c0a3b16e07647b2ff9","5f60ef1d6e7508000b74abe1","false","null","<span style=""color: black; font-size: 48px"">N + M</span>","null","","","","resp_prompt","","","","","","","","","","","","","","","",""
"categorize-image","175","346218","0.0-4.0-1.0-1.19","6k17mqz9jm0zfqj","prime","5aad0a3e2788c10001d0e7e4","5f60e3c0a3b16e07647b2ff9","5f60ef1d6e7508000b74abe1","true","444.8850000044331","./Stimuli/SelectedImages/LM/LM129.bmp","76","","","","test","true","N + M","76","switch","LM","LM129.bmp","remember","","68","3","prime1","right","","","",""
"html-keyboard-response","176","348219","0.0-4.0-1.0-3.19","6k17mqz9jm0zfqj","prime","5aad0a3e2788c10001d0e7e4","5f60e3c0a3b16e07647b2ff9","5f60ef1d6e7508000b74abe1","false","null","<div style=""align-items: center; display: flex; color: dodgerblue; font-size: 90px""><b>o</b></div>","null","","","","forget_cue","","","","","","","","","","","","","","","",""
"html-keyboard-response","177","348921","0.0-4.0-1.0-0.20","6k17mqz9jm0zfqj","prime","5aad0a3e2788c10001d0e7e4","5f60e3c0a3b16e07647b2ff9","5f60ef1d6e7508000b74abe1","false","null","<span style=""color: black; font-size: 48px"">M + N</span>","null","","","","resp_prompt","","","","","","","","","","","","","","","",""
"categorize-image","178","349427","0.0-4.0-1.0-1.20","6k17mqz9jm0zfqj","prime","5aad0a3e2788c10001d0e7e4","5f60e3c0a3b16e07647b2ff9","5f60ef1d6e7508000b74abe1","true","503.3549999934621","./Stimuli/SelectedImages/SM/SM73.bmp","83","","","","test","true","M + N","83","switch","SM","SM73.bmp","forget","","69","3","prime1","left","","","",""
"html-keyboard-response","179","351428","0.0-4.0-1.0-3.20","6k17mqz9jm0zfqj","prime","5aad0a3e2788c10001d0e7e4","5f60e3c0a3b16e07647b2ff9","5f60ef1d6e7508000b74abe1","false","null","<div style=""align-items: center; display: flex; color: darkorange; font-size: 90px""><b>ø</b></div>","null","","","","forget_cue","","","","","","","","","","","","","","","",""
"html-keyboard-response","180","352129","0.0-4.0-1.0-0.21","6k17mqz9jm0zfqj","prime","5aad0a3e2788c10001d0e7e4","5f60e3c0a3b16e07647b2ff9","5f60ef1d6e7508000b74abe1","false","null","<span style=""color: black; font-size: 48px"">M + N</span>","null","","","","resp_prompt","","","","","","","","","","","","","","","",""
"categorize-image","181","352802","0.0-4.0-1.0-1.21","6k17mqz9jm0zfqj","prime","5aad0a3e2788c10001d0e7e4","5f60e3c0a3b16e07647b2ff9","5f60ef1d6e7508000b74abe1","true","669.3199999863282","./Stimuli/SelectedImages/SM/SM76.bmp","83","","","","test","true","M + N","83","repetition","SM","SM76.bmp","remember","","70","3","prime1","left","","","",""
"html-keyboard-response","182","354803","0.0-4.0-1.0-3.21","6k17mqz9jm0zfqj","prime","5aad0a3e2788c10001d0e7e4","5f60e3c0a3b16e07647b2ff9","5f60ef1d6e7508000b74abe1","false","null","<div style=""align-items: center; display: flex; color: dodgerblue; font-size: 90px""><b>o</b></div>","null","","","","forget_cue","","","","","","","","","","","","","","","",""
"html-keyboard-response","183","355504","0.0-4.0-1.0-0.22","6k17mqz9jm0zfqj","prime","5aad0a3e2788c10001d0e7e4","5f60e3c0a3b16e07647b2ff9","5f60ef1d6e7508000b74abe1","false","null","<span style=""color: black; font-size: 48px"">M + N</span>","null","","","","resp_prompt","","","","","","","","","","","","","","","",""
"categorize-image","184","356515","0.0-4.0-1.0-1.22","6k17mqz9jm0zfqj","prime","5aad0a3e2788c10001d0e7e4","5f60e3c0a3b16e07647b2ff9","5f60ef1d6e7508000b74abe1","true","1007.5999999971827","./Stimuli/SelectedImages/LM/LM57.bmp","83","","","","test","true","M + N","83","switch","LM","LM57.bmp","forget","","71","3","prime1","left","","","",""
"html-keyboard-response","185","358518","0.0-4.0-1.0-3.22","6k17mqz9jm0zfqj","prime","5aad0a3e2788c10001d0e7e4","5f60e3c0a3b16e07647b2ff9","5f60ef1d6e7508000b74abe1","false","null","<div style=""align-items: center; display: flex; color: darkorange; font-size: 90px""><b>ø</b></div>","null","","","","forget_cue","","","","","","","","","","","","","","","",""
"html-keyboard-response","186","359219","0.0-4.0-1.0-0.23","6k17mqz9jm0zfqj","prime","5aad0a3e2788c10001d0e7e4","5f60e3c0a3b16e07647b2ff9","5f60ef1d6e7508000b74abe1","false","null","<span style=""color: black; font-size: 48px"">M + N</span>","null","","","","resp_prompt","","","","","","","","","","","","","","","",""
"categorize-image","187","359811","0.0-4.0-1.0-1.23","6k17mqz9jm0zfqj","prime","5aad0a3e2788c10001d0e7e4","5f60e3c0a3b16e07647b2ff9","5f60ef1d6e7508000b74abe1","true","588.5000000125729","./Stimuli/SelectedImages/SN/SN240.bmp","76","","","","test","true","M + N","76","repetition","SN","SN240.bmp","remember","","72","3","prime1","right","","","",""
"html-keyboard-response","188","361813","0.0-4.0-1.0-3.23","6k17mqz9jm0zfqj","prime","5aad0a3e2788c10001d0e7e4","5f60e3c0a3b16e07647b2ff9","5f60ef1d6e7508000b74abe1","false","null","<div style=""align-items: center; display: flex; color: dodgerblue; font-size: 90px""><b>o</b></div>","null","","","","forget_cue","","","","","","","","","","","","","","","",""
"html-keyboard-response","189","362514","0.0-4.0-1.0-0.24","6k17mqz9jm0zfqj","prime","5aad0a3e2788c10001d0e7e4","5f60e3c0a3b16e07647b2ff9","5f60ef1d6e7508000b74abe1","false","null","<span style=""color: black; font-size: 48px"">M + N</span>","null","","","","resp_prompt","","","","","","","","","","","","","","","",""
"categorize-image","190","363048","0.0-4.0-1.0-1.24","6k17mqz9jm0zfqj","prime","5aad0a3e2788c10001d0e7e4","5f60e3c0a3b16e07647b2ff9","5f60ef1d6e7508000b74abe1","true","530.3149999963352","./Stimuli/SelectedImages/SN/SN187.bmp","76","","","","test","true","M + N","76","switch","SN","SN187.bmp","remember","","73","3","prime1","right","","","",""
"html-keyboard-response","191","365049","0.0-4.0-1.0-3.24","6k17mqz9jm0zfqj","prime","5aad0a3e2788c10001d0e7e4","5f60e3c0a3b16e07647b2ff9","5f60ef1d6e7508000b74abe1","false","null","<div style=""align-items: center; display: flex; color: dodgerblue; font-size: 90px""><b>o</b></div>","null","","","","forget_cue","","","","","","","","","","","","","","","",""
"html-keyboard-response","192","365750","0.0-4.0-1.0-0.25","6k17mqz9jm0zfqj","prime","5aad0a3e2788c10001d0e7e4","5f60e3c0a3b16e07647b2ff9","5f60ef1d6e7508000b74abe1","false","null","<span style=""color: black; font-size: 48px"">N + M</span>","null","","","","resp_prompt","","","","","","","","","","","","","","","",""
"categorize-image","193","366319","0.0-4.0-1.0-1.25","6k17mqz9jm0zfqj","prime","5aad0a3e2788c10001d0e7e4","5f60e3c0a3b16e07647b2ff9","5f60ef1d6e7508000b74abe1","true","565.6100000051083","./Stimuli/SelectedImages/LN/LN149.bmp","83","","","","test","true","N + M","83","repetition","LN","LN149.bmp","forget","","74","3","prime1","left","","","",""
"html-keyboard-response","194","368320","0.0-4.0-1.0-3.25","6k17mqz9jm0zfqj","prime","5aad0a3e2788c10001d0e7e4","5f60e3c0a3b16e07647b2ff9","5f60ef1d6e7508000b74abe1","false","null","<div style=""align-items: center; display: flex; color: darkorange; font-size: 90px""><b>ø</b></div>","null","","","","forget_cue","","","","","","","","","","","","","","","",""
"html-keyboard-response","195","369021","0.0-4.0-1.0-0.26","6k17mqz9jm0zfqj","prime","5aad0a3e2788c10001d0e7e4","5f60e3c0a3b16e07647b2ff9","5f60ef1d6e7508000b74abe1","false","null","<span style=""color: black; font-size: 48px"">M + N</span>","null","","","","resp_prompt","","","","","","","","","","","","","","","",""
"categorize-image","196","369666","0.0-4.0-1.0-1.26","6k17mqz9jm0zfqj","prime","5aad0a3e2788c10001d0e7e4","5f60e3c0a3b16e07647b2ff9","5f60ef1d6e7508000b74abe1","true","641.1899999948218","./Stimuli/SelectedImages/SM/SM200.bmp","83","","","","test","true","M + N","83","switch","SM","SM200.bmp","remember","","75","3","prime1","left","","","",""
"html-keyboard-response","197","371668","0.0-4.0-1.0-3.26","6k17mqz9jm0zfqj","prime","5aad0a3e2788c10001d0e7e4","5f60e3c0a3b16e07647b2ff9","5f60ef1d6e7508000b74abe1","false","null","<div style=""align-items: center; display: flex; color: dodgerblue; font-size: 90px""><b>o</b></div>","null","","","","forget_cue","","","","","","","","","","","","","","","",""
"html-keyboard-response","198","372369","0.0-4.0-1.0-0.27","6k17mqz9jm0zfqj","prime","5aad0a3e2788c10001d0e7e4","5f60e3c0a3b16e07647b2ff9","5f60ef1d6e7508000b74abe1","false","null","<span style=""color: black; font-size: 48px"">M + N</span>","null","","","","resp_prompt","","","","","","","","","","","","","","","",""
"categorize-image","199","372989","0.0-4.0-1.0-1.27","6k17mqz9jm0zfqj","prime","5aad0a3e2788c10001d0e7e4","5f60e3c0a3b16e07647b2ff9","5f60ef1d6e7508000b74abe1","true","617.1400000021094","./Stimuli/SelectedImages/LN/LN101.bmp","76","","","","test","true","M + N","76","switch","LN","LN101.bmp","forget","","76","3","prime1","right","","","",""
"html-keyboard-response","200","374991","0.0-4.0-1.0-3.27","6k17mqz9jm0zfqj","prime","5aad0a3e2788c10001d0e7e4","5f60e3c0a3b16e07647b2ff9","5f60ef1d6e7508000b74abe1","false","null","<div style=""align-items: center; display: flex; color: darkorange; font-size: 90px""><b>ø</b></div>","null","","","","forget_cue","","","","","","","","","","","","","","","",""
"html-keyboard-response","201","375693","0.0-4.0-1.0-0.28","6k17mqz9jm0zfqj","prime","5aad0a3e2788c10001d0e7e4","5f60e3c0a3b16e07647b2ff9","5f60ef1d6e7508000b74abe1","false","null","<span style=""color: black; font-size: 48px"">N + M</span>","null","","","","resp_prompt","","","","","","","","","","","","","","","",""
"categorize-image","202","376443","0.0-4.0-1.0-1.28","6k17mqz9jm0zfqj","prime","5aad0a3e2788c10001d0e7e4","5f60e3c0a3b16e07647b2ff9","5f60ef1d6e7508000b74abe1","true","747.3650000029011","./Stimuli/SelectedImages/SN/SN27.bmp","83","","","","test","true","N + M","83","repetition","SN","SN27.bmp","remember","","77","3","prime1","left","","","",""
"html-keyboard-response","203","378444","0.0-4.0-1.0-3.28","6k17mqz9jm0zfqj","prime","5aad0a3e2788c10001d0e7e4","5f60e3c0a3b16e07647b2ff9","5f60ef1d6e7508000b74abe1","false","null","<div style=""align-items: center; display: flex; color: dodgerblue; font-size: 90px""><b>o</b></div>","null","","","","forget_cue","","","","","","","","","","","","","","","",""
"html-keyboard-response","204","379146","0.0-4.0-1.0-0.29","6k17mqz9jm0zfqj","prime","5aad0a3e2788c10001d0e7e4","5f60e3c0a3b16e07647b2ff9","5f60ef1d6e7508000b74abe1","false","null","<span style=""color: black; font-size: 48px"">M + N</span>","null","","","","resp_prompt","","","","","","","","","","","","","","","",""
"categorize-image","205","379872","0.0-4.0-1.0-1.29","6k17mqz9jm0zfqj","prime","5aad0a3e2788c10001d0e7e4","5f60e3c0a3b16e07647b2ff9","5f60ef1d6e7508000b74abe1","true","723.5600000130944","./Stimuli/SelectedImages/LM/LM179.bmp","83","","","","test","true","M + N","83","switch","LM","LM179.bmp","remember","","78","3","prime1","left","","","",""
"html-keyboard-response","206","381873","0.0-4.0-1.0-3.29","6k17mqz9jm0zfqj","prime","5aad0a3e2788c10001d0e7e4","5f60e3c0a3b16e07647b2ff9","5f60ef1d6e7508000b74abe1","false","null","<div style=""align-items: center; display: flex; color: dodgerblue; font-size: 90px""><b>o</b></div>","null","","","","forget_cue","","","","","","","","","","","","","","","",""
"html-keyboard-response","207","382574","0.0-4.0-1.0-0.30","6k17mqz9jm0zfqj","prime","5aad0a3e2788c10001d0e7e4","5f60e3c0a3b16e07647b2ff9","5f60ef1d6e7508000b74abe1","false","null","<span style=""color: black; font-size: 48px"">N + M</span>","null","","","","resp_prompt","","","","","","","","","","","","","","","",""
"categorize-image","208","383768","0.0-4.0-1.0-1.30","6k17mqz9jm0zfqj","prime","5aad0a3e2788c10001d0e7e4","5f60e3c0a3b16e07647b2ff9","5f60ef1d6e7508000b74abe1","true","1191.0700000007637","./Stimuli/SelectedImages/LN/LN28.bmp","83","","","","test","true","N + M","83","switch","LN","LN28.bmp","remember","","79","3","prime1","left","","","",""
"html-keyboard-response","209","385770","0.0-4.0-1.0-3.30","6k17mqz9jm0zfqj","prime","5aad0a3e2788c10001d0e7e4","5f60e3c0a3b16e07647b2ff9","5f60ef1d6e7508000b74abe1","false","null","<div style=""align-items: center; display: flex; color: dodgerblue; font-size: 90px""><b>o</b></div>","null","","","","forget_cue","","","","","","","","","","","","","","","",""
"html-keyboard-response","210","386471","0.0-4.0-1.0-0.31","6k17mqz9jm0zfqj","prime","5aad0a3e2788c10001d0e7e4","5f60e3c0a3b16e07647b2ff9","5f60ef1d6e7508000b74abe1","false","null","<span style=""color: black; font-size: 48px"">M + N</span>","null","","","","resp_prompt","","","","","","","","","","","","","","","",""
"categorize-image","211","387307","0.0-4.0-1.0-1.31","6k17mqz9jm0zfqj","prime","5aad0a3e2788c10001d0e7e4","5f60e3c0a3b16e07647b2ff9","5f60ef1d6e7508000b74abe1","true","832.5350000086473","./Stimuli/SelectedImages/LM/LM167.bmp","83","","","","test","true","M + N","83","repetition","LM","LM167.bmp","forget","","80","3","prime1","left","","","",""
"html-keyboard-response","212","389309","0.0-4.0-1.0-3.31","6k17mqz9jm0zfqj","prime","5aad0a3e2788c10001d0e7e4","5f60e3c0a3b16e07647b2ff9","5f60ef1d6e7508000b74abe1","false","null","<div style=""align-items: center; display: flex; color: darkorange; font-size: 90px""><b>ø</b></div>","null","","","","forget_cue","","","","","","","","","","","","","","","",""
"html-keyboard-response","213","390010","0.0-4.0-1.0-0.32","6k17mqz9jm0zfqj","prime","5aad0a3e2788c10001d0e7e4","5f60e3c0a3b16e07647b2ff9","5f60ef1d6e7508000b74abe1","false","null","<span style=""color: black; font-size: 48px"">N + M</span>","null","","","","resp_prompt","","","","","","","","","","","","","","","",""
"categorize-image","214","390767","0.0-4.0-1.0-1.32","6k17mqz9jm0zfqj","prime","5aad0a3e2788c10001d0e7e4","5f60e3c0a3b16e07647b2ff9","5f60ef1d6e7508000b74abe1","true","754.1250000067521","./Stimuli/SelectedImages/LN/LN150.bmp","83","","","","test","true","N + M","83","switch","LN","LN150.bmp","forget","","81","3","prime1","left","","","",""
"html-keyboard-response","215","392769","0.0-4.0-1.0-3.32","6k17mqz9jm0zfqj","prime","5aad0a3e2788c10001d0e7e4","5f60e3c0a3b16e07647b2ff9","5f60ef1d6e7508000b74abe1","false","null","<div style=""align-items: center; display: flex; color: darkorange; font-size: 90px""><b>ø</b></div>","null","","","","forget_cue","","","","","","","","","","","","","","","",""
"html-keyboard-response","216","393470","0.0-4.0-1.0-0.33","6k17mqz9jm0zfqj","prime","5aad0a3e2788c10001d0e7e4","5f60e3c0a3b16e07647b2ff9","5f60ef1d6e7508000b74abe1","false","null","<span style=""color: black; font-size: 48px"">N + M</span>","null","","","","resp_prompt","","","","","","","","","","","","","","","",""
"categorize-image","217","393991","0.0-4.0-1.0-1.33","6k17mqz9jm0zfqj","prime","5aad0a3e2788c10001d0e7e4","5f60e3c0a3b16e07647b2ff9","5f60ef1d6e7508000b74abe1","true","517.5900000031106","./Stimuli/SelectedImages/SM/SM74.bmp","76","","","","test","true","N + M","76","repetition","SM","SM74.bmp","remember","","82","3","prime1","right","","","",""
"html-keyboard-response","218","395992","0.0-4.0-1.0-3.33","6k17mqz9jm0zfqj","prime","5aad0a3e2788c10001d0e7e4","5f60e3c0a3b16e07647b2ff9","5f60ef1d6e7508000b74abe1","false","null","<div style=""align-items: center; display: flex; color: dodgerblue; font-size: 90px""><b>o</b></div>","null","","","","forget_cue","","","","","","","","","","","","","","","",""
"html-keyboard-response","219","396694","0.0-4.0-1.0-0.34","6k17mqz9jm0zfqj","prime","5aad0a3e2788c10001d0e7e4","5f60e3c0a3b16e07647b2ff9","5f60ef1d6e7508000b74abe1","false","null","<span style=""color: black; font-size: 48px"">N + M</span>","null","","","","resp_prompt","","","","","","","","","","","","","","","",""
"categorize-image","220","397284","0.0-4.0-1.0-1.34","6k17mqz9jm0zfqj","prime","5aad0a3e2788c10001d0e7e4","5f60e3c0a3b16e07647b2ff9","5f60ef1d6e7508000b74abe1","true","587.775000007241","./Stimuli/SelectedImages/SN/SN140.bmp","83","","","","test","true","N + M","83","repetition","SN","SN140.bmp","forget","","83","3","prime1","left","","","",""
"html-keyboard-response","221","399286","0.0-4.0-1.0-3.34","6k17mqz9jm0zfqj","prime","5aad0a3e2788c10001d0e7e4","5f60e3c0a3b16e07647b2ff9","5f60ef1d6e7508000b74abe1","false","null","<div style=""align-items: center; display: flex; color: darkorange; font-size: 90px""><b>ø</b></div>","null","","","","forget_cue","","","","","","","","","","","","","","","",""
"html-keyboard-response","222","399987","0.0-4.0-1.0-0.35","6k17mqz9jm0zfqj","prime","5aad0a3e2788c10001d0e7e4","5f60e3c0a3b16e07647b2ff9","5f60ef1d6e7508000b74abe1","false","null","<span style=""color: black; font-size: 48px"">N + M</span>","null","","","","resp_prompt","","","","","","","","","","","","","","","",""
"categorize-image","223","401993","0.0-4.0-1.0-1.35","6k17mqz9jm0zfqj","prime","5aad0a3e2788c10001d0e7e4","5f60e3c0a3b16e07647b2ff9","5f60ef1d6e7508000b74abe1","true","null","./Stimuli/SelectedImages/LN/LN166.bmp","null","","","","test","false","N + M","83","repetition","LN","LN166.bmp","forget","","84","3","prime1","too_slow","","","",""
"html-keyboard-response","224","402494","0.0-4.0-1.0-2.35-0.35","6k17mqz9jm0zfqj","prime","5aad0a3e2788c10001d0e7e4","5f60e3c0a3b16e07647b2ff9","5f60ef1d6e7508000b74abe1","false","null","<span style=""color: red; font-size: 48px"">Too slow!</span>","null","","","","feedback","","","","","","","","","","","","","","","",""
"html-keyboard-response","225","404496","0.0-4.0-1.0-3.35","6k17mqz9jm0zfqj","prime","5aad0a3e2788c10001d0e7e4","5f60e3c0a3b16e07647b2ff9","5f60ef1d6e7508000b74abe1","false","null","<div style=""align-items: center; display: flex; color: darkorange; font-size: 90px""><b>ø</b></div>","null","","","","forget_cue","","","","","","","","","","","","","","","",""
"html-keyboard-response","226","405197","0.0-4.0-1.0-0.36","6k17mqz9jm0zfqj","prime","5aad0a3e2788c10001d0e7e4","5f60e3c0a3b16e07647b2ff9","5f60ef1d6e7508000b74abe1","false","null","<span style=""color: black; font-size: 48px"">M + N</span>","null","","","","resp_prompt","","","","","","","","","","","","","","","",""
"categorize-image","227","405862","0.0-4.0-1.0-1.36","6k17mqz9jm0zfqj","prime","5aad0a3e2788c10001d0e7e4","5f60e3c0a3b16e07647b2ff9","5f60ef1d6e7508000b74abe1","true","662.2849999985192","./Stimuli/SelectedImages/SM/SM184.bmp","76","","","","test","false","M + N","83","repetition","SM","SM184.bmp","forget","","85","3","prime1","right","","","",""
"html-keyboard-response","228","406366","0.0-4.0-1.0-2.36-0.36","6k17mqz9jm0zfqj","prime","5aad0a3e2788c10001d0e7e4","5f60e3c0a3b16e07647b2ff9","5f60ef1d6e7508000b74abe1","false","null","<span style=""color: red; font-size: 48px"">Error!</span>","null","","","","feedback","","","","","","","","","","","","","","","",""
"html-keyboard-response","229","408374","0.0-4.0-1.0-3.36","6k17mqz9jm0zfqj","prime","5aad0a3e2788c10001d0e7e4","5f60e3c0a3b16e07647b2ff9","5f60ef1d6e7508000b74abe1","false","null","<div style=""align-items: center; display: flex; color: darkorange; font-size: 90px""><b>ø</b></div>","null","","","","forget_cue","","","","","","","","","","","","","","","",""
"html-keyboard-response","230","409075","0.0-4.0-1.0-0.37","6k17mqz9jm0zfqj","prime","5aad0a3e2788c10001d0e7e4","5f60e3c0a3b16e07647b2ff9","5f60ef1d6e7508000b74abe1","false","null","<span style=""color: black; font-size: 48px"">M + N</span>","null","","","","resp_prompt","","","","","","","","","","","","","","","",""
"categorize-image","231","409711","0.0-4.0-1.0-1.37","6k17mqz9jm0zfqj","prime","5aad0a3e2788c10001d0e7e4","5f60e3c0a3b16e07647b2ff9","5f60ef1d6e7508000b74abe1","true","632.9750000004424","./Stimuli/SelectedImages/SN/SN181.bmp","76","","","","test","true","M + N","76","repetition","SN","SN181.bmp","remember","","86","3","prime1","right","","","",""
"html-keyboard-response","232","411712","0.0-4.0-1.0-3.37","6k17mqz9jm0zfqj","prime","5aad0a3e2788c10001d0e7e4","5f60e3c0a3b16e07647b2ff9","5f60ef1d6e7508000b74abe1","false","null","<div style=""align-items: center; display: flex; color: dodgerblue; font-size: 90px""><b>o</b></div>","null","","","","forget_cue","","","","","","","","","","","","","","","",""
"html-keyboard-response","233","412413","0.0-4.0-1.0-0.38","6k17mqz9jm0zfqj","prime","5aad0a3e2788c10001d0e7e4","5f60e3c0a3b16e07647b2ff9","5f60ef1d6e7508000b74abe1","false","null","<span style=""color: black; font-size: 48px"">N + M</span>","null","","","","resp_prompt","","","","","","","","","","","","","","","",""
"categorize-image","234","413074","0.0-4.0-1.0-1.38","6k17mqz9jm0zfqj","prime","5aad0a3e2788c10001d0e7e4","5f60e3c0a3b16e07647b2ff9","5f60ef1d6e7508000b74abe1","true","657.8000000008615","./Stimuli/SelectedImages/SM/SM24.bmp","76","","","","test","true","N + M","76","switch","SM","SM24.bmp","forget","","87","3","prime1","right","","","",""
"html-keyboard-response","235","415075","0.0-4.0-1.0-3.38","6k17mqz9jm0zfqj","prime","5aad0a3e2788c10001d0e7e4","5f60e3c0a3b16e07647b2ff9","5f60ef1d6e7508000b74abe1","false","null","<div style=""align-items: center; display: flex; color: darkorange; font-size: 90px""><b>ø</b></div>","null","","","","forget_cue","","","","","","","","","","","","","","","",""
"html-keyboard-response","236","415776","0.0-4.0-1.0-0.39","6k17mqz9jm0zfqj","prime","5aad0a3e2788c10001d0e7e4","5f60e3c0a3b16e07647b2ff9","5f60ef1d6e7508000b74abe1","false","null","<span style=""color: black; font-size: 48px"">N + M</span>","null","","","","resp_prompt","","","","","","","","","","","","","","","",""
"categorize-image","237","416277","0.0-4.0-1.0-1.39","6k17mqz9jm0zfqj","prime","5aad0a3e2788c10001d0e7e4","5f60e3c0a3b16e07647b2ff9","5f60ef1d6e7508000b74abe1","true","497.90000000211876","./Stimuli/SelectedImages/LM/LM51.bmp","76","","","","test","true","N + M","76","repetition","LM","LM51.bmp","forget","","88","3","prime1","right","","","",""
"html-keyboard-response","238","418279","0.0-4.0-1.0-3.39","6k17mqz9jm0zfqj","prime","5aad0a3e2788c10001d0e7e4","5f60e3c0a3b16e07647b2ff9","5f60ef1d6e7508000b74abe1","false","null","<div style=""align-items: center; display: flex; color: darkorange; font-size: 90px""><b>ø</b></div>","null","","","","forget_cue","","","","","","","","","","","","","","","",""
"html-keyboard-response","239","418980","0.0-4.0-1.0-0.40","6k17mqz9jm0zfqj","prime","5aad0a3e2788c10001d0e7e4","5f60e3c0a3b16e07647b2ff9","5f60ef1d6e7508000b74abe1","false","null","<span style=""color: black; font-size: 48px"">M + N</span>","null","","","","resp_prompt","","","","","","","","","","","","","","","",""
"categorize-image","240","419547","0.0-4.0-1.0-1.40","6k17mqz9jm0zfqj","prime","5aad0a3e2788c10001d0e7e4","5f60e3c0a3b16e07647b2ff9","5f60ef1d6e7508000b74abe1","true","564.3899999995483","./Stimuli/SelectedImages/SM/SM108.bmp","83","","","","test","true","M + N","83","repetition","SM","SM108.bmp","forget","","89","3","prime1","left","","","",""
"html-keyboard-response","241","421549","0.0-4.0-1.0-3.40","6k17mqz9jm0zfqj","prime","5aad0a3e2788c10001d0e7e4","5f60e3c0a3b16e07647b2ff9","5f60ef1d6e7508000b74abe1","false","null","<div style=""align-items: center; display: flex; color: darkorange; font-size: 90px""><b>ø</b></div>","null","","","","forget_cue","","","","","","","","","","","","","","","",""
"html-keyboard-response","242","422250","0.0-4.0-1.0-0.41","6k17mqz9jm0zfqj","prime","5aad0a3e2788c10001d0e7e4","5f60e3c0a3b16e07647b2ff9","5f60ef1d6e7508000b74abe1","false","null","<span style=""color: black; font-size: 48px"">N + M</span>","null","","","","resp_prompt","","","","","","","","","","","","","","","",""
"categorize-image","243","422840","0.0-4.0-1.0-1.41","6k17mqz9jm0zfqj","prime","5aad0a3e2788c10001d0e7e4","5f60e3c0a3b16e07647b2ff9","5f60ef1d6e7508000b74abe1","true","586.9649999949615","./Stimuli/SelectedImages/LN/LN59.bmp","83","","","","test","true","N + M","83","switch","LN","LN59.bmp","remember","","90","3","prime1","left","","","",""
"html-keyboard-response","244","424842","0.0-4.0-1.0-3.41","6k17mqz9jm0zfqj","prime","5aad0a3e2788c10001d0e7e4","5f60e3c0a3b16e07647b2ff9","5f60ef1d6e7508000b74abe1","false","null","<div style=""align-items: center; display: flex; color: dodgerblue; font-size: 90px""><b>o</b></div>","null","","","","forget_cue","","","","","","","","","","","","","","","",""
"html-keyboard-response","245","425543","0.0-4.0-1.0-0.42","6k17mqz9jm0zfqj","prime","5aad0a3e2788c10001d0e7e4","5f60e3c0a3b16e07647b2ff9","5f60ef1d6e7508000b74abe1","false","null","<span style=""color: black; font-size: 48px"">N + M</span>","null","","","","resp_prompt","","","","","","","","","","","","","","","",""
"categorize-image","246","426176","0.0-4.0-1.0-1.42","6k17mqz9jm0zfqj","prime","5aad0a3e2788c10001d0e7e4","5f60e3c0a3b16e07647b2ff9","5f60ef1d6e7508000b74abe1","true","630.6699999986449","./Stimuli/SelectedImages/SM/SM148.bmp","76","","","","test","true","N + M","76","repetition","SM","SM148.bmp","forget","","91","3","prime1","right","","","",""
"html-keyboard-response","247","428177","0.0-4.0-1.0-3.42","6k17mqz9jm0zfqj","prime","5aad0a3e2788c10001d0e7e4","5f60e3c0a3b16e07647b2ff9","5f60ef1d6e7508000b74abe1","false","null","<div style=""align-items: center; display: flex; color: darkorange; font-size: 90px""><b>ø</b></div>","null","","","","forget_cue","","","","","","","","","","","","","","","",""
"html-keyboard-response","248","428879","0.0-4.0-1.0-0.43","6k17mqz9jm0zfqj","prime","5aad0a3e2788c10001d0e7e4","5f60e3c0a3b16e07647b2ff9","5f60ef1d6e7508000b74abe1","false","null","<span style=""color: black; font-size: 48px"">N + M</span>","null","","","","resp_prompt","","","","","","","","","","","","","","","",""
"categorize-image","249","429397","0.0-4.0-1.0-1.43","6k17mqz9jm0zfqj","prime","5aad0a3e2788c10001d0e7e4","5f60e3c0a3b16e07647b2ff9","5f60ef1d6e7508000b74abe1","true","515.929999994114","./Stimuli/SelectedImages/SN/SN155.bmp","83","","","","test","true","N + M","83","repetition","SN","SN155.bmp","forget","","92","3","prime1","left","","","",""
"html-keyboard-response","250","431399","0.0-4.0-1.0-3.43","6k17mqz9jm0zfqj","prime","5aad0a3e2788c10001d0e7e4","5f60e3c0a3b16e07647b2ff9","5f60ef1d6e7508000b74abe1","false","null","<div style=""align-items: center; display: flex; color: darkorange; font-size: 90px""><b>ø</b></div>","null","","","","forget_cue","","","","","","","","","","","","","","","",""
"html-keyboard-response","251","432100","0.0-4.0-1.0-0.44","6k17mqz9jm0zfqj","prime","5aad0a3e2788c10001d0e7e4","5f60e3c0a3b16e07647b2ff9","5f60ef1d6e7508000b74abe1","false","null","<span style=""color: black; font-size: 48px"">N + M</span>","null","","","","resp_prompt","","","","","","","","","","","","","","","",""
"categorize-image","252","432610","0.0-4.0-1.0-1.44","6k17mqz9jm0zfqj","prime","5aad0a3e2788c10001d0e7e4","5f60e3c0a3b16e07647b2ff9","5f60ef1d6e7508000b74abe1","true","506.69499998912215","./Stimuli/SelectedImages/SM/SM195.bmp","76","","","","test","true","N + M","76","switch","SM","SM195.bmp","remember","","93","3","prime1","right","","","",""
