"trial_type","trial_index","time_elapsed","internal_node_id","subject","exp_part","prolific_PID","study_ID","session_ID","use","rt","stimulus","key_press","button_pressed","responses","question_order","trial_part","correct","resp_map","correct_resp","probe_condition","category","image","forget_condition","list","trial_num","block_num","block","response","test_part","n_span","sequence","num_spaces"
"pavlovia","0","2","0.0-0.0","rog992at3qkuvfl","","5f202a985581672b0b6b74ba","5f60e3c0a3b16e07647b2ff9","5f60ee9ee1f02c0169e3d2a5","false","","","","","","","","","","","","","","","","","","","","","","",""
"html-keyboard-response","1","7695","0.0-1.0-0.0-0.0","rog992at3qkuvfl","welcome","5f202a985581672b0b6b74ba","5f60e3c0a3b16e07647b2ff9","5f60ee9ee1f02c0169e3d2a5","false","7691.315000000031","<div align=left>Dear participant, <br> thank you for participating in an online study of the Cognition, Action, and Sustainability Unit of the University of Freiburg! <br> <br>The aim of this study is to examine our ability to remember previously learned information. <br>Our goal is to find out, whether our memory improves, when we only remember information that is relevant to us. <br>The experiment will take about 35 minutes to complete. <br> <br>Please, note that you can only participate in this study if you are using a device with a keyboard (PC, Laptop etc.) <br>and not if you are using a mobile device such as a tablet or smartphone.<br> <br>Press 'SPACE' to proceed to the experiment. </div>","32","","","","","","","","","","","","","","","","","","","",""
"html-keyboard-response","2","22457","0.0-1.0-0.0-1.0","rog992at3qkuvfl","welcome","5f202a985581672b0b6b74ba","5f60e3c0a3b16e07647b2ff9","5f60ee9ee1f02c0169e3d2a5","false","14760.604999999487","<div align=left><strong> Time Course of this experiment: </strong> <br><br> <strong> 1.</strong>  First, please fill in some information regarding your demographic data. <br><br> <strong> 2.</strong>  Next, your task will be to classify everyday objects. <br>In addition, you will be asked to remember certain objects and recall them later. <br>Working on these tasks requires your undivided attention and concentration.<br>It is therefore essential that you eliminate any sources of distraction in your  <br>environment and ensure that you will not be disturbed. <br><br><strong> 3.</strong>  At the end of the experiment, you will be asked to answer a few additional questions. <br> <br><strong> Important:</strong> After finishing the experiment, only close the browser window <br> by clicking on the 'end the experiment'-button when you are asked to do so. <br>Closing the browser window prematurely will make the allocation of your participation credit impossible. <br><br> Press 'SPACE' to start the experiment. </div>","32","","","","","","","","","","","","","","","","","","","",""
"html-button-response","3","27900","0.0-1.0-0.0-2.0","rog992at3qkuvfl","welcome","5f202a985581672b0b6b74ba","5f60e3c0a3b16e07647b2ff9","5f60ee9ee1f02c0169e3d2a5","true","5441.085000002204","<div align=left><strong> Informed consent </strong>  <br>The aim of our research is to better understand human behavior and mental processes. <br>In the following study your behavior (e.g. choices, reaction times) will be studied. <br> <br><strong> Voluntariness and Anonymity </strong> <br>Your participation in this study is  <strong> voluntary</strong>.<br>You may withdraw your consent to participate at any time without providing a reason for doing so and without fear of prejudice. <br><br>As no personal data will be collected, <strong>your data and your person cannot be connected after data collection</strong> – the data-set is anonymous. <br>Respectively, deletion of your data will not be possible after data collection has been completed, as we cannot retrace your data-set.<br>The results and anonymized data collected in this study will be published as a scientific publication. <br>This will happen in an <strong>anonymized format</strong>, so that no data can be traced back to a specific person. <br> <br>The anonymized data of this study will be made available to other researchers and/or in a data archive on the Internet as a means of transparency and to enable subsequent re-use. By doing so, this study follows the recommendations of the Deutsche Forschungsgemeinschaft (DFG, German Research Foundation) and Deutsche Gesellschaft für Psychologie (DGPS, German Psychological Society) regarding quality assurance in research.<br>If you have any questions now or after the experiment, please contact our team (experiments@cs.uni-freiburg.de).<br><br><br>I hereby declare, that I understand the above described conditions of participation and I agree to participate under these conditions. <br><br> </div>","","0","","","","","","","","","","","","","","","","","","",""
"html-keyboard-response","4","52687","0.0-1.0-0.0-3.0","rog992at3qkuvfl","welcome","5f202a985581672b0b6b74ba","5f60e3c0a3b16e07647b2ff9","5f60ee9ee1f02c0169e3d2a5","false","24784.929999997985","<div align=left><strong> General information concerning the experiment </strong>  <br> <br>Please follow the instructions:<ol> <li><strong> Do not leave this tab (your browser window) during the experiment and do not reload this tab! </strong>  <br>If you do switch tabs/windows during the experiment (to check your mail or visit another website, for example), <br>the experiment will end automatically and you will <strong>not receive credit</strong> for your participation. <br>Repeated participation or resumption of the experiment is impossible.</li> <br><li>Please close all other programs for the duration of your participation. </li> <br><li>Please mute or turn off your phone and put it out of your reach. </li> <br><li>Please also take off any disturbing accessories (such as wristwatches, bracelets, etc.). </li> <br><li>If you have music playing in the background, please turn it off now. </li> <br></ol>Thank you! <br>Press 'SPACE' to continue. </div>","32","","","","","","","","","","","","","","","","","","","",""
"survey-text","5","55447","0.0-1.0-1.0-0.0","rog992at3qkuvfl","demographics","5f202a985581672b0b6b74ba","5f60e3c0a3b16e07647b2ff9","5f60ee9ee1f02c0169e3d2a5","true","2756.1100000020815","","","","{""age"":""21""}","","","","","","","","","","","","","","","","","",""
"survey-multi-choice","6","72526","0.0-1.0-1.0-1.0","rog992at3qkuvfl","demographics","5f202a985581672b0b6b74ba","5f60e3c0a3b16e07647b2ff9","5f60ee9ee1f02c0169e3d2a5","true","17076.154999998835","","","","{""gender"":""female"",""school"":""high school"",""education"":""Still in training/ university""}","[0,1,2]","","","","","","","","","","","","","","","","",""
"survey-text","7","82472","0.0-1.0-1.0-2.0-0.0","rog992at3qkuvfl","demographics","5f202a985581672b0b6b74ba","5f60e3c0a3b16e07647b2ff9","5f60ee9ee1f02c0169e3d2a5","true","9927.295000001322","","","","{""education_text"":""Maths and Physics MSci""}","","","","","","","","","","","","","","","","","",""
"html-keyboard-response","8","97118","0.0-1.0-2.0","rog992at3qkuvfl","instructions","5f202a985581672b0b6b74ba","5f60e3c0a3b16e07647b2ff9","5f60ee9ee1f02c0169e3d2a5","false","14645.04499999748","<div align=left> The experiment is now about to start: <br> <br>In the following part, you will be presented pictures of everyday objects. <br>Your first task is to <strong>classify these objects. </strong> <br> <br> You will classify them either as mechanical or non-mechanical objects. <br> <br>Objects that include any kind of technical mechanism (for example, wheels, switches, levers, <br> electronic components) fall under the category of <strong>mechanical</strong> objects. <br>Only objects without any kind of technical mechanism should be classified as <strong>non-mechanical</strong>. <br><br>Press 'SPACE' to continue. </div>","32","","","","","","","","","","","","","","","","","","","",""
"html-keyboard-response","9","164176","0.0-2.0-0.0","rog992at3qkuvfl","instructions","5f202a985581672b0b6b74ba","5f60e3c0a3b16e07647b2ff9","5f60ee9ee1f02c0169e3d2a5","false","67067.22499999887","<div align=justify>You will classify the objects using the <strong>'S'</strong> and the <strong>'L'</strong> keys on your keyboard.<br>For doing so, please place your <strong>left index finger</strong> on the <strong>'S'</strong> key and place your <strong>right index finger</strong> on the <strong>'L'</strong> key. <br><br> Each trial starts with an instruction, indicating which key ('S'/'L') you need to press to classify <br>the object as mechanical (letter M) or non-mechanical (letter N).<br>The instruction <strong>M + N</strong> indicates that, in the current trial, by pressing the left key ('S') you classify the displayed object as mechanical (M) <br> and by pressing the right key ('L') you classify the object as non-mechanical (N). <br>The instruction <strong>N + M</strong> on the other hand indicates that by pressing the left key ('S') you classify the displayed object as non-mechanical (N) <br> and by pressing the right key ('L') you classify the object as mechanical (M). <br><br>Please press the key corresponding to the correct classification as fast as possible as soon as the object is displayed and try to avoid making mistakes.<br>If you do not respond within a 2 second window, a corresponding feedback will be displayed and the next trial will start.<br> The experiment is divided into multiple blocks to give you the opportunity to take a break after each block. <br>First, you can now practice this task. <br><br>Please place your <strong>LEFT INDEX FINGER</strong> on the 'S' key and your <strong>RIGHT INDEX FINGER</strong> on the 'L' key now. <br><br>Press SPACE to continue.</div>","32","","","","","","","","","","","","","","","","","","","",""
"html-keyboard-response","10","172335","0.0-2.0-1.0","rog992at3qkuvfl","instructions","5f202a985581672b0b6b74ba","5f60e3c0a3b16e07647b2ff9","5f60ee9ee1f02c0169e3d2a5","false","8157.620000001771","<div align=left> You will now have time to practice this task.<br><br>Remember: <br> <br><li>Please place your index fingers on the <strong>'S'</strong> and <strong>'L'</strong> keys <br>to respond as fast and accurately as possible.</li><li>Every picture can be classified as either mechanical or non-mechanical.</li><li>If you do not respond in time or commit an error, you will receive a corresponding feedback. </li><li> Please try to respond as <strong> fast </strong> and as <strong> accurately as possible </strong> .<br><li>To ensure optimal results, please minimize distractions and stay focused. </li><br><br>Press SPACE to continue.</div>","32","","","","","","","","","","","","","","","","","","","",""
"html-keyboard-response","11","173038","0.0-2.0-2.0-0.0","rog992at3qkuvfl","practice_no_cue","5f202a985581672b0b6b74ba","5f60e3c0a3b16e07647b2ff9","5f60ee9ee1f02c0169e3d2a5","false","null","<span style=""color: black; font-size: 48px"">M + N</span>","null","","","","resp_prompt","","","","","","","","","","","","","","","",""
"categorize-image","12","175002","0.0-2.0-2.0-1.0","rog992at3qkuvfl","practice_no_cue","5f202a985581672b0b6b74ba","5f60e3c0a3b16e07647b2ff9","5f60ee9ee1f02c0169e3d2a5","true","1462.2899999994843","./Stimuli/ImagesPractice/LM230.jpg","83","","","","test","true","M + N","83","","LM","LM230.jpg","forget","old","1","1","start","left","","","",""
"html-keyboard-response","13","175713","0.0-2.0-2.0-0.1","rog992at3qkuvfl","practice_no_cue","5f202a985581672b0b6b74ba","5f60e3c0a3b16e07647b2ff9","5f60ee9ee1f02c0169e3d2a5","false","null","<span style=""color: black; font-size: 48px"">M + N</span>","null","","","","resp_prompt","","","","","","","","","","","","","","","",""
"categorize-image","14","176862","0.0-2.0-2.0-1.1","rog992at3qkuvfl","practice_no_cue","5f202a985581672b0b6b74ba","5f60e3c0a3b16e07647b2ff9","5f60ee9ee1f02c0169e3d2a5","true","638.6449999990873","./Stimuli/ImagesPractice/LM55.jpg","83","","","","test","true","M + N","83","","LM","LM55.jpg","forget","old","2","1","start","left","","","",""
"html-keyboard-response","15","177566","0.0-2.0-2.0-0.2","rog992at3qkuvfl","practice_no_cue","5f202a985581672b0b6b74ba","5f60e3c0a3b16e07647b2ff9","5f60ee9ee1f02c0169e3d2a5","false","null","<span style=""color: black; font-size: 48px"">N + M</span>","null","","","","resp_prompt","","","","","","","","","","","","","","","",""
"categorize-image","16","179932","0.0-2.0-2.0-1.2","rog992at3qkuvfl","practice_no_cue","5f202a985581672b0b6b74ba","5f60e3c0a3b16e07647b2ff9","5f60ee9ee1f02c0169e3d2a5","true","1860.2800000007846","./Stimuli/ImagesPractice/LN72.jpg","83","","","","test","true","N + M","83","","LN","LN72.jpg","forget","old","3","1","start","left","","","",""
"html-keyboard-response","17","180639","0.0-2.0-2.0-0.3","rog992at3qkuvfl","practice_no_cue","5f202a985581672b0b6b74ba","5f60e3c0a3b16e07647b2ff9","5f60ee9ee1f02c0169e3d2a5","false","null","<span style=""color: black; font-size: 48px"">N + M</span>","null","","","","resp_prompt","","","","","","","","","","","","","","","",""
"categorize-image","18","182320","0.0-2.0-2.0-1.3","rog992at3qkuvfl","practice_no_cue","5f202a985581672b0b6b74ba","5f60e3c0a3b16e07647b2ff9","5f60ee9ee1f02c0169e3d2a5","true","1165.434999998979","./Stimuli/ImagesPractice/LM147.jpg","76","","","","test","true","N + M","76","","LM","LM147.jpg","remember","old","4","1","start","right","","","",""
"html-keyboard-response","19","183021","0.0-2.0-2.0-0.4","rog992at3qkuvfl","practice_no_cue","5f202a985581672b0b6b74ba","5f60e3c0a3b16e07647b2ff9","5f60ee9ee1f02c0169e3d2a5","false","null","<span style=""color: black; font-size: 48px"">M + N</span>","null","","","","resp_prompt","","","","","","","","","","","","","","","",""
"categorize-image","20","184961","0.0-2.0-2.0-1.4","rog992at3qkuvfl","practice_no_cue","5f202a985581672b0b6b74ba","5f60e3c0a3b16e07647b2ff9","5f60ee9ee1f02c0169e3d2a5","true","1422.9599999998754","./Stimuli/ImagesPractice/SN75.jpg","76","","","","test","true","M + N","76","","SN","SN75.jpg","remember","old","5","1","start","right","","","",""
"html-keyboard-response","21","185664","0.0-2.0-2.0-0.5","rog992at3qkuvfl","practice_no_cue","5f202a985581672b0b6b74ba","5f60e3c0a3b16e07647b2ff9","5f60ee9ee1f02c0169e3d2a5","false","null","<span style=""color: black; font-size: 48px"">M + N</span>","null","","","","resp_prompt","","","","","","","","","","","","","","","",""
"categorize-image","22","187909","0.0-2.0-2.0-1.5","rog992at3qkuvfl","practice_no_cue","5f202a985581672b0b6b74ba","5f60e3c0a3b16e07647b2ff9","5f60ee9ee1f02c0169e3d2a5","true","1734.5300000015413","./Stimuli/ImagesPractice/SM35.jpg","83","","","","test","true","M + N","83","","SM","SM35.jpg","remember","old","6","1","start","left","","","",""
"html-keyboard-response","23","188621","0.0-2.0-2.0-0.6","rog992at3qkuvfl","practice_no_cue","5f202a985581672b0b6b74ba","5f60e3c0a3b16e07647b2ff9","5f60ee9ee1f02c0169e3d2a5","false","null","<span style=""color: black; font-size: 48px"">N + M</span>","null","","","","resp_prompt","","","","","","","","","","","","","","","",""
"categorize-image","24","190457","0.0-2.0-2.0-1.6","rog992at3qkuvfl","practice_no_cue","5f202a985581672b0b6b74ba","5f60e3c0a3b16e07647b2ff9","5f60ee9ee1f02c0169e3d2a5","true","1333.3250000032422","./Stimuli/ImagesPractice/LN15.jpg","83","","","","test","true","N + M","83","","LN","LN15.jpg","remember","old","7","1","start","left","","","",""
"html-keyboard-response","25","191159","0.0-2.0-2.0-0.7","rog992at3qkuvfl","practice_no_cue","5f202a985581672b0b6b74ba","5f60e3c0a3b16e07647b2ff9","5f60ee9ee1f02c0169e3d2a5","false","null","<span style=""color: black; font-size: 48px"">M + N</span>","null","","","","resp_prompt","","","","","","","","","","","","","","","",""
"categorize-image","26","193680","0.0-2.0-2.0-1.7","rog992at3qkuvfl","practice_no_cue","5f202a985581672b0b6b74ba","5f60e3c0a3b16e07647b2ff9","5f60ee9ee1f02c0169e3d2a5","true","null","./Stimuli/ImagesPractice/LN4.jpg","null","","","","test","false","M + N","76","","LN","LN4.jpg","forget","old","8","1","start","too_slow","","","",""
"html-keyboard-response","27","194384","0.0-2.0-2.0-0.8","rog992at3qkuvfl","practice_no_cue","5f202a985581672b0b6b74ba","5f60e3c0a3b16e07647b2ff9","5f60ee9ee1f02c0169e3d2a5","false","null","<span style=""color: black; font-size: 48px"">M + N</span>","null","","","","resp_prompt","","","","","","","","","","","","","","","",""
"categorize-image","28","196605","0.0-2.0-2.0-1.8","rog992at3qkuvfl","practice_no_cue","5f202a985581672b0b6b74ba","5f60e3c0a3b16e07647b2ff9","5f60ee9ee1f02c0169e3d2a5","true","1710.6499999972584","./Stimuli/ImagesPractice/LM143.jpg","83","","","","test","true","M + N","83","","LM","LM143.jpg","forget","old","9","1","start","left","","","",""
"html-keyboard-response","29","197315","0.0-2.0-2.0-0.9","rog992at3qkuvfl","practice_no_cue","5f202a985581672b0b6b74ba","5f60e3c0a3b16e07647b2ff9","5f60ee9ee1f02c0169e3d2a5","false","null","<span style=""color: black; font-size: 48px"">N + M</span>","null","","","","resp_prompt","","","","","","","","","","","","","","","",""
"categorize-image","30","199111","0.0-2.0-2.0-1.9","rog992at3qkuvfl","practice_no_cue","5f202a985581672b0b6b74ba","5f60e3c0a3b16e07647b2ff9","5f60ee9ee1f02c0169e3d2a5","true","1281.4350000007835","./Stimuli/ImagesPractice/LN109.jpg","83","","","","test","true","N + M","83","","LN","LN109.jpg","remember","old","10","1","start","left","","","",""
"html-keyboard-response","31","199825","0.0-2.0-2.0-0.10","rog992at3qkuvfl","practice_no_cue","5f202a985581672b0b6b74ba","5f60e3c0a3b16e07647b2ff9","5f60ee9ee1f02c0169e3d2a5","false","null","<span style=""color: black; font-size: 48px"">N + M</span>","null","","","","resp_prompt","","","","","","","","","","","","","","","",""
"categorize-image","32","201505","0.0-2.0-2.0-1.10","rog992at3qkuvfl","practice_no_cue","5f202a985581672b0b6b74ba","5f60e3c0a3b16e07647b2ff9","5f60ee9ee1f02c0169e3d2a5","true","1175.3849999986414","./Stimuli/ImagesPractice/SM98.jpg","76","","","","test","true","N + M","76","","SM","SM98.jpg","forget","old","11","1","start","right","","","",""
"html-keyboard-response","33","202208","0.0-2.0-2.0-0.11","rog992at3qkuvfl","practice_no_cue","5f202a985581672b0b6b74ba","5f60e3c0a3b16e07647b2ff9","5f60ee9ee1f02c0169e3d2a5","false","null","<span style=""color: black; font-size: 48px"">M + N</span>","null","","","","resp_prompt","","","","","","","","","","","","","","","",""
"categorize-image","34","204519","0.0-2.0-2.0-1.11","rog992at3qkuvfl","practice_no_cue","5f202a985581672b0b6b74ba","5f60e3c0a3b16e07647b2ff9","5f60ee9ee1f02c0169e3d2a5","true","1802.5249999991502","./Stimuli/ImagesPractice/SN76.jpg","76","","","","test","true","M + N","76","","SN","SN76.jpg","remember","old","12","1","start","right","","","",""
"html-keyboard-response","35","205223","0.0-2.0-2.0-0.12","rog992at3qkuvfl","practice_no_cue","5f202a985581672b0b6b74ba","5f60e3c0a3b16e07647b2ff9","5f60ee9ee1f02c0169e3d2a5","false","null","<span style=""color: black; font-size: 48px"">N + M</span>","null","","","","resp_prompt","","","","","","","","","","","","","","","",""
"categorize-image","36","207168","0.0-2.0-2.0-1.12","rog992at3qkuvfl","practice_no_cue","5f202a985581672b0b6b74ba","5f60e3c0a3b16e07647b2ff9","5f60ee9ee1f02c0169e3d2a5","true","1432.9800000014075","./Stimuli/ImagesPractice/LN2.jpg","83","","","","test","true","N + M","83","","LN","LN2.jpg","forget","old","13","1","start","left","","","",""
"html-keyboard-response","37","207873","0.0-2.0-2.0-0.13","rog992at3qkuvfl","practice_no_cue","5f202a985581672b0b6b74ba","5f60e3c0a3b16e07647b2ff9","5f60ee9ee1f02c0169e3d2a5","false","null","<span style=""color: black; font-size: 48px"">M + N</span>","null","","","","resp_prompt","","","","","","","","","","","","","","","",""
"categorize-image","38","209352","0.0-2.0-2.0-1.13","rog992at3qkuvfl","practice_no_cue","5f202a985581672b0b6b74ba","5f60e3c0a3b16e07647b2ff9","5f60ee9ee1f02c0169e3d2a5","true","972.089999999298","./Stimuli/ImagesPractice/SM61.jpg","83","","","","test","true","M + N","83","","SM","SM61.jpg","remember","old","14","1","start","left","","","",""
"html-keyboard-response","39","210056","0.0-2.0-2.0-0.14","rog992at3qkuvfl","practice_no_cue","5f202a985581672b0b6b74ba","5f60e3c0a3b16e07647b2ff9","5f60ee9ee1f02c0169e3d2a5","false","null","<span style=""color: black; font-size: 48px"">N + M</span>","null","","","","resp_prompt","","","","","","","","","","","","","","","",""
"categorize-image","40","211936","0.0-2.0-2.0-1.14","rog992at3qkuvfl","practice_no_cue","5f202a985581672b0b6b74ba","5f60e3c0a3b16e07647b2ff9","5f60ee9ee1f02c0169e3d2a5","true","1372.9850000017905","./Stimuli/ImagesPractice/SN205.jpg","76","","","","test","false","N + M","83","","SN","SN205.jpg","forget","old","15","1","start","right","","","",""
"html-keyboard-response","41","212643","0.0-2.0-2.0-0.15","rog992at3qkuvfl","practice_no_cue","5f202a985581672b0b6b74ba","5f60e3c0a3b16e07647b2ff9","5f60ee9ee1f02c0169e3d2a5","false","null","<span style=""color: black; font-size: 48px"">N + M</span>","null","","","","resp_prompt","","","","","","","","","","","","","","","",""
"categorize-image","42","214610","0.0-2.0-2.0-1.15","rog992at3qkuvfl","practice_no_cue","5f202a985581672b0b6b74ba","5f60e3c0a3b16e07647b2ff9","5f60ee9ee1f02c0169e3d2a5","true","1440.614999999525","./Stimuli/ImagesPractice/SN222.jpg","83","","","","test","true","N + M","83","","SN","SN222.jpg","remember","old","16","1","start","left","","","",""
"html-keyboard-response","43","219252","0.0-2.0-3.0","rog992at3qkuvfl","break","5f202a985581672b0b6b74ba","5f60e3c0a3b16e07647b2ff9","5f60ee9ee1f02c0169e3d2a5","false","4639.660000000731","<p style='font-size: 32px;'>Break</><br><br><br><br><br><p style='font-size: 24px;'>In the last block, you committed 1 errors and did not respond in time on 1 trials.
</p><p style='font-size: 24px;'>Try to respond as fast and accurately as possible in the next block as well! </p><p style='font-size: 24px;'>Press SPACE to continue.</p>","32","","","","","","","","","","","","","","","","","","","",""
"html-keyboard-response","44","225415","0.0-2.0-4.0","rog992at3qkuvfl","instructions","5f202a985581672b0b6b74ba","5f60e3c0a3b16e07647b2ff9","5f60ee9ee1f02c0169e3d2a5","false","6155.354999998963","<div align=left> Great!<br><br>Are you ready to continue?<br><br>If you want to reread the instructions and redo the practice trials, <br>please press „Z“. <br><br>Press SPACE to CONTINUE with the experiment when you are ready. </div>","32","","","","","","","","","","","","","","","","","","","",""
"html-keyboard-response","45","255919","0.0-3.0-0.0","rog992at3qkuvfl","instructions","5f202a985581672b0b6b74ba","5f60e3c0a3b16e07647b2ff9","5f60ee9ee1f02c0169e3d2a5","false","30502.434999998513","<div align=left>Great!<br> <strong>Attention</strong>! You will now receive a second, additional task! <br><br>To this point it was you <strong>first task</strong> to correctly <strong>classify objects</strong>. <br><br>As mentioned in the beginning, we aim to examine how well humans can remember previously learned information.<br>We would like to find out whether our memory improves if we only remember information that is relevant to us. <br><br>Therefore, your <strong>second task</strong> will be to <strong>remember</strong> the pictures you are to categorize. <br> After the learning phase, there will be a memory test phase, in which you will be asked to indicate whether you have seen a picture before or not. <br>Some, but not all pictures shown in the learning phase will appear in the memory test phase.<br>After classifying a picture, you will be told whether you should remember it for the memory test phase or not. <br>Thus, some pictures can be forgotten, whereas others have to be remembered. <br><br>Note: From now on, feedback will only be displayed if you responded incorrectly or not in time.<br><br>Press SPACE to continue.</div>","32","","","","","","","","","","","","","","","","","","","",""
"html-keyboard-response","46","274615","0.0-3.0-1.0","rog992at3qkuvfl","instructions","5f202a985581672b0b6b74ba","5f60e3c0a3b16e07647b2ff9","5f60ee9ee1f02c0169e3d2a5","false","18695.074999999604","<div align=left>In the following part, you will thus have to remember only some pictures. <br>Immediately after seeing and classifying the picture, a symbol will be displayed, indicating whether you should remember or forget the previous picture. <br><br>A <span style='color: dodgerblue; font-size: 28px'>O</span> indicates REMEMBER. That means, you have to remember this picture, because it will be tested later. <br><br>A <span style='color: darkorange; font-size:28px'>Ø</span> indicates FORGET. You do not have to remember this picture. <br><br> As you will have to remember a lot of pictures, it will be hard for you to remember all of them. <br>It will put you at an advantage if you instantly forget the pictures you are not asked to remember. <br> This will make it easier for you to remember the pictures that will be tested afterwards. <br><br>Press SPACE to continue.</div>","32","","","","","","","","","","","","","","","","","","","",""
"html-keyboard-response","47","292422","0.0-3.0-2.0","rog992at3qkuvfl","instructions","5f202a985581672b0b6b74ba","5f60e3c0a3b16e07647b2ff9","5f60ee9ee1f02c0169e3d2a5","false","17815.449999998265","<div align=left> Now you have the chance to practice both tasks together.<br><br>Remember: <br> <br><li>Please place your index fingers on the <strong>'S'</strong> and <strong>'L'</strong> keys <br>to respond as fast and accurately as possible.</li><li>Every picture can be classified as either mechanical or non-mechanical.</li><li>If you do not respond in time or commit an error, you will receive a corresponding feedback. <br>Please try to respond as <strong> fast </strong> and as <strong> accurately as possible </strong>.</li><li> Please remember only the to-be-remembered <span style='color: dodgerblue; font-size: 28px'>O</span> pictures. <br></li><li> Please minimize distractions and stay focused. </li><br><br>Press SPACE to START</div>","32","","","","","","","","","","","","","","","","","","","",""
"html-keyboard-response","48","293138","0.0-3.0-3.0-0.0","rog992at3qkuvfl","practice_cue","5f202a985581672b0b6b74ba","5f60e3c0a3b16e07647b2ff9","5f60ee9ee1f02c0169e3d2a5","false","null","<span style=""color: black; font-size: 48px"">M + N</span>","null","","","","resp_prompt","","","","","","","","","","","","","","","",""
"categorize-image","49","294219","0.0-3.0-3.0-1.0","rog992at3qkuvfl","practice_cue","5f202a985581672b0b6b74ba","5f60e3c0a3b16e07647b2ff9","5f60ee9ee1f02c0169e3d2a5","true","1076.7400000004563","./Stimuli/ImagesPractice/SM61.jpg","83","","","","test","true","M + N","83","","SM","SM61.jpg","remember","old","17","2","practice_forget","left","","","",""
"html-keyboard-response","50","296231","0.0-3.0-3.0-3.0","rog992at3qkuvfl","practice_cue","5f202a985581672b0b6b74ba","5f60e3c0a3b16e07647b2ff9","5f60ee9ee1f02c0169e3d2a5","false","null","<div style=""align-items: center; display: flex; color: dodgerblue; font-size: 90px""><b>o</b></div>","null","","","","forget_cue","","","","","","","","","","","","","","","",""
"html-keyboard-response","51","296938","0.0-3.0-3.0-0.1","rog992at3qkuvfl","practice_cue","5f202a985581672b0b6b74ba","5f60e3c0a3b16e07647b2ff9","5f60ee9ee1f02c0169e3d2a5","false","null","<span style=""color: black; font-size: 48px"">N + M</span>","null","","","","resp_prompt","","","","","","","","","","","","","","","",""
"categorize-image","52","298383","0.0-3.0-3.0-1.1","rog992at3qkuvfl","practice_cue","5f202a985581672b0b6b74ba","5f60e3c0a3b16e07647b2ff9","5f60ee9ee1f02c0169e3d2a5","true","1442.5200000005425","./Stimuli/ImagesPractice/LN2.jpg","83","","","","test","true","N + M","83","","LN","LN2.jpg","forget","old","18","2","practice_forget","left","","","",""
"html-keyboard-response","53","300387","0.0-3.0-3.0-3.1","rog992at3qkuvfl","practice_cue","5f202a985581672b0b6b74ba","5f60e3c0a3b16e07647b2ff9","5f60ee9ee1f02c0169e3d2a5","false","null","<div style=""align-items: center; display: flex; color: darkorange; font-size: 90px""><b>ø</b></div>","null","","","","forget_cue","","","","","","","","","","","","","","","",""
"html-keyboard-response","54","301095","0.0-3.0-3.0-0.2","rog992at3qkuvfl","practice_cue","5f202a985581672b0b6b74ba","5f60e3c0a3b16e07647b2ff9","5f60ee9ee1f02c0169e3d2a5","false","null","<span style=""color: black; font-size: 48px"">N + M</span>","null","","","","resp_prompt","","","","","","","","","","","","","","","",""
"categorize-image","55","302513","0.0-3.0-3.0-1.2","rog992at3qkuvfl","practice_cue","5f202a985581672b0b6b74ba","5f60e3c0a3b16e07647b2ff9","5f60ee9ee1f02c0169e3d2a5","true","1414.3250000015832","./Stimuli/ImagesPractice/SM98.jpg","76","","","","test","true","N + M","76","","SM","SM98.jpg","forget","old","19","2","practice_forget","right","","","",""
"html-keyboard-response","56","304527","0.0-3.0-3.0-3.2","rog992at3qkuvfl","practice_cue","5f202a985581672b0b6b74ba","5f60e3c0a3b16e07647b2ff9","5f60ee9ee1f02c0169e3d2a5","false","null","<div style=""align-items: center; display: flex; color: darkorange; font-size: 90px""><b>ø</b></div>","null","","","","forget_cue","","","","","","","","","","","","","","","",""
"html-keyboard-response","57","305232","0.0-3.0-3.0-0.3","rog992at3qkuvfl","practice_cue","5f202a985581672b0b6b74ba","5f60e3c0a3b16e07647b2ff9","5f60ee9ee1f02c0169e3d2a5","false","null","<span style=""color: black; font-size: 48px"">M + N</span>","null","","","","resp_prompt","","","","","","","","","","","","","","","",""
"categorize-image","58","306658","0.0-3.0-3.0-1.3","rog992at3qkuvfl","practice_cue","5f202a985581672b0b6b74ba","5f60e3c0a3b16e07647b2ff9","5f60ee9ee1f02c0169e3d2a5","true","1422.0399999976507","./Stimuli/ImagesPractice/SN76.jpg","76","","","","test","true","M + N","76","","SN","SN76.jpg","remember","old","20","2","practice_forget","right","","","",""
"html-keyboard-response","59","308673","0.0-3.0-3.0-3.3","rog992at3qkuvfl","practice_cue","5f202a985581672b0b6b74ba","5f60e3c0a3b16e07647b2ff9","5f60ee9ee1f02c0169e3d2a5","false","null","<div style=""align-items: center; display: flex; color: dodgerblue; font-size: 90px""><b>o</b></div>","null","","","","forget_cue","","","","","","","","","","","","","","","",""
"html-keyboard-response","60","309383","0.0-3.0-3.0-0.4","rog992at3qkuvfl","practice_cue","5f202a985581672b0b6b74ba","5f60e3c0a3b16e07647b2ff9","5f60ee9ee1f02c0169e3d2a5","false","null","<span style=""color: black; font-size: 48px"">M + N</span>","null","","","","resp_prompt","","","","","","","","","","","","","","","",""
"categorize-image","61","310943","0.0-3.0-3.0-1.4","rog992at3qkuvfl","practice_cue","5f202a985581672b0b6b74ba","5f60e3c0a3b16e07647b2ff9","5f60ee9ee1f02c0169e3d2a5","true","1555.4249999986496","./Stimuli/ImagesPractice/LM230.jpg","83","","","","test","true","M + N","83","","LM","LM230.jpg","forget","old","21","2","practice_forget","left","","","",""
"html-keyboard-response","62","312945","0.0-3.0-3.0-3.4","rog992at3qkuvfl","practice_cue","5f202a985581672b0b6b74ba","5f60e3c0a3b16e07647b2ff9","5f60ee9ee1f02c0169e3d2a5","false","null","<div style=""align-items: center; display: flex; color: darkorange; font-size: 90px""><b>ø</b></div>","null","","","","forget_cue","","","","","","","","","","","","","","","",""
"html-keyboard-response","63","313662","0.0-3.0-3.0-0.5","rog992at3qkuvfl","practice_cue","5f202a985581672b0b6b74ba","5f60e3c0a3b16e07647b2ff9","5f60ee9ee1f02c0169e3d2a5","false","null","<span style=""color: black; font-size: 48px"">M + N</span>","null","","","","resp_prompt","","","","","","","","","","","","","","","",""
"categorize-image","64","314381","0.0-3.0-3.0-1.5","rog992at3qkuvfl","practice_cue","5f202a985581672b0b6b74ba","5f60e3c0a3b16e07647b2ff9","5f60ee9ee1f02c0169e3d2a5","true","716.0549999971408","./Stimuli/ImagesPractice/SM35.jpg","83","","","","test","true","M + N","83","","SM","SM35.jpg","remember","old","22","2","practice_forget","left","","","",""
"html-keyboard-response","65","316385","0.0-3.0-3.0-3.5","rog992at3qkuvfl","practice_cue","5f202a985581672b0b6b74ba","5f60e3c0a3b16e07647b2ff9","5f60ee9ee1f02c0169e3d2a5","false","null","<div style=""align-items: center; display: flex; color: dodgerblue; font-size: 90px""><b>o</b></div>","null","","","","forget_cue","","","","","","","","","","","","","","","",""
"html-keyboard-response","66","317098","0.0-3.0-3.0-0.6","rog992at3qkuvfl","practice_cue","5f202a985581672b0b6b74ba","5f60e3c0a3b16e07647b2ff9","5f60ee9ee1f02c0169e3d2a5","false","null","<span style=""color: black; font-size: 48px"">N + M</span>","null","","","","resp_prompt","","","","","","","","","","","","","","","",""
"categorize-image","67","318310","0.0-3.0-3.0-1.6","rog992at3qkuvfl","practice_cue","5f202a985581672b0b6b74ba","5f60e3c0a3b16e07647b2ff9","5f60ee9ee1f02c0169e3d2a5","true","1208.424999997078","./Stimuli/ImagesPractice/LN72.jpg","83","","","","test","true","N + M","83","","LN","LN72.jpg","forget","old","23","2","practice_forget","left","","","",""
"html-keyboard-response","68","320314","0.0-3.0-3.0-3.6","rog992at3qkuvfl","practice_cue","5f202a985581672b0b6b74ba","5f60e3c0a3b16e07647b2ff9","5f60ee9ee1f02c0169e3d2a5","false","null","<div style=""align-items: center; display: flex; color: darkorange; font-size: 90px""><b>ø</b></div>","null","","","","forget_cue","","","","","","","","","","","","","","","",""
"html-keyboard-response","69","321024","0.0-3.0-3.0-0.7","rog992at3qkuvfl","practice_cue","5f202a985581672b0b6b74ba","5f60e3c0a3b16e07647b2ff9","5f60ee9ee1f02c0169e3d2a5","false","null","<span style=""color: black; font-size: 48px"">N + M</span>","null","","","","resp_prompt","","","","","","","","","","","","","","","",""
"categorize-image","70","322834","0.0-3.0-3.0-1.7","rog992at3qkuvfl","practice_cue","5f202a985581672b0b6b74ba","5f60e3c0a3b16e07647b2ff9","5f60ee9ee1f02c0169e3d2a5","true","1806.3000000002212","./Stimuli/ImagesPractice/LM147.jpg","76","","","","test","true","N + M","76","","LM","LM147.jpg","remember","old","24","2","practice_forget","right","","","",""
"html-keyboard-response","71","324840","0.0-3.0-3.0-3.7","rog992at3qkuvfl","practice_cue","5f202a985581672b0b6b74ba","5f60e3c0a3b16e07647b2ff9","5f60ee9ee1f02c0169e3d2a5","false","null","<div style=""align-items: center; display: flex; color: dodgerblue; font-size: 90px""><b>o</b></div>","null","","","","forget_cue","","","","","","","","","","","","","","","",""
"html-keyboard-response","72","325547","0.0-3.0-3.0-0.8","rog992at3qkuvfl","practice_cue","5f202a985581672b0b6b74ba","5f60e3c0a3b16e07647b2ff9","5f60ee9ee1f02c0169e3d2a5","false","null","<span style=""color: black; font-size: 48px"">N + M</span>","null","","","","resp_prompt","","","","","","","","","","","","","","","",""
"categorize-image","73","326620","0.0-3.0-3.0-1.8","rog992at3qkuvfl","practice_cue","5f202a985581672b0b6b74ba","5f60e3c0a3b16e07647b2ff9","5f60ee9ee1f02c0169e3d2a5","true","1069.4800000019604","./Stimuli/ImagesPractice/LN15.jpg","83","","","","test","true","N + M","83","","LN","LN15.jpg","remember","old","25","2","practice_forget","left","","","",""
"html-keyboard-response","74","328625","0.0-3.0-3.0-3.8","rog992at3qkuvfl","practice_cue","5f202a985581672b0b6b74ba","5f60e3c0a3b16e07647b2ff9","5f60ee9ee1f02c0169e3d2a5","false","null","<div style=""align-items: center; display: flex; color: dodgerblue; font-size: 90px""><b>o</b></div>","null","","","","forget_cue","","","","","","","","","","","","","","","",""
"html-keyboard-response","75","329328","0.0-3.0-3.0-0.9","rog992at3qkuvfl","practice_cue","5f202a985581672b0b6b74ba","5f60e3c0a3b16e07647b2ff9","5f60ee9ee1f02c0169e3d2a5","false","null","<span style=""color: black; font-size: 48px"">N + M</span>","null","","","","resp_prompt","","","","","","","","","","","","","","","",""
"categorize-image","76","330817","0.0-3.0-3.0-1.9","rog992at3qkuvfl","practice_cue","5f202a985581672b0b6b74ba","5f60e3c0a3b16e07647b2ff9","5f60ee9ee1f02c0169e3d2a5","true","1486.399999997986","./Stimuli/ImagesPractice/LN109.jpg","83","","","","test","true","N + M","83","","LN","LN109.jpg","remember","old","26","2","practice_forget","left","","","",""
"html-keyboard-response","77","332821","0.0-3.0-3.0-3.9","rog992at3qkuvfl","practice_cue","5f202a985581672b0b6b74ba","5f60e3c0a3b16e07647b2ff9","5f60ee9ee1f02c0169e3d2a5","false","null","<div style=""align-items: center; display: flex; color: dodgerblue; font-size: 90px""><b>o</b></div>","null","","","","forget_cue","","","","","","","","","","","","","","","",""
"html-keyboard-response","78","333528","0.0-3.0-3.0-0.10","rog992at3qkuvfl","practice_cue","5f202a985581672b0b6b74ba","5f60e3c0a3b16e07647b2ff9","5f60ee9ee1f02c0169e3d2a5","false","null","<span style=""color: black; font-size: 48px"">M + N</span>","null","","","","resp_prompt","","","","","","","","","","","","","","","",""
"categorize-image","79","334441","0.0-3.0-3.0-1.10","rog992at3qkuvfl","practice_cue","5f202a985581672b0b6b74ba","5f60e3c0a3b16e07647b2ff9","5f60ee9ee1f02c0169e3d2a5","true","909.4600000025821","./Stimuli/ImagesPractice/LM55.jpg","83","","","","test","true","M + N","83","","LM","LM55.jpg","forget","old","27","2","practice_forget","left","","","",""
"html-keyboard-response","80","336458","0.0-3.0-3.0-3.10","rog992at3qkuvfl","practice_cue","5f202a985581672b0b6b74ba","5f60e3c0a3b16e07647b2ff9","5f60ee9ee1f02c0169e3d2a5","false","null","<div style=""align-items: center; display: flex; color: darkorange; font-size: 90px""><b>ø</b></div>","null","","","","forget_cue","","","","","","","","","","","","","","","",""
"html-keyboard-response","81","337167","0.0-3.0-3.0-0.11","rog992at3qkuvfl","practice_cue","5f202a985581672b0b6b74ba","5f60e3c0a3b16e07647b2ff9","5f60ee9ee1f02c0169e3d2a5","false","null","<span style=""color: black; font-size: 48px"">M + N</span>","null","","","","resp_prompt","","","","","","","","","","","","","","","",""
"categorize-image","82","338460","0.0-3.0-3.0-1.11","rog992at3qkuvfl","practice_cue","5f202a985581672b0b6b74ba","5f60e3c0a3b16e07647b2ff9","5f60ee9ee1f02c0169e3d2a5","true","1289.9749999997439","./Stimuli/ImagesPractice/SN75.jpg","76","","","","test","true","M + N","76","","SN","SN75.jpg","remember","old","28","2","practice_forget","right","","","",""
"html-keyboard-response","83","340464","0.0-3.0-3.0-3.11","rog992at3qkuvfl","practice_cue","5f202a985581672b0b6b74ba","5f60e3c0a3b16e07647b2ff9","5f60ee9ee1f02c0169e3d2a5","false","null","<div style=""align-items: center; display: flex; color: dodgerblue; font-size: 90px""><b>o</b></div>","null","","","","forget_cue","","","","","","","","","","","","","","","",""
"html-keyboard-response","84","341180","0.0-3.0-3.0-0.12","rog992at3qkuvfl","practice_cue","5f202a985581672b0b6b74ba","5f60e3c0a3b16e07647b2ff9","5f60ee9ee1f02c0169e3d2a5","false","null","<span style=""color: black; font-size: 48px"">M + N</span>","null","","","","resp_prompt","","","","","","","","","","","","","","","",""
"categorize-image","85","343199","0.0-3.0-3.0-1.12","rog992at3qkuvfl","practice_cue","5f202a985581672b0b6b74ba","5f60e3c0a3b16e07647b2ff9","5f60ee9ee1f02c0169e3d2a5","true","null","./Stimuli/ImagesPractice/LM143.jpg","null","","","","test","false","M + N","83","","LM","LM143.jpg","forget","old","29","2","practice_forget","too_slow","","","",""
"html-keyboard-response","86","343704","0.0-3.0-3.0-2.12-0.12","rog992at3qkuvfl","practice_cue","5f202a985581672b0b6b74ba","5f60e3c0a3b16e07647b2ff9","5f60ee9ee1f02c0169e3d2a5","false","null","<span style=""color: red; font-size: 48px"">Too slow!</span>","null","","","","feedback","","","","","","","","","","","","","","","",""
"html-keyboard-response","87","345726","0.0-3.0-3.0-3.12","rog992at3qkuvfl","practice_cue","5f202a985581672b0b6b74ba","5f60e3c0a3b16e07647b2ff9","5f60ee9ee1f02c0169e3d2a5","false","null","<div style=""align-items: center; display: flex; color: darkorange; font-size: 90px""><b>ø</b></div>","null","","","","forget_cue","","","","","","","","","","","","","","","",""
"html-keyboard-response","88","346442","0.0-3.0-3.0-0.13","rog992at3qkuvfl","practice_cue","5f202a985581672b0b6b74ba","5f60e3c0a3b16e07647b2ff9","5f60ee9ee1f02c0169e3d2a5","false","null","<span style=""color: black; font-size: 48px"">N + M</span>","null","","","","resp_prompt","","","","","","","","","","","","","","","",""
"categorize-image","89","347223","0.0-3.0-3.0-1.13","rog992at3qkuvfl","practice_cue","5f202a985581672b0b6b74ba","5f60e3c0a3b16e07647b2ff9","5f60ee9ee1f02c0169e3d2a5","true","778.2350000015576","./Stimuli/ImagesPractice/SN205.jpg","83","","","","test","true","N + M","83","","SN","SN205.jpg","forget","old","30","2","practice_forget","left","","","",""
"html-keyboard-response","90","349233","0.0-3.0-3.0-3.13","rog992at3qkuvfl","practice_cue","5f202a985581672b0b6b74ba","5f60e3c0a3b16e07647b2ff9","5f60ee9ee1f02c0169e3d2a5","false","null","<div style=""align-items: center; display: flex; color: darkorange; font-size: 90px""><b>ø</b></div>","null","","","","forget_cue","","","","","","","","","","","","","","","",""
"html-keyboard-response","91","349936","0.0-3.0-3.0-0.14","rog992at3qkuvfl","practice_cue","5f202a985581672b0b6b74ba","5f60e3c0a3b16e07647b2ff9","5f60ee9ee1f02c0169e3d2a5","false","null","<span style=""color: black; font-size: 48px"">N + M</span>","null","","","","resp_prompt","","","","","","","","","","","","","","","",""
"categorize-image","92","351197","0.0-3.0-3.0-1.14","rog992at3qkuvfl","practice_cue","5f202a985581672b0b6b74ba","5f60e3c0a3b16e07647b2ff9","5f60ee9ee1f02c0169e3d2a5","true","1257.0749999976833","./Stimuli/ImagesPractice/SN222.jpg","83","","","","test","true","N + M","83","","SN","SN222.jpg","remember","old","31","2","practice_forget","left","","","",""
"html-keyboard-response","93","353218","0.0-3.0-3.0-3.14","rog992at3qkuvfl","practice_cue","5f202a985581672b0b6b74ba","5f60e3c0a3b16e07647b2ff9","5f60ee9ee1f02c0169e3d2a5","false","null","<div style=""align-items: center; display: flex; color: dodgerblue; font-size: 90px""><b>o</b></div>","null","","","","forget_cue","","","","","","","","","","","","","","","",""
"html-keyboard-response","94","353934","0.0-3.0-3.0-0.15","rog992at3qkuvfl","practice_cue","5f202a985581672b0b6b74ba","5f60e3c0a3b16e07647b2ff9","5f60ee9ee1f02c0169e3d2a5","false","null","<span style=""color: black; font-size: 48px"">M + N</span>","null","","","","resp_prompt","","","","","","","","","","","","","","","",""
"categorize-image","95","355480","0.0-3.0-3.0-1.15","rog992at3qkuvfl","practice_cue","5f202a985581672b0b6b74ba","5f60e3c0a3b16e07647b2ff9","5f60ee9ee1f02c0169e3d2a5","true","1542.3250000021653","./Stimuli/ImagesPractice/LN4.jpg","76","","","","test","true","M + N","76","","LN","LN4.jpg","forget","old","32","2","practice_forget","right","","","",""
"html-keyboard-response","96","357496","0.0-3.0-3.0-3.15","rog992at3qkuvfl","practice_cue","5f202a985581672b0b6b74ba","5f60e3c0a3b16e07647b2ff9","5f60ee9ee1f02c0169e3d2a5","false","null","<div style=""align-items: center; display: flex; color: darkorange; font-size: 90px""><b>ø</b></div>","null","","","","forget_cue","","","","","","","","","","","","","","","",""
"html-keyboard-response","97","380860","0.0-3.0-4.0","rog992at3qkuvfl","break","5f202a985581672b0b6b74ba","5f60e3c0a3b16e07647b2ff9","5f60ee9ee1f02c0169e3d2a5","false","23362.799999999","<p style='font-size: 32px;'>Break</><br><br><br><br><br><p style='font-size: 24px;'>In the last block, you committed 0 errors and did not respond in time on 1 trials.
</p><p style='font-size: 24px;'>Try to respond as fast and accurately as possible in the next block as well! </p><p style='font-size: 24px;'>Press SPACE to continue.</p>","32","","","","","","","","","","","","","","","","","","","",""
"html-keyboard-response","98","399576","0.0-3.0-5.0","rog992at3qkuvfl","instructions","5f202a985581672b0b6b74ba","5f60e3c0a3b16e07647b2ff9","5f60ee9ee1f02c0169e3d2a5","false","18714.87999999954","<div align=left> Now, to practice, we kindly ask you to remember as many of the to-be-remembered pictures<br>of the previous learning phase as possible.<br><br>The pictures you were instructed to remember were the pictures followed by a <span style='color: dodgerblue; font-size: 28px'>O</span>.<br><br>In this memory test phase, you will also see some new pictures.<br>It is your task to remember whether you were presented with this specific picture in this study so far or not.<br>If you recognize an object (you have already seen it in this study), it is an OLD object. <br>If you do not recognize an object (you have NOT seen it in this study), it is a NEW object. <br><strong> Attention</strong>: As already mentioned, <span style='color: darkorange; font-size:28px'>Ø</span>-pictures will <strong>never</strong> appear in this memory test (neither as new objects). <br><br>Press SPACE to continue. </div>","32","","","","","","","","","","","","","","","","","","","",""
"html-keyboard-response","99","431264","0.0-3.0-6.0","rog992at3qkuvfl","instructions","5f202a985581672b0b6b74ba","5f60e3c0a3b16e07647b2ff9","5f60ee9ee1f02c0169e3d2a5","false","31686.219999999623","<div align=left> M and N no longer will appear on the left/right of the fixation cross. <br>Instead there will be a note at the bottom of the left or right side  <br>indicating which key you should press for an old or new object:  <br> <br>Press the <strong>right</strong> key to classify an object as <strong>old</strong> and press the <strong>left</strong>, to classify an object as <strong>new</strong>.<br>Please classify the objects as new/old by again placing your index finger on the 'S' and 'L' keys <br>and press them accordingly.<br><br><strong>Old:</strong> This object has been presented before. <br><strong>New:</strong> This object has <strong>not</strong> been presented.<br><br>Now please put your right and left index fingers on the 'S' and 'L' keys of your keyboard. <br>Please respond as fast and as accurately as possible!<br><br>Press SPACE to continue. </div>","32","","","","","","","","","","","","","","","","","","","",""
"categorize-image","100","434436","0.0-3.0-7.0-0.0","rog992at3qkuvfl","practice_recog","5f202a985581672b0b6b74ba","5f60e3c0a3b16e07647b2ff9","5f60ee9ee1f02c0169e3d2a5","true","2653.42000000237","./Stimuli/ImagesPractice/SM37.jpg","83","","","","test","true","","83","","SM","SM37.jpg","","new","33","3","practice_recog","left","","","",""
"categorize-image","101","435875","0.0-3.0-7.0-0.1","rog992at3qkuvfl","practice_recog","5f202a985581672b0b6b74ba","5f60e3c0a3b16e07647b2ff9","5f60ee9ee1f02c0169e3d2a5","true","936.3799999991897","./Stimuli/ImagesPractice/SM35.jpg","76","","","","test","true","","76","","SM","SM35.jpg","","old","34","3","practice_recog","right","","","",""
"categorize-image","102","437359","0.0-3.0-7.0-0.2","rog992at3qkuvfl","practice_recog","5f202a985581672b0b6b74ba","5f60e3c0a3b16e07647b2ff9","5f60ee9ee1f02c0169e3d2a5","true","967.9250000008033","./Stimuli/ImagesPractice/SM62.jpg","76","","","","test","false","","83","","SM","SM62.jpg","","new","35","3","practice_recog","right","","","",""
"categorize-image","103","439086","0.0-3.0-7.0-0.3","rog992at3qkuvfl","practice_recog","5f202a985581672b0b6b74ba","5f60e3c0a3b16e07647b2ff9","5f60ee9ee1f02c0169e3d2a5","true","1211.5599999997648","./Stimuli/ImagesPractice/SM97.jpg","83","","","","test","true","","83","","SM","SM97.jpg","","new","36","3","practice_recog","left","","","",""
"categorize-image","104","440601","0.0-3.0-7.0-0.4","rog992at3qkuvfl","practice_recog","5f202a985581672b0b6b74ba","5f60e3c0a3b16e07647b2ff9","5f60ee9ee1f02c0169e3d2a5","true","999.7699999985634","./Stimuli/ImagesPractice/SN222.jpg","76","","","","test","true","","76","","SN","SN222.jpg","","old","37","3","practice_recog","right","","","",""
"categorize-image","105","442282","0.0-3.0-7.0-0.5","rog992at3qkuvfl","practice_recog","5f202a985581672b0b6b74ba","5f60e3c0a3b16e07647b2ff9","5f60ee9ee1f02c0169e3d2a5","true","1174.6200000016252","./Stimuli/ImagesPractice/SN220.jpg","83","","","","test","true","","83","","SN","SN220.jpg","","new","38","3","practice_recog","left","","","",""
"categorize-image","106","443834","0.0-3.0-7.0-0.6","rog992at3qkuvfl","practice_recog","5f202a985581672b0b6b74ba","5f60e3c0a3b16e07647b2ff9","5f60ee9ee1f02c0169e3d2a5","true","1038.4850000009756","./Stimuli/ImagesPractice/LN17.jpg","83","","","","test","true","","83","","LN","LN17.jpg","","new","39","3","practice_recog","left","","","",""
"categorize-image","107","445148","0.0-3.0-7.0-0.7","rog992at3qkuvfl","practice_recog","5f202a985581672b0b6b74ba","5f60e3c0a3b16e07647b2ff9","5f60ee9ee1f02c0169e3d2a5","true","799.6400000010617","./Stimuli/ImagesPractice/SM61.jpg","76","","","","test","true","","76","","SM","SM61.jpg","","old","40","3","practice_recog","right","","","",""
"categorize-image","108","446701","0.0-3.0-7.0-0.8","rog992at3qkuvfl","practice_recog","5f202a985581672b0b6b74ba","5f60e3c0a3b16e07647b2ff9","5f60ee9ee1f02c0169e3d2a5","true","1037.0849999999045","./Stimuli/ImagesPractice/SN75.jpg","76","","","","test","true","","76","","SN","SN75.jpg","","old","41","3","practice_recog","right","","","",""
"categorize-image","109","447833","0.0-3.0-7.0-0.9","rog992at3qkuvfl","practice_recog","5f202a985581672b0b6b74ba","5f60e3c0a3b16e07647b2ff9","5f60ee9ee1f02c0169e3d2a5","true","625.4649999973481","./Stimuli/ImagesPractice/SN76.jpg","76","","","","test","true","","76","","SN","SN76.jpg","","old","42","3","practice_recog","right","","","",""
"categorize-image","110","449185","0.0-3.0-7.0-0.10","rog992at3qkuvfl","practice_recog","5f202a985581672b0b6b74ba","5f60e3c0a3b16e07647b2ff9","5f60ee9ee1f02c0169e3d2a5","true","842.0599999990663","./Stimuli/ImagesPractice/SN221.jpg","83","","","","test","true","","83","","SN","SN221.jpg","","new","43","3","practice_recog","left","","","",""
"categorize-image","111","450415","0.0-3.0-7.0-0.11","rog992at3qkuvfl","practice_recog","5f202a985581672b0b6b74ba","5f60e3c0a3b16e07647b2ff9","5f60ee9ee1f02c0169e3d2a5","true","717.7100000008359","./Stimuli/ImagesPractice/LN15.jpg","76","","","","test","true","","76","","LN","LN15.jpg","","old","44","3","practice_recog","right","","","",""
"categorize-image","112","451698","0.0-3.0-7.0-0.12","rog992at3qkuvfl","practice_recog","5f202a985581672b0b6b74ba","5f60e3c0a3b16e07647b2ff9","5f60ee9ee1f02c0169e3d2a5","true","776.7899999999208","./Stimuli/ImagesPractice/LN109.jpg","76","","","","test","true","","76","","LN","LN109.jpg","","old","45","3","practice_recog","right","","","",""
"categorize-image","113","452915","0.0-3.0-7.0-0.13","rog992at3qkuvfl","practice_recog","5f202a985581672b0b6b74ba","5f60e3c0a3b16e07647b2ff9","5f60ee9ee1f02c0169e3d2a5","true","712.0799999975134","./Stimuli/ImagesPractice/LM147.jpg","76","","","","test","true","","76","","LM","LM147.jpg","","old","46","3","practice_recog","right","","","",""
"categorize-image","114","454271","0.0-3.0-7.0-0.14","rog992at3qkuvfl","practice_recog","5f202a985581672b0b6b74ba","5f60e3c0a3b16e07647b2ff9","5f60ee9ee1f02c0169e3d2a5","true","852.0600000011036","./Stimuli/ImagesPractice/LM239.jpg","83","","","","test","true","","83","","LM","LM239.jpg","","new","47","3","practice_recog","left","","","",""
"categorize-image","115","455889","0.0-3.0-7.0-0.15","rog992at3qkuvfl","practice_recog","5f202a985581672b0b6b74ba","5f60e3c0a3b16e07647b2ff9","5f60ee9ee1f02c0169e3d2a5","true","1103.610000001965","./Stimuli/ImagesPractice/LM224.jpg","83","","","","test","true","","83","","LM","LM224.jpg","","new","48","3","practice_recog","left","","","",""
"html-keyboard-response","116","465603","0.0-3.0-8.0","rog992at3qkuvfl","instructions","5f202a985581672b0b6b74ba","5f60e3c0a3b16e07647b2ff9","5f60ee9ee1f02c0169e3d2a5","false","9712.610000002314","<div align=left> Great!<br><br>Are you ready to continue?<br>If you want to reread the instructions and redo the practice trials, please <br>press „Z“.<br><br>You can proceed when you are ready.<br><br>After the presentation of each object, you will receive an instruction whether to <br>remember or to forget the object.<br>We will test your memory of the following pictures only at the very end of <br>the experiment after all learning blocks are completed. <br><br>Press SPACE to CONTINUE when you are ready. </div>","32","","","","","","","","","","","","","","","","","","","",""
"html-keyboard-response","117","473253","0.0-4.0-0.0","rog992at3qkuvfl","instructions","5f202a985581672b0b6b74ba","5f60e3c0a3b16e07647b2ff9","5f60ee9ee1f02c0169e3d2a5","false","7648.134999999427","<div align=left> The actual experiment is about to start.<br>The practice trials are over!<br><br>Please always respond both fast and accurately!<br><br>Remember: <br> <br><li> Please place your index fingers on the <strong>'S'</strong> and <strong>'L'</strong> keys <br>to respond as fast and accurately as possible.</li><li> Every picture can be classified as either mechanical or non-mechanical.</li><li> If you do not respond in time or commit an error, you will receive a corresponding feedback.<br> Please try to respond as <strong> fast </strong> and as <strong> accurately as possible </strong>.</li><li> Remember the <span style='color: dodgerblue; font-size: 28px'>O</span> pictures. <br></li><li> Please minimize distractions and stay focused. </li><br><br>Press SPACE to START.</div>","32","","","","","","","","","","","","","","","","","","","",""
"html-keyboard-response","118","473969","0.0-4.0-1.0-0.0","rog992at3qkuvfl","prime","5f202a985581672b0b6b74ba","5f60e3c0a3b16e07647b2ff9","5f60ee9ee1f02c0169e3d2a5","false","null","<span style=""color: black; font-size: 48px"">M + N</span>","null","","","","resp_prompt","","","","","","","","","","","","","","","",""
"categorize-image","119","475040","0.0-4.0-1.0-1.0","rog992at3qkuvfl","prime","5f202a985581672b0b6b74ba","5f60e3c0a3b16e07647b2ff9","5f60ee9ee1f02c0169e3d2a5","true","1066.8699999987148","./Stimuli/SelectedImages/SN/SN18.bmp","76","","","","test","true","M + N","76","repetition","SN","SN18.bmp","forget","","49","3","prime1","right","","","",""
"html-keyboard-response","120","477056","0.0-4.0-1.0-3.0","rog992at3qkuvfl","prime","5f202a985581672b0b6b74ba","5f60e3c0a3b16e07647b2ff9","5f60ee9ee1f02c0169e3d2a5","false","null","<div style=""align-items: center; display: flex; color: darkorange; font-size: 90px""><b>ø</b></div>","null","","","","forget_cue","","","","","","","","","","","","","","","",""
"html-keyboard-response","121","477759","0.0-4.0-1.0-0.1","rog992at3qkuvfl","prime","5f202a985581672b0b6b74ba","5f60e3c0a3b16e07647b2ff9","5f60ee9ee1f02c0169e3d2a5","false","null","<span style=""color: black; font-size: 48px"">M + N</span>","null","","","","resp_prompt","","","","","","","","","","","","","","","",""
"categorize-image","122","478857","0.0-4.0-1.0-1.1","rog992at3qkuvfl","prime","5f202a985581672b0b6b74ba","5f60e3c0a3b16e07647b2ff9","5f60ee9ee1f02c0169e3d2a5","true","1095.3950000002515","./Stimuli/SelectedImages/SM/SM148.bmp","83","","","","test","true","M + N","83","repetition","SM","SM148.bmp","forget","","50","3","prime1","left","","","",""
"html-keyboard-response","123","480872","0.0-4.0-1.0-3.1","rog992at3qkuvfl","prime","5f202a985581672b0b6b74ba","5f60e3c0a3b16e07647b2ff9","5f60ee9ee1f02c0169e3d2a5","false","null","<div style=""align-items: center; display: flex; color: darkorange; font-size: 90px""><b>ø</b></div>","null","","","","forget_cue","","","","","","","","","","","","","","","",""
"html-keyboard-response","124","481576","0.0-4.0-1.0-0.2","rog992at3qkuvfl","prime","5f202a985581672b0b6b74ba","5f60e3c0a3b16e07647b2ff9","5f60ee9ee1f02c0169e3d2a5","false","null","<span style=""color: black; font-size: 48px"">M + N</span>","null","","","","resp_prompt","","","","","","","","","","","","","","","",""
"categorize-image","125","482960","0.0-4.0-1.0-1.2","rog992at3qkuvfl","prime","5f202a985581672b0b6b74ba","5f60e3c0a3b16e07647b2ff9","5f60ee9ee1f02c0169e3d2a5","true","1381.2749999997322","./Stimuli/SelectedImages/LM/LM100.bmp","83","","","","test","true","M + N","83","repetition","LM","LM100.bmp","remember","","51","3","prime1","left","","","",""
"html-keyboard-response","126","484973","0.0-4.0-1.0-3.2","rog992at3qkuvfl","prime","5f202a985581672b0b6b74ba","5f60e3c0a3b16e07647b2ff9","5f60ee9ee1f02c0169e3d2a5","false","null","<div style=""align-items: center; display: flex; color: dodgerblue; font-size: 90px""><b>o</b></div>","null","","","","forget_cue","","","","","","","","","","","","","","","",""
"html-keyboard-response","127","485689","0.0-4.0-1.0-0.3","rog992at3qkuvfl","prime","5f202a985581672b0b6b74ba","5f60e3c0a3b16e07647b2ff9","5f60ee9ee1f02c0169e3d2a5","false","null","<span style=""color: black; font-size: 48px"">N + M</span>","null","","","","resp_prompt","","","","","","","","","","","","","","","",""
"categorize-image","128","487619","0.0-4.0-1.0-1.3","rog992at3qkuvfl","prime","5f202a985581672b0b6b74ba","5f60e3c0a3b16e07647b2ff9","5f60ee9ee1f02c0169e3d2a5","true","1926.3500000016065","./Stimuli/SelectedImages/LM/LM57.bmp","76","","","","test","true","N + M","76","switch","LM","LM57.bmp","remember","","52","3","prime1","right","","","",""
"html-keyboard-response","129","489632","0.0-4.0-1.0-3.3","rog992at3qkuvfl","prime","5f202a985581672b0b6b74ba","5f60e3c0a3b16e07647b2ff9","5f60ee9ee1f02c0169e3d2a5","false","null","<div style=""align-items: center; display: flex; color: dodgerblue; font-size: 90px""><b>o</b></div>","null","","","","forget_cue","","","","","","","","","","","","","","","",""
"html-keyboard-response","130","490336","0.0-4.0-1.0-0.4","rog992at3qkuvfl","prime","5f202a985581672b0b6b74ba","5f60e3c0a3b16e07647b2ff9","5f60ee9ee1f02c0169e3d2a5","false","null","<span style=""color: black; font-size: 48px"">N + M</span>","null","","","","resp_prompt","","","","","","","","","","","","","","","",""
"categorize-image","131","491322","0.0-4.0-1.0-1.4","rog992at3qkuvfl","prime","5f202a985581672b0b6b74ba","5f60e3c0a3b16e07647b2ff9","5f60ee9ee1f02c0169e3d2a5","true","982.7150000018883","./Stimuli/SelectedImages/SN/SN52.bmp","83","","","","test","true","N + M","83","switch","SN","SN52.bmp","remember","","53","3","prime1","left","","","",""
"html-keyboard-response","132","493336","0.0-4.0-1.0-3.4","rog992at3qkuvfl","prime","5f202a985581672b0b6b74ba","5f60e3c0a3b16e07647b2ff9","5f60ee9ee1f02c0169e3d2a5","false","null","<div style=""align-items: center; display: flex; color: dodgerblue; font-size: 90px""><b>o</b></div>","null","","","","forget_cue","","","","","","","","","","","","","","","",""
"html-keyboard-response","133","494052","0.0-4.0-1.0-0.5","rog992at3qkuvfl","prime","5f202a985581672b0b6b74ba","5f60e3c0a3b16e07647b2ff9","5f60ee9ee1f02c0169e3d2a5","false","null","<span style=""color: black; font-size: 48px"">M + N</span>","null","","","","resp_prompt","","","","","","","","","","","","","","","",""
"categorize-image","134","495125","0.0-4.0-1.0-1.5","rog992at3qkuvfl","prime","5f202a985581672b0b6b74ba","5f60e3c0a3b16e07647b2ff9","5f60ee9ee1f02c0169e3d2a5","true","1069.8300000003655","./Stimuli/SelectedImages/LM/LM51.bmp","83","","","","test","true","M + N","83","repetition","LM","LM51.bmp","remember","","54","3","prime1","left","","","",""
"html-keyboard-response","135","497140","0.0-4.0-1.0-3.5","rog992at3qkuvfl","prime","5f202a985581672b0b6b74ba","5f60e3c0a3b16e07647b2ff9","5f60ee9ee1f02c0169e3d2a5","false","null","<div style=""align-items: center; display: flex; color: dodgerblue; font-size: 90px""><b>o</b></div>","null","","","","forget_cue","","","","","","","","","","","","","","","",""
"html-keyboard-response","136","497851","0.0-4.0-1.0-0.6","rog992at3qkuvfl","prime","5f202a985581672b0b6b74ba","5f60e3c0a3b16e07647b2ff9","5f60ee9ee1f02c0169e3d2a5","false","null","<span style=""color: black; font-size: 48px"">N + M</span>","null","","","","resp_prompt","","","","","","","","","","","","","","","",""
"categorize-image","137","498826","0.0-4.0-1.0-1.6","rog992at3qkuvfl","prime","5f202a985581672b0b6b74ba","5f60e3c0a3b16e07647b2ff9","5f60ee9ee1f02c0169e3d2a5","true","971.6850000004051","./Stimuli/SelectedImages/LM/LM48.bmp","76","","","","test","true","N + M","76","switch","LM","LM48.bmp","forget","","55","3","prime1","right","","","",""
"html-keyboard-response","138","500837","0.0-4.0-1.0-3.6","rog992at3qkuvfl","prime","5f202a985581672b0b6b74ba","5f60e3c0a3b16e07647b2ff9","5f60ee9ee1f02c0169e3d2a5","false","null","<div style=""align-items: center; display: flex; color: darkorange; font-size: 90px""><b>ø</b></div>","null","","","","forget_cue","","","","","","","","","","","","","","","",""
"html-keyboard-response","139","501553","0.0-4.0-1.0-0.7","rog992at3qkuvfl","prime","5f202a985581672b0b6b74ba","5f60e3c0a3b16e07647b2ff9","5f60ee9ee1f02c0169e3d2a5","false","null","<span style=""color: black; font-size: 48px"">M + N</span>","null","","","","resp_prompt","","","","","","","","","","","","","","","",""
"categorize-image","140","502225","0.0-4.0-1.0-1.7","rog992at3qkuvfl","prime","5f202a985581672b0b6b74ba","5f60e3c0a3b16e07647b2ff9","5f60ee9ee1f02c0169e3d2a5","true","669.079999999667","./Stimuli/SelectedImages/SM/SM17.bmp","83","","","","test","true","M + N","83","repetition","SM","SM17.bmp","forget","","56","3","prime1","left","","","",""
"html-keyboard-response","141","504234","0.0-4.0-1.0-3.7","rog992at3qkuvfl","prime","5f202a985581672b0b6b74ba","5f60e3c0a3b16e07647b2ff9","5f60ee9ee1f02c0169e3d2a5","false","null","<div style=""align-items: center; display: flex; color: darkorange; font-size: 90px""><b>ø</b></div>","null","","","","forget_cue","","","","","","","","","","","","","","","",""
"html-keyboard-response","142","504949","0.0-4.0-1.0-0.8","rog992at3qkuvfl","prime","5f202a985581672b0b6b74ba","5f60e3c0a3b16e07647b2ff9","5f60ee9ee1f02c0169e3d2a5","false","null","<span style=""color: black; font-size: 48px"">M + N</span>","null","","","","resp_prompt","","","","","","","","","","","","","","","",""
"categorize-image","143","505859","0.0-4.0-1.0-1.8","rog992at3qkuvfl","prime","5f202a985581672b0b6b74ba","5f60e3c0a3b16e07647b2ff9","5f60ee9ee1f02c0169e3d2a5","true","906.6050000000978","./Stimuli/SelectedImages/SN/SN27.bmp","76","","","","test","true","M + N","76","repetition","SN","SN27.bmp","remember","","57","3","prime1","right","","","",""
"html-keyboard-response","144","507874","0.0-4.0-1.0-3.8","rog992at3qkuvfl","prime","5f202a985581672b0b6b74ba","5f60e3c0a3b16e07647b2ff9","5f60ee9ee1f02c0169e3d2a5","false","null","<div style=""align-items: center; display: flex; color: dodgerblue; font-size: 90px""><b>o</b></div>","null","","","","forget_cue","","","","","","","","","","","","","","","",""
"html-keyboard-response","145","508582","0.0-4.0-1.0-0.9","rog992at3qkuvfl","prime","5f202a985581672b0b6b74ba","5f60e3c0a3b16e07647b2ff9","5f60ee9ee1f02c0169e3d2a5","false","null","<span style=""color: black; font-size: 48px"">M + N</span>","null","","","","resp_prompt","","","","","","","","","","","","","","","",""
"categorize-image","146","509649","0.0-4.0-1.0-1.9","rog992at3qkuvfl","prime","5f202a985581672b0b6b74ba","5f60e3c0a3b16e07647b2ff9","5f60ee9ee1f02c0169e3d2a5","true","1064.234999998007","./Stimuli/SelectedImages/LN/LN28.bmp","76","","","","test","true","M + N","76","switch","LN","LN28.bmp","remember","","58","3","prime1","right","","","",""
"html-keyboard-response","147","511661","0.0-4.0-1.0-3.9","rog992at3qkuvfl","prime","5f202a985581672b0b6b74ba","5f60e3c0a3b16e07647b2ff9","5f60ee9ee1f02c0169e3d2a5","false","null","<div style=""align-items: center; display: flex; color: dodgerblue; font-size: 90px""><b>o</b></div>","null","","","","forget_cue","","","","","","","","","","","","","","","",""
"html-keyboard-response","148","512366","0.0-4.0-1.0-0.10","rog992at3qkuvfl","prime","5f202a985581672b0b6b74ba","5f60e3c0a3b16e07647b2ff9","5f60ee9ee1f02c0169e3d2a5","false","null","<span style=""color: black; font-size: 48px"">N + M</span>","null","","","","resp_prompt","","","","","","","","","","","","","","","",""
"categorize-image","149","514074","0.0-4.0-1.0-1.10","rog992at3qkuvfl","prime","5f202a985581672b0b6b74ba","5f60e3c0a3b16e07647b2ff9","5f60ee9ee1f02c0169e3d2a5","true","1704.314999999071","./Stimuli/SelectedImages/LM/LM235.bmp","76","","","","test","true","N + M","76","repetition","LM","LM235.bmp","remember","","59","3","prime1","right","","","",""
"html-keyboard-response","150","516083","0.0-4.0-1.0-3.10","rog992at3qkuvfl","prime","5f202a985581672b0b6b74ba","5f60e3c0a3b16e07647b2ff9","5f60ee9ee1f02c0169e3d2a5","false","null","<div style=""align-items: center; display: flex; color: dodgerblue; font-size: 90px""><b>o</b></div>","null","","","","forget_cue","","","","","","","","","","","","","","","",""
"html-keyboard-response","151","516789","0.0-4.0-1.0-0.11","rog992at3qkuvfl","prime","5f202a985581672b0b6b74ba","5f60e3c0a3b16e07647b2ff9","5f60ee9ee1f02c0169e3d2a5","false","null","<span style=""color: black; font-size: 48px"">M + N</span>","null","","","","resp_prompt","","","","","","","","","","","","","","","",""
"categorize-image","152","518494","0.0-4.0-1.0-1.11","rog992at3qkuvfl","prime","5f202a985581672b0b6b74ba","5f60e3c0a3b16e07647b2ff9","5f60ee9ee1f02c0169e3d2a5","true","1702.065000001283","./Stimuli/SelectedImages/LN/LN150.bmp","76","","","","test","true","M + N","76","repetition","LN","LN150.bmp","remember","","60","3","prime1","right","","","",""
"html-keyboard-response","153","520499","0.0-4.0-1.0-3.11","rog992at3qkuvfl","prime","5f202a985581672b0b6b74ba","5f60e3c0a3b16e07647b2ff9","5f60ee9ee1f02c0169e3d2a5","false","null","<div style=""align-items: center; display: flex; color: dodgerblue; font-size: 90px""><b>o</b></div>","null","","","","forget_cue","","","","","","","","","","","","","","","",""
"html-keyboard-response","154","521210","0.0-4.0-1.0-0.12","rog992at3qkuvfl","prime","5f202a985581672b0b6b74ba","5f60e3c0a3b16e07647b2ff9","5f60ee9ee1f02c0169e3d2a5","false","null","<span style=""color: black; font-size: 48px"">N + M</span>","null","","","","resp_prompt","","","","","","","","","","","","","","","",""
"categorize-image","155","522489","0.0-4.0-1.0-1.12","rog992at3qkuvfl","prime","5f202a985581672b0b6b74ba","5f60e3c0a3b16e07647b2ff9","5f60ee9ee1f02c0169e3d2a5","true","1275.7050000000163","./Stimuli/SelectedImages/SM/SM195.bmp","76","","","","test","true","N + M","76","repetition","SM","SM195.bmp","forget","","61","3","prime1","right","","","",""
"html-keyboard-response","156","524494","0.0-4.0-1.0-3.12","rog992at3qkuvfl","prime","5f202a985581672b0b6b74ba","5f60e3c0a3b16e07647b2ff9","5f60ee9ee1f02c0169e3d2a5","false","null","<div style=""align-items: center; display: flex; color: darkorange; font-size: 90px""><b>ø</b></div>","null","","","","forget_cue","","","","","","","","","","","","","","","",""
"html-keyboard-response","157","525207","0.0-4.0-1.0-0.13","rog992at3qkuvfl","prime","5f202a985581672b0b6b74ba","5f60e3c0a3b16e07647b2ff9","5f60ee9ee1f02c0169e3d2a5","false","null","<span style=""color: black; font-size: 48px"">M + N</span>","null","","","","resp_prompt","","","","","","","","","","","","","","","",""
"categorize-image","158","526671","0.0-4.0-1.0-1.13","rog992at3qkuvfl","prime","5f202a985581672b0b6b74ba","5f60e3c0a3b16e07647b2ff9","5f60ee9ee1f02c0169e3d2a5","true","1459.5750000008848","./Stimuli/SelectedImages/LN/LN92.bmp","76","","","","test","true","M + N","76","repetition","LN","LN92.bmp","remember","","62","3","prime1","right","","","",""
"html-keyboard-response","159","528686","0.0-4.0-1.0-3.13","rog992at3qkuvfl","prime","5f202a985581672b0b6b74ba","5f60e3c0a3b16e07647b2ff9","5f60ee9ee1f02c0169e3d2a5","false","null","<div style=""align-items: center; display: flex; color: dodgerblue; font-size: 90px""><b>o</b></div>","null","","","","forget_cue","","","","","","","","","","","","","","","",""
"html-keyboard-response","160","529390","0.0-4.0-1.0-0.14","rog992at3qkuvfl","prime","5f202a985581672b0b6b74ba","5f60e3c0a3b16e07647b2ff9","5f60ee9ee1f02c0169e3d2a5","false","null","<span style=""color: black; font-size: 48px"">M + N</span>","null","","","","resp_prompt","","","","","","","","","","","","","","","",""
"categorize-image","161","530617","0.0-4.0-1.0-1.14","rog992at3qkuvfl","prime","5f202a985581672b0b6b74ba","5f60e3c0a3b16e07647b2ff9","5f60ee9ee1f02c0169e3d2a5","true","1224.214999998454","./Stimuli/SelectedImages/SM/SM24.bmp","83","","","","test","true","M + N","83","switch","SM","SM24.bmp","forget","","63","3","prime1","left","","","",""
"html-keyboard-response","162","532627","0.0-4.0-1.0-3.14","rog992at3qkuvfl","prime","5f202a985581672b0b6b74ba","5f60e3c0a3b16e07647b2ff9","5f60ee9ee1f02c0169e3d2a5","false","null","<div style=""align-items: center; display: flex; color: darkorange; font-size: 90px""><b>ø</b></div>","null","","","","forget_cue","","","","","","","","","","","","","","","",""
"html-keyboard-response","163","533339","0.0-4.0-1.0-0.15","rog992at3qkuvfl","prime","5f202a985581672b0b6b74ba","5f60e3c0a3b16e07647b2ff9","5f60ee9ee1f02c0169e3d2a5","false","null","<span style=""color: black; font-size: 48px"">N + M</span>","null","","","","resp_prompt","","","","","","","","","","","","","","","",""
"categorize-image","164","534669","0.0-4.0-1.0-1.15","rog992at3qkuvfl","prime","5f202a985581672b0b6b74ba","5f60e3c0a3b16e07647b2ff9","5f60ee9ee1f02c0169e3d2a5","true","1327.0599999995902","./Stimuli/SelectedImages/LN/LN177.bmp","83","","","","test","true","N + M","83","switch","LN","LN177.bmp","forget","","64","3","prime1","left","","","",""
"html-keyboard-response","165","536685","0.0-4.0-1.0-3.15","rog992at3qkuvfl","prime","5f202a985581672b0b6b74ba","5f60e3c0a3b16e07647b2ff9","5f60ee9ee1f02c0169e3d2a5","false","null","<div style=""align-items: center; display: flex; color: darkorange; font-size: 90px""><b>ø</b></div>","null","","","","forget_cue","","","","","","","","","","","","","","","",""
"html-keyboard-response","166","537396","0.0-4.0-1.0-0.16","rog992at3qkuvfl","prime","5f202a985581672b0b6b74ba","5f60e3c0a3b16e07647b2ff9","5f60ee9ee1f02c0169e3d2a5","false","null","<span style=""color: black; font-size: 48px"">N + M</span>","null","","","","resp_prompt","","","","","","","","","","","","","","","",""
"categorize-image","167","538704","0.0-4.0-1.0-1.16","rog992at3qkuvfl","prime","5f202a985581672b0b6b74ba","5f60e3c0a3b16e07647b2ff9","5f60ee9ee1f02c0169e3d2a5","true","1305.0899999979883","./Stimuli/SelectedImages/SM/SM73.bmp","76","","","","test","true","N + M","76","switch","SM","SM73.bmp","forget","","65","3","prime1","right","","","",""
"html-keyboard-response","168","540718","0.0-4.0-1.0-3.16","rog992at3qkuvfl","prime","5f202a985581672b0b6b74ba","5f60e3c0a3b16e07647b2ff9","5f60ee9ee1f02c0169e3d2a5","false","null","<div style=""align-items: center; display: flex; color: darkorange; font-size: 90px""><b>ø</b></div>","null","","","","forget_cue","","","","","","","","","","","","","","","",""
"html-keyboard-response","169","541421","0.0-4.0-1.0-0.17","rog992at3qkuvfl","prime","5f202a985581672b0b6b74ba","5f60e3c0a3b16e07647b2ff9","5f60ee9ee1f02c0169e3d2a5","false","null","<span style=""color: black; font-size: 48px"">M + N</span>","null","","","","resp_prompt","","","","","","","","","","","","","","","",""
"categorize-image","170","543251","0.0-4.0-1.0-1.17","rog992at3qkuvfl","prime","5f202a985581672b0b6b74ba","5f60e3c0a3b16e07647b2ff9","5f60ee9ee1f02c0169e3d2a5","true","1826.1899999997113","./Stimuli/SelectedImages/SM/SM74.bmp","83","","","","test","true","M + N","83","switch","SM","SM74.bmp","remember","","66","3","prime1","left","","","",""
"html-keyboard-response","171","545252","0.0-4.0-1.0-3.17","rog992at3qkuvfl","prime","5f202a985581672b0b6b74ba","5f60e3c0a3b16e07647b2ff9","5f60ee9ee1f02c0169e3d2a5","false","null","<div style=""align-items: center; display: flex; color: dodgerblue; font-size: 90px""><b>o</b></div>","null","","","","forget_cue","","","","","","","","","","","","","","","",""
"html-keyboard-response","172","545968","0.0-4.0-1.0-0.18","rog992at3qkuvfl","prime","5f202a985581672b0b6b74ba","5f60e3c0a3b16e07647b2ff9","5f60ee9ee1f02c0169e3d2a5","false","null","<span style=""color: black; font-size: 48px"">N + M</span>","null","","","","resp_prompt","","","","","","","","","","","","","","","",""
"categorize-image","173","547045","0.0-4.0-1.0-1.18","rog992at3qkuvfl","prime","5f202a985581672b0b6b74ba","5f60e3c0a3b16e07647b2ff9","5f60ee9ee1f02c0169e3d2a5","true","1072.7899999984074","./Stimuli/SelectedImages/LM/LM179.bmp","76","","","","test","true","N + M","76","repetition","LM","LM179.bmp","remember","","67","3","prime1","right","","","",""
"html-keyboard-response","174","549061","0.0-4.0-1.0-3.18","rog992at3qkuvfl","prime","5f202a985581672b0b6b74ba","5f60e3c0a3b16e07647b2ff9","5f60ee9ee1f02c0169e3d2a5","false","null","<div style=""align-items: center; display: flex; color: dodgerblue; font-size: 90px""><b>o</b></div>","null","","","","forget_cue","","","","","","","","","","","","","","","",""
"html-keyboard-response","175","549768","0.0-4.0-1.0-0.19","rog992at3qkuvfl","prime","5f202a985581672b0b6b74ba","5f60e3c0a3b16e07647b2ff9","5f60ee9ee1f02c0169e3d2a5","false","null","<span style=""color: black; font-size: 48px"">M + N</span>","null","","","","resp_prompt","","","","","","","","","","","","","","","",""
"categorize-image","176","551222","0.0-4.0-1.0-1.19","rog992at3qkuvfl","prime","5f202a985581672b0b6b74ba","5f60e3c0a3b16e07647b2ff9","5f60ee9ee1f02c0169e3d2a5","true","1450.9350000007544","./Stimuli/SelectedImages/LN/LN111.bmp","76","","","","test","true","M + N","76","switch","LN","LN111.bmp","forget","","68","3","prime1","right","","","",""
"html-keyboard-response","177","553227","0.0-4.0-1.0-3.19","rog992at3qkuvfl","prime","5f202a985581672b0b6b74ba","5f60e3c0a3b16e07647b2ff9","5f60ee9ee1f02c0169e3d2a5","false","null","<div style=""align-items: center; display: flex; color: darkorange; font-size: 90px""><b>ø</b></div>","null","","","","forget_cue","","","","","","","","","","","","","","","",""
"html-keyboard-response","178","553935","0.0-4.0-1.0-0.20","rog992at3qkuvfl","prime","5f202a985581672b0b6b74ba","5f60e3c0a3b16e07647b2ff9","5f60ee9ee1f02c0169e3d2a5","false","null","<span style=""color: black; font-size: 48px"">N + M</span>","null","","","","resp_prompt","","","","","","","","","","","","","","","",""
"categorize-image","179","555780","0.0-4.0-1.0-1.20","rog992at3qkuvfl","prime","5f202a985581672b0b6b74ba","5f60e3c0a3b16e07647b2ff9","5f60ee9ee1f02c0169e3d2a5","true","1842.5100000022212","./Stimuli/SelectedImages/LN/LN82.bmp","83","","","","test","true","N + M","83","repetition","LN","LN82.bmp","forget","","69","3","prime1","left","","","",""
"html-keyboard-response","180","557782","0.0-4.0-1.0-3.20","rog992at3qkuvfl","prime","5f202a985581672b0b6b74ba","5f60e3c0a3b16e07647b2ff9","5f60ee9ee1f02c0169e3d2a5","false","null","<div style=""align-items: center; display: flex; color: darkorange; font-size: 90px""><b>ø</b></div>","null","","","","forget_cue","","","","","","","","","","","","","","","",""
"html-keyboard-response","181","558498","0.0-4.0-1.0-0.21","rog992at3qkuvfl","prime","5f202a985581672b0b6b74ba","5f60e3c0a3b16e07647b2ff9","5f60ee9ee1f02c0169e3d2a5","false","null","<span style=""color: black; font-size: 48px"">N + M</span>","null","","","","resp_prompt","","","","","","","","","","","","","","","",""
"categorize-image","182","559725","0.0-4.0-1.0-1.21","rog992at3qkuvfl","prime","5f202a985581672b0b6b74ba","5f60e3c0a3b16e07647b2ff9","5f60ee9ee1f02c0169e3d2a5","true","1222.809999999241","./Stimuli/SelectedImages/SM/SM205.bmp","76","","","","test","true","N + M","76","repetition","SM","SM205.bmp","forget","","70","3","prime1","right","","","",""
"html-keyboard-response","183","561738","0.0-4.0-1.0-3.21","rog992at3qkuvfl","prime","5f202a985581672b0b6b74ba","5f60e3c0a3b16e07647b2ff9","5f60ee9ee1f02c0169e3d2a5","false","null","<div style=""align-items: center; display: flex; color: darkorange; font-size: 90px""><b>ø</b></div>","null","","","","forget_cue","","","","","","","","","","","","","","","",""
"html-keyboard-response","184","562448","0.0-4.0-1.0-0.22","rog992at3qkuvfl","prime","5f202a985581672b0b6b74ba","5f60e3c0a3b16e07647b2ff9","5f60ee9ee1f02c0169e3d2a5","false","null","<span style=""color: black; font-size: 48px"">N + M</span>","null","","","","resp_prompt","","","","","","","","","","","","","","","",""
"categorize-image","185","563337","0.0-4.0-1.0-1.22","rog992at3qkuvfl","prime","5f202a985581672b0b6b74ba","5f60e3c0a3b16e07647b2ff9","5f60ee9ee1f02c0169e3d2a5","true","886.6049999997485","./Stimuli/SelectedImages/SM/SM106.bmp","76","","","","test","true","N + M","76","repetition","SM","SM106.bmp","remember","","71","3","prime1","right","","","",""
"html-keyboard-response","186","565352","0.0-4.0-1.0-3.22","rog992at3qkuvfl","prime","5f202a985581672b0b6b74ba","5f60e3c0a3b16e07647b2ff9","5f60ee9ee1f02c0169e3d2a5","false","null","<div style=""align-items: center; display: flex; color: dodgerblue; font-size: 90px""><b>o</b></div>","null","","","","forget_cue","","","","","","","","","","","","","","","",""
"html-keyboard-response","187","566060","0.0-4.0-1.0-0.23","rog992at3qkuvfl","prime","5f202a985581672b0b6b74ba","5f60e3c0a3b16e07647b2ff9","5f60ee9ee1f02c0169e3d2a5","false","null","<span style=""color: black; font-size: 48px"">N + M</span>","null","","","","resp_prompt","","","","","","","","","","","","","","","",""
"categorize-image","188","566878","0.0-4.0-1.0-1.23","rog992at3qkuvfl","prime","5f202a985581672b0b6b74ba","5f60e3c0a3b16e07647b2ff9","5f60ee9ee1f02c0169e3d2a5","true","814.135000000475","./Stimuli/SelectedImages/SM/SM76.bmp","76","","","","test","true","N + M","76","repetition","SM","SM76.bmp","remember","","72","3","prime1","right","","","",""
"html-keyboard-response","189","568892","0.0-4.0-1.0-3.23","rog992at3qkuvfl","prime","5f202a985581672b0b6b74ba","5f60e3c0a3b16e07647b2ff9","5f60ee9ee1f02c0169e3d2a5","false","null","<div style=""align-items: center; display: flex; color: dodgerblue; font-size: 90px""><b>o</b></div>","null","","","","forget_cue","","","","","","","","","","","","","","","",""
"html-keyboard-response","190","569604","0.0-4.0-1.0-0.24","rog992at3qkuvfl","prime","5f202a985581672b0b6b74ba","5f60e3c0a3b16e07647b2ff9","5f60ee9ee1f02c0169e3d2a5","false","null","<span style=""color: black; font-size: 48px"">M + N</span>","null","","","","resp_prompt","","","","","","","","","","","","","","","",""
"categorize-image","191","570861","0.0-4.0-1.0-1.24","rog992at3qkuvfl","prime","5f202a985581672b0b6b74ba","5f60e3c0a3b16e07647b2ff9","5f60ee9ee1f02c0169e3d2a5","true","1254.6649999967776","./Stimuli/SelectedImages/LN/LN149.bmp","76","","","","test","true","M + N","76","switch","LN","LN149.bmp","forget","","73","3","prime1","right","","","",""
"html-keyboard-response","192","572875","0.0-4.0-1.0-3.24","rog992at3qkuvfl","prime","5f202a985581672b0b6b74ba","5f60e3c0a3b16e07647b2ff9","5f60ee9ee1f02c0169e3d2a5","false","null","<div style=""align-items: center; display: flex; color: darkorange; font-size: 90px""><b>ø</b></div>","null","","","","forget_cue","","","","","","","","","","","","","","","",""
"html-keyboard-response","193","573591","0.0-4.0-1.0-0.25","rog992at3qkuvfl","prime","5f202a985581672b0b6b74ba","5f60e3c0a3b16e07647b2ff9","5f60ee9ee1f02c0169e3d2a5","false","null","<span style=""color: black; font-size: 48px"">N + M</span>","null","","","","resp_prompt","","","","","","","","","","","","","","","",""
"categorize-image","194","574582","0.0-4.0-1.0-1.25","rog992at3qkuvfl","prime","5f202a985581672b0b6b74ba","5f60e3c0a3b16e07647b2ff9","5f60ee9ee1f02c0169e3d2a5","true","987.1000000021886","./Stimuli/SelectedImages/LN/LN131.bmp","83","","","","test","true","N + M","83","switch","LN","LN131.bmp","forget","","74","3","prime1","left","","","",""
"html-keyboard-response","195","576585","0.0-4.0-1.0-3.25","rog992at3qkuvfl","prime","5f202a985581672b0b6b74ba","5f60e3c0a3b16e07647b2ff9","5f60ee9ee1f02c0169e3d2a5","false","null","<div style=""align-items: center; display: flex; color: darkorange; font-size: 90px""><b>ø</b></div>","null","","","","forget_cue","","","","","","","","","","","","","","","",""
"html-keyboard-response","196","577294","0.0-4.0-1.0-0.26","rog992at3qkuvfl","prime","5f202a985581672b0b6b74ba","5f60e3c0a3b16e07647b2ff9","5f60ee9ee1f02c0169e3d2a5","false","null","<span style=""color: black; font-size: 48px"">N + M</span>","null","","","","resp_prompt","","","","","","","","","","","","","","","",""
"categorize-image","197","578433","0.0-4.0-1.0-1.26","rog992at3qkuvfl","prime","5f202a985581672b0b6b74ba","5f60e3c0a3b16e07647b2ff9","5f60ee9ee1f02c0169e3d2a5","true","1135.0499999971362","./Stimuli/SelectedImages/SN/SN155.bmp","83","","","","test","true","N + M","83","switch","SN","SN155.bmp","remember","","75","3","prime1","left","","","",""
"html-keyboard-response","198","580436","0.0-4.0-1.0-3.26","rog992at3qkuvfl","prime","5f202a985581672b0b6b74ba","5f60e3c0a3b16e07647b2ff9","5f60ee9ee1f02c0169e3d2a5","false","null","<div style=""align-items: center; display: flex; color: dodgerblue; font-size: 90px""><b>o</b></div>","null","","","","forget_cue","","","","","","","","","","","","","","","",""
"html-keyboard-response","199","581137","0.0-4.0-1.0-0.27","rog992at3qkuvfl","prime","5f202a985581672b0b6b74ba","5f60e3c0a3b16e07647b2ff9","5f60ee9ee1f02c0169e3d2a5","false","null","<span style=""color: black; font-size: 48px"">N + M</span>","null","","","","resp_prompt","","","","","","","","","","","","","","","",""
"categorize-image","200","582014","0.0-4.0-1.0-1.27","rog992at3qkuvfl","prime","5f202a985581672b0b6b74ba","5f60e3c0a3b16e07647b2ff9","5f60ee9ee1f02c0169e3d2a5","true","873.8850000008242","./Stimuli/SelectedImages/LN/LN13.bmp","83","","","","test","true","N + M","83","switch","LN","LN13.bmp","remember","","76","3","prime1","left","","","",""
"html-keyboard-response","201","584019","0.0-4.0-1.0-3.27","rog992at3qkuvfl","prime","5f202a985581672b0b6b74ba","5f60e3c0a3b16e07647b2ff9","5f60ee9ee1f02c0169e3d2a5","false","null","<div style=""align-items: center; display: flex; color: dodgerblue; font-size: 90px""><b>o</b></div>","null","","","","forget_cue","","","","","","","","","","","","","","","",""
"html-keyboard-response","202","584723","0.0-4.0-1.0-0.28","rog992at3qkuvfl","prime","5f202a985581672b0b6b74ba","5f60e3c0a3b16e07647b2ff9","5f60ee9ee1f02c0169e3d2a5","false","null","<span style=""color: black; font-size: 48px"">N + M</span>","null","","","","resp_prompt","","","","","","","","","","","","","","","",""
"categorize-image","203","585439","0.0-4.0-1.0-1.28","rog992at3qkuvfl","prime","5f202a985581672b0b6b74ba","5f60e3c0a3b16e07647b2ff9","5f60ee9ee1f02c0169e3d2a5","true","712.9449999992503","./Stimuli/SelectedImages/LN/LN128.bmp","83","","","","test","true","N + M","83","switch","LN","LN128.bmp","remember","","77","3","prime1","left","","","",""
"html-keyboard-response","204","587449","0.0-4.0-1.0-3.28","rog992at3qkuvfl","prime","5f202a985581672b0b6b74ba","5f60e3c0a3b16e07647b2ff9","5f60ee9ee1f02c0169e3d2a5","false","null","<div style=""align-items: center; display: flex; color: dodgerblue; font-size: 90px""><b>o</b></div>","null","","","","forget_cue","","","","","","","","","","","","","","","",""
"html-keyboard-response","205","588154","0.0-4.0-1.0-0.29","rog992at3qkuvfl","prime","5f202a985581672b0b6b74ba","5f60e3c0a3b16e07647b2ff9","5f60ee9ee1f02c0169e3d2a5","false","null","<span style=""color: black; font-size: 48px"">M + N</span>","null","","","","resp_prompt","","","","","","","","","","","","","","","",""
"categorize-image","206","588935","0.0-4.0-1.0-1.29","rog992at3qkuvfl","prime","5f202a985581672b0b6b74ba","5f60e3c0a3b16e07647b2ff9","5f60ee9ee1f02c0169e3d2a5","true","777.2949999998091","./Stimuli/SelectedImages/LM/LM150.bmp","83","","","","test","true","M + N","83","switch","LM","LM150.bmp","forget","","78","3","prime1","left","","","",""
"html-keyboard-response","207","590951","0.0-4.0-1.0-3.29","rog992at3qkuvfl","prime","5f202a985581672b0b6b74ba","5f60e3c0a3b16e07647b2ff9","5f60ee9ee1f02c0169e3d2a5","false","null","<div style=""align-items: center; display: flex; color: darkorange; font-size: 90px""><b>ø</b></div>","null","","","","forget_cue","","","","","","","","","","","","","","","",""
"html-keyboard-response","208","591666","0.0-4.0-1.0-0.30","rog992at3qkuvfl","prime","5f202a985581672b0b6b74ba","5f60e3c0a3b16e07647b2ff9","5f60ee9ee1f02c0169e3d2a5","false","null","<span style=""color: black; font-size: 48px"">M + N</span>","null","","","","resp_prompt","","","","","","","","","","","","","","","",""
"categorize-image","209","593673","0.0-4.0-1.0-1.30","rog992at3qkuvfl","prime","5f202a985581672b0b6b74ba","5f60e3c0a3b16e07647b2ff9","5f60ee9ee1f02c0169e3d2a5","true","null","./Stimuli/SelectedImages/SN/SN181.bmp","null","","","","test","false","M + N","76","repetition","SN","SN181.bmp","remember","","79","3","prime1","too_slow","","","",""
"html-keyboard-response","210","594179","0.0-4.0-1.0-2.30-0.30","rog992at3qkuvfl","prime","5f202a985581672b0b6b74ba","5f60e3c0a3b16e07647b2ff9","5f60ee9ee1f02c0169e3d2a5","false","null","<span style=""color: red; font-size: 48px"">Too slow!</span>","null","","","","feedback","","","","","","","","","","","","","","","",""
"html-keyboard-response","211","596183","0.0-4.0-1.0-3.30","rog992at3qkuvfl","prime","5f202a985581672b0b6b74ba","5f60e3c0a3b16e07647b2ff9","5f60ee9ee1f02c0169e3d2a5","false","null","<div style=""align-items: center; display: flex; color: dodgerblue; font-size: 90px""><b>o</b></div>","null","","","","forget_cue","","","","","","","","","","","","","","","",""
"html-keyboard-response","212","596885","0.0-4.0-1.0-0.31","rog992at3qkuvfl","prime","5f202a985581672b0b6b74ba","5f60e3c0a3b16e07647b2ff9","5f60ee9ee1f02c0169e3d2a5","false","null","<span style=""color: black; font-size: 48px"">N + M</span>","null","","","","resp_prompt","","","","","","","","","","","","","","","",""
"categorize-image","213","597884","0.0-4.0-1.0-1.31","rog992at3qkuvfl","prime","5f202a985581672b0b6b74ba","5f60e3c0a3b16e07647b2ff9","5f60ee9ee1f02c0169e3d2a5","true","995.0749999990221","./Stimuli/SelectedImages/LN/LN9.bmp","83","","","","test","true","N + M","83","repetition","LN","LN9.bmp","forget","","80","3","prime1","left","","","",""
"html-keyboard-response","214","599897","0.0-4.0-1.0-3.31","rog992at3qkuvfl","prime","5f202a985581672b0b6b74ba","5f60e3c0a3b16e07647b2ff9","5f60ee9ee1f02c0169e3d2a5","false","null","<div style=""align-items: center; display: flex; color: darkorange; font-size: 90px""><b>ø</b></div>","null","","","","forget_cue","","","","","","","","","","","","","","","",""
"html-keyboard-response","215","600608","0.0-4.0-1.0-0.32","rog992at3qkuvfl","prime","5f202a985581672b0b6b74ba","5f60e3c0a3b16e07647b2ff9","5f60ee9ee1f02c0169e3d2a5","false","null","<span style=""color: black; font-size: 48px"">M + N</span>","null","","","","resp_prompt","","","","","","","","","","","","","","","",""
"categorize-image","216","601643","0.0-4.0-1.0-1.32","rog992at3qkuvfl","prime","5f202a985581672b0b6b74ba","5f60e3c0a3b16e07647b2ff9","5f60ee9ee1f02c0169e3d2a5","true","1031.6400000010617","./Stimuli/SelectedImages/SN/SN64.bmp","76","","","","test","true","M + N","76","switch","SN","SN64.bmp","remember","","81","3","prime1","right","","","",""
"html-keyboard-response","217","603645","0.0-4.0-1.0-3.32","rog992at3qkuvfl","prime","5f202a985581672b0b6b74ba","5f60e3c0a3b16e07647b2ff9","5f60ee9ee1f02c0169e3d2a5","false","null","<div style=""align-items: center; display: flex; color: dodgerblue; font-size: 90px""><b>o</b></div>","null","","","","forget_cue","","","","","","","","","","","","","","","",""
"html-keyboard-response","218","604350","0.0-4.0-1.0-0.33","rog992at3qkuvfl","prime","5f202a985581672b0b6b74ba","5f60e3c0a3b16e07647b2ff9","5f60ee9ee1f02c0169e3d2a5","false","null","<span style=""color: black; font-size: 48px"">M + N</span>","null","","","","resp_prompt","","","","","","","","","","","","","","","",""
"categorize-image","219","605335","0.0-4.0-1.0-1.33","rog992at3qkuvfl","prime","5f202a985581672b0b6b74ba","5f60e3c0a3b16e07647b2ff9","5f60ee9ee1f02c0169e3d2a5","true","982.5200000014156","./Stimuli/SelectedImages/SN/SN140.bmp","76","","","","test","true","M + N","76","switch","SN","SN140.bmp","forget","","82","3","prime1","right","","","",""
"html-keyboard-response","220","607356","0.0-4.0-1.0-3.33","rog992at3qkuvfl","prime","5f202a985581672b0b6b74ba","5f60e3c0a3b16e07647b2ff9","5f60ee9ee1f02c0169e3d2a5","false","null","<div style=""align-items: center; display: flex; color: darkorange; font-size: 90px""><b>ø</b></div>","null","","","","forget_cue","","","","","","","","","","","","","","","",""
"html-keyboard-response","221","608064","0.0-4.0-1.0-0.34","rog992at3qkuvfl","prime","5f202a985581672b0b6b74ba","5f60e3c0a3b16e07647b2ff9","5f60ee9ee1f02c0169e3d2a5","false","null","<span style=""color: black; font-size: 48px"">N + M</span>","null","","","","resp_prompt","","","","","","","","","","","","","","","",""
"categorize-image","222","609620","0.0-4.0-1.0-1.34","rog992at3qkuvfl","prime","5f202a985581672b0b6b74ba","5f60e3c0a3b16e07647b2ff9","5f60ee9ee1f02c0169e3d2a5","true","1553.815000002971","./Stimuli/SelectedImages/LM/LM167.bmp","76","","","","test","true","N + M","76","repetition","LM","LM167.bmp","forget","","83","3","prime1","right","","","",""
"html-keyboard-response","223","611636","0.0-4.0-1.0-3.34","rog992at3qkuvfl","prime","5f202a985581672b0b6b74ba","5f60e3c0a3b16e07647b2ff9","5f60ee9ee1f02c0169e3d2a5","false","null","<div style=""align-items: center; display: flex; color: darkorange; font-size: 90px""><b>ø</b></div>","null","","","","forget_cue","","","","","","","","","","","","","","","",""
"html-keyboard-response","224","612344","0.0-4.0-1.0-0.35","rog992at3qkuvfl","prime","5f202a985581672b0b6b74ba","5f60e3c0a3b16e07647b2ff9","5f60ee9ee1f02c0169e3d2a5","false","null","<span style=""color: black; font-size: 48px"">N + M</span>","null","","","","resp_prompt","","","","","","","","","","","","","","","",""
"categorize-image","225","613422","0.0-4.0-1.0-1.35","rog992at3qkuvfl","prime","5f202a985581672b0b6b74ba","5f60e3c0a3b16e07647b2ff9","5f60ee9ee1f02c0169e3d2a5","true","1082.0800000000745","./Stimuli/SelectedImages/LM/LM103.bmp","76","","","","test","true","N + M","76","switch","LM","LM103.bmp","remember","","84","3","prime1","right","","","",""
"html-keyboard-response","226","615440","0.0-4.0-1.0-3.35","rog992at3qkuvfl","prime","5f202a985581672b0b6b74ba","5f60e3c0a3b16e07647b2ff9","5f60ee9ee1f02c0169e3d2a5","false","null","<div style=""align-items: center; display: flex; color: dodgerblue; font-size: 90px""><b>o</b></div>","null","","","","forget_cue","","","","","","","","","","","","","","","",""
"html-keyboard-response","227","616154","0.0-4.0-1.0-0.36","rog992at3qkuvfl","prime","5f202a985581672b0b6b74ba","5f60e3c0a3b16e07647b2ff9","5f60ee9ee1f02c0169e3d2a5","false","null","<span style=""color: black; font-size: 48px"">N + M</span>","null","","","","resp_prompt","","","","","","","","","","","","","","","",""
"categorize-image","228","616880","0.0-4.0-1.0-1.36","rog992at3qkuvfl","prime","5f202a985581672b0b6b74ba","5f60e3c0a3b16e07647b2ff9","5f60ee9ee1f02c0169e3d2a5","true","722.8800000011688","./Stimuli/SelectedImages/SM/SM207.bmp","76","","","","test","true","N + M","76","switch","SM","SM207.bmp","forget","","85","3","prime1","right","","","",""
"html-keyboard-response","229","618895","0.0-4.0-1.0-3.36","rog992at3qkuvfl","prime","5f202a985581672b0b6b74ba","5f60e3c0a3b16e07647b2ff9","5f60ee9ee1f02c0169e3d2a5","false","null","<div style=""align-items: center; display: flex; color: darkorange; font-size: 90px""><b>ø</b></div>","null","","","","forget_cue","","","","","","","","","","","","","","","",""
"html-keyboard-response","230","619599","0.0-4.0-1.0-0.37","rog992at3qkuvfl","prime","5f202a985581672b0b6b74ba","5f60e3c0a3b16e07647b2ff9","5f60ee9ee1f02c0169e3d2a5","false","null","<span style=""color: black; font-size: 48px"">N + M</span>","null","","","","resp_prompt","","","","","","","","","","","","","","","",""
"categorize-image","231","621214","0.0-4.0-1.0-1.37","rog992at3qkuvfl","prime","5f202a985581672b0b6b74ba","5f60e3c0a3b16e07647b2ff9","5f60ee9ee1f02c0169e3d2a5","true","1610.7699999993201","./Stimuli/SelectedImages/SN/SN179.bmp","83","","","","test","true","N + M","83","repetition","SN","SN179.bmp","remember","","86","3","prime1","left","","","",""
"html-keyboard-response","232","623230","0.0-4.0-1.0-3.37","rog992at3qkuvfl","prime","5f202a985581672b0b6b74ba","5f60e3c0a3b16e07647b2ff9","5f60ee9ee1f02c0169e3d2a5","false","null","<div style=""align-items: center; display: flex; color: dodgerblue; font-size: 90px""><b>o</b></div>","null","","","","forget_cue","","","","","","","","","","","","","","","",""
"html-keyboard-response","233","623933","0.0-4.0-1.0-0.38","rog992at3qkuvfl","prime","5f202a985581672b0b6b74ba","5f60e3c0a3b16e07647b2ff9","5f60ee9ee1f02c0169e3d2a5","false","null","<span style=""color: black; font-size: 48px"">N + M</span>","null","","","","resp_prompt","","","","","","","","","","","","","","","",""
"categorize-image","234","625122","0.0-4.0-1.0-1.38","rog992at3qkuvfl","prime","5f202a985581672b0b6b74ba","5f60e3c0a3b16e07647b2ff9","5f60ee9ee1f02c0169e3d2a5","true","1185.625000001979","./Stimuli/SelectedImages/LN/LN42.bmp","83","","","","test","true","N + M","83","repetition","LN","LN42.bmp","remember","","87","3","prime1","left","","","",""
"html-keyboard-response","235","627138","0.0-4.0-1.0-3.38","rog992at3qkuvfl","prime","5f202a985581672b0b6b74ba","5f60e3c0a3b16e07647b2ff9","5f60ee9ee1f02c0169e3d2a5","false","null","<div style=""align-items: center; display: flex; color: dodgerblue; font-size: 90px""><b>o</b></div>","null","","","","forget_cue","","","","","","","","","","","","","","","",""
"html-keyboard-response","236","627849","0.0-4.0-1.0-0.39","rog992at3qkuvfl","prime","5f202a985581672b0b6b74ba","5f60e3c0a3b16e07647b2ff9","5f60ee9ee1f02c0169e3d2a5","false","null","<span style=""color: black; font-size: 48px"">N + M</span>","null","","","","resp_prompt","","","","","","","","","","","","","","","",""
"categorize-image","237","628699","0.0-4.0-1.0-1.39","rog992at3qkuvfl","prime","5f202a985581672b0b6b74ba","5f60e3c0a3b16e07647b2ff9","5f60ee9ee1f02c0169e3d2a5","true","847.7299999976531","./Stimuli/SelectedImages/SN/SN60.bmp","83","","","","test","true","N + M","83","repetition","SN","SN60.bmp","forget","","88","3","prime1","left","","","",""
"html-keyboard-response","238","630705","0.0-4.0-1.0-3.39","rog992at3qkuvfl","prime","5f202a985581672b0b6b74ba","5f60e3c0a3b16e07647b2ff9","5f60ee9ee1f02c0169e3d2a5","false","null","<div style=""align-items: center; display: flex; color: darkorange; font-size: 90px""><b>ø</b></div>","null","","","","forget_cue","","","","","","","","","","","","","","","",""
"html-keyboard-response","239","631415","0.0-4.0-1.0-0.40","rog992at3qkuvfl","prime","5f202a985581672b0b6b74ba","5f60e3c0a3b16e07647b2ff9","5f60ee9ee1f02c0169e3d2a5","false","null","<span style=""color: black; font-size: 48px"">N + M</span>","null","","","","resp_prompt","","","","","","","","","","","","","","","",""
"categorize-image","240","632663","0.0-4.0-1.0-1.40","rog992at3qkuvfl","prime","5f202a985581672b0b6b74ba","5f60e3c0a3b16e07647b2ff9","5f60ee9ee1f02c0169e3d2a5","true","1244.7449999999953","./Stimuli/SelectedImages/SN/SN182.bmp","83","","","","test","true","N + M","83","switch","SN","SN182.bmp","forget","","89","3","prime1","left","","","",""
"html-keyboard-response","241","634679","0.0-4.0-1.0-3.40","rog992at3qkuvfl","prime","5f202a985581672b0b6b74ba","5f60e3c0a3b16e07647b2ff9","5f60ee9ee1f02c0169e3d2a5","false","null","<div style=""align-items: center; display: flex; color: darkorange; font-size: 90px""><b>ø</b></div>","null","","","","forget_cue","","","","","","","","","","","","","","","",""
"html-keyboard-response","242","635382","0.0-4.0-1.0-0.41","rog992at3qkuvfl","prime","5f202a985581672b0b6b74ba","5f60e3c0a3b16e07647b2ff9","5f60ee9ee1f02c0169e3d2a5","false","null","<span style=""color: black; font-size: 48px"">M + N</span>","null","","","","resp_prompt","","","","","","","","","","","","","","","",""
"categorize-image","243","636289","0.0-4.0-1.0-1.41","rog992at3qkuvfl","prime","5f202a985581672b0b6b74ba","5f60e3c0a3b16e07647b2ff9","5f60ee9ee1f02c0169e3d2a5","true","903.135000000475","./Stimuli/SelectedImages/SM/SM200.bmp","83","","","","test","true","M + N","83","switch","SM","SM200.bmp","remember","","90","3","prime1","left","","","",""
"html-keyboard-response","244","638303","0.0-4.0-1.0-3.41","rog992at3qkuvfl","prime","5f202a985581672b0b6b74ba","5f60e3c0a3b16e07647b2ff9","5f60ee9ee1f02c0169e3d2a5","false","null","<div style=""align-items: center; display: flex; color: dodgerblue; font-size: 90px""><b>o</b></div>","null","","","","forget_cue","","","","","","","","","","","","","","","",""
"html-keyboard-response","245","639011","0.0-4.0-1.0-0.42","rog992at3qkuvfl","prime","5f202a985581672b0b6b74ba","5f60e3c0a3b16e07647b2ff9","5f60ee9ee1f02c0169e3d2a5","false","null","<span style=""color: black; font-size: 48px"">M + N</span>","null","","","","resp_prompt","","","","","","","","","","","","","","","",""
"categorize-image","246","639963","0.0-4.0-1.0-1.42","rog992at3qkuvfl","prime","5f202a985581672b0b6b74ba","5f60e3c0a3b16e07647b2ff9","5f60ee9ee1f02c0169e3d2a5","true","948.8350000028731","./Stimuli/SelectedImages/SN/SN240.bmp","76","","","","test","true","M + N","76","repetition","SN","SN240.bmp","forget","","91","3","prime1","right","","","",""
"html-keyboard-response","247","641975","0.0-4.0-1.0-3.42","rog992at3qkuvfl","prime","5f202a985581672b0b6b74ba","5f60e3c0a3b16e07647b2ff9","5f60ee9ee1f02c0169e3d2a5","false","null","<div style=""align-items: center; display: flex; color: darkorange; font-size: 90px""><b>ø</b></div>","null","","","","forget_cue","","","","","","","","","","","","","","","",""
"html-keyboard-response","248","642685","0.0-4.0-1.0-0.43","rog992at3qkuvfl","prime","5f202a985581672b0b6b74ba","5f60e3c0a3b16e07647b2ff9","5f60ee9ee1f02c0169e3d2a5","false","null","<span style=""color: black; font-size: 48px"">N + M</span>","null","","","","resp_prompt","","","","","","","","","","","","","","","",""
"categorize-image","249","643979","0.0-4.0-1.0-1.43","rog992at3qkuvfl","prime","5f202a985581672b0b6b74ba","5f60e3c0a3b16e07647b2ff9","5f60ee9ee1f02c0169e3d2a5","true","1291.0099999972153","./Stimuli/SelectedImages/LM/LM59.bmp","76","","","","test","true","N + M","76","switch","LM","LM59.bmp","forget","","92","3","prime1","right","","","",""
"html-keyboard-response","250","645990","0.0-4.0-1.0-3.43","rog992at3qkuvfl","prime","5f202a985581672b0b6b74ba","5f60e3c0a3b16e07647b2ff9","5f60ee9ee1f02c0169e3d2a5","false","null","<div style=""align-items: center; display: flex; color: darkorange; font-size: 90px""><b>ø</b></div>","null","","","","forget_cue","","","","","","","","","","","","","","","",""
"html-keyboard-response","251","646704","0.0-4.0-1.0-0.44","rog992at3qkuvfl","prime","5f202a985581672b0b6b74ba","5f60e3c0a3b16e07647b2ff9","5f60ee9ee1f02c0169e3d2a5","false","null","<span style=""color: black; font-size: 48px"">N + M</span>","null","","","","resp_prompt","","","","","","","","","","","","","","","",""
"categorize-image","252","648406","0.0-4.0-1.0-1.44","rog992at3qkuvfl","prime","5f202a985581672b0b6b74ba","5f60e3c0a3b16e07647b2ff9","5f60ee9ee1f02c0169e3d2a5","true","1699.5050000004703","./Stimuli/SelectedImages/SN/SN111.bmp","83","","","","test","true","N + M","83","switch","SN","SN111.bmp","forget","","93","3","prime1","left","","","",""
