"trial_type","trial_index","time_elapsed","internal_node_id","subject","exp_part","prolific_PID","study_ID","session_ID","use","rt","stimulus","key_press","button_pressed","responses","question_order","trial_part","correct","resp_map","correct_resp","probe_condition","category","image","forget_condition","list","trial_num","block_num","block","response","test_part","n_span","sequence","num_spaces"
"pavlovia","0","3","0.0-0.0","acluul8jn2pa5n7","","5f21c94e3957f63e8322093f","5f60e3c0a3b16e07647b2ff9","5f60edc321c050010d62cb5d","false","","","","","","","","","","","","","","","","","","","","","","",""
"html-keyboard-response","1","12324","0.0-1.0-0.0-0.0","acluul8jn2pa5n7","welcome","5f21c94e3957f63e8322093f","5f60e3c0a3b16e07647b2ff9","5f60edc321c050010d62cb5d","false","12320","<div align=left>Dear participant, <br> thank you for participating in an online study of the Cognition, Action, and Sustainability Unit of the University of Freiburg! <br> <br>The aim of this study is to examine our ability to remember previously learned information. <br>Our goal is to find out, whether our memory improves, when we only remember information that is relevant to us. <br>The experiment will take about 35 minutes to complete. <br> <br>Please, note that you can only participate in this study if you are using a device with a keyboard (PC, Laptop etc.) <br>and not if you are using a mobile device such as a tablet or smartphone.<br> <br>Press 'SPACE' to proceed to the experiment. </div>","32","","","","","","","","","","","","","","","","","","","",""
"html-keyboard-response","2","25281","0.0-1.0-0.0-1.0","acluul8jn2pa5n7","welcome","5f21c94e3957f63e8322093f","5f60e3c0a3b16e07647b2ff9","5f60edc321c050010d62cb5d","false","12957","<div align=left><strong> Time Course of this experiment: </strong> <br><br> <strong> 1.</strong>  First, please fill in some information regarding your demographic data. <br><br> <strong> 2.</strong>  Next, your task will be to classify everyday objects. <br>In addition, you will be asked to remember certain objects and recall them later. <br>Working on these tasks requires your undivided attention and concentration.<br>It is therefore essential that you eliminate any sources of distraction in your  <br>environment and ensure that you will not be disturbed. <br><br><strong> 3.</strong>  At the end of the experiment, you will be asked to answer a few additional questions. <br> <br><strong> Important:</strong> After finishing the experiment, only close the browser window <br> by clicking on the 'end the experiment'-button when you are asked to do so. <br>Closing the browser window prematurely will make the allocation of your participation credit impossible. <br><br> Press 'SPACE' to start the experiment. </div>","32","","","","","","","","","","","","","","","","","","","",""
"html-button-response","3","46146","0.0-1.0-0.0-2.0","acluul8jn2pa5n7","welcome","5f21c94e3957f63e8322093f","5f60e3c0a3b16e07647b2ff9","5f60edc321c050010d62cb5d","true","20863","<div align=left><strong> Informed consent </strong>  <br>The aim of our research is to better understand human behavior and mental processes. <br>In the following study your behavior (e.g. choices, reaction times) will be studied. <br> <br><strong> Voluntariness and Anonymity </strong> <br>Your participation in this study is  <strong> voluntary</strong>.<br>You may withdraw your consent to participate at any time without providing a reason for doing so and without fear of prejudice. <br><br>As no personal data will be collected, <strong>your data and your person cannot be connected after data collection</strong> – the data-set is anonymous. <br>Respectively, deletion of your data will not be possible after data collection has been completed, as we cannot retrace your data-set.<br>The results and anonymized data collected in this study will be published as a scientific publication. <br>This will happen in an <strong>anonymized format</strong>, so that no data can be traced back to a specific person. <br> <br>The anonymized data of this study will be made available to other researchers and/or in a data archive on the Internet as a means of transparency and to enable subsequent re-use. By doing so, this study follows the recommendations of the Deutsche Forschungsgemeinschaft (DFG, German Research Foundation) and Deutsche Gesellschaft für Psychologie (DGPS, German Psychological Society) regarding quality assurance in research.<br>If you have any questions now or after the experiment, please contact our team (experiments@cs.uni-freiburg.de).<br><br><br>I hereby declare, that I understand the above described conditions of participation and I agree to participate under these conditions. <br><br> </div>","","0","","","","","","","","","","","","","","","","","","",""
"html-keyboard-response","4","65235","0.0-1.0-0.0-3.0","acluul8jn2pa5n7","welcome","5f21c94e3957f63e8322093f","5f60e3c0a3b16e07647b2ff9","5f60edc321c050010d62cb5d","false","19086","<div align=left><strong> General information concerning the experiment </strong>  <br> <br>Please follow the instructions:<ol> <li><strong> Do not leave this tab (your browser window) during the experiment and do not reload this tab! </strong>  <br>If you do switch tabs/windows during the experiment (to check your mail or visit another website, for example), <br>the experiment will end automatically and you will <strong>not receive credit</strong> for your participation. <br>Repeated participation or resumption of the experiment is impossible.</li> <br><li>Please close all other programs for the duration of your participation. </li> <br><li>Please mute or turn off your phone and put it out of your reach. </li> <br><li>Please also take off any disturbing accessories (such as wristwatches, bracelets, etc.). </li> <br><li>If you have music playing in the background, please turn it off now. </li> <br></ol>Thank you! <br>Press 'SPACE' to continue. </div>","32","","","","","","","","","","","","","","","","","","","",""
"survey-text","5","75137","0.0-1.0-1.0-0.0","acluul8jn2pa5n7","demographics","5f21c94e3957f63e8322093f","5f60e3c0a3b16e07647b2ff9","5f60edc321c050010d62cb5d","true","9879","","","","{""age"":""31""}","","","","","","","","","","","","","","","","","",""
"survey-multi-choice","6","109818","0.0-1.0-1.0-1.0","acluul8jn2pa5n7","demographics","5f21c94e3957f63e8322093f","5f60e3c0a3b16e07647b2ff9","5f60edc321c050010d62cb5d","true","34680","","","","{""gender"":""female"",""school"":""others"",""education"":""Completed university degree or equivalent""}","[0,1,2]","","","","","","","","","","","","","","","","",""
"html-keyboard-response","7","133747","0.0-1.0-2.0","acluul8jn2pa5n7","instructions","5f21c94e3957f63e8322093f","5f60e3c0a3b16e07647b2ff9","5f60edc321c050010d62cb5d","false","23927","<div align=left> The experiment is now about to start: <br> <br>In the following part, you will be presented pictures of everyday objects. <br>Your first task is to <strong>classify these objects. </strong> <br> <br> You will classify them either as mechanical or non-mechanical objects. <br> <br>Objects that include any kind of technical mechanism (for example, wheels, switches, levers, <br> electronic components) fall under the category of <strong>mechanical</strong> objects. <br>Only objects without any kind of technical mechanism should be classified as <strong>non-mechanical</strong>. <br><br>Press 'SPACE' to continue. </div>","32","","","","","","","","","","","","","","","","","","","",""
"html-keyboard-response","8","221473","0.0-2.0-0.0","acluul8jn2pa5n7","instructions","5f21c94e3957f63e8322093f","5f60e3c0a3b16e07647b2ff9","5f60edc321c050010d62cb5d","false","87726.00000000003","<div align=justify>You will classify the objects using the <strong>'S'</strong> and the <strong>'L'</strong> keys on your keyboard.<br>For doing so, please place your <strong>left index finger</strong> on the <strong>'S'</strong> key and place your <strong>right index finger</strong> on the <strong>'L'</strong> key. <br><br> Each trial starts with an instruction, indicating which key ('S'/'L') you need to press to classify <br>the object as mechanical (letter M) or non-mechanical (letter N).<br>The instruction <strong>M + N</strong> indicates that, in the current trial, by pressing the left key ('S') you classify the displayed object as mechanical (M) <br> and by pressing the right key ('L') you classify the object as non-mechanical (N). <br>The instruction <strong>N + M</strong> on the other hand indicates that by pressing the left key ('S') you classify the displayed object as non-mechanical (N) <br> and by pressing the right key ('L') you classify the object as mechanical (M). <br><br>Please press the key corresponding to the correct classification as fast as possible as soon as the object is displayed and try to avoid making mistakes.<br>If you do not respond within a 2 second window, a corresponding feedback will be displayed and the next trial will start.<br> The experiment is divided into multiple blocks to give you the opportunity to take a break after each block. <br>First, you can now practice this task. <br><br>Please place your <strong>LEFT INDEX FINGER</strong> on the 'S' key and your <strong>RIGHT INDEX FINGER</strong> on the 'L' key now. <br><br>Press SPACE to continue.</div>","32","","","","","","","","","","","","","","","","","","","",""
"html-keyboard-response","9","233661","0.0-2.0-1.0","acluul8jn2pa5n7","instructions","5f21c94e3957f63e8322093f","5f60e3c0a3b16e07647b2ff9","5f60edc321c050010d62cb5d","false","12187","<div align=left> You will now have time to practice this task.<br><br>Remember: <br> <br><li>Please place your index fingers on the <strong>'S'</strong> and <strong>'L'</strong> keys <br>to respond as fast and accurately as possible.</li><li>Every picture can be classified as either mechanical or non-mechanical.</li><li>If you do not respond in time or commit an error, you will receive a corresponding feedback. </li><li> Please try to respond as <strong> fast </strong> and as <strong> accurately as possible </strong> .<br><li>To ensure optimal results, please minimize distractions and stay focused. </li><br><br>Press SPACE to continue.</div>","32","","","","","","","","","","","","","","","","","","","",""
"html-keyboard-response","10","234366","0.0-2.0-2.0-0.0","acluul8jn2pa5n7","practice_no_cue","5f21c94e3957f63e8322093f","5f60e3c0a3b16e07647b2ff9","5f60edc321c050010d62cb5d","false","null","<span style=""color: black; font-size: 48px"">N + M</span>","null","","","","resp_prompt","","","","","","","","","","","","","","","",""
"categorize-image","11","236871","0.0-2.0-2.0-1.0","acluul8jn2pa5n7","practice_no_cue","5f21c94e3957f63e8322093f","5f60e3c0a3b16e07647b2ff9","5f60edc321c050010d62cb5d","true","null","./Stimuli/ImagesPractice/LN109.jpg","null","","","","test","false","N + M","83","","LN","LN109.jpg","remember","old","1","1","start","too_slow","","","",""
"html-keyboard-response","12","237573","0.0-2.0-2.0-0.1","acluul8jn2pa5n7","practice_no_cue","5f21c94e3957f63e8322093f","5f60e3c0a3b16e07647b2ff9","5f60edc321c050010d62cb5d","false","null","<span style=""color: black; font-size: 48px"">M + N</span>","null","","","","resp_prompt","","","","","","","","","","","","","","","",""
"categorize-image","13","238586","0.0-2.0-2.0-1.1","acluul8jn2pa5n7","practice_no_cue","5f21c94e3957f63e8322093f","5f60e3c0a3b16e07647b2ff9","5f60edc321c050010d62cb5d","true","510","./Stimuli/ImagesPractice/SN221.jpg","76","","","","test","true","M + N","76","","SN","SN221.jpg","remember","old","2","1","start","right","","","",""
"html-keyboard-response","14","239288","0.0-2.0-2.0-0.2","acluul8jn2pa5n7","practice_no_cue","5f21c94e3957f63e8322093f","5f60e3c0a3b16e07647b2ff9","5f60edc321c050010d62cb5d","false","null","<span style=""color: black; font-size: 48px"">M + N</span>","null","","","","resp_prompt","","","","","","","","","","","","","","","",""
"categorize-image","15","240743","0.0-2.0-2.0-1.2","acluul8jn2pa5n7","practice_no_cue","5f21c94e3957f63e8322093f","5f60e3c0a3b16e07647b2ff9","5f60edc321c050010d62cb5d","true","954","./Stimuli/ImagesPractice/LM230.jpg","83","","","","test","true","M + N","83","","LM","LM230.jpg","forget","old","3","1","start","left","","","",""
"html-keyboard-response","16","241445","0.0-2.0-2.0-0.3","acluul8jn2pa5n7","practice_no_cue","5f21c94e3957f63e8322093f","5f60e3c0a3b16e07647b2ff9","5f60edc321c050010d62cb5d","false","null","<span style=""color: black; font-size: 48px"">M + N</span>","null","","","","resp_prompt","","","","","","","","","","","","","","","",""
"categorize-image","17","242889","0.0-2.0-2.0-1.3","acluul8jn2pa5n7","practice_no_cue","5f21c94e3957f63e8322093f","5f60e3c0a3b16e07647b2ff9","5f60edc321c050010d62cb5d","true","942","./Stimuli/ImagesPractice/SM37.jpg","83","","","","test","true","M + N","83","","SM","SM37.jpg","remember","old","4","1","start","left","","","",""
"html-keyboard-response","18","243591","0.0-2.0-2.0-0.4","acluul8jn2pa5n7","practice_no_cue","5f21c94e3957f63e8322093f","5f60e3c0a3b16e07647b2ff9","5f60edc321c050010d62cb5d","false","null","<span style=""color: black; font-size: 48px"">M + N</span>","null","","","","resp_prompt","","","","","","","","","","","","","","","",""
"categorize-image","19","245446","0.0-2.0-2.0-1.4","acluul8jn2pa5n7","practice_no_cue","5f21c94e3957f63e8322093f","5f60e3c0a3b16e07647b2ff9","5f60edc321c050010d62cb5d","true","1352.999999999971","./Stimuli/ImagesPractice/SM35.jpg","83","","","","test","true","M + N","83","","SM","SM35.jpg","forget","old","5","1","start","left","","","",""
"html-keyboard-response","20","246149","0.0-2.0-2.0-0.5","acluul8jn2pa5n7","practice_no_cue","5f21c94e3957f63e8322093f","5f60e3c0a3b16e07647b2ff9","5f60edc321c050010d62cb5d","false","null","<span style=""color: black; font-size: 48px"">M + N</span>","null","","","","resp_prompt","","","","","","","","","","","","","","","",""
"categorize-image","21","247926","0.0-2.0-2.0-1.5","acluul8jn2pa5n7","practice_no_cue","5f21c94e3957f63e8322093f","5f60e3c0a3b16e07647b2ff9","5f60edc321c050010d62cb5d","true","1275.000000000029","./Stimuli/ImagesPractice/SM97.jpg","76","","","","test","false","M + N","83","","SM","SM97.jpg","remember","old","6","1","start","right","","","",""
"html-keyboard-response","22","248628","0.0-2.0-2.0-0.6","acluul8jn2pa5n7","practice_no_cue","5f21c94e3957f63e8322093f","5f60e3c0a3b16e07647b2ff9","5f60edc321c050010d62cb5d","false","null","<span style=""color: black; font-size: 48px"">M + N</span>","null","","","","resp_prompt","","","","","","","","","","","","","","","",""
"categorize-image","23","250460","0.0-2.0-2.0-1.6","acluul8jn2pa5n7","practice_no_cue","5f21c94e3957f63e8322093f","5f60e3c0a3b16e07647b2ff9","5f60edc321c050010d62cb5d","true","1329","./Stimuli/ImagesPractice/SM62.jpg","83","","","","test","true","M + N","83","","SM","SM62.jpg","forget","old","7","1","start","left","","","",""
"html-keyboard-response","24","251162","0.0-2.0-2.0-0.7","acluul8jn2pa5n7","practice_no_cue","5f21c94e3957f63e8322093f","5f60e3c0a3b16e07647b2ff9","5f60edc321c050010d62cb5d","false","null","<span style=""color: black; font-size: 48px"">N + M</span>","null","","","","resp_prompt","","","","","","","","","","","","","","","",""
"categorize-image","25","253398","0.0-2.0-2.0-1.7","acluul8jn2pa5n7","practice_no_cue","5f21c94e3957f63e8322093f","5f60e3c0a3b16e07647b2ff9","5f60edc321c050010d62cb5d","true","1733.999999999971","./Stimuli/ImagesPractice/LN2.jpg","83","","","","test","true","N + M","83","","LN","LN2.jpg","forget","old","8","1","start","left","","","",""
"html-keyboard-response","26","254100","0.0-2.0-2.0-0.8","acluul8jn2pa5n7","practice_no_cue","5f21c94e3957f63e8322093f","5f60e3c0a3b16e07647b2ff9","5f60edc321c050010d62cb5d","false","null","<span style=""color: black; font-size: 48px"">N + M</span>","null","","","","resp_prompt","","","","","","","","","","","","","","","",""
"categorize-image","27","255748","0.0-2.0-2.0-1.8","acluul8jn2pa5n7","practice_no_cue","5f21c94e3957f63e8322093f","5f60e3c0a3b16e07647b2ff9","5f60edc321c050010d62cb5d","true","1145","./Stimuli/ImagesPractice/LN72.jpg","83","","","","test","true","N + M","83","","LN","LN72.jpg","forget","old","9","1","start","left","","","",""
"html-keyboard-response","28","256450","0.0-2.0-2.0-0.9","acluul8jn2pa5n7","practice_no_cue","5f21c94e3957f63e8322093f","5f60e3c0a3b16e07647b2ff9","5f60edc321c050010d62cb5d","false","null","<span style=""color: black; font-size: 48px"">N + M</span>","null","","","","resp_prompt","","","","","","","","","","","","","","","",""
"categorize-image","29","257798","0.0-2.0-2.0-1.9","acluul8jn2pa5n7","practice_no_cue","5f21c94e3957f63e8322093f","5f60e3c0a3b16e07647b2ff9","5f60edc321c050010d62cb5d","true","844.9999999999709","./Stimuli/ImagesPractice/SN222.jpg","83","","","","test","true","N + M","83","","SN","SN222.jpg","remember","old","10","1","start","left","","","",""
"html-keyboard-response","30","258500","0.0-2.0-2.0-0.10","acluul8jn2pa5n7","practice_no_cue","5f21c94e3957f63e8322093f","5f60e3c0a3b16e07647b2ff9","5f60edc321c050010d62cb5d","false","null","<span style=""color: black; font-size: 48px"">M + N</span>","null","","","","resp_prompt","","","","","","","","","","","","","","","",""
"categorize-image","31","260057","0.0-2.0-2.0-1.10","acluul8jn2pa5n7","practice_no_cue","5f21c94e3957f63e8322093f","5f60e3c0a3b16e07647b2ff9","5f60edc321c050010d62cb5d","true","1054.0000000000582","./Stimuli/ImagesPractice/LN17.jpg","76","","","","test","true","M + N","76","","LN","LN17.jpg","remember","old","11","1","start","right","","","",""
"html-keyboard-response","32","260759","0.0-2.0-2.0-0.11","acluul8jn2pa5n7","practice_no_cue","5f21c94e3957f63e8322093f","5f60e3c0a3b16e07647b2ff9","5f60edc321c050010d62cb5d","false","null","<span style=""color: black; font-size: 48px"">N + M</span>","null","","","","resp_prompt","","","","","","","","","","","","","","","",""
"categorize-image","33","262715","0.0-2.0-2.0-1.11","acluul8jn2pa5n7","practice_no_cue","5f21c94e3957f63e8322093f","5f60e3c0a3b16e07647b2ff9","5f60edc321c050010d62cb5d","true","1454.0000000000582","./Stimuli/ImagesPractice/LM143.jpg","83","","","","test","false","N + M","76","","LM","LM143.jpg","forget","old","12","1","start","left","","","",""
"html-keyboard-response","34","263417","0.0-2.0-2.0-0.12","acluul8jn2pa5n7","practice_no_cue","5f21c94e3957f63e8322093f","5f60e3c0a3b16e07647b2ff9","5f60edc321c050010d62cb5d","false","null","<span style=""color: black; font-size: 48px"">M + N</span>","null","","","","resp_prompt","","","","","","","","","","","","","","","",""
"categorize-image","35","265019","0.0-2.0-2.0-1.12","acluul8jn2pa5n7","practice_no_cue","5f21c94e3957f63e8322093f","5f60e3c0a3b16e07647b2ff9","5f60edc321c050010d62cb5d","true","1099","./Stimuli/ImagesPractice/SM98.jpg","76","","","","test","false","M + N","83","","SM","SM98.jpg","forget","old","13","1","start","right","","","",""
"html-keyboard-response","36","265721","0.0-2.0-2.0-0.13","acluul8jn2pa5n7","practice_no_cue","5f21c94e3957f63e8322093f","5f60e3c0a3b16e07647b2ff9","5f60edc321c050010d62cb5d","false","null","<span style=""color: black; font-size: 48px"">N + M</span>","null","","","","resp_prompt","","","","","","","","","","","","","","","",""
"categorize-image","37","268134","0.0-2.0-2.0-1.13","acluul8jn2pa5n7","practice_no_cue","5f21c94e3957f63e8322093f","5f60e3c0a3b16e07647b2ff9","5f60edc321c050010d62cb5d","true","1911","./Stimuli/ImagesPractice/LM224.jpg","76","","","","test","true","N + M","76","","LM","LM224.jpg","remember","old","14","1","start","right","","","",""
"html-keyboard-response","38","268836","0.0-2.0-2.0-0.14","acluul8jn2pa5n7","practice_no_cue","5f21c94e3957f63e8322093f","5f60e3c0a3b16e07647b2ff9","5f60edc321c050010d62cb5d","false","null","<span style=""color: black; font-size: 48px"">N + M</span>","null","","","","resp_prompt","","","","","","","","","","","","","","","",""
"categorize-image","39","270380","0.0-2.0-2.0-1.14","acluul8jn2pa5n7","practice_no_cue","5f21c94e3957f63e8322093f","5f60e3c0a3b16e07647b2ff9","5f60edc321c050010d62cb5d","true","1042","./Stimuli/ImagesPractice/SN205.jpg","83","","","","test","true","N + M","83","","SN","SN205.jpg","remember","old","15","1","start","left","","","",""
"html-keyboard-response","40","271082","0.0-2.0-2.0-0.15","acluul8jn2pa5n7","practice_no_cue","5f21c94e3957f63e8322093f","5f60e3c0a3b16e07647b2ff9","5f60edc321c050010d62cb5d","false","null","<span style=""color: black; font-size: 48px"">N + M</span>","null","","","","resp_prompt","","","","","","","","","","","","","","","",""
"categorize-image","41","272612","0.0-2.0-2.0-1.15","acluul8jn2pa5n7","practice_no_cue","5f21c94e3957f63e8322093f","5f60e3c0a3b16e07647b2ff9","5f60edc321c050010d62cb5d","true","1027","./Stimuli/ImagesPractice/SN75.jpg","83","","","","test","true","N + M","83","","SN","SN75.jpg","forget","old","16","1","start","left","","","",""
"html-keyboard-response","42","281443","0.0-2.0-3.0","acluul8jn2pa5n7","break","5f21c94e3957f63e8322093f","5f60e3c0a3b16e07647b2ff9","5f60edc321c050010d62cb5d","false","8829","<p style='font-size: 32px;'>Break</><br><br><br><br><br><p style='font-size: 24px;'>In the last block, you committed 3 errors and did not respond in time on 1 trials.
</p><p style='font-size: 24px;'>Try to respond as fast and accurately as possible in the next block as well! </p><p style='font-size: 24px;'>Press SPACE to continue.</p>","32","","","","","","","","","","","","","","","","","","","",""
"html-keyboard-response","43","286314","0.0-2.0-4.0","acluul8jn2pa5n7","instructions","5f21c94e3957f63e8322093f","5f60e3c0a3b16e07647b2ff9","5f60edc321c050010d62cb5d","false","4870.000000000058","<div align=left> Great!<br><br>Are you ready to continue?<br><br>If you want to reread the instructions and redo the practice trials, <br>please press „Z“. <br><br>Press SPACE to CONTINUE with the experiment when you are ready. </div>","32","","","","","","","","","","","","","","","","","","","",""
"html-keyboard-response","44","321426","0.0-3.0-0.0","acluul8jn2pa5n7","instructions","5f21c94e3957f63e8322093f","5f60e3c0a3b16e07647b2ff9","5f60edc321c050010d62cb5d","false","35111","<div align=left>Great!<br> <strong>Attention</strong>! You will now receive a second, additional task! <br><br>To this point it was you <strong>first task</strong> to correctly <strong>classify objects</strong>. <br><br>As mentioned in the beginning, we aim to examine how well humans can remember previously learned information.<br>We would like to find out whether our memory improves if we only remember information that is relevant to us. <br><br>Therefore, your <strong>second task</strong> will be to <strong>remember</strong> the pictures you are to categorize. <br> After the learning phase, there will be a memory test phase, in which you will be asked to indicate whether you have seen a picture before or not. <br>Some, but not all pictures shown in the learning phase will appear in the memory test phase.<br>After classifying a picture, you will be told whether you should remember it for the memory test phase or not. <br>Thus, some pictures can be forgotten, whereas others have to be remembered. <br><br>Note: From now on, feedback will only be displayed if you responded incorrectly or not in time.<br><br>Press SPACE to continue.</div>","32","","","","","","","","","","","","","","","","","","","",""
"html-keyboard-response","45","343256","0.0-3.0-1.0","acluul8jn2pa5n7","instructions","5f21c94e3957f63e8322093f","5f60e3c0a3b16e07647b2ff9","5f60edc321c050010d62cb5d","false","21828.99999999994","<div align=left>In the following part, you will thus have to remember only some pictures. <br>Immediately after seeing and classifying the picture, a symbol will be displayed, indicating whether you should remember or forget the previous picture. <br><br>A <span style='color: dodgerblue; font-size: 28px'>O</span> indicates REMEMBER. That means, you have to remember this picture, because it will be tested later. <br><br>A <span style='color: darkorange; font-size:28px'>Ø</span> indicates FORGET. You do not have to remember this picture. <br><br> As you will have to remember a lot of pictures, it will be hard for you to remember all of them. <br>It will put you at an advantage if you instantly forget the pictures you are not asked to remember. <br> This will make it easier for you to remember the pictures that will be tested afterwards. <br><br>Press SPACE to continue.</div>","32","","","","","","","","","","","","","","","","","","","",""
"html-keyboard-response","46","355471","0.0-3.0-2.0","acluul8jn2pa5n7","instructions","5f21c94e3957f63e8322093f","5f60e3c0a3b16e07647b2ff9","5f60edc321c050010d62cb5d","false","12214","<div align=left> Now you have the chance to practice both tasks together.<br><br>Remember: <br> <br><li>Please place your index fingers on the <strong>'S'</strong> and <strong>'L'</strong> keys <br>to respond as fast and accurately as possible.</li><li>Every picture can be classified as either mechanical or non-mechanical.</li><li>If you do not respond in time or commit an error, you will receive a corresponding feedback. <br>Please try to respond as <strong> fast </strong> and as <strong> accurately as possible </strong>.</li><li> Please remember only the to-be-remembered <span style='color: dodgerblue; font-size: 28px'>O</span> pictures. <br></li><li> Please minimize distractions and stay focused. </li><br><br>Press SPACE to START</div>","32","","","","","","","","","","","","","","","","","","","",""
"html-keyboard-response","47","356173","0.0-3.0-3.0-0.0","acluul8jn2pa5n7","practice_cue","5f21c94e3957f63e8322093f","5f60e3c0a3b16e07647b2ff9","5f60edc321c050010d62cb5d","false","null","<span style=""color: black; font-size: 48px"">N + M</span>","null","","","","resp_prompt","","","","","","","","","","","","","","","",""
"categorize-image","48","357162","0.0-3.0-3.0-1.0","acluul8jn2pa5n7","practice_cue","5f21c94e3957f63e8322093f","5f60e3c0a3b16e07647b2ff9","5f60edc321c050010d62cb5d","true","987","./Stimuli/ImagesPractice/LN109.jpg","83","","","","test","true","N + M","83","","LN","LN109.jpg","remember","old","17","2","practice_forget","left","","","",""
"html-keyboard-response","49","359164","0.0-3.0-3.0-3.0","acluul8jn2pa5n7","practice_cue","5f21c94e3957f63e8322093f","5f60e3c0a3b16e07647b2ff9","5f60edc321c050010d62cb5d","false","null","<div style=""align-items: center; display: flex; color: dodgerblue; font-size: 90px""><b>o</b></div>","null","","","","forget_cue","","","","","","","","","","","","","","","",""
"html-keyboard-response","50","359866","0.0-3.0-3.0-0.1","acluul8jn2pa5n7","practice_cue","5f21c94e3957f63e8322093f","5f60e3c0a3b16e07647b2ff9","5f60edc321c050010d62cb5d","false","null","<span style=""color: black; font-size: 48px"">M + N</span>","null","","","","resp_prompt","","","","","","","","","","","","","","","",""
"categorize-image","51","360717","0.0-3.0-3.0-1.1","acluul8jn2pa5n7","practice_cue","5f21c94e3957f63e8322093f","5f60e3c0a3b16e07647b2ff9","5f60edc321c050010d62cb5d","true","848","./Stimuli/ImagesPractice/SN221.jpg","76","","","","test","true","M + N","76","","SN","SN221.jpg","remember","old","18","2","practice_forget","right","","","",""
"html-keyboard-response","52","362718","0.0-3.0-3.0-3.1","acluul8jn2pa5n7","practice_cue","5f21c94e3957f63e8322093f","5f60e3c0a3b16e07647b2ff9","5f60edc321c050010d62cb5d","false","null","<div style=""align-items: center; display: flex; color: dodgerblue; font-size: 90px""><b>o</b></div>","null","","","","forget_cue","","","","","","","","","","","","","","","",""
"html-keyboard-response","53","363420","0.0-3.0-3.0-0.2","acluul8jn2pa5n7","practice_cue","5f21c94e3957f63e8322093f","5f60e3c0a3b16e07647b2ff9","5f60edc321c050010d62cb5d","false","null","<span style=""color: black; font-size: 48px"">M + N</span>","null","","","","resp_prompt","","","","","","","","","","","","","","","",""
"categorize-image","54","364355","0.0-3.0-3.0-1.2","acluul8jn2pa5n7","practice_cue","5f21c94e3957f63e8322093f","5f60e3c0a3b16e07647b2ff9","5f60edc321c050010d62cb5d","true","931.9999999999418","./Stimuli/ImagesPractice/SM37.jpg","83","","","","test","true","M + N","83","","SM","SM37.jpg","remember","old","19","2","practice_forget","left","","","",""
"html-keyboard-response","55","366356","0.0-3.0-3.0-3.2","acluul8jn2pa5n7","practice_cue","5f21c94e3957f63e8322093f","5f60e3c0a3b16e07647b2ff9","5f60edc321c050010d62cb5d","false","null","<div style=""align-items: center; display: flex; color: dodgerblue; font-size: 90px""><b>o</b></div>","null","","","","forget_cue","","","","","","","","","","","","","","","",""
"html-keyboard-response","56","367058","0.0-3.0-3.0-0.3","acluul8jn2pa5n7","practice_cue","5f21c94e3957f63e8322093f","5f60e3c0a3b16e07647b2ff9","5f60edc321c050010d62cb5d","false","null","<span style=""color: black; font-size: 48px"">N + M</span>","null","","","","resp_prompt","","","","","","","","","","","","","","","",""
"categorize-image","57","368056","0.0-3.0-3.0-1.3","acluul8jn2pa5n7","practice_cue","5f21c94e3957f63e8322093f","5f60e3c0a3b16e07647b2ff9","5f60edc321c050010d62cb5d","true","995.9999999999418","./Stimuli/ImagesPractice/LN2.jpg","83","","","","test","true","N + M","83","","LN","LN2.jpg","forget","old","20","2","practice_forget","left","","","",""
"html-keyboard-response","58","370058","0.0-3.0-3.0-3.3","acluul8jn2pa5n7","practice_cue","5f21c94e3957f63e8322093f","5f60e3c0a3b16e07647b2ff9","5f60edc321c050010d62cb5d","false","null","<div style=""align-items: center; display: flex; color: darkorange; font-size: 90px""><b>ø</b></div>","null","","","","forget_cue","","","","","","","","","","","","","","","",""
"html-keyboard-response","59","370760","0.0-3.0-3.0-0.4","acluul8jn2pa5n7","practice_cue","5f21c94e3957f63e8322093f","5f60e3c0a3b16e07647b2ff9","5f60edc321c050010d62cb5d","false","null","<span style=""color: black; font-size: 48px"">N + M</span>","null","","","","resp_prompt","","","","","","","","","","","","","","","",""
"categorize-image","60","372079","0.0-3.0-3.0-1.4","acluul8jn2pa5n7","practice_cue","5f21c94e3957f63e8322093f","5f60e3c0a3b16e07647b2ff9","5f60edc321c050010d62cb5d","true","1316","./Stimuli/ImagesPractice/SN75.jpg","83","","","","test","true","N + M","83","","SN","SN75.jpg","forget","old","21","2","practice_forget","left","","","",""
"html-keyboard-response","61","374081","0.0-3.0-3.0-3.4","acluul8jn2pa5n7","practice_cue","5f21c94e3957f63e8322093f","5f60e3c0a3b16e07647b2ff9","5f60edc321c050010d62cb5d","false","null","<div style=""align-items: center; display: flex; color: darkorange; font-size: 90px""><b>ø</b></div>","null","","","","forget_cue","","","","","","","","","","","","","","","",""
"html-keyboard-response","62","374783","0.0-3.0-3.0-0.5","acluul8jn2pa5n7","practice_cue","5f21c94e3957f63e8322093f","5f60e3c0a3b16e07647b2ff9","5f60edc321c050010d62cb5d","false","null","<span style=""color: black; font-size: 48px"">N + M</span>","null","","","","resp_prompt","","","","","","","","","","","","","","","",""
"categorize-image","63","376004","0.0-3.0-3.0-1.5","acluul8jn2pa5n7","practice_cue","5f21c94e3957f63e8322093f","5f60e3c0a3b16e07647b2ff9","5f60edc321c050010d62cb5d","true","1219","./Stimuli/ImagesPractice/LM224.jpg","76","","","","test","true","N + M","76","","LM","LM224.jpg","remember","old","22","2","practice_forget","right","","","",""
"html-keyboard-response","64","378006","0.0-3.0-3.0-3.5","acluul8jn2pa5n7","practice_cue","5f21c94e3957f63e8322093f","5f60e3c0a3b16e07647b2ff9","5f60edc321c050010d62cb5d","false","null","<div style=""align-items: center; display: flex; color: dodgerblue; font-size: 90px""><b>o</b></div>","null","","","","forget_cue","","","","","","","","","","","","","","","",""
"html-keyboard-response","65","378708","0.0-3.0-3.0-0.6","acluul8jn2pa5n7","practice_cue","5f21c94e3957f63e8322093f","5f60e3c0a3b16e07647b2ff9","5f60edc321c050010d62cb5d","false","null","<span style=""color: black; font-size: 48px"">M + N</span>","null","","","","resp_prompt","","","","","","","","","","","","","","","",""
"categorize-image","66","379857","0.0-3.0-3.0-1.6","acluul8jn2pa5n7","practice_cue","5f21c94e3957f63e8322093f","5f60e3c0a3b16e07647b2ff9","5f60edc321c050010d62cb5d","true","1147","./Stimuli/ImagesPractice/LM230.jpg","83","","","","test","true","M + N","83","","LM","LM230.jpg","forget","old","23","2","practice_forget","left","","","",""
"html-keyboard-response","67","381859","0.0-3.0-3.0-3.6","acluul8jn2pa5n7","practice_cue","5f21c94e3957f63e8322093f","5f60e3c0a3b16e07647b2ff9","5f60edc321c050010d62cb5d","false","null","<div style=""align-items: center; display: flex; color: darkorange; font-size: 90px""><b>ø</b></div>","null","","","","forget_cue","","","","","","","","","","","","","","","",""
"html-keyboard-response","68","382561","0.0-3.0-3.0-0.7","acluul8jn2pa5n7","practice_cue","5f21c94e3957f63e8322093f","5f60e3c0a3b16e07647b2ff9","5f60edc321c050010d62cb5d","false","null","<span style=""color: black; font-size: 48px"">N + M</span>","null","","","","resp_prompt","","","","","","","","","","","","","","","",""
"categorize-image","69","384149","0.0-3.0-3.0-1.7","acluul8jn2pa5n7","practice_cue","5f21c94e3957f63e8322093f","5f60e3c0a3b16e07647b2ff9","5f60edc321c050010d62cb5d","true","1585.0000000000582","./Stimuli/ImagesPractice/LN72.jpg","83","","","","test","true","N + M","83","","LN","LN72.jpg","forget","old","24","2","practice_forget","left","","","",""
"html-keyboard-response","70","386151","0.0-3.0-3.0-3.7","acluul8jn2pa5n7","practice_cue","5f21c94e3957f63e8322093f","5f60e3c0a3b16e07647b2ff9","5f60edc321c050010d62cb5d","false","null","<div style=""align-items: center; display: flex; color: darkorange; font-size: 90px""><b>ø</b></div>","null","","","","forget_cue","","","","","","","","","","","","","","","",""
"html-keyboard-response","71","386853","0.0-3.0-3.0-0.8","acluul8jn2pa5n7","practice_cue","5f21c94e3957f63e8322093f","5f60e3c0a3b16e07647b2ff9","5f60edc321c050010d62cb5d","false","null","<span style=""color: black; font-size: 48px"">M + N</span>","null","","","","resp_prompt","","","","","","","","","","","","","","","",""
"categorize-image","72","387688","0.0-3.0-3.0-1.8","acluul8jn2pa5n7","practice_cue","5f21c94e3957f63e8322093f","5f60e3c0a3b16e07647b2ff9","5f60edc321c050010d62cb5d","true","833","./Stimuli/ImagesPractice/SM97.jpg","83","","","","test","true","M + N","83","","SM","SM97.jpg","remember","old","25","2","practice_forget","left","","","",""
"html-keyboard-response","73","389689","0.0-3.0-3.0-3.8","acluul8jn2pa5n7","practice_cue","5f21c94e3957f63e8322093f","5f60e3c0a3b16e07647b2ff9","5f60edc321c050010d62cb5d","false","null","<div style=""align-items: center; display: flex; color: dodgerblue; font-size: 90px""><b>o</b></div>","null","","","","forget_cue","","","","","","","","","","","","","","","",""
"html-keyboard-response","74","390391","0.0-3.0-3.0-0.9","acluul8jn2pa5n7","practice_cue","5f21c94e3957f63e8322093f","5f60e3c0a3b16e07647b2ff9","5f60edc321c050010d62cb5d","false","null","<span style=""color: black; font-size: 48px"">M + N</span>","null","","","","resp_prompt","","","","","","","","","","","","","","","",""
"categorize-image","75","391292","0.0-3.0-3.0-1.9","acluul8jn2pa5n7","practice_cue","5f21c94e3957f63e8322093f","5f60e3c0a3b16e07647b2ff9","5f60edc321c050010d62cb5d","true","898","./Stimuli/ImagesPractice/SM98.jpg","83","","","","test","true","M + N","83","","SM","SM98.jpg","forget","old","26","2","practice_forget","left","","","",""
"html-keyboard-response","76","393294","0.0-3.0-3.0-3.9","acluul8jn2pa5n7","practice_cue","5f21c94e3957f63e8322093f","5f60e3c0a3b16e07647b2ff9","5f60edc321c050010d62cb5d","false","null","<div style=""align-items: center; display: flex; color: darkorange; font-size: 90px""><b>ø</b></div>","null","","","","forget_cue","","","","","","","","","","","","","","","",""
"html-keyboard-response","77","393996","0.0-3.0-3.0-0.10","acluul8jn2pa5n7","practice_cue","5f21c94e3957f63e8322093f","5f60e3c0a3b16e07647b2ff9","5f60edc321c050010d62cb5d","false","null","<span style=""color: black; font-size: 48px"">M + N</span>","null","","","","resp_prompt","","","","","","","","","","","","","","","",""
"categorize-image","78","394956","0.0-3.0-3.0-1.10","acluul8jn2pa5n7","practice_cue","5f21c94e3957f63e8322093f","5f60e3c0a3b16e07647b2ff9","5f60edc321c050010d62cb5d","true","957","./Stimuli/ImagesPractice/LN17.jpg","76","","","","test","true","M + N","76","","LN","LN17.jpg","remember","old","27","2","practice_forget","right","","","",""
"html-keyboard-response","79","396957","0.0-3.0-3.0-3.10","acluul8jn2pa5n7","practice_cue","5f21c94e3957f63e8322093f","5f60e3c0a3b16e07647b2ff9","5f60edc321c050010d62cb5d","false","null","<div style=""align-items: center; display: flex; color: dodgerblue; font-size: 90px""><b>o</b></div>","null","","","","forget_cue","","","","","","","","","","","","","","","",""
"html-keyboard-response","80","397659","0.0-3.0-3.0-0.11","acluul8jn2pa5n7","practice_cue","5f21c94e3957f63e8322093f","5f60e3c0a3b16e07647b2ff9","5f60edc321c050010d62cb5d","false","null","<span style=""color: black; font-size: 48px"">N + M</span>","null","","","","resp_prompt","","","","","","","","","","","","","","","",""
"categorize-image","81","398655","0.0-3.0-3.0-1.11","acluul8jn2pa5n7","practice_cue","5f21c94e3957f63e8322093f","5f60e3c0a3b16e07647b2ff9","5f60edc321c050010d62cb5d","true","993","./Stimuli/ImagesPractice/SN222.jpg","83","","","","test","true","N + M","83","","SN","SN222.jpg","remember","old","28","2","practice_forget","left","","","",""
"html-keyboard-response","82","400656","0.0-3.0-3.0-3.11","acluul8jn2pa5n7","practice_cue","5f21c94e3957f63e8322093f","5f60e3c0a3b16e07647b2ff9","5f60edc321c050010d62cb5d","false","null","<div style=""align-items: center; display: flex; color: dodgerblue; font-size: 90px""><b>o</b></div>","null","","","","forget_cue","","","","","","","","","","","","","","","",""
"html-keyboard-response","83","401359","0.0-3.0-3.0-0.12","acluul8jn2pa5n7","practice_cue","5f21c94e3957f63e8322093f","5f60e3c0a3b16e07647b2ff9","5f60edc321c050010d62cb5d","false","null","<span style=""color: black; font-size: 48px"">M + N</span>","null","","","","resp_prompt","","","","","","","","","","","","","","","",""
"categorize-image","84","402234","0.0-3.0-3.0-1.12","acluul8jn2pa5n7","practice_cue","5f21c94e3957f63e8322093f","5f60e3c0a3b16e07647b2ff9","5f60edc321c050010d62cb5d","true","873","./Stimuli/ImagesPractice/SM35.jpg","83","","","","test","true","M + N","83","","SM","SM35.jpg","forget","old","29","2","practice_forget","left","","","",""
"html-keyboard-response","85","404236","0.0-3.0-3.0-3.12","acluul8jn2pa5n7","practice_cue","5f21c94e3957f63e8322093f","5f60e3c0a3b16e07647b2ff9","5f60edc321c050010d62cb5d","false","null","<div style=""align-items: center; display: flex; color: darkorange; font-size: 90px""><b>ø</b></div>","null","","","","forget_cue","","","","","","","","","","","","","","","",""
"html-keyboard-response","86","404938","0.0-3.0-3.0-0.13","acluul8jn2pa5n7","practice_cue","5f21c94e3957f63e8322093f","5f60e3c0a3b16e07647b2ff9","5f60edc321c050010d62cb5d","false","null","<span style=""color: black; font-size: 48px"">N + M</span>","null","","","","resp_prompt","","","","","","","","","","","","","","","",""
"categorize-image","87","406218","0.0-3.0-3.0-1.13","acluul8jn2pa5n7","practice_cue","5f21c94e3957f63e8322093f","5f60e3c0a3b16e07647b2ff9","5f60edc321c050010d62cb5d","true","1277","./Stimuli/ImagesPractice/LM143.jpg","76","","","","test","true","N + M","76","","LM","LM143.jpg","forget","old","30","2","practice_forget","right","","","",""
"html-keyboard-response","88","408220","0.0-3.0-3.0-3.13","acluul8jn2pa5n7","practice_cue","5f21c94e3957f63e8322093f","5f60e3c0a3b16e07647b2ff9","5f60edc321c050010d62cb5d","false","null","<div style=""align-items: center; display: flex; color: darkorange; font-size: 90px""><b>ø</b></div>","null","","","","forget_cue","","","","","","","","","","","","","","","",""
"html-keyboard-response","89","408921","0.0-3.0-3.0-0.14","acluul8jn2pa5n7","practice_cue","5f21c94e3957f63e8322093f","5f60e3c0a3b16e07647b2ff9","5f60edc321c050010d62cb5d","false","null","<span style=""color: black; font-size: 48px"">N + M</span>","null","","","","resp_prompt","","","","","","","","","","","","","","","",""
"categorize-image","90","410057","0.0-3.0-3.0-1.14","acluul8jn2pa5n7","practice_cue","5f21c94e3957f63e8322093f","5f60e3c0a3b16e07647b2ff9","5f60edc321c050010d62cb5d","true","1133.9999999999418","./Stimuli/ImagesPractice/SN205.jpg","83","","","","test","true","N + M","83","","SN","SN205.jpg","remember","old","31","2","practice_forget","left","","","",""
"html-keyboard-response","91","412058","0.0-3.0-3.0-3.14","acluul8jn2pa5n7","practice_cue","5f21c94e3957f63e8322093f","5f60e3c0a3b16e07647b2ff9","5f60edc321c050010d62cb5d","false","null","<div style=""align-items: center; display: flex; color: dodgerblue; font-size: 90px""><b>o</b></div>","null","","","","forget_cue","","","","","","","","","","","","","","","",""
"html-keyboard-response","92","412760","0.0-3.0-3.0-0.15","acluul8jn2pa5n7","practice_cue","5f21c94e3957f63e8322093f","5f60e3c0a3b16e07647b2ff9","5f60edc321c050010d62cb5d","false","null","<span style=""color: black; font-size: 48px"">M + N</span>","null","","","","resp_prompt","","","","","","","","","","","","","","","",""
"categorize-image","93","413788","0.0-3.0-3.0-1.15","acluul8jn2pa5n7","practice_cue","5f21c94e3957f63e8322093f","5f60e3c0a3b16e07647b2ff9","5f60edc321c050010d62cb5d","true","1025.9999999999418","./Stimuli/ImagesPractice/SM62.jpg","83","","","","test","true","M + N","83","","SM","SM62.jpg","forget","old","32","2","practice_forget","left","","","",""
"html-keyboard-response","94","415789","0.0-3.0-3.0-3.15","acluul8jn2pa5n7","practice_cue","5f21c94e3957f63e8322093f","5f60e3c0a3b16e07647b2ff9","5f60edc321c050010d62cb5d","false","null","<div style=""align-items: center; display: flex; color: darkorange; font-size: 90px""><b>ø</b></div>","null","","","","forget_cue","","","","","","","","","","","","","","","",""
"html-keyboard-response","95","421898","0.0-3.0-4.0","acluul8jn2pa5n7","break","5f21c94e3957f63e8322093f","5f60e3c0a3b16e07647b2ff9","5f60edc321c050010d62cb5d","false","6108","<p style='font-size: 32px;'>Break</><br><br><br><br><br><p style='font-size: 24px;'>In the last block, you committed 0 errors and did not respond in time on 0 trials.
</p><p style='font-size: 24px;'>Try to respond as fast and accurately as possible in the next block as well! </p><p style='font-size: 24px;'>Press SPACE to continue.</p>","32","","","","","","","","","","","","","","","","","","","",""
"html-keyboard-response","96","454369","0.0-3.0-5.0","acluul8jn2pa5n7","instructions","5f21c94e3957f63e8322093f","5f60e3c0a3b16e07647b2ff9","5f60edc321c050010d62cb5d","false","32471","<div align=left> Now, to practice, we kindly ask you to remember as many of the to-be-remembered pictures<br>of the previous learning phase as possible.<br><br>The pictures you were instructed to remember were the pictures followed by a <span style='color: dodgerblue; font-size: 28px'>O</span>.<br><br>In this memory test phase, you will also see some new pictures.<br>It is your task to remember whether you were presented with this specific picture in this study so far or not.<br>If you recognize an object (you have already seen it in this study), it is an OLD object. <br>If you do not recognize an object (you have NOT seen it in this study), it is a NEW object. <br><strong> Attention</strong>: As already mentioned, <span style='color: darkorange; font-size:28px'>Ø</span>-pictures will <strong>never</strong> appear in this memory test (neither as new objects). <br><br>Press SPACE to continue. </div>","32","","","","","","","","","","","","","","","","","","","",""
"html-keyboard-response","97","521359","0.0-3.0-6.0","acluul8jn2pa5n7","instructions","5f21c94e3957f63e8322093f","5f60e3c0a3b16e07647b2ff9","5f60edc321c050010d62cb5d","false","66990.00000000006","<div align=left> M and N no longer will appear on the left/right of the fixation cross. <br>Instead there will be a note at the bottom of the left or right side  <br>indicating which key you should press for an old or new object:  <br> <br>Press the <strong>right</strong> key to classify an object as <strong>old</strong> and press the <strong>left</strong>, to classify an object as <strong>new</strong>.<br>Please classify the objects as new/old by again placing your index finger on the 'S' and 'L' keys <br>and press them accordingly.<br><br><strong>Old:</strong> This object has been presented before. <br><strong>New:</strong> This object has <strong>not</strong> been presented.<br><br>Now please put your right and left index fingers on the 'S' and 'L' keys of your keyboard. <br>Please respond as fast and as accurately as possible!<br><br>Press SPACE to continue. </div>","32","","","","","","","","","","","","","","","","","","","",""
"categorize-image","98","523265","0.0-3.0-7.0-0.0","acluul8jn2pa5n7","practice_recog","5f21c94e3957f63e8322093f","5f60e3c0a3b16e07647b2ff9","5f60edc321c050010d62cb5d","true","1402.9999999999418","./Stimuli/ImagesPractice/SM37.jpg","76","","","","test","true","","76","","SM","SM37.jpg","","old","33","3","practice_recog","right","","","",""
"categorize-image","99","525040","0.0-3.0-7.0-0.1","acluul8jn2pa5n7","practice_recog","5f21c94e3957f63e8322093f","5f60e3c0a3b16e07647b2ff9","5f60edc321c050010d62cb5d","true","1272","./Stimuli/ImagesPractice/LN15.jpg","83","","","","test","true","","83","","LN","LN15.jpg","","new","34","3","practice_recog","left","","","",""
"categorize-image","100","526477","0.0-3.0-7.0-0.2","acluul8jn2pa5n7","practice_recog","5f21c94e3957f63e8322093f","5f60e3c0a3b16e07647b2ff9","5f60edc321c050010d62cb5d","true","935","./Stimuli/ImagesPractice/LM147.jpg","76","","","","test","false","","83","","LM","LM147.jpg","","new","35","3","practice_recog","right","","","",""
"categorize-image","101","527972","0.0-3.0-7.0-0.3","acluul8jn2pa5n7","practice_recog","5f21c94e3957f63e8322093f","5f60e3c0a3b16e07647b2ff9","5f60edc321c050010d62cb5d","true","992","./Stimuli/ImagesPractice/LM239.jpg","83","","","","test","true","","83","","LM","LM239.jpg","","new","36","3","practice_recog","left","","","",""
"categorize-image","102","529383","0.0-3.0-7.0-0.4","acluul8jn2pa5n7","practice_recog","5f21c94e3957f63e8322093f","5f60e3c0a3b16e07647b2ff9","5f60edc321c050010d62cb5d","true","908","./Stimuli/ImagesPractice/LM224.jpg","76","","","","test","true","","76","","LM","LM224.jpg","","old","37","3","practice_recog","right","","","",""
"categorize-image","103","531557","0.0-3.0-7.0-0.5","acluul8jn2pa5n7","practice_recog","5f21c94e3957f63e8322093f","5f60e3c0a3b16e07647b2ff9","5f60edc321c050010d62cb5d","true","1672","./Stimuli/ImagesPractice/LM55.jpg","83","","","","test","true","","83","","LM","LM55.jpg","","new","38","3","practice_recog","left","","","",""
"categorize-image","104","533282","0.0-3.0-7.0-0.6","acluul8jn2pa5n7","practice_recog","5f21c94e3957f63e8322093f","5f60e3c0a3b16e07647b2ff9","5f60edc321c050010d62cb5d","true","1223","./Stimuli/ImagesPractice/SN76.jpg","83","","","","test","true","","83","","SN","SN76.jpg","","new","39","3","practice_recog","left","","","",""
"categorize-image","105","534919","0.0-3.0-7.0-0.7","acluul8jn2pa5n7","practice_recog","5f21c94e3957f63e8322093f","5f60e3c0a3b16e07647b2ff9","5f60edc321c050010d62cb5d","true","1135","./Stimuli/ImagesPractice/LN109.jpg","76","","","","test","true","","76","","LN","LN109.jpg","","old","40","3","practice_recog","right","","","",""
"categorize-image","106","536319","0.0-3.0-7.0-0.8","acluul8jn2pa5n7","practice_recog","5f21c94e3957f63e8322093f","5f60e3c0a3b16e07647b2ff9","5f60edc321c050010d62cb5d","true","899","./Stimuli/ImagesPractice/SN220.jpg","83","","","","test","true","","83","","SN","SN220.jpg","","new","41","3","practice_recog","left","","","",""
"categorize-image","107","538131","0.0-3.0-7.0-0.9","acluul8jn2pa5n7","practice_recog","5f21c94e3957f63e8322093f","5f60e3c0a3b16e07647b2ff9","5f60edc321c050010d62cb5d","true","1310","./Stimuli/ImagesPractice/SM61.jpg","83","","","","test","true","","83","","SM","SM61.jpg","","new","42","3","practice_recog","left","","","",""
"categorize-image","108","539524","0.0-3.0-7.0-0.10","acluul8jn2pa5n7","practice_recog","5f21c94e3957f63e8322093f","5f60e3c0a3b16e07647b2ff9","5f60edc321c050010d62cb5d","true","891.0000000001164","./Stimuli/ImagesPractice/LN4.jpg","83","","","","test","true","","83","","LN","LN4.jpg","","new","43","3","practice_recog","left","","","",""
"categorize-image","109","540988","0.0-3.0-7.0-0.11","acluul8jn2pa5n7","practice_recog","5f21c94e3957f63e8322093f","5f60e3c0a3b16e07647b2ff9","5f60edc321c050010d62cb5d","true","962","./Stimuli/ImagesPractice/SN222.jpg","76","","","","test","true","","76","","SN","SN222.jpg","","old","44","3","practice_recog","right","","","",""
"categorize-image","110","542466","0.0-3.0-7.0-0.12","acluul8jn2pa5n7","practice_recog","5f21c94e3957f63e8322093f","5f60e3c0a3b16e07647b2ff9","5f60edc321c050010d62cb5d","true","976","./Stimuli/ImagesPractice/LN17.jpg","76","","","","test","true","","76","","LN","LN17.jpg","","old","45","3","practice_recog","right","","","",""
"categorize-image","111","544014","0.0-3.0-7.0-0.13","acluul8jn2pa5n7","practice_recog","5f21c94e3957f63e8322093f","5f60e3c0a3b16e07647b2ff9","5f60edc321c050010d62cb5d","true","1045","./Stimuli/ImagesPractice/SM97.jpg","76","","","","test","true","","76","","SM","SM97.jpg","","old","46","3","practice_recog","right","","","",""
"categorize-image","112","545424","0.0-3.0-7.0-0.14","acluul8jn2pa5n7","practice_recog","5f21c94e3957f63e8322093f","5f60e3c0a3b16e07647b2ff9","5f60edc321c050010d62cb5d","true","908","./Stimuli/ImagesPractice/SN221.jpg","76","","","","test","true","","76","","SN","SN221.jpg","","old","47","3","practice_recog","right","","","",""
"categorize-image","113","546843","0.0-3.0-7.0-0.15","acluul8jn2pa5n7","practice_recog","5f21c94e3957f63e8322093f","5f60e3c0a3b16e07647b2ff9","5f60edc321c050010d62cb5d","true","917","./Stimuli/ImagesPractice/SN205.jpg","76","","","","test","true","","76","","SN","SN205.jpg","","old","48","3","practice_recog","right","","","",""
"html-keyboard-response","114","555814","0.0-3.0-8.0","acluul8jn2pa5n7","instructions","5f21c94e3957f63e8322093f","5f60e3c0a3b16e07647b2ff9","5f60edc321c050010d62cb5d","false","8971","<div align=left> Great!<br><br>Are you ready to continue?<br>If you want to reread the instructions and redo the practice trials, please <br>press „Z“.<br><br>You can proceed when you are ready.<br><br>After the presentation of each object, you will receive an instruction whether to <br>remember or to forget the object.<br>We will test your memory of the following pictures only at the very end of <br>the experiment after all learning blocks are completed. <br><br>Press SPACE to CONTINUE when you are ready. </div>","32","","","","","","","","","","","","","","","","","","","",""
"html-keyboard-response","115","578995","0.0-4.0-0.0","acluul8jn2pa5n7","instructions","5f21c94e3957f63e8322093f","5f60e3c0a3b16e07647b2ff9","5f60edc321c050010d62cb5d","false","23180","<div align=left> The actual experiment is about to start.<br>The practice trials are over!<br><br>Please always respond both fast and accurately!<br><br>Remember: <br> <br><li> Please place your index fingers on the <strong>'S'</strong> and <strong>'L'</strong> keys <br>to respond as fast and accurately as possible.</li><li> Every picture can be classified as either mechanical or non-mechanical.</li><li> If you do not respond in time or commit an error, you will receive a corresponding feedback.<br> Please try to respond as <strong> fast </strong> and as <strong> accurately as possible </strong>.</li><li> Remember the <span style='color: dodgerblue; font-size: 28px'>O</span> pictures. <br></li><li> Please minimize distractions and stay focused. </li><br><br>Press SPACE to START.</div>","32","","","","","","","","","","","","","","","","","","","",""
"html-keyboard-response","116","579697","0.0-4.0-1.0-0.0","acluul8jn2pa5n7","prime","5f21c94e3957f63e8322093f","5f60e3c0a3b16e07647b2ff9","5f60edc321c050010d62cb5d","false","null","<span style=""color: black; font-size: 48px"">M + N</span>","null","","","","resp_prompt","","","","","","","","","","","","","","","",""
"categorize-image","117","580695","0.0-4.0-1.0-1.0","acluul8jn2pa5n7","prime","5f21c94e3957f63e8322093f","5f60e3c0a3b16e07647b2ff9","5f60edc321c050010d62cb5d","true","996","./Stimuli/SelectedImages/SN/SN18.bmp","76","","","","test","true","M + N","76","switch","SN","SN18.bmp","remember","","49","3","prime1","right","","","",""
"html-keyboard-response","118","582697","0.0-4.0-1.0-3.0","acluul8jn2pa5n7","prime","5f21c94e3957f63e8322093f","5f60e3c0a3b16e07647b2ff9","5f60edc321c050010d62cb5d","false","null","<div style=""align-items: center; display: flex; color: dodgerblue; font-size: 90px""><b>o</b></div>","null","","","","forget_cue","","","","","","","","","","","","","","","",""
"html-keyboard-response","119","583399","0.0-4.0-1.0-0.1","acluul8jn2pa5n7","prime","5f21c94e3957f63e8322093f","5f60e3c0a3b16e07647b2ff9","5f60edc321c050010d62cb5d","false","null","<span style=""color: black; font-size: 48px"">M + N</span>","null","","","","resp_prompt","","","","","","","","","","","","","","","",""
"categorize-image","120","584538","0.0-4.0-1.0-1.1","acluul8jn2pa5n7","prime","5f21c94e3957f63e8322093f","5f60e3c0a3b16e07647b2ff9","5f60edc321c050010d62cb5d","true","1137","./Stimuli/SelectedImages/LM/LM57.bmp","83","","","","test","true","M + N","83","switch","LM","LM57.bmp","remember","","50","3","prime1","left","","","",""
"html-keyboard-response","121","586540","0.0-4.0-1.0-3.1","acluul8jn2pa5n7","prime","5f21c94e3957f63e8322093f","5f60e3c0a3b16e07647b2ff9","5f60edc321c050010d62cb5d","false","null","<div style=""align-items: center; display: flex; color: dodgerblue; font-size: 90px""><b>o</b></div>","null","","","","forget_cue","","","","","","","","","","","","","","","",""
"html-keyboard-response","122","587241","0.0-4.0-1.0-0.2","acluul8jn2pa5n7","prime","5f21c94e3957f63e8322093f","5f60e3c0a3b16e07647b2ff9","5f60edc321c050010d62cb5d","false","null","<span style=""color: black; font-size: 48px"">N + M</span>","null","","","","resp_prompt","","","","","","","","","","","","","","","",""
"categorize-image","123","588244","0.0-4.0-1.0-1.2","acluul8jn2pa5n7","prime","5f21c94e3957f63e8322093f","5f60e3c0a3b16e07647b2ff9","5f60edc321c050010d62cb5d","true","1000","./Stimuli/SelectedImages/SN/SN111.bmp","83","","","","test","true","N + M","83","switch","SN","SN111.bmp","remember","","51","3","prime1","left","","","",""
"html-keyboard-response","124","590246","0.0-4.0-1.0-3.2","acluul8jn2pa5n7","prime","5f21c94e3957f63e8322093f","5f60e3c0a3b16e07647b2ff9","5f60edc321c050010d62cb5d","false","null","<div style=""align-items: center; display: flex; color: dodgerblue; font-size: 90px""><b>o</b></div>","null","","","","forget_cue","","","","","","","","","","","","","","","",""
"html-keyboard-response","125","590947","0.0-4.0-1.0-0.3","acluul8jn2pa5n7","prime","5f21c94e3957f63e8322093f","5f60e3c0a3b16e07647b2ff9","5f60edc321c050010d62cb5d","false","null","<span style=""color: black; font-size: 48px"">M + N</span>","null","","","","resp_prompt","","","","","","","","","","","","","","","",""
"categorize-image","126","592189","0.0-4.0-1.0-1.3","acluul8jn2pa5n7","prime","5f21c94e3957f63e8322093f","5f60e3c0a3b16e07647b2ff9","5f60edc321c050010d62cb5d","true","1240","./Stimuli/SelectedImages/LM/LM75.bmp","83","","","","test","true","M + N","83","repetition","LM","LM75.bmp","forget","","52","3","prime1","left","","","",""
"html-keyboard-response","127","594191","0.0-4.0-1.0-3.3","acluul8jn2pa5n7","prime","5f21c94e3957f63e8322093f","5f60e3c0a3b16e07647b2ff9","5f60edc321c050010d62cb5d","false","null","<div style=""align-items: center; display: flex; color: darkorange; font-size: 90px""><b>ø</b></div>","null","","","","forget_cue","","","","","","","","","","","","","","","",""
"html-keyboard-response","128","594893","0.0-4.0-1.0-0.4","acluul8jn2pa5n7","prime","5f21c94e3957f63e8322093f","5f60e3c0a3b16e07647b2ff9","5f60edc321c050010d62cb5d","false","null","<span style=""color: black; font-size: 48px"">N + M</span>","null","","","","resp_prompt","","","","","","","","","","","","","","","",""
"categorize-image","129","595999","0.0-4.0-1.0-1.4","acluul8jn2pa5n7","prime","5f21c94e3957f63e8322093f","5f60e3c0a3b16e07647b2ff9","5f60edc321c050010d62cb5d","true","1103","./Stimuli/SelectedImages/LN/LN82.bmp","83","","","","test","true","N + M","83","repetition","LN","LN82.bmp","remember","","53","3","prime1","left","","","",""
"html-keyboard-response","130","598001","0.0-4.0-1.0-3.4","acluul8jn2pa5n7","prime","5f21c94e3957f63e8322093f","5f60e3c0a3b16e07647b2ff9","5f60edc321c050010d62cb5d","false","null","<div style=""align-items: center; display: flex; color: dodgerblue; font-size: 90px""><b>o</b></div>","null","","","","forget_cue","","","","","","","","","","","","","","","",""
"html-keyboard-response","131","598703","0.0-4.0-1.0-0.5","acluul8jn2pa5n7","prime","5f21c94e3957f63e8322093f","5f60e3c0a3b16e07647b2ff9","5f60edc321c050010d62cb5d","false","null","<span style=""color: black; font-size: 48px"">M + N</span>","null","","","","resp_prompt","","","","","","","","","","","","","","","",""
"categorize-image","132","599792","0.0-4.0-1.0-1.5","acluul8jn2pa5n7","prime","5f21c94e3957f63e8322093f","5f60e3c0a3b16e07647b2ff9","5f60edc321c050010d62cb5d","true","1086","./Stimuli/SelectedImages/LM/LM58.bmp","83","","","","test","true","M + N","83","repetition","LM","LM58.bmp","remember","","54","3","prime1","left","","","",""
"html-keyboard-response","133","601794","0.0-4.0-1.0-3.5","acluul8jn2pa5n7","prime","5f21c94e3957f63e8322093f","5f60e3c0a3b16e07647b2ff9","5f60edc321c050010d62cb5d","false","null","<div style=""align-items: center; display: flex; color: dodgerblue; font-size: 90px""><b>o</b></div>","null","","","","forget_cue","","","","","","","","","","","","","","","",""
"html-keyboard-response","134","602495","0.0-4.0-1.0-0.6","acluul8jn2pa5n7","prime","5f21c94e3957f63e8322093f","5f60e3c0a3b16e07647b2ff9","5f60edc321c050010d62cb5d","false","null","<span style=""color: black; font-size: 48px"">M + N</span>","null","","","","resp_prompt","","","","","","","","","","","","","","","",""
"categorize-image","135","603291","0.0-4.0-1.0-1.6","acluul8jn2pa5n7","prime","5f21c94e3957f63e8322093f","5f60e3c0a3b16e07647b2ff9","5f60edc321c050010d62cb5d","true","794","./Stimuli/SelectedImages/SN/SN52.bmp","76","","","","test","true","M + N","76","switch","SN","SN52.bmp","forget","","55","3","prime1","right","","","",""
"html-keyboard-response","136","605293","0.0-4.0-1.0-3.6","acluul8jn2pa5n7","prime","5f21c94e3957f63e8322093f","5f60e3c0a3b16e07647b2ff9","5f60edc321c050010d62cb5d","false","null","<div style=""align-items: center; display: flex; color: darkorange; font-size: 90px""><b>ø</b></div>","null","","","","forget_cue","","","","","","","","","","","","","","","",""
"html-keyboard-response","137","605995","0.0-4.0-1.0-0.7","acluul8jn2pa5n7","prime","5f21c94e3957f63e8322093f","5f60e3c0a3b16e07647b2ff9","5f60edc321c050010d62cb5d","false","null","<span style=""color: black; font-size: 48px"">M + N</span>","null","","","","resp_prompt","","","","","","","","","","","","","","","",""
"categorize-image","138","607295","0.0-4.0-1.0-1.7","acluul8jn2pa5n7","prime","5f21c94e3957f63e8322093f","5f60e3c0a3b16e07647b2ff9","5f60edc321c050010d62cb5d","true","1297","./Stimuli/SelectedImages/SM/SM24.bmp","83","","","","test","true","M + N","83","repetition","SM","SM24.bmp","remember","","56","3","prime1","left","","","",""
"html-keyboard-response","139","609296","0.0-4.0-1.0-3.7","acluul8jn2pa5n7","prime","5f21c94e3957f63e8322093f","5f60e3c0a3b16e07647b2ff9","5f60edc321c050010d62cb5d","false","null","<div style=""align-items: center; display: flex; color: dodgerblue; font-size: 90px""><b>o</b></div>","null","","","","forget_cue","","","","","","","","","","","","","","","",""
"html-keyboard-response","140","609998","0.0-4.0-1.0-0.8","acluul8jn2pa5n7","prime","5f21c94e3957f63e8322093f","5f60e3c0a3b16e07647b2ff9","5f60edc321c050010d62cb5d","false","null","<span style=""color: black; font-size: 48px"">N + M</span>","null","","","","resp_prompt","","","","","","","","","","","","","","","",""
"categorize-image","141","610960","0.0-4.0-1.0-1.8","acluul8jn2pa5n7","prime","5f21c94e3957f63e8322093f","5f60e3c0a3b16e07647b2ff9","5f60edc321c050010d62cb5d","true","960","./Stimuli/SelectedImages/LM/LM150.bmp","76","","","","test","true","N + M","76","switch","LM","LM150.bmp","remember","","57","3","prime1","right","","","",""
"html-keyboard-response","142","612961","0.0-4.0-1.0-3.8","acluul8jn2pa5n7","prime","5f21c94e3957f63e8322093f","5f60e3c0a3b16e07647b2ff9","5f60edc321c050010d62cb5d","false","null","<div style=""align-items: center; display: flex; color: dodgerblue; font-size: 90px""><b>o</b></div>","null","","","","forget_cue","","","","","","","","","","","","","","","",""
"html-keyboard-response","143","613664","0.0-4.0-1.0-0.9","acluul8jn2pa5n7","prime","5f21c94e3957f63e8322093f","5f60e3c0a3b16e07647b2ff9","5f60edc321c050010d62cb5d","false","null","<span style=""color: black; font-size: 48px"">N + M</span>","null","","","","resp_prompt","","","","","","","","","","","","","","","",""
"categorize-image","144","614607","0.0-4.0-1.0-1.9","acluul8jn2pa5n7","prime","5f21c94e3957f63e8322093f","5f60e3c0a3b16e07647b2ff9","5f60edc321c050010d62cb5d","true","941","./Stimuli/SelectedImages/SM/SM213.bmp","76","","","","test","true","N + M","76","repetition","SM","SM213.bmp","forget","","58","3","prime1","right","","","",""
"html-keyboard-response","145","616609","0.0-4.0-1.0-3.9","acluul8jn2pa5n7","prime","5f21c94e3957f63e8322093f","5f60e3c0a3b16e07647b2ff9","5f60edc321c050010d62cb5d","false","null","<div style=""align-items: center; display: flex; color: darkorange; font-size: 90px""><b>ø</b></div>","null","","","","forget_cue","","","","","","","","","","","","","","","",""
"html-keyboard-response","146","617311","0.0-4.0-1.0-0.10","acluul8jn2pa5n7","prime","5f21c94e3957f63e8322093f","5f60e3c0a3b16e07647b2ff9","5f60edc321c050010d62cb5d","false","null","<span style=""color: black; font-size: 48px"">M + N</span>","null","","","","resp_prompt","","","","","","","","","","","","","","","",""
"categorize-image","147","618404","0.0-4.0-1.0-1.10","acluul8jn2pa5n7","prime","5f21c94e3957f63e8322093f","5f60e3c0a3b16e07647b2ff9","5f60edc321c050010d62cb5d","true","1091","./Stimuli/SelectedImages/LN/LN149.bmp","76","","","","test","true","M + N","76","switch","LN","LN149.bmp","remember","","59","3","prime1","right","","","",""
"html-keyboard-response","148","620405","0.0-4.0-1.0-3.10","acluul8jn2pa5n7","prime","5f21c94e3957f63e8322093f","5f60e3c0a3b16e07647b2ff9","5f60edc321c050010d62cb5d","false","null","<div style=""align-items: center; display: flex; color: dodgerblue; font-size: 90px""><b>o</b></div>","null","","","","forget_cue","","","","","","","","","","","","","","","",""
"html-keyboard-response","149","621107","0.0-4.0-1.0-0.11","acluul8jn2pa5n7","prime","5f21c94e3957f63e8322093f","5f60e3c0a3b16e07647b2ff9","5f60edc321c050010d62cb5d","false","null","<span style=""color: black; font-size: 48px"">M + N</span>","null","","","","resp_prompt","","","","","","","","","","","","","","","",""
"categorize-image","150","622265","0.0-4.0-1.0-1.11","acluul8jn2pa5n7","prime","5f21c94e3957f63e8322093f","5f60e3c0a3b16e07647b2ff9","5f60edc321c050010d62cb5d","true","1155","./Stimuli/SelectedImages/SN/SN64.bmp","76","","","","test","true","M + N","76","repetition","SN","SN64.bmp","forget","","60","3","prime1","right","","","",""
"html-keyboard-response","151","624267","0.0-4.0-1.0-3.11","acluul8jn2pa5n7","prime","5f21c94e3957f63e8322093f","5f60e3c0a3b16e07647b2ff9","5f60edc321c050010d62cb5d","false","null","<div style=""align-items: center; display: flex; color: darkorange; font-size: 90px""><b>ø</b></div>","null","","","","forget_cue","","","","","","","","","","","","","","","",""
"html-keyboard-response","152","624968","0.0-4.0-1.0-0.12","acluul8jn2pa5n7","prime","5f21c94e3957f63e8322093f","5f60e3c0a3b16e07647b2ff9","5f60edc321c050010d62cb5d","false","null","<span style=""color: black; font-size: 48px"">M + N</span>","null","","","","resp_prompt","","","","","","","","","","","","","","","",""
"categorize-image","153","626304","0.0-4.0-1.0-1.12","acluul8jn2pa5n7","prime","5f21c94e3957f63e8322093f","5f60e3c0a3b16e07647b2ff9","5f60edc321c050010d62cb5d","true","1333","./Stimuli/SelectedImages/LN/LN131.bmp","76","","","","test","true","M + N","76","switch","LN","LN131.bmp","forget","","61","3","prime1","right","","","",""
"html-keyboard-response","154","628306","0.0-4.0-1.0-3.12","acluul8jn2pa5n7","prime","5f21c94e3957f63e8322093f","5f60e3c0a3b16e07647b2ff9","5f60edc321c050010d62cb5d","false","null","<div style=""align-items: center; display: flex; color: darkorange; font-size: 90px""><b>ø</b></div>","null","","","","forget_cue","","","","","","","","","","","","","","","",""
"html-keyboard-response","155","629008","0.0-4.0-1.0-0.13","acluul8jn2pa5n7","prime","5f21c94e3957f63e8322093f","5f60e3c0a3b16e07647b2ff9","5f60edc321c050010d62cb5d","false","null","<span style=""color: black; font-size: 48px"">N + M</span>","null","","","","resp_prompt","","","","","","","","","","","","","","","",""
"categorize-image","156","630562","0.0-4.0-1.0-1.13","acluul8jn2pa5n7","prime","5f21c94e3957f63e8322093f","5f60e3c0a3b16e07647b2ff9","5f60edc321c050010d62cb5d","true","1552","./Stimuli/SelectedImages/SM/SM200.bmp","76","","","","test","true","N + M","76","switch","SM","SM200.bmp","forget","","62","3","prime1","right","","","",""
"html-keyboard-response","157","632564","0.0-4.0-1.0-3.13","acluul8jn2pa5n7","prime","5f21c94e3957f63e8322093f","5f60e3c0a3b16e07647b2ff9","5f60edc321c050010d62cb5d","false","null","<div style=""align-items: center; display: flex; color: darkorange; font-size: 90px""><b>ø</b></div>","null","","","","forget_cue","","","","","","","","","","","","","","","",""
"html-keyboard-response","158","633266","0.0-4.0-1.0-0.14","acluul8jn2pa5n7","prime","5f21c94e3957f63e8322093f","5f60e3c0a3b16e07647b2ff9","5f60edc321c050010d62cb5d","false","null","<span style=""color: black; font-size: 48px"">M + N</span>","null","","","","resp_prompt","","","","","","","","","","","","","","","",""
"categorize-image","159","634462","0.0-4.0-1.0-1.14","acluul8jn2pa5n7","prime","5f21c94e3957f63e8322093f","5f60e3c0a3b16e07647b2ff9","5f60edc321c050010d62cb5d","true","1194","./Stimuli/SelectedImages/SM/SM128.bmp","83","","","","test","true","M + N","83","repetition","SM","SM128.bmp","forget","","63","3","prime1","left","","","",""
"html-keyboard-response","160","636464","0.0-4.0-1.0-3.14","acluul8jn2pa5n7","prime","5f21c94e3957f63e8322093f","5f60e3c0a3b16e07647b2ff9","5f60edc321c050010d62cb5d","false","null","<div style=""align-items: center; display: flex; color: darkorange; font-size: 90px""><b>ø</b></div>","null","","","","forget_cue","","","","","","","","","","","","","","","",""
"html-keyboard-response","161","637166","0.0-4.0-1.0-0.15","acluul8jn2pa5n7","prime","5f21c94e3957f63e8322093f","5f60e3c0a3b16e07647b2ff9","5f60edc321c050010d62cb5d","false","null","<span style=""color: black; font-size: 48px"">M + N</span>","null","","","","resp_prompt","","","","","","","","","","","","","","","",""
"categorize-image","162","638462","0.0-4.0-1.0-1.15","acluul8jn2pa5n7","prime","5f21c94e3957f63e8322093f","5f60e3c0a3b16e07647b2ff9","5f60edc321c050010d62cb5d","true","1294","./Stimuli/SelectedImages/LM/LM167.bmp","83","","","","test","true","M + N","83","switch","LM","LM167.bmp","forget","","64","3","prime1","left","","","",""
"html-keyboard-response","163","640464","0.0-4.0-1.0-3.15","acluul8jn2pa5n7","prime","5f21c94e3957f63e8322093f","5f60e3c0a3b16e07647b2ff9","5f60edc321c050010d62cb5d","false","null","<div style=""align-items: center; display: flex; color: darkorange; font-size: 90px""><b>ø</b></div>","null","","","","forget_cue","","","","","","","","","","","","","","","",""
"html-keyboard-response","164","641166","0.0-4.0-1.0-0.16","acluul8jn2pa5n7","prime","5f21c94e3957f63e8322093f","5f60e3c0a3b16e07647b2ff9","5f60edc321c050010d62cb5d","false","null","<span style=""color: black; font-size: 48px"">M + N</span>","null","","","","resp_prompt","","","","","","","","","","","","","","","",""
"categorize-image","165","642529","0.0-4.0-1.0-1.16","acluul8jn2pa5n7","prime","5f21c94e3957f63e8322093f","5f60e3c0a3b16e07647b2ff9","5f60edc321c050010d62cb5d","true","1361","./Stimuli/SelectedImages/LN/LN59.bmp","76","","","","test","true","M + N","76","switch","LN","LN59.bmp","forget","","65","3","prime1","right","","","",""
"html-keyboard-response","166","644531","0.0-4.0-1.0-3.16","acluul8jn2pa5n7","prime","5f21c94e3957f63e8322093f","5f60e3c0a3b16e07647b2ff9","5f60edc321c050010d62cb5d","false","null","<div style=""align-items: center; display: flex; color: darkorange; font-size: 90px""><b>ø</b></div>","null","","","","forget_cue","","","","","","","","","","","","","","","",""
"html-keyboard-response","167","645232","0.0-4.0-1.0-0.17","acluul8jn2pa5n7","prime","5f21c94e3957f63e8322093f","5f60e3c0a3b16e07647b2ff9","5f60edc321c050010d62cb5d","false","null","<span style=""color: black; font-size: 48px"">M + N</span>","null","","","","resp_prompt","","","","","","","","","","","","","","","",""
"categorize-image","168","646211","0.0-4.0-1.0-1.17","acluul8jn2pa5n7","prime","5f21c94e3957f63e8322093f","5f60e3c0a3b16e07647b2ff9","5f60edc321c050010d62cb5d","true","976","./Stimuli/SelectedImages/LN/LN92.bmp","76","","","","test","true","M + N","76","repetition","LN","LN92.bmp","forget","","66","3","prime1","right","","","",""
"html-keyboard-response","169","648212","0.0-4.0-1.0-3.17","acluul8jn2pa5n7","prime","5f21c94e3957f63e8322093f","5f60e3c0a3b16e07647b2ff9","5f60edc321c050010d62cb5d","false","null","<div style=""align-items: center; display: flex; color: darkorange; font-size: 90px""><b>ø</b></div>","null","","","","forget_cue","","","","","","","","","","","","","","","",""
"html-keyboard-response","170","648915","0.0-4.0-1.0-0.18","acluul8jn2pa5n7","prime","5f21c94e3957f63e8322093f","5f60e3c0a3b16e07647b2ff9","5f60edc321c050010d62cb5d","false","null","<span style=""color: black; font-size: 48px"">M + N</span>","null","","","","resp_prompt","","","","","","","","","","","","","","","",""
"categorize-image","171","649689","0.0-4.0-1.0-1.18","acluul8jn2pa5n7","prime","5f21c94e3957f63e8322093f","5f60e3c0a3b16e07647b2ff9","5f60edc321c050010d62cb5d","true","772","./Stimuli/SelectedImages/SN/SN60.bmp","76","","","","test","true","M + N","76","switch","SN","SN60.bmp","remember","","67","3","prime1","right","","","",""
"html-keyboard-response","172","651691","0.0-4.0-1.0-3.18","acluul8jn2pa5n7","prime","5f21c94e3957f63e8322093f","5f60e3c0a3b16e07647b2ff9","5f60edc321c050010d62cb5d","false","null","<div style=""align-items: center; display: flex; color: dodgerblue; font-size: 90px""><b>o</b></div>","null","","","","forget_cue","","","","","","","","","","","","","","","",""
"html-keyboard-response","173","652393","0.0-4.0-1.0-0.19","acluul8jn2pa5n7","prime","5f21c94e3957f63e8322093f","5f60e3c0a3b16e07647b2ff9","5f60edc321c050010d62cb5d","false","null","<span style=""color: black; font-size: 48px"">N + M</span>","null","","","","resp_prompt","","","","","","","","","","","","","","","",""
"categorize-image","174","653488","0.0-4.0-1.0-1.19","acluul8jn2pa5n7","prime","5f21c94e3957f63e8322093f","5f60e3c0a3b16e07647b2ff9","5f60edc321c050010d62cb5d","true","1093","./Stimuli/SelectedImages/SN/SN27.bmp","83","","","","test","true","N + M","83","repetition","SN","SN27.bmp","remember","","68","3","prime1","left","","","",""
"html-keyboard-response","175","655490","0.0-4.0-1.0-3.19","acluul8jn2pa5n7","prime","5f21c94e3957f63e8322093f","5f60e3c0a3b16e07647b2ff9","5f60edc321c050010d62cb5d","false","null","<div style=""align-items: center; display: flex; color: dodgerblue; font-size: 90px""><b>o</b></div>","null","","","","forget_cue","","","","","","","","","","","","","","","",""
"html-keyboard-response","176","656192","0.0-4.0-1.0-0.20","acluul8jn2pa5n7","prime","5f21c94e3957f63e8322093f","5f60e3c0a3b16e07647b2ff9","5f60edc321c050010d62cb5d","false","null","<span style=""color: black; font-size: 48px"">M + N</span>","null","","","","resp_prompt","","","","","","","","","","","","","","","",""
"categorize-image","177","657405","0.0-4.0-1.0-1.20","acluul8jn2pa5n7","prime","5f21c94e3957f63e8322093f","5f60e3c0a3b16e07647b2ff9","5f60edc321c050010d62cb5d","true","1211","./Stimuli/SelectedImages/SM/SM205.bmp","83","","","","test","true","M + N","83","repetition","SM","SM205.bmp","remember","","69","3","prime1","left","","","",""
"html-keyboard-response","178","659407","0.0-4.0-1.0-3.20","acluul8jn2pa5n7","prime","5f21c94e3957f63e8322093f","5f60e3c0a3b16e07647b2ff9","5f60edc321c050010d62cb5d","false","null","<div style=""align-items: center; display: flex; color: dodgerblue; font-size: 90px""><b>o</b></div>","null","","","","forget_cue","","","","","","","","","","","","","","","",""
"html-keyboard-response","179","660108","0.0-4.0-1.0-0.21","acluul8jn2pa5n7","prime","5f21c94e3957f63e8322093f","5f60e3c0a3b16e07647b2ff9","5f60edc321c050010d62cb5d","false","null","<span style=""color: black; font-size: 48px"">N + M</span>","null","","","","resp_prompt","","","","","","","","","","","","","","","",""
"categorize-image","180","661596","0.0-4.0-1.0-1.21","acluul8jn2pa5n7","prime","5f21c94e3957f63e8322093f","5f60e3c0a3b16e07647b2ff9","5f60edc321c050010d62cb5d","true","1485","./Stimuli/SelectedImages/LM/LM216.bmp","76","","","","test","true","N + M","76","repetition","LM","LM216.bmp","remember","","70","3","prime1","right","","","",""
"html-keyboard-response","181","663597","0.0-4.0-1.0-3.21","acluul8jn2pa5n7","prime","5f21c94e3957f63e8322093f","5f60e3c0a3b16e07647b2ff9","5f60edc321c050010d62cb5d","false","null","<div style=""align-items: center; display: flex; color: dodgerblue; font-size: 90px""><b>o</b></div>","null","","","","forget_cue","","","","","","","","","","","","","","","",""
"html-keyboard-response","182","664299","0.0-4.0-1.0-0.22","acluul8jn2pa5n7","prime","5f21c94e3957f63e8322093f","5f60e3c0a3b16e07647b2ff9","5f60edc321c050010d62cb5d","false","null","<span style=""color: black; font-size: 48px"">M + N</span>","null","","","","resp_prompt","","","","","","","","","","","","","","","",""
"categorize-image","183","665407","0.0-4.0-1.0-1.22","acluul8jn2pa5n7","prime","5f21c94e3957f63e8322093f","5f60e3c0a3b16e07647b2ff9","5f60edc321c050010d62cb5d","true","1104.9999999998836","./Stimuli/SelectedImages/SM/SM106.bmp","83","","","","test","true","M + N","83","switch","SM","SM106.bmp","forget","","71","3","prime1","left","","","",""
"html-keyboard-response","184","667408","0.0-4.0-1.0-3.22","acluul8jn2pa5n7","prime","5f21c94e3957f63e8322093f","5f60e3c0a3b16e07647b2ff9","5f60edc321c050010d62cb5d","false","null","<div style=""align-items: center; display: flex; color: darkorange; font-size: 90px""><b>ø</b></div>","null","","","","forget_cue","","","","","","","","","","","","","","","",""
"html-keyboard-response","185","668110","0.0-4.0-1.0-0.23","acluul8jn2pa5n7","prime","5f21c94e3957f63e8322093f","5f60e3c0a3b16e07647b2ff9","5f60edc321c050010d62cb5d","false","null","<span style=""color: black; font-size: 48px"">M + N</span>","null","","","","resp_prompt","","","","","","","","","","","","","","","",""
"categorize-image","186","669304","0.0-4.0-1.0-1.23","acluul8jn2pa5n7","prime","5f21c94e3957f63e8322093f","5f60e3c0a3b16e07647b2ff9","5f60edc321c050010d62cb5d","true","1191","./Stimuli/SelectedImages/LM/LM179.bmp","83","","","","test","true","M + N","83","switch","LM","LM179.bmp","remember","","72","3","prime1","left","","","",""
"html-keyboard-response","187","671305","0.0-4.0-1.0-3.23","acluul8jn2pa5n7","prime","5f21c94e3957f63e8322093f","5f60e3c0a3b16e07647b2ff9","5f60edc321c050010d62cb5d","false","null","<div style=""align-items: center; display: flex; color: dodgerblue; font-size: 90px""><b>o</b></div>","null","","","","forget_cue","","","","","","","","","","","","","","","",""
"html-keyboard-response","188","672007","0.0-4.0-1.0-0.24","acluul8jn2pa5n7","prime","5f21c94e3957f63e8322093f","5f60e3c0a3b16e07647b2ff9","5f60edc321c050010d62cb5d","false","null","<span style=""color: black; font-size: 48px"">N + M</span>","null","","","","resp_prompt","","","","","","","","","","","","","","","",""
"categorize-image","189","673384","0.0-4.0-1.0-1.24","acluul8jn2pa5n7","prime","5f21c94e3957f63e8322093f","5f60e3c0a3b16e07647b2ff9","5f60edc321c050010d62cb5d","true","1375","./Stimuli/SelectedImages/SN/SN128.bmp","83","","","","test","true","N + M","83","switch","SN","SN128.bmp","remember","","73","3","prime1","left","","","",""
"html-keyboard-response","190","675385","0.0-4.0-1.0-3.24","acluul8jn2pa5n7","prime","5f21c94e3957f63e8322093f","5f60e3c0a3b16e07647b2ff9","5f60edc321c050010d62cb5d","false","null","<div style=""align-items: center; display: flex; color: dodgerblue; font-size: 90px""><b>o</b></div>","null","","","","forget_cue","","","","","","","","","","","","","","","",""
"html-keyboard-response","191","676087","0.0-4.0-1.0-0.25","acluul8jn2pa5n7","prime","5f21c94e3957f63e8322093f","5f60e3c0a3b16e07647b2ff9","5f60edc321c050010d62cb5d","false","null","<span style=""color: black; font-size: 48px"">N + M</span>","null","","","","resp_prompt","","","","","","","","","","","","","","","",""
"categorize-image","192","677289","0.0-4.0-1.0-1.25","acluul8jn2pa5n7","prime","5f21c94e3957f63e8322093f","5f60e3c0a3b16e07647b2ff9","5f60edc321c050010d62cb5d","true","1200","./Stimuli/SelectedImages/LN/LN177.bmp","83","","","","test","true","N + M","83","switch","LN","LN177.bmp","remember","","74","3","prime1","left","","","",""
"html-keyboard-response","193","679290","0.0-4.0-1.0-3.25","acluul8jn2pa5n7","prime","5f21c94e3957f63e8322093f","5f60e3c0a3b16e07647b2ff9","5f60edc321c050010d62cb5d","false","null","<div style=""align-items: center; display: flex; color: dodgerblue; font-size: 90px""><b>o</b></div>","null","","","","forget_cue","","","","","","","","","","","","","","","",""
"html-keyboard-response","194","679992","0.0-4.0-1.0-0.26","acluul8jn2pa5n7","prime","5f21c94e3957f63e8322093f","5f60e3c0a3b16e07647b2ff9","5f60edc321c050010d62cb5d","false","null","<span style=""color: black; font-size: 48px"">N + M</span>","null","","","","resp_prompt","","","","","","","","","","","","","","","",""
"categorize-image","195","681996","0.0-4.0-1.0-1.26","acluul8jn2pa5n7","prime","5f21c94e3957f63e8322093f","5f60e3c0a3b16e07647b2ff9","5f60edc321c050010d62cb5d","true","null","./Stimuli/SelectedImages/LN/LN13.bmp","null","","","","test","false","N + M","83","switch","LN","LN13.bmp","remember","","75","3","prime1","too_slow","","","",""
"html-keyboard-response","196","682498","0.0-4.0-1.0-2.26-0.26","acluul8jn2pa5n7","prime","5f21c94e3957f63e8322093f","5f60e3c0a3b16e07647b2ff9","5f60edc321c050010d62cb5d","false","null","<span style=""color: red; font-size: 48px"">Too slow!</span>","null","","","","feedback","","","","","","","","","","","","","","","",""
"html-keyboard-response","197","684500","0.0-4.0-1.0-3.26","acluul8jn2pa5n7","prime","5f21c94e3957f63e8322093f","5f60e3c0a3b16e07647b2ff9","5f60edc321c050010d62cb5d","false","null","<div style=""align-items: center; display: flex; color: dodgerblue; font-size: 90px""><b>o</b></div>","null","","","","forget_cue","","","","","","","","","","","","","","","",""
"html-keyboard-response","198","685201","0.0-4.0-1.0-0.27","acluul8jn2pa5n7","prime","5f21c94e3957f63e8322093f","5f60e3c0a3b16e07647b2ff9","5f60edc321c050010d62cb5d","false","null","<span style=""color: black; font-size: 48px"">M + N</span>","null","","","","resp_prompt","","","","","","","","","","","","","","","",""
"categorize-image","199","686191","0.0-4.0-1.0-1.27","acluul8jn2pa5n7","prime","5f21c94e3957f63e8322093f","5f60e3c0a3b16e07647b2ff9","5f60edc321c050010d62cb5d","true","987","./Stimuli/SelectedImages/LN/LN101.bmp","76","","","","test","true","M + N","76","repetition","LN","LN101.bmp","remember","","76","3","prime1","right","","","",""
"html-keyboard-response","200","688193","0.0-4.0-1.0-3.27","acluul8jn2pa5n7","prime","5f21c94e3957f63e8322093f","5f60e3c0a3b16e07647b2ff9","5f60edc321c050010d62cb5d","false","null","<div style=""align-items: center; display: flex; color: dodgerblue; font-size: 90px""><b>o</b></div>","null","","","","forget_cue","","","","","","","","","","","","","","","",""
"html-keyboard-response","201","688895","0.0-4.0-1.0-0.28","acluul8jn2pa5n7","prime","5f21c94e3957f63e8322093f","5f60e3c0a3b16e07647b2ff9","5f60edc321c050010d62cb5d","false","null","<span style=""color: black; font-size: 48px"">N + M</span>","null","","","","resp_prompt","","","","","","","","","","","","","","","",""
"categorize-image","202","690037","0.0-4.0-1.0-1.28","acluul8jn2pa5n7","prime","5f21c94e3957f63e8322093f","5f60e3c0a3b16e07647b2ff9","5f60edc321c050010d62cb5d","true","1141","./Stimuli/SelectedImages/LN/LN150.bmp","83","","","","test","true","N + M","83","repetition","LN","LN150.bmp","forget","","77","3","prime1","left","","","",""
"html-keyboard-response","203","692039","0.0-4.0-1.0-3.28","acluul8jn2pa5n7","prime","5f21c94e3957f63e8322093f","5f60e3c0a3b16e07647b2ff9","5f60edc321c050010d62cb5d","false","null","<div style=""align-items: center; display: flex; color: darkorange; font-size: 90px""><b>ø</b></div>","null","","","","forget_cue","","","","","","","","","","","","","","","",""
"html-keyboard-response","204","692741","0.0-4.0-1.0-0.29","acluul8jn2pa5n7","prime","5f21c94e3957f63e8322093f","5f60e3c0a3b16e07647b2ff9","5f60edc321c050010d62cb5d","false","null","<span style=""color: black; font-size: 48px"">N + M</span>","null","","","","resp_prompt","","","","","","","","","","","","","","","",""
"categorize-image","205","693627","0.0-4.0-1.0-1.29","acluul8jn2pa5n7","prime","5f21c94e3957f63e8322093f","5f60e3c0a3b16e07647b2ff9","5f60edc321c050010d62cb5d","true","882.9999999998836","./Stimuli/SelectedImages/LN/LN128.bmp","83","","","","test","true","N + M","83","switch","LN","LN128.bmp","forget","","78","3","prime1","left","","","",""
"html-keyboard-response","206","695629","0.0-4.0-1.0-3.29","acluul8jn2pa5n7","prime","5f21c94e3957f63e8322093f","5f60e3c0a3b16e07647b2ff9","5f60edc321c050010d62cb5d","false","null","<div style=""align-items: center; display: flex; color: darkorange; font-size: 90px""><b>ø</b></div>","null","","","","forget_cue","","","","","","","","","","","","","","","",""
"html-keyboard-response","207","696331","0.0-4.0-1.0-0.30","acluul8jn2pa5n7","prime","5f21c94e3957f63e8322093f","5f60e3c0a3b16e07647b2ff9","5f60edc321c050010d62cb5d","false","null","<span style=""color: black; font-size: 48px"">N + M</span>","null","","","","resp_prompt","","","","","","","","","","","","","","","",""
"categorize-image","208","697086","0.0-4.0-1.0-1.30","acluul8jn2pa5n7","prime","5f21c94e3957f63e8322093f","5f60e3c0a3b16e07647b2ff9","5f60edc321c050010d62cb5d","true","753","./Stimuli/SelectedImages/SN/SN49.bmp","83","","","","test","true","N + M","83","switch","SN","SN49.bmp","forget","","79","3","prime1","left","","","",""
"html-keyboard-response","209","699088","0.0-4.0-1.0-3.30","acluul8jn2pa5n7","prime","5f21c94e3957f63e8322093f","5f60e3c0a3b16e07647b2ff9","5f60edc321c050010d62cb5d","false","null","<div style=""align-items: center; display: flex; color: darkorange; font-size: 90px""><b>ø</b></div>","null","","","","forget_cue","","","","","","","","","","","","","","","",""
"html-keyboard-response","210","699789","0.0-4.0-1.0-0.31","acluul8jn2pa5n7","prime","5f21c94e3957f63e8322093f","5f60e3c0a3b16e07647b2ff9","5f60edc321c050010d62cb5d","false","null","<span style=""color: black; font-size: 48px"">N + M</span>","null","","","","resp_prompt","","","","","","","","","","","","","","","",""
"categorize-image","211","700664","0.0-4.0-1.0-1.31","acluul8jn2pa5n7","prime","5f21c94e3957f63e8322093f","5f60e3c0a3b16e07647b2ff9","5f60edc321c050010d62cb5d","true","873","./Stimuli/SelectedImages/SN/SN240.bmp","83","","","","test","true","N + M","83","repetition","SN","SN240.bmp","forget","","80","3","prime1","left","","","",""
"html-keyboard-response","212","702666","0.0-4.0-1.0-3.31","acluul8jn2pa5n7","prime","5f21c94e3957f63e8322093f","5f60e3c0a3b16e07647b2ff9","5f60edc321c050010d62cb5d","false","null","<div style=""align-items: center; display: flex; color: darkorange; font-size: 90px""><b>ø</b></div>","null","","","","forget_cue","","","","","","","","","","","","","","","",""
"html-keyboard-response","213","703368","0.0-4.0-1.0-0.32","acluul8jn2pa5n7","prime","5f21c94e3957f63e8322093f","5f60e3c0a3b16e07647b2ff9","5f60edc321c050010d62cb5d","false","null","<span style=""color: black; font-size: 48px"">N + M</span>","null","","","","resp_prompt","","","","","","","","","","","","","","","",""
"categorize-image","214","704254","0.0-4.0-1.0-1.32","acluul8jn2pa5n7","prime","5f21c94e3957f63e8322093f","5f60e3c0a3b16e07647b2ff9","5f60edc321c050010d62cb5d","true","883.0000000001164","./Stimuli/SelectedImages/LM/LM209.bmp","76","","","","test","true","N + M","76","repetition","LM","LM209.bmp","remember","","81","3","prime1","right","","","",""
"html-keyboard-response","215","706255","0.0-4.0-1.0-3.32","acluul8jn2pa5n7","prime","5f21c94e3957f63e8322093f","5f60e3c0a3b16e07647b2ff9","5f60edc321c050010d62cb5d","false","null","<div style=""align-items: center; display: flex; color: dodgerblue; font-size: 90px""><b>o</b></div>","null","","","","forget_cue","","","","","","","","","","","","","","","",""
"html-keyboard-response","216","706956","0.0-4.0-1.0-0.33","acluul8jn2pa5n7","prime","5f21c94e3957f63e8322093f","5f60e3c0a3b16e07647b2ff9","5f60edc321c050010d62cb5d","false","null","<span style=""color: black; font-size: 48px"">M + N</span>","null","","","","resp_prompt","","","","","","","","","","","","","","","",""
"categorize-image","217","708395","0.0-4.0-1.0-1.33","acluul8jn2pa5n7","prime","5f21c94e3957f63e8322093f","5f60e3c0a3b16e07647b2ff9","5f60edc321c050010d62cb5d","true","1438","./Stimuli/SelectedImages/SM/SM17.bmp","83","","","","test","true","M + N","83","switch","SM","SM17.bmp","forget","","82","3","prime1","left","","","",""
"html-keyboard-response","218","710397","0.0-4.0-1.0-3.33","acluul8jn2pa5n7","prime","5f21c94e3957f63e8322093f","5f60e3c0a3b16e07647b2ff9","5f60edc321c050010d62cb5d","false","null","<div style=""align-items: center; display: flex; color: darkorange; font-size: 90px""><b>ø</b></div>","null","","","","forget_cue","","","","","","","","","","","","","","","",""
"html-keyboard-response","219","711098","0.0-4.0-1.0-0.34","acluul8jn2pa5n7","prime","5f21c94e3957f63e8322093f","5f60e3c0a3b16e07647b2ff9","5f60edc321c050010d62cb5d","false","null","<span style=""color: black; font-size: 48px"">M + N</span>","null","","","","resp_prompt","","","","","","","","","","","","","","","",""
"categorize-image","220","712168","0.0-4.0-1.0-1.34","acluul8jn2pa5n7","prime","5f21c94e3957f63e8322093f","5f60e3c0a3b16e07647b2ff9","5f60edc321c050010d62cb5d","true","1067","./Stimuli/SelectedImages/SN/SN181.bmp","76","","","","test","true","M + N","76","repetition","SN","SN181.bmp","remember","","83","3","prime1","right","","","",""
"html-keyboard-response","221","714169","0.0-4.0-1.0-3.34","acluul8jn2pa5n7","prime","5f21c94e3957f63e8322093f","5f60e3c0a3b16e07647b2ff9","5f60edc321c050010d62cb5d","false","null","<div style=""align-items: center; display: flex; color: dodgerblue; font-size: 90px""><b>o</b></div>","null","","","","forget_cue","","","","","","","","","","","","","","","",""
"html-keyboard-response","222","714871","0.0-4.0-1.0-0.35","acluul8jn2pa5n7","prime","5f21c94e3957f63e8322093f","5f60e3c0a3b16e07647b2ff9","5f60edc321c050010d62cb5d","false","null","<span style=""color: black; font-size: 48px"">N + M</span>","null","","","","resp_prompt","","","","","","","","","","","","","","","",""
"categorize-image","223","715954","0.0-4.0-1.0-1.35","acluul8jn2pa5n7","prime","5f21c94e3957f63e8322093f","5f60e3c0a3b16e07647b2ff9","5f60edc321c050010d62cb5d","true","1079.9999999998836","./Stimuli/SelectedImages/SN/SN93.bmp","83","","","","test","true","N + M","83","repetition","SN","SN93.bmp","remember","","84","3","prime1","left","","","",""
"html-keyboard-response","224","717955","0.0-4.0-1.0-3.35","acluul8jn2pa5n7","prime","5f21c94e3957f63e8322093f","5f60e3c0a3b16e07647b2ff9","5f60edc321c050010d62cb5d","false","null","<div style=""align-items: center; display: flex; color: dodgerblue; font-size: 90px""><b>o</b></div>","null","","","","forget_cue","","","","","","","","","","","","","","","",""
"html-keyboard-response","225","718657","0.0-4.0-1.0-0.36","acluul8jn2pa5n7","prime","5f21c94e3957f63e8322093f","5f60e3c0a3b16e07647b2ff9","5f60edc321c050010d62cb5d","false","null","<span style=""color: black; font-size: 48px"">N + M</span>","null","","","","resp_prompt","","","","","","","","","","","","","","","",""
"categorize-image","226","719977","0.0-4.0-1.0-1.36","acluul8jn2pa5n7","prime","5f21c94e3957f63e8322093f","5f60e3c0a3b16e07647b2ff9","5f60edc321c050010d62cb5d","true","1317","./Stimuli/SelectedImages/SM/SM195.bmp","76","","","","test","true","N + M","76","switch","SM","SM195.bmp","remember","","85","3","prime1","right","","","",""
"html-keyboard-response","227","721979","0.0-4.0-1.0-3.36","acluul8jn2pa5n7","prime","5f21c94e3957f63e8322093f","5f60e3c0a3b16e07647b2ff9","5f60edc321c050010d62cb5d","false","null","<div style=""align-items: center; display: flex; color: dodgerblue; font-size: 90px""><b>o</b></div>","null","","","","forget_cue","","","","","","","","","","","","","","","",""
"html-keyboard-response","228","722680","0.0-4.0-1.0-0.37","acluul8jn2pa5n7","prime","5f21c94e3957f63e8322093f","5f60e3c0a3b16e07647b2ff9","5f60edc321c050010d62cb5d","false","null","<span style=""color: black; font-size: 48px"">N + M</span>","null","","","","resp_prompt","","","","","","","","","","","","","","","",""
"categorize-image","229","723820","0.0-4.0-1.0-1.37","acluul8jn2pa5n7","prime","5f21c94e3957f63e8322093f","5f60e3c0a3b16e07647b2ff9","5f60edc321c050010d62cb5d","true","1137","./Stimuli/SelectedImages/LM/LM235.bmp","76","","","","test","true","N + M","76","switch","LM","LM235.bmp","forget","","86","3","prime1","right","","","",""
"html-keyboard-response","230","725821","0.0-4.0-1.0-3.37","acluul8jn2pa5n7","prime","5f21c94e3957f63e8322093f","5f60e3c0a3b16e07647b2ff9","5f60edc321c050010d62cb5d","false","null","<div style=""align-items: center; display: flex; color: darkorange; font-size: 90px""><b>ø</b></div>","null","","","","forget_cue","","","","","","","","","","","","","","","",""
"html-keyboard-response","231","726523","0.0-4.0-1.0-0.38","acluul8jn2pa5n7","prime","5f21c94e3957f63e8322093f","5f60e3c0a3b16e07647b2ff9","5f60edc321c050010d62cb5d","false","null","<span style=""color: black; font-size: 48px"">M + N</span>","null","","","","resp_prompt","","","","","","","","","","","","","","","",""
"categorize-image","232","727328","0.0-4.0-1.0-1.38","acluul8jn2pa5n7","prime","5f21c94e3957f63e8322093f","5f60e3c0a3b16e07647b2ff9","5f60edc321c050010d62cb5d","true","803","./Stimuli/SelectedImages/LM/LM48.bmp","83","","","","test","true","M + N","83","repetition","LM","LM48.bmp","forget","","87","3","prime1","left","","","",""
"html-keyboard-response","233","729330","0.0-4.0-1.0-3.38","acluul8jn2pa5n7","prime","5f21c94e3957f63e8322093f","5f60e3c0a3b16e07647b2ff9","5f60edc321c050010d62cb5d","false","null","<div style=""align-items: center; display: flex; color: darkorange; font-size: 90px""><b>ø</b></div>","null","","","","forget_cue","","","","","","","","","","","","","","","",""
"html-keyboard-response","234","730032","0.0-4.0-1.0-0.39","acluul8jn2pa5n7","prime","5f21c94e3957f63e8322093f","5f60e3c0a3b16e07647b2ff9","5f60edc321c050010d62cb5d","false","null","<span style=""color: black; font-size: 48px"">M + N</span>","null","","","","resp_prompt","","","","","","","","","","","","","","","",""
"categorize-image","235","730930","0.0-4.0-1.0-1.39","acluul8jn2pa5n7","prime","5f21c94e3957f63e8322093f","5f60e3c0a3b16e07647b2ff9","5f60edc321c050010d62cb5d","true","895","./Stimuli/SelectedImages/LM/LM129.bmp","83","","","","test","true","M + N","83","repetition","LM","LM129.bmp","remember","","88","3","prime1","left","","","",""
"html-keyboard-response","236","732932","0.0-4.0-1.0-3.39","acluul8jn2pa5n7","prime","5f21c94e3957f63e8322093f","5f60e3c0a3b16e07647b2ff9","5f60edc321c050010d62cb5d","false","null","<div style=""align-items: center; display: flex; color: dodgerblue; font-size: 90px""><b>o</b></div>","null","","","","forget_cue","","","","","","","","","","","","","","","",""
"html-keyboard-response","237","733634","0.0-4.0-1.0-0.40","acluul8jn2pa5n7","prime","5f21c94e3957f63e8322093f","5f60e3c0a3b16e07647b2ff9","5f60edc321c050010d62cb5d","false","null","<span style=""color: black; font-size: 48px"">M + N</span>","null","","","","resp_prompt","","","","","","","","","","","","","","","",""
"categorize-image","238","734942","0.0-4.0-1.0-1.40","acluul8jn2pa5n7","prime","5f21c94e3957f63e8322093f","5f60e3c0a3b16e07647b2ff9","5f60edc321c050010d62cb5d","true","1306","./Stimuli/SelectedImages/LN/LN42.bmp","76","","","","test","true","M + N","76","switch","LN","LN42.bmp","remember","","89","3","prime1","right","","","",""
"html-keyboard-response","239","736943","0.0-4.0-1.0-3.40","acluul8jn2pa5n7","prime","5f21c94e3957f63e8322093f","5f60e3c0a3b16e07647b2ff9","5f60edc321c050010d62cb5d","false","null","<div style=""align-items: center; display: flex; color: dodgerblue; font-size: 90px""><b>o</b></div>","null","","","","forget_cue","","","","","","","","","","","","","","","",""
"html-keyboard-response","240","737645","0.0-4.0-1.0-0.41","acluul8jn2pa5n7","prime","5f21c94e3957f63e8322093f","5f60e3c0a3b16e07647b2ff9","5f60edc321c050010d62cb5d","false","null","<span style=""color: black; font-size: 48px"">N + M</span>","null","","","","resp_prompt","","","","","","","","","","","","","","","",""
"categorize-image","241","738756","0.0-4.0-1.0-1.41","acluul8jn2pa5n7","prime","5f21c94e3957f63e8322093f","5f60e3c0a3b16e07647b2ff9","5f60edc321c050010d62cb5d","true","1108.9999999998836","./Stimuli/SelectedImages/SM/SM76.bmp","76","","","","test","true","N + M","76","switch","SM","SM76.bmp","forget","","90","3","prime1","right","","","",""
"html-keyboard-response","242","740758","0.0-4.0-1.0-3.41","acluul8jn2pa5n7","prime","5f21c94e3957f63e8322093f","5f60e3c0a3b16e07647b2ff9","5f60edc321c050010d62cb5d","false","null","<div style=""align-items: center; display: flex; color: darkorange; font-size: 90px""><b>ø</b></div>","null","","","","forget_cue","","","","","","","","","","","","","","","",""
"html-keyboard-response","243","741460","0.0-4.0-1.0-0.42","acluul8jn2pa5n7","prime","5f21c94e3957f63e8322093f","5f60e3c0a3b16e07647b2ff9","5f60edc321c050010d62cb5d","false","null","<span style=""color: black; font-size: 48px"">N + M</span>","null","","","","resp_prompt","","","","","","","","","","","","","","","",""
"categorize-image","244","742309","0.0-4.0-1.0-1.42","acluul8jn2pa5n7","prime","5f21c94e3957f63e8322093f","5f60e3c0a3b16e07647b2ff9","5f60edc321c050010d62cb5d","true","847","./Stimuli/SelectedImages/SN/SN182.bmp","83","","","","test","true","N + M","83","switch","SN","SN182.bmp","forget","","91","3","prime1","left","","","",""
"html-keyboard-response","245","744310","0.0-4.0-1.0-3.42","acluul8jn2pa5n7","prime","5f21c94e3957f63e8322093f","5f60e3c0a3b16e07647b2ff9","5f60edc321c050010d62cb5d","false","null","<div style=""align-items: center; display: flex; color: darkorange; font-size: 90px""><b>ø</b></div>","null","","","","forget_cue","","","","","","","","","","","","","","","",""
"html-keyboard-response","246","745012","0.0-4.0-1.0-0.43","acluul8jn2pa5n7","prime","5f21c94e3957f63e8322093f","5f60e3c0a3b16e07647b2ff9","5f60edc321c050010d62cb5d","false","null","<span style=""color: black; font-size: 48px"">N + M</span>","null","","","","resp_prompt","","","","","","","","","","","","","","","",""
"categorize-image","247","745906","0.0-4.0-1.0-1.43","acluul8jn2pa5n7","prime","5f21c94e3957f63e8322093f","5f60e3c0a3b16e07647b2ff9","5f60edc321c050010d62cb5d","true","892","./Stimuli/SelectedImages/SN/SN155.bmp","83","","","","test","true","N + M","83","repetition","SN","SN155.bmp","forget","","92","3","prime1","left","","","",""
"html-keyboard-response","248","747908","0.0-4.0-1.0-3.43","acluul8jn2pa5n7","prime","5f21c94e3957f63e8322093f","5f60e3c0a3b16e07647b2ff9","5f60edc321c050010d62cb5d","false","null","<div style=""align-items: center; display: flex; color: darkorange; font-size: 90px""><b>ø</b></div>","null","","","","forget_cue","","","","","","","","","","","","","","","",""
"html-keyboard-response","249","748610","0.0-4.0-1.0-0.44","acluul8jn2pa5n7","prime","5f21c94e3957f63e8322093f","5f60e3c0a3b16e07647b2ff9","5f60edc321c050010d62cb5d","false","null","<span style=""color: black; font-size: 48px"">M + N</span>","null","","","","resp_prompt","","","","","","","","","","","","","","","",""
"categorize-image","250","749444","0.0-4.0-1.0-1.44","acluul8jn2pa5n7","prime","5f21c94e3957f63e8322093f","5f60e3c0a3b16e07647b2ff9","5f60edc321c050010d62cb5d","true","832","./Stimuli/SelectedImages/SN/SN140.bmp","76","","","","test","true","M + N","76","repetition","SN","SN140.bmp","remember","","93","3","prime1","right","","","",""
"html-keyboard-response","251","751446","0.0-4.0-1.0-3.44","acluul8jn2pa5n7","prime","5f21c94e3957f63e8322093f","5f60e3c0a3b16e07647b2ff9","5f60edc321c050010d62cb5d","false","null","<div style=""align-items: center; display: flex; color: dodgerblue; font-size: 90px""><b>o</b></div>","null","","","","forget_cue","","","","","","","","","","","","","","","",""
"html-keyboard-response","252","752148","0.0-4.0-1.0-0.45","acluul8jn2pa5n7","prime","5f21c94e3957f63e8322093f","5f60e3c0a3b16e07647b2ff9","5f60edc321c050010d62cb5d","false","null","<span style=""color: black; font-size: 48px"">N + M</span>","null","","","","resp_prompt","","","","","","","","","","","","","","","",""
"categorize-image","253","752937","0.0-4.0-1.0-1.45","acluul8jn2pa5n7","prime","5f21c94e3957f63e8322093f","5f60e3c0a3b16e07647b2ff9","5f60edc321c050010d62cb5d","true","786","./Stimuli/SelectedImages/LM/LM100.bmp","76","","","","test","true","N + M","76","switch","LM","LM100.bmp","forget","","94","3","prime1","right","","","",""
"html-keyboard-response","254","754938","0.0-4.0-1.0-3.45","acluul8jn2pa5n7","prime","5f21c94e3957f63e8322093f","5f60e3c0a3b16e07647b2ff9","5f60edc321c050010d62cb5d","false","null","<div style=""align-items: center; display: flex; color: darkorange; font-size: 90px""><b>ø</b></div>","null","","","","forget_cue","","","","","","","","","","","","","","","",""
"html-keyboard-response","255","755640","0.0-4.0-1.0-0.46","acluul8jn2pa5n7","prime","5f21c94e3957f63e8322093f","5f60e3c0a3b16e07647b2ff9","5f60edc321c050010d62cb5d","false","null","<span style=""color: black; font-size: 48px"">N + M</span>","null","","","","resp_prompt","","","","","","","","","","","","","","","",""
"categorize-image","256","756431","0.0-4.0-1.0-1.46","acluul8jn2pa5n7","prime","5f21c94e3957f63e8322093f","5f60e3c0a3b16e07647b2ff9","5f60edc321c050010d62cb5d","true","788.9999999998836","./Stimuli/SelectedImages/SM/SM184.bmp","76","","","","test","true","N + M","76","repetition","SM","SM184.bmp","remember","","95","3","prime1","right","","","",""
