"trial_type","trial_index","time_elapsed","internal_node_id","subject","exp_part","prolific_PID","study_ID","session_ID","use","rt","stimulus","key_press","button_pressed","responses","question_order","trial_part","correct","resp_map","correct_resp","probe_condition","category","image","forget_condition","list","trial_num","block_num","block","response","test_part","n_span","sequence","num_spaces"
"pavlovia","0","15","0.0-0.0","lqhcm9yhnd892hv","","5f52578f1d4ccf0b874a2c41","5f60e3c0a3b16e07647b2ff9","5f6389df20589407c02c0f1b","false","","","","","","","","","","","","","","","","","","","","","","",""
"html-keyboard-response","1","53614","0.0-1.0-0.0-0.0","lqhcm9yhnd892hv","welcome","5f52578f1d4ccf0b874a2c41","5f60e3c0a3b16e07647b2ff9","5f6389df20589407c02c0f1b","false","53592.27000000101","<div align=left>Dear participant, <br> thank you for participating in an online study of the Cognition, Action, and Sustainability Unit of the University of Freiburg! <br> <br>The aim of this study is to examine our ability to remember previously learned information. <br>Our goal is to find out, whether our memory improves, when we only remember information that is relevant to us. <br>The experiment will take about 35 minutes to complete. <br> <br>Please, note that you can only participate in this study if you are using a device with a keyboard (PC, Laptop etc.) <br>and not if you are using a mobile device such as a tablet or smartphone.<br> <br>Press 'SPACE' to proceed to the experiment. </div>","32","","","","","","","","","","","","","","","","","","","",""
"html-keyboard-response","2","66932","0.0-1.0-0.0-1.0","lqhcm9yhnd892hv","welcome","5f52578f1d4ccf0b874a2c41","5f60e3c0a3b16e07647b2ff9","5f6389df20589407c02c0f1b","false","13313.924999998562","<div align=left><strong> Time Course of this experiment: </strong> <br><br> <strong> 1.</strong>  First, please fill in some information regarding your demographic data. <br><br> <strong> 2.</strong>  Next, your task will be to classify everyday objects. <br>In addition, you will be asked to remember certain objects and recall them later. <br>Working on these tasks requires your undivided attention and concentration.<br>It is therefore essential that you eliminate any sources of distraction in your  <br>environment and ensure that you will not be disturbed. <br><br><strong> 3.</strong>  At the end of the experiment, you will be asked to answer a few additional questions. <br> <br><strong> Important:</strong> After finishing the experiment, only close the browser window <br> by clicking on the 'end the experiment'-button when you are asked to do so. <br>Closing the browser window prematurely will make the allocation of your participation credit impossible. <br><br> Press 'SPACE' to start the experiment. </div>","32","","","","","","","","","","","","","","","","","","","",""
"html-button-response","3","72055","0.0-1.0-0.0-2.0","lqhcm9yhnd892hv","welcome","5f52578f1d4ccf0b874a2c41","5f60e3c0a3b16e07647b2ff9","5f6389df20589407c02c0f1b","true","5119.464999999764","<div align=left><strong> Informed consent </strong>  <br>The aim of our research is to better understand human behavior and mental processes. <br>In the following study your behavior (e.g. choices, reaction times) will be studied. <br> <br><strong> Voluntariness and Anonymity </strong> <br>Your participation in this study is  <strong> voluntary</strong>.<br>You may withdraw your consent to participate at any time without providing a reason for doing so and without fear of prejudice. <br><br>As no personal data will be collected, <strong>your data and your person cannot be connected after data collection</strong> – the data-set is anonymous. <br>Respectively, deletion of your data will not be possible after data collection has been completed, as we cannot retrace your data-set.<br>The results and anonymized data collected in this study will be published as a scientific publication. <br>This will happen in an <strong>anonymized format</strong>, so that no data can be traced back to a specific person. <br> <br>The anonymized data of this study will be made available to other researchers and/or in a data archive on the Internet as a means of transparency and to enable subsequent re-use. By doing so, this study follows the recommendations of the Deutsche Forschungsgemeinschaft (DFG, German Research Foundation) and Deutsche Gesellschaft für Psychologie (DGPS, German Psychological Society) regarding quality assurance in research.<br>If you have any questions now or after the experiment, please contact our team (experiments@cs.uni-freiburg.de).<br><br><br>I hereby declare, that I understand the above described conditions of participation and I agree to participate under these conditions. <br><br> </div>","","0","","","","","","","","","","","","","","","","","","",""
"html-keyboard-response","4","93425","0.0-1.0-0.0-3.0","lqhcm9yhnd892hv","welcome","5f52578f1d4ccf0b874a2c41","5f60e3c0a3b16e07647b2ff9","5f6389df20589407c02c0f1b","false","21365.765000002284","<div align=left><strong> General information concerning the experiment </strong>  <br> <br>Please follow the instructions:<ol> <li><strong> Do not leave this tab (your browser window) during the experiment and do not reload this tab! </strong>  <br>If you do switch tabs/windows during the experiment (to check your mail or visit another website, for example), <br>the experiment will end automatically and you will <strong>not receive credit</strong> for your participation. <br>Repeated participation or resumption of the experiment is impossible.</li> <br><li>Please close all other programs for the duration of your participation. </li> <br><li>Please mute or turn off your phone and put it out of your reach. </li> <br><li>Please also take off any disturbing accessories (such as wristwatches, bracelets, etc.). </li> <br><li>If you have music playing in the background, please turn it off now. </li> <br></ol>Thank you! <br>Press 'SPACE' to continue. </div>","32","","","","","","","","","","","","","","","","","","","",""
"survey-text","5","106031","0.0-1.0-1.0-0.0","lqhcm9yhnd892hv","demographics","5f52578f1d4ccf0b874a2c41","5f60e3c0a3b16e07647b2ff9","5f6389df20589407c02c0f1b","true","12594.489999999496","","","","{""age"":""28""}","","","","","","","","","","","","","","","","","",""
"survey-multi-choice","6","136804","0.0-1.0-1.0-1.0","lqhcm9yhnd892hv","demographics","5f52578f1d4ccf0b874a2c41","5f60e3c0a3b16e07647b2ff9","5f6389df20589407c02c0f1b","true","30765.455000000657","","","","{""gender"":""male"",""school"":""others"",""education"":""Completed university degree or equivalent""}","[0,1,2]","","","","","","","","","","","","","","","","",""
"html-keyboard-response","7","160284","0.0-1.0-2.0","lqhcm9yhnd892hv","instructions","5f52578f1d4ccf0b874a2c41","5f60e3c0a3b16e07647b2ff9","5f6389df20589407c02c0f1b","false","23474.24499999761","<div align=left> The experiment is now about to start: <br> <br>In the following part, you will be presented pictures of everyday objects. <br>Your first task is to <strong>classify these objects. </strong> <br> <br> You will classify them either as mechanical or non-mechanical objects. <br> <br>Objects that include any kind of technical mechanism (for example, wheels, switches, levers, <br> electronic components) fall under the category of <strong>mechanical</strong> objects. <br>Only objects without any kind of technical mechanism should be classified as <strong>non-mechanical</strong>. <br><br>Press 'SPACE' to continue. </div>","32","","","","","","","","","","","","","","","","","","","",""
"html-keyboard-response","8","304653","0.0-2.0-0.0","lqhcm9yhnd892hv","instructions","5f52578f1d4ccf0b874a2c41","5f60e3c0a3b16e07647b2ff9","5f6389df20589407c02c0f1b","false","144365.3099999974","<div align=justify>You will classify the objects using the <strong>'S'</strong> and the <strong>'L'</strong> keys on your keyboard.<br>For doing so, please place your <strong>left index finger</strong> on the <strong>'S'</strong> key and place your <strong>right index finger</strong> on the <strong>'L'</strong> key. <br><br> Each trial starts with an instruction, indicating which key ('S'/'L') you need to press to classify <br>the object as mechanical (letter M) or non-mechanical (letter N).<br>The instruction <strong>M + N</strong> indicates that, in the current trial, by pressing the left key ('S') you classify the displayed object as mechanical (M) <br> and by pressing the right key ('L') you classify the object as non-mechanical (N). <br>The instruction <strong>N + M</strong> on the other hand indicates that by pressing the left key ('S') you classify the displayed object as non-mechanical (N) <br> and by pressing the right key ('L') you classify the object as mechanical (M). <br><br>Please press the key corresponding to the correct classification as fast as possible as soon as the object is displayed and try to avoid making mistakes.<br>If you do not respond within a 2 second window, a corresponding feedback will be displayed and the next trial will start.<br> The experiment is divided into multiple blocks to give you the opportunity to take a break after each block. <br>First, you can now practice this task. <br><br>Please place your <strong>LEFT INDEX FINGER</strong> on the 'S' key and your <strong>RIGHT INDEX FINGER</strong> on the 'L' key now. <br><br>Press SPACE to continue.</div>","32","","","","","","","","","","","","","","","","","","","",""
"html-keyboard-response","9","356477","0.0-2.0-1.0","lqhcm9yhnd892hv","instructions","5f52578f1d4ccf0b874a2c41","5f60e3c0a3b16e07647b2ff9","5f6389df20589407c02c0f1b","false","51821.08499999961","<div align=left> You will now have time to practice this task.<br><br>Remember: <br> <br><li>Please place your index fingers on the <strong>'S'</strong> and <strong>'L'</strong> keys <br>to respond as fast and accurately as possible.</li><li>Every picture can be classified as either mechanical or non-mechanical.</li><li>If you do not respond in time or commit an error, you will receive a corresponding feedback. </li><li> Please try to respond as <strong> fast </strong> and as <strong> accurately as possible </strong> .<br><li>To ensure optimal results, please minimize distractions and stay focused. </li><br><br>Press SPACE to continue.</div>","32","","","","","","","","","","","","","","","","","","","",""
"html-keyboard-response","10","357198","0.0-2.0-2.0-0.0","lqhcm9yhnd892hv","practice_no_cue","5f52578f1d4ccf0b874a2c41","5f60e3c0a3b16e07647b2ff9","5f6389df20589407c02c0f1b","false","null","<span style=""color: black; font-size: 48px"">N + M</span>","null","","","","resp_prompt","","","","","","","","","","","","","","","",""
"categorize-image","11","358568","0.0-2.0-2.0-1.0","lqhcm9yhnd892hv","practice_no_cue","5f52578f1d4ccf0b874a2c41","5f60e3c0a3b16e07647b2ff9","5f6389df20589407c02c0f1b","true","862.3850000003586","./Stimuli/ImagesPractice/LN72.jpg","83","","","","test","true","N + M","83","","LN","LN72.jpg","remember","old","1","1","start","left","","","",""
"html-keyboard-response","12","359285","0.0-2.0-2.0-0.1","lqhcm9yhnd892hv","practice_no_cue","5f52578f1d4ccf0b874a2c41","5f60e3c0a3b16e07647b2ff9","5f6389df20589407c02c0f1b","false","null","<span style=""color: black; font-size: 48px"">M + N</span>","null","","","","resp_prompt","","","","","","","","","","","","","","","",""
"categorize-image","13","360920","0.0-2.0-2.0-1.1","lqhcm9yhnd892hv","practice_no_cue","5f52578f1d4ccf0b874a2c41","5f60e3c0a3b16e07647b2ff9","5f6389df20589407c02c0f1b","true","1131.0250000024098","./Stimuli/ImagesPractice/LN15.jpg","83","","","","test","false","M + N","76","","LN","LN15.jpg","forget","old","2","1","start","left","","","",""
"html-keyboard-response","14","361623","0.0-2.0-2.0-0.2","lqhcm9yhnd892hv","practice_no_cue","5f52578f1d4ccf0b874a2c41","5f60e3c0a3b16e07647b2ff9","5f6389df20589407c02c0f1b","false","null","<span style=""color: black; font-size: 48px"">M + N</span>","null","","","","resp_prompt","","","","","","","","","","","","","","","",""
"categorize-image","15","362983","0.0-2.0-2.0-1.2","lqhcm9yhnd892hv","practice_no_cue","5f52578f1d4ccf0b874a2c41","5f60e3c0a3b16e07647b2ff9","5f6389df20589407c02c0f1b","true","842.0399999995134","./Stimuli/ImagesPractice/LM230.jpg","76","","","","test","false","M + N","83","","LM","LM230.jpg","remember","old","3","1","start","right","","","",""
"html-keyboard-response","16","363697","0.0-2.0-2.0-0.3","lqhcm9yhnd892hv","practice_no_cue","5f52578f1d4ccf0b874a2c41","5f60e3c0a3b16e07647b2ff9","5f6389df20589407c02c0f1b","false","null","<span style=""color: black; font-size: 48px"">N + M</span>","null","","","","resp_prompt","","","","","","","","","","","","","","","",""
"categorize-image","17","365183","0.0-2.0-2.0-1.3","lqhcm9yhnd892hv","practice_no_cue","5f52578f1d4ccf0b874a2c41","5f60e3c0a3b16e07647b2ff9","5f6389df20589407c02c0f1b","true","982.9250000002794","./Stimuli/ImagesPractice/LM147.jpg","76","","","","test","true","N + M","76","","LM","LM147.jpg","remember","old","4","1","start","right","","","",""
"html-keyboard-response","18","365886","0.0-2.0-2.0-0.4","lqhcm9yhnd892hv","practice_no_cue","5f52578f1d4ccf0b874a2c41","5f60e3c0a3b16e07647b2ff9","5f6389df20589407c02c0f1b","false","null","<span style=""color: black; font-size: 48px"">M + N</span>","null","","","","resp_prompt","","","","","","","","","","","","","","","",""
"categorize-image","19","367276","0.0-2.0-2.0-1.4","lqhcm9yhnd892hv","practice_no_cue","5f52578f1d4ccf0b874a2c41","5f60e3c0a3b16e07647b2ff9","5f6389df20589407c02c0f1b","true","885.8150000014575","./Stimuli/ImagesPractice/SN222.jpg","83","","","","test","false","M + N","76","","SN","SN222.jpg","forget","old","5","1","start","left","","","",""
"html-keyboard-response","20","367978","0.0-2.0-2.0-0.5","lqhcm9yhnd892hv","practice_no_cue","5f52578f1d4ccf0b874a2c41","5f60e3c0a3b16e07647b2ff9","5f6389df20589407c02c0f1b","false","null","<span style=""color: black; font-size: 48px"">N + M</span>","null","","","","resp_prompt","","","","","","","","","","","","","","","",""
"categorize-image","21","369186","0.0-2.0-2.0-1.5","lqhcm9yhnd892hv","practice_no_cue","5f52578f1d4ccf0b874a2c41","5f60e3c0a3b16e07647b2ff9","5f6389df20589407c02c0f1b","true","702.8199999985518","./Stimuli/ImagesPractice/SN76.jpg","83","","","","test","true","N + M","83","","SN","SN76.jpg","remember","old","6","1","start","left","","","",""
"html-keyboard-response","22","369888","0.0-2.0-2.0-0.6","lqhcm9yhnd892hv","practice_no_cue","5f52578f1d4ccf0b874a2c41","5f60e3c0a3b16e07647b2ff9","5f6389df20589407c02c0f1b","false","null","<span style=""color: black; font-size: 48px"">M + N</span>","null","","","","resp_prompt","","","","","","","","","","","","","","","",""
"categorize-image","23","371394","0.0-2.0-2.0-1.6","lqhcm9yhnd892hv","practice_no_cue","5f52578f1d4ccf0b874a2c41","5f60e3c0a3b16e07647b2ff9","5f6389df20589407c02c0f1b","true","976.105000001553","./Stimuli/ImagesPractice/SN75.jpg","83","","","","test","false","M + N","76","","SN","SN75.jpg","remember","old","7","1","start","left","","","",""
"html-keyboard-response","24","372111","0.0-2.0-2.0-0.7","lqhcm9yhnd892hv","practice_no_cue","5f52578f1d4ccf0b874a2c41","5f60e3c0a3b16e07647b2ff9","5f6389df20589407c02c0f1b","false","null","<span style=""color: black; font-size: 48px"">N + M</span>","null","","","","resp_prompt","","","","","","","","","","","","","","","",""
"categorize-image","25","372826","0.0-2.0-2.0-1.7","lqhcm9yhnd892hv","practice_no_cue","5f52578f1d4ccf0b874a2c41","5f60e3c0a3b16e07647b2ff9","5f6389df20589407c02c0f1b","true","210.13999999919906","./Stimuli/ImagesPractice/SM98.jpg","83","","","","test","false","N + M","76","","SM","SM98.jpg","forget","old","8","1","start","left","","","",""
"html-keyboard-response","26","373542","0.0-2.0-2.0-0.8","lqhcm9yhnd892hv","practice_no_cue","5f52578f1d4ccf0b874a2c41","5f60e3c0a3b16e07647b2ff9","5f6389df20589407c02c0f1b","false","null","<span style=""color: black; font-size: 48px"">M + N</span>","null","","","","resp_prompt","","","","","","","","","","","","","","","",""
"categorize-image","27","374970","0.0-2.0-2.0-1.8","lqhcm9yhnd892hv","practice_no_cue","5f52578f1d4ccf0b874a2c41","5f60e3c0a3b16e07647b2ff9","5f6389df20589407c02c0f1b","true","924.5400000000373","./Stimuli/ImagesPractice/LN2.jpg","76","","","","test","true","M + N","76","","LN","LN2.jpg","forget","old","9","1","start","right","","","",""
"html-keyboard-response","28","375672","0.0-2.0-2.0-0.9","lqhcm9yhnd892hv","practice_no_cue","5f52578f1d4ccf0b874a2c41","5f60e3c0a3b16e07647b2ff9","5f6389df20589407c02c0f1b","false","null","<span style=""color: black; font-size: 48px"">N + M</span>","null","","","","resp_prompt","","","","","","","","","","","","","","","",""
"categorize-image","29","377241","0.0-2.0-2.0-1.9","lqhcm9yhnd892hv","practice_no_cue","5f52578f1d4ccf0b874a2c41","5f60e3c0a3b16e07647b2ff9","5f6389df20589407c02c0f1b","true","1063.7249999999767","./Stimuli/ImagesPractice/SM97.jpg","76","","","","test","true","N + M","76","","SM","SM97.jpg","forget","old","10","1","start","right","","","",""
"html-keyboard-response","30","377959","0.0-2.0-2.0-0.10","lqhcm9yhnd892hv","practice_no_cue","5f52578f1d4ccf0b874a2c41","5f60e3c0a3b16e07647b2ff9","5f6389df20589407c02c0f1b","false","null","<span style=""color: black; font-size: 48px"">M + N</span>","null","","","","resp_prompt","","","","","","","","","","","","","","","",""
"categorize-image","31","379133","0.0-2.0-2.0-1.10","lqhcm9yhnd892hv","practice_no_cue","5f52578f1d4ccf0b874a2c41","5f60e3c0a3b16e07647b2ff9","5f6389df20589407c02c0f1b","true","662.0350000011967","./Stimuli/ImagesPractice/LM55.jpg","83","","","","test","true","M + N","83","","LM","LM55.jpg","remember","old","11","1","start","left","","","",""
"html-keyboard-response","32","379848","0.0-2.0-2.0-0.11","lqhcm9yhnd892hv","practice_no_cue","5f52578f1d4ccf0b874a2c41","5f60e3c0a3b16e07647b2ff9","5f6389df20589407c02c0f1b","false","null","<span style=""color: black; font-size: 48px"">M + N</span>","null","","","","resp_prompt","","","","","","","","","","","","","","","",""
"categorize-image","33","381224","0.0-2.0-2.0-1.11","lqhcm9yhnd892hv","practice_no_cue","5f52578f1d4ccf0b874a2c41","5f60e3c0a3b16e07647b2ff9","5f6389df20589407c02c0f1b","true","860.499999998894","./Stimuli/ImagesPractice/SM61.jpg","76","","","","test","false","M + N","83","","SM","SM61.jpg","remember","old","12","1","start","right","","","",""
"html-keyboard-response","34","381941","0.0-2.0-2.0-0.12","lqhcm9yhnd892hv","practice_no_cue","5f52578f1d4ccf0b874a2c41","5f60e3c0a3b16e07647b2ff9","5f6389df20589407c02c0f1b","false","null","<span style=""color: black; font-size: 48px"">N + M</span>","null","","","","resp_prompt","","","","","","","","","","","","","","","",""
"categorize-image","35","383434","0.0-2.0-2.0-1.12","lqhcm9yhnd892hv","practice_no_cue","5f52578f1d4ccf0b874a2c41","5f60e3c0a3b16e07647b2ff9","5f6389df20589407c02c0f1b","true","989.5350000006147","./Stimuli/ImagesPractice/SN220.jpg","83","","","","test","true","N + M","83","","SN","SN220.jpg","remember","old","13","1","start","left","","","",""
"html-keyboard-response","36","384137","0.0-2.0-2.0-0.13","lqhcm9yhnd892hv","practice_no_cue","5f52578f1d4ccf0b874a2c41","5f60e3c0a3b16e07647b2ff9","5f6389df20589407c02c0f1b","false","null","<span style=""color: black; font-size: 48px"">N + M</span>","null","","","","resp_prompt","","","","","","","","","","","","","","","",""
"categorize-image","37","385473","0.0-2.0-2.0-1.13","lqhcm9yhnd892hv","practice_no_cue","5f52578f1d4ccf0b874a2c41","5f60e3c0a3b16e07647b2ff9","5f6389df20589407c02c0f1b","true","818.4399999991292","./Stimuli/ImagesPractice/LN109.jpg","83","","","","test","true","N + M","83","","LN","LN109.jpg","forget","old","14","1","start","left","","","",""
"html-keyboard-response","38","386175","0.0-2.0-2.0-0.14","lqhcm9yhnd892hv","practice_no_cue","5f52578f1d4ccf0b874a2c41","5f60e3c0a3b16e07647b2ff9","5f6389df20589407c02c0f1b","false","null","<span style=""color: black; font-size: 48px"">N + M</span>","null","","","","resp_prompt","","","","","","","","","","","","","","","",""
"categorize-image","39","387696","0.0-2.0-2.0-1.14","lqhcm9yhnd892hv","practice_no_cue","5f52578f1d4ccf0b874a2c41","5f60e3c0a3b16e07647b2ff9","5f6389df20589407c02c0f1b","true","1014.7699999979232","./Stimuli/ImagesPractice/LM239.jpg","83","","","","test","false","N + M","76","","LM","LM239.jpg","forget","old","15","1","start","left","","","",""
"html-keyboard-response","40","388407","0.0-2.0-2.0-0.15","lqhcm9yhnd892hv","practice_no_cue","5f52578f1d4ccf0b874a2c41","5f60e3c0a3b16e07647b2ff9","5f6389df20589407c02c0f1b","false","null","<span style=""color: black; font-size: 48px"">M + N</span>","null","","","","resp_prompt","","","","","","","","","","","","","","","",""
"categorize-image","41","389859","0.0-2.0-2.0-1.15","lqhcm9yhnd892hv","practice_no_cue","5f52578f1d4ccf0b874a2c41","5f60e3c0a3b16e07647b2ff9","5f6389df20589407c02c0f1b","true","949.1200000011013","./Stimuli/ImagesPractice/SM35.jpg","83","","","","test","true","M + N","83","","SM","SM35.jpg","forget","old","16","1","start","left","","","",""
"html-keyboard-response","42","398883","0.0-2.0-3.0","lqhcm9yhnd892hv","break","5f52578f1d4ccf0b874a2c41","5f60e3c0a3b16e07647b2ff9","5f6389df20589407c02c0f1b","false","9019.440000000002","<p style='font-size: 32px;'>Break</><br><br><br><br><br><p style='font-size: 24px;'>In the last block, you committed 7 errors and did not respond in time on 0 trials.
</p><p style='font-size: 24px;'>Try to respond as fast and accurately as possible in the next block as well! </p><p style='font-size: 24px;'>Press SPACE to continue.</p>","32","","","","","","","","","","","","","","","","","","","",""
"html-keyboard-response","43","408910","0.0-2.0-4.0","lqhcm9yhnd892hv","instructions","5f52578f1d4ccf0b874a2c41","5f60e3c0a3b16e07647b2ff9","5f6389df20589407c02c0f1b","false","10023.774999997811","<div align=left> Great!<br><br>Are you ready to continue?<br><br>If you want to reread the instructions and redo the practice trials, <br>please press „Z“. <br><br>Press SPACE to CONTINUE with the experiment when you are ready. </div>","32","","","","","","","","","","","","","","","","","","","",""
"html-keyboard-response","44","453482","0.0-3.0-0.0","lqhcm9yhnd892hv","instructions","5f52578f1d4ccf0b874a2c41","5f60e3c0a3b16e07647b2ff9","5f6389df20589407c02c0f1b","false","44568.81499999878","<div align=left>Great!<br> <strong>Attention</strong>! You will now receive a second, additional task! <br><br>To this point it was you <strong>first task</strong> to correctly <strong>classify objects</strong>. <br><br>As mentioned in the beginning, we aim to examine how well humans can remember previously learned information.<br>We would like to find out whether our memory improves if we only remember information that is relevant to us. <br><br>Therefore, your <strong>second task</strong> will be to <strong>remember</strong> the pictures you are to categorize. <br> After the learning phase, there will be a memory test phase, in which you will be asked to indicate whether you have seen a picture before or not. <br>Some, but not all pictures shown in the learning phase will appear in the memory test phase.<br>After classifying a picture, you will be told whether you should remember it for the memory test phase or not. <br>Thus, some pictures can be forgotten, whereas others have to be remembered. <br><br>Note: From now on, feedback will only be displayed if you responded incorrectly or not in time.<br><br>Press SPACE to continue.</div>","32","","","","","","","","","","","","","","","","","","","",""
"html-keyboard-response","45","493531","0.0-3.0-1.0","lqhcm9yhnd892hv","instructions","5f52578f1d4ccf0b874a2c41","5f60e3c0a3b16e07647b2ff9","5f6389df20589407c02c0f1b","false","40046.604999999516","<div align=left>In the following part, you will thus have to remember only some pictures. <br>Immediately after seeing and classifying the picture, a symbol will be displayed, indicating whether you should remember or forget the previous picture. <br><br>A <span style='color: dodgerblue; font-size: 28px'>O</span> indicates REMEMBER. That means, you have to remember this picture, because it will be tested later. <br><br>A <span style='color: darkorange; font-size:28px'>Ø</span> indicates FORGET. You do not have to remember this picture. <br><br> As you will have to remember a lot of pictures, it will be hard for you to remember all of them. <br>It will put you at an advantage if you instantly forget the pictures you are not asked to remember. <br> This will make it easier for you to remember the pictures that will be tested afterwards. <br><br>Press SPACE to continue.</div>","32","","","","","","","","","","","","","","","","","","","",""
"html-keyboard-response","46","498893","0.0-3.0-2.0","lqhcm9yhnd892hv","instructions","5f52578f1d4ccf0b874a2c41","5f60e3c0a3b16e07647b2ff9","5f6389df20589407c02c0f1b","false","5359.65999999817","<div align=left> Now you have the chance to practice both tasks together.<br><br>Remember: <br> <br><li>Please place your index fingers on the <strong>'S'</strong> and <strong>'L'</strong> keys <br>to respond as fast and accurately as possible.</li><li>Every picture can be classified as either mechanical or non-mechanical.</li><li>If you do not respond in time or commit an error, you will receive a corresponding feedback. <br>Please try to respond as <strong> fast </strong> and as <strong> accurately as possible </strong>.</li><li> Please remember only the to-be-remembered <span style='color: dodgerblue; font-size: 28px'>O</span> pictures. <br></li><li> Please minimize distractions and stay focused. </li><br><br>Press SPACE to START</div>","32","","","","","","","","","","","","","","","","","","","",""
"html-keyboard-response","47","499604","0.0-3.0-3.0-0.0","lqhcm9yhnd892hv","practice_cue","5f52578f1d4ccf0b874a2c41","5f60e3c0a3b16e07647b2ff9","5f6389df20589407c02c0f1b","false","null","<span style=""color: black; font-size: 48px"">M + N</span>","null","","","","resp_prompt","","","","","","","","","","","","","","","",""
"categorize-image","48","500307","0.0-3.0-3.0-1.0","lqhcm9yhnd892hv","practice_cue","5f52578f1d4ccf0b874a2c41","5f60e3c0a3b16e07647b2ff9","5f6389df20589407c02c0f1b","true","693.6600000008475","./Stimuli/ImagesPractice/SN75.jpg","76","","","","test","true","M + N","76","","SN","SN75.jpg","remember","old","17","2","practice_forget","right","","","",""
"html-keyboard-response","49","502311","0.0-3.0-3.0-3.0","lqhcm9yhnd892hv","practice_cue","5f52578f1d4ccf0b874a2c41","5f60e3c0a3b16e07647b2ff9","5f6389df20589407c02c0f1b","false","null","<div style=""align-items: center; display: flex; color: dodgerblue; font-size: 90px""><b>o</b></div>","null","","","","forget_cue","","","","","","","","","","","","","","","",""
"html-keyboard-response","50","503014","0.0-3.0-3.0-0.1","lqhcm9yhnd892hv","practice_cue","5f52578f1d4ccf0b874a2c41","5f60e3c0a3b16e07647b2ff9","5f6389df20589407c02c0f1b","false","null","<span style=""color: black; font-size: 48px"">M + N</span>","null","","","","resp_prompt","","","","","","","","","","","","","","","",""
"categorize-image","51","503781","0.0-3.0-3.0-1.1","lqhcm9yhnd892hv","practice_cue","5f52578f1d4ccf0b874a2c41","5f60e3c0a3b16e07647b2ff9","5f6389df20589407c02c0f1b","true","760.710000002291","./Stimuli/ImagesPractice/LN15.jpg","76","","","","test","true","M + N","76","","LN","LN15.jpg","forget","old","18","2","practice_forget","right","","","",""
"html-keyboard-response","52","505797","0.0-3.0-3.0-3.1","lqhcm9yhnd892hv","practice_cue","5f52578f1d4ccf0b874a2c41","5f60e3c0a3b16e07647b2ff9","5f6389df20589407c02c0f1b","false","null","<div style=""align-items: center; display: flex; color: darkorange; font-size: 90px""><b>ø</b></div>","null","","","","forget_cue","","","","","","","","","","","","","","","",""
"html-keyboard-response","53","506500","0.0-3.0-3.0-0.2","lqhcm9yhnd892hv","practice_cue","5f52578f1d4ccf0b874a2c41","5f60e3c0a3b16e07647b2ff9","5f6389df20589407c02c0f1b","false","null","<span style=""color: black; font-size: 48px"">N + M</span>","null","","","","resp_prompt","","","","","","","","","","","","","","","",""
"categorize-image","54","507210","0.0-3.0-3.0-1.2","lqhcm9yhnd892hv","practice_cue","5f52578f1d4ccf0b874a2c41","5f60e3c0a3b16e07647b2ff9","5f6389df20589407c02c0f1b","true","702.8399999981048","./Stimuli/ImagesPractice/SM97.jpg","76","","","","test","true","N + M","76","","SM","SM97.jpg","forget","old","19","2","practice_forget","right","","","",""
"html-keyboard-response","55","509228","0.0-3.0-3.0-3.2","lqhcm9yhnd892hv","practice_cue","5f52578f1d4ccf0b874a2c41","5f60e3c0a3b16e07647b2ff9","5f6389df20589407c02c0f1b","false","null","<div style=""align-items: center; display: flex; color: darkorange; font-size: 90px""><b>ø</b></div>","null","","","","forget_cue","","","","","","","","","","","","","","","",""
"html-keyboard-response","56","509930","0.0-3.0-3.0-0.3","lqhcm9yhnd892hv","practice_cue","5f52578f1d4ccf0b874a2c41","5f60e3c0a3b16e07647b2ff9","5f6389df20589407c02c0f1b","false","null","<span style=""color: black; font-size: 48px"">M + N</span>","null","","","","resp_prompt","","","","","","","","","","","","","","","",""
"categorize-image","57","510646","0.0-3.0-3.0-1.3","lqhcm9yhnd892hv","practice_cue","5f52578f1d4ccf0b874a2c41","5f60e3c0a3b16e07647b2ff9","5f6389df20589407c02c0f1b","true","709.1099999998696","./Stimuli/ImagesPractice/LM230.jpg","83","","","","test","true","M + N","83","","LM","LM230.jpg","remember","old","20","2","practice_forget","left","","","",""
"html-keyboard-response","58","512660","0.0-3.0-3.0-3.3","lqhcm9yhnd892hv","practice_cue","5f52578f1d4ccf0b874a2c41","5f60e3c0a3b16e07647b2ff9","5f6389df20589407c02c0f1b","false","null","<div style=""align-items: center; display: flex; color: dodgerblue; font-size: 90px""><b>o</b></div>","null","","","","forget_cue","","","","","","","","","","","","","","","",""
"html-keyboard-response","59","513363","0.0-3.0-3.0-0.4","lqhcm9yhnd892hv","practice_cue","5f52578f1d4ccf0b874a2c41","5f60e3c0a3b16e07647b2ff9","5f6389df20589407c02c0f1b","false","null","<span style=""color: black; font-size: 48px"">N + M</span>","null","","","","resp_prompt","","","","","","","","","","","","","","","",""
"categorize-image","60","514267","0.0-3.0-3.0-1.4","lqhcm9yhnd892hv","practice_cue","5f52578f1d4ccf0b874a2c41","5f60e3c0a3b16e07647b2ff9","5f6389df20589407c02c0f1b","true","897.1400000009453","./Stimuli/ImagesPractice/LM239.jpg","76","","","","test","true","N + M","76","","LM","LM239.jpg","forget","old","21","2","practice_forget","right","","","",""
"html-keyboard-response","61","516284","0.0-3.0-3.0-3.4","lqhcm9yhnd892hv","practice_cue","5f52578f1d4ccf0b874a2c41","5f60e3c0a3b16e07647b2ff9","5f6389df20589407c02c0f1b","false","null","<div style=""align-items: center; display: flex; color: darkorange; font-size: 90px""><b>ø</b></div>","null","","","","forget_cue","","","","","","","","","","","","","","","",""
"html-keyboard-response","62","516993","0.0-3.0-3.0-0.5","lqhcm9yhnd892hv","practice_cue","5f52578f1d4ccf0b874a2c41","5f60e3c0a3b16e07647b2ff9","5f6389df20589407c02c0f1b","false","null","<span style=""color: black; font-size: 48px"">N + M</span>","null","","","","resp_prompt","","","","","","","","","","","","","","","",""
"categorize-image","63","517920","0.0-3.0-3.0-1.5","lqhcm9yhnd892hv","practice_cue","5f52578f1d4ccf0b874a2c41","5f60e3c0a3b16e07647b2ff9","5f6389df20589407c02c0f1b","true","918.4150000001537","./Stimuli/ImagesPractice/LM147.jpg","76","","","","test","true","N + M","76","","LM","LM147.jpg","remember","old","22","2","practice_forget","right","","","",""
"html-keyboard-response","64","519931","0.0-3.0-3.0-3.5","lqhcm9yhnd892hv","practice_cue","5f52578f1d4ccf0b874a2c41","5f60e3c0a3b16e07647b2ff9","5f6389df20589407c02c0f1b","false","null","<div style=""align-items: center; display: flex; color: dodgerblue; font-size: 90px""><b>o</b></div>","null","","","","forget_cue","","","","","","","","","","","","","","","",""
"html-keyboard-response","65","520633","0.0-3.0-3.0-0.6","lqhcm9yhnd892hv","practice_cue","5f52578f1d4ccf0b874a2c41","5f60e3c0a3b16e07647b2ff9","5f6389df20589407c02c0f1b","false","null","<span style=""color: black; font-size: 48px"">M + N</span>","null","","","","resp_prompt","","","","","","","","","","","","","","","",""
"categorize-image","66","521600","0.0-3.0-3.0-1.6","lqhcm9yhnd892hv","practice_cue","5f52578f1d4ccf0b874a2c41","5f60e3c0a3b16e07647b2ff9","5f6389df20589407c02c0f1b","true","954.4599999971688","./Stimuli/ImagesPractice/LM55.jpg","83","","","","test","true","M + N","83","","LM","LM55.jpg","remember","old","23","2","practice_forget","left","","","",""
"html-keyboard-response","67","523606","0.0-3.0-3.0-3.6","lqhcm9yhnd892hv","practice_cue","5f52578f1d4ccf0b874a2c41","5f60e3c0a3b16e07647b2ff9","5f6389df20589407c02c0f1b","false","null","<div style=""align-items: center; display: flex; color: dodgerblue; font-size: 90px""><b>o</b></div>","null","","","","forget_cue","","","","","","","","","","","","","","","",""
"html-keyboard-response","68","524316","0.0-3.0-3.0-0.7","lqhcm9yhnd892hv","practice_cue","5f52578f1d4ccf0b874a2c41","5f60e3c0a3b16e07647b2ff9","5f6389df20589407c02c0f1b","false","null","<span style=""color: black; font-size: 48px"">N + M</span>","null","","","","resp_prompt","","","","","","","","","","","","","","","",""
"categorize-image","69","525050","0.0-3.0-3.0-1.7","lqhcm9yhnd892hv","practice_cue","5f52578f1d4ccf0b874a2c41","5f60e3c0a3b16e07647b2ff9","5f6389df20589407c02c0f1b","true","724.2299999997485","./Stimuli/ImagesPractice/SN76.jpg","76","","","","test","false","N + M","83","","SN","SN76.jpg","remember","old","24","2","practice_forget","right","","","",""
"html-keyboard-response","70","525563","0.0-3.0-3.0-2.7-0.7","lqhcm9yhnd892hv","practice_cue","5f52578f1d4ccf0b874a2c41","5f60e3c0a3b16e07647b2ff9","5f6389df20589407c02c0f1b","false","null","<span style=""color: red; font-size: 48px"">Error!</span>","null","","","","feedback","","","","","","","","","","","","","","","",""
"html-keyboard-response","71","527576","0.0-3.0-3.0-3.7","lqhcm9yhnd892hv","practice_cue","5f52578f1d4ccf0b874a2c41","5f60e3c0a3b16e07647b2ff9","5f6389df20589407c02c0f1b","false","null","<div style=""align-items: center; display: flex; color: dodgerblue; font-size: 90px""><b>o</b></div>","null","","","","forget_cue","","","","","","","","","","","","","","","",""
"html-keyboard-response","72","528283","0.0-3.0-3.0-0.8","lqhcm9yhnd892hv","practice_cue","5f52578f1d4ccf0b874a2c41","5f60e3c0a3b16e07647b2ff9","5f6389df20589407c02c0f1b","false","null","<span style=""color: black; font-size: 48px"">M + N</span>","null","","","","resp_prompt","","","","","","","","","","","","","","","",""
"categorize-image","73","529182","0.0-3.0-3.0-1.8","lqhcm9yhnd892hv","practice_cue","5f52578f1d4ccf0b874a2c41","5f60e3c0a3b16e07647b2ff9","5f6389df20589407c02c0f1b","true","891.1699999988778","./Stimuli/ImagesPractice/LN2.jpg","76","","","","test","true","M + N","76","","LN","LN2.jpg","forget","old","25","2","practice_forget","right","","","",""
"html-keyboard-response","74","531185","0.0-3.0-3.0-3.8","lqhcm9yhnd892hv","practice_cue","5f52578f1d4ccf0b874a2c41","5f60e3c0a3b16e07647b2ff9","5f6389df20589407c02c0f1b","false","null","<div style=""align-items: center; display: flex; color: darkorange; font-size: 90px""><b>ø</b></div>","null","","","","forget_cue","","","","","","","","","","","","","","","",""
"html-keyboard-response","75","531893","0.0-3.0-3.0-0.9","lqhcm9yhnd892hv","practice_cue","5f52578f1d4ccf0b874a2c41","5f60e3c0a3b16e07647b2ff9","5f6389df20589407c02c0f1b","false","null","<span style=""color: black; font-size: 48px"">M + N</span>","null","","","","resp_prompt","","","","","","","","","","","","","","","",""
"categorize-image","76","532740","0.0-3.0-3.0-1.9","lqhcm9yhnd892hv","practice_cue","5f52578f1d4ccf0b874a2c41","5f60e3c0a3b16e07647b2ff9","5f6389df20589407c02c0f1b","true","837.42500000156","./Stimuli/ImagesPractice/SM61.jpg","76","","","","test","false","M + N","83","","SM","SM61.jpg","remember","old","26","2","practice_forget","right","","","",""
"html-keyboard-response","77","533242","0.0-3.0-3.0-2.9-0.9","lqhcm9yhnd892hv","practice_cue","5f52578f1d4ccf0b874a2c41","5f60e3c0a3b16e07647b2ff9","5f6389df20589407c02c0f1b","false","null","<span style=""color: red; font-size: 48px"">Error!</span>","null","","","","feedback","","","","","","","","","","","","","","","",""
"html-keyboard-response","78","535249","0.0-3.0-3.0-3.9","lqhcm9yhnd892hv","practice_cue","5f52578f1d4ccf0b874a2c41","5f60e3c0a3b16e07647b2ff9","5f6389df20589407c02c0f1b","false","null","<div style=""align-items: center; display: flex; color: dodgerblue; font-size: 90px""><b>o</b></div>","null","","","","forget_cue","","","","","","","","","","","","","","","",""
"html-keyboard-response","79","535951","0.0-3.0-3.0-0.10","lqhcm9yhnd892hv","practice_cue","5f52578f1d4ccf0b874a2c41","5f60e3c0a3b16e07647b2ff9","5f6389df20589407c02c0f1b","false","null","<span style=""color: black; font-size: 48px"">N + M</span>","null","","","","resp_prompt","","","","","","","","","","","","","","","",""
"categorize-image","80","537007","0.0-3.0-3.0-1.10","lqhcm9yhnd892hv","practice_cue","5f52578f1d4ccf0b874a2c41","5f60e3c0a3b16e07647b2ff9","5f6389df20589407c02c0f1b","true","1048.850000002887","./Stimuli/ImagesPractice/LN72.jpg","83","","","","test","true","N + M","83","","LN","LN72.jpg","remember","old","27","2","practice_forget","left","","","",""
"html-keyboard-response","81","539011","0.0-3.0-3.0-3.10","lqhcm9yhnd892hv","practice_cue","5f52578f1d4ccf0b874a2c41","5f60e3c0a3b16e07647b2ff9","5f6389df20589407c02c0f1b","false","null","<div style=""align-items: center; display: flex; color: dodgerblue; font-size: 90px""><b>o</b></div>","null","","","","forget_cue","","","","","","","","","","","","","","","",""
"html-keyboard-response","82","539713","0.0-3.0-3.0-0.11","lqhcm9yhnd892hv","practice_cue","5f52578f1d4ccf0b874a2c41","5f60e3c0a3b16e07647b2ff9","5f6389df20589407c02c0f1b","false","null","<span style=""color: black; font-size: 48px"">N + M</span>","null","","","","resp_prompt","","","","","","","","","","","","","","","",""
"categorize-image","83","540658","0.0-3.0-3.0-1.11","lqhcm9yhnd892hv","practice_cue","5f52578f1d4ccf0b874a2c41","5f60e3c0a3b16e07647b2ff9","5f6389df20589407c02c0f1b","true","936.3499999999767","./Stimuli/ImagesPractice/LN109.jpg","83","","","","test","true","N + M","83","","LN","LN109.jpg","forget","old","28","2","practice_forget","left","","","",""
"html-keyboard-response","84","542661","0.0-3.0-3.0-3.11","lqhcm9yhnd892hv","practice_cue","5f52578f1d4ccf0b874a2c41","5f60e3c0a3b16e07647b2ff9","5f6389df20589407c02c0f1b","false","null","<div style=""align-items: center; display: flex; color: darkorange; font-size: 90px""><b>ø</b></div>","null","","","","forget_cue","","","","","","","","","","","","","","","",""
"html-keyboard-response","85","543364","0.0-3.0-3.0-0.12","lqhcm9yhnd892hv","practice_cue","5f52578f1d4ccf0b874a2c41","5f60e3c0a3b16e07647b2ff9","5f6389df20589407c02c0f1b","false","null","<span style=""color: black; font-size: 48px"">M + N</span>","null","","","","resp_prompt","","","","","","","","","","","","","","","",""
"categorize-image","86","544348","0.0-3.0-3.0-1.12","lqhcm9yhnd892hv","practice_cue","5f52578f1d4ccf0b874a2c41","5f60e3c0a3b16e07647b2ff9","5f6389df20589407c02c0f1b","true","976.6200000012759","./Stimuli/ImagesPractice/SM35.jpg","76","","","","test","false","M + N","83","","SM","SM35.jpg","forget","old","29","2","practice_forget","right","","","",""
"html-keyboard-response","87","544850","0.0-3.0-3.0-2.12-0.12","lqhcm9yhnd892hv","practice_cue","5f52578f1d4ccf0b874a2c41","5f60e3c0a3b16e07647b2ff9","5f6389df20589407c02c0f1b","false","null","<span style=""color: red; font-size: 48px"">Error!</span>","null","","","","feedback","","","","","","","","","","","","","","","",""
"html-keyboard-response","88","546854","0.0-3.0-3.0-3.12","lqhcm9yhnd892hv","practice_cue","5f52578f1d4ccf0b874a2c41","5f60e3c0a3b16e07647b2ff9","5f6389df20589407c02c0f1b","false","null","<div style=""align-items: center; display: flex; color: darkorange; font-size: 90px""><b>ø</b></div>","null","","","","forget_cue","","","","","","","","","","","","","","","",""
"html-keyboard-response","89","547560","0.0-3.0-3.0-0.13","lqhcm9yhnd892hv","practice_cue","5f52578f1d4ccf0b874a2c41","5f60e3c0a3b16e07647b2ff9","5f6389df20589407c02c0f1b","false","null","<span style=""color: black; font-size: 48px"">N + M</span>","null","","","","resp_prompt","","","","","","","","","","","","","","","",""
"categorize-image","90","548666","0.0-3.0-3.0-1.13","lqhcm9yhnd892hv","practice_cue","5f52578f1d4ccf0b874a2c41","5f60e3c0a3b16e07647b2ff9","5f6389df20589407c02c0f1b","true","1098.1050000009127","./Stimuli/ImagesPractice/SM98.jpg","76","","","","test","true","N + M","76","","SM","SM98.jpg","forget","old","30","2","practice_forget","right","","","",""
"html-keyboard-response","91","550671","0.0-3.0-3.0-3.13","lqhcm9yhnd892hv","practice_cue","5f52578f1d4ccf0b874a2c41","5f60e3c0a3b16e07647b2ff9","5f6389df20589407c02c0f1b","false","null","<div style=""align-items: center; display: flex; color: darkorange; font-size: 90px""><b>ø</b></div>","null","","","","forget_cue","","","","","","","","","","","","","","","",""
"html-keyboard-response","92","551380","0.0-3.0-3.0-0.14","lqhcm9yhnd892hv","practice_cue","5f52578f1d4ccf0b874a2c41","5f60e3c0a3b16e07647b2ff9","5f6389df20589407c02c0f1b","false","null","<span style=""color: black; font-size: 48px"">M + N</span>","null","","","","resp_prompt","","","","","","","","","","","","","","","",""
"categorize-image","93","552448","0.0-3.0-3.0-1.14","lqhcm9yhnd892hv","practice_cue","5f52578f1d4ccf0b874a2c41","5f60e3c0a3b16e07647b2ff9","5f6389df20589407c02c0f1b","true","1059.6499999992084","./Stimuli/ImagesPractice/SN222.jpg","76","","","","test","true","M + N","76","","SN","SN222.jpg","forget","old","31","2","practice_forget","right","","","",""
"html-keyboard-response","94","554451","0.0-3.0-3.0-3.14","lqhcm9yhnd892hv","practice_cue","5f52578f1d4ccf0b874a2c41","5f60e3c0a3b16e07647b2ff9","5f6389df20589407c02c0f1b","false","null","<div style=""align-items: center; display: flex; color: darkorange; font-size: 90px""><b>ø</b></div>","null","","","","forget_cue","","","","","","","","","","","","","","","",""
"html-keyboard-response","95","555153","0.0-3.0-3.0-0.15","lqhcm9yhnd892hv","practice_cue","5f52578f1d4ccf0b874a2c41","5f60e3c0a3b16e07647b2ff9","5f6389df20589407c02c0f1b","false","null","<span style=""color: black; font-size: 48px"">N + M</span>","null","","","","resp_prompt","","","","","","","","","","","","","","","",""
"categorize-image","96","556251","0.0-3.0-3.0-1.15","lqhcm9yhnd892hv","practice_cue","5f52578f1d4ccf0b874a2c41","5f60e3c0a3b16e07647b2ff9","5f6389df20589407c02c0f1b","true","1086.6749999986496","./Stimuli/ImagesPractice/SN220.jpg","83","","","","test","true","N + M","83","","SN","SN220.jpg","remember","old","32","2","practice_forget","left","","","",""
"html-keyboard-response","97","558254","0.0-3.0-3.0-3.15","lqhcm9yhnd892hv","practice_cue","5f52578f1d4ccf0b874a2c41","5f60e3c0a3b16e07647b2ff9","5f6389df20589407c02c0f1b","false","null","<div style=""align-items: center; display: flex; color: dodgerblue; font-size: 90px""><b>o</b></div>","null","","","","forget_cue","","","","","","","","","","","","","","","",""
"html-keyboard-response","98","564065","0.0-3.0-4.0","lqhcm9yhnd892hv","break","5f52578f1d4ccf0b874a2c41","5f60e3c0a3b16e07647b2ff9","5f6389df20589407c02c0f1b","false","5807.949999998556","<p style='font-size: 32px;'>Break</><br><br><br><br><br><p style='font-size: 24px;'>In the last block, you committed 3 errors and did not respond in time on 0 trials.
</p><p style='font-size: 24px;'>Try to respond as fast and accurately as possible in the next block as well! </p><p style='font-size: 24px;'>Press SPACE to continue.</p>","32","","","","","","","","","","","","","","","","","","","",""
"html-keyboard-response","99","578806","0.0-3.0-5.0","lqhcm9yhnd892hv","instructions","5f52578f1d4ccf0b874a2c41","5f60e3c0a3b16e07647b2ff9","5f6389df20589407c02c0f1b","false","14738.324999998324","<div align=left> Now, to practice, we kindly ask you to remember as many of the to-be-remembered pictures<br>of the previous learning phase as possible.<br><br>The pictures you were instructed to remember were the pictures followed by a <span style='color: dodgerblue; font-size: 28px'>O</span>.<br><br>In this memory test phase, you will also see some new pictures.<br>It is your task to remember whether you were presented with this specific picture in this study so far or not.<br>If you recognize an object (you have already seen it in this study), it is an OLD object. <br>If you do not recognize an object (you have NOT seen it in this study), it is a NEW object. <br><strong> Attention</strong>: As already mentioned, <span style='color: darkorange; font-size:28px'>Ø</span>-pictures will <strong>never</strong> appear in this memory test (neither as new objects). <br><br>Press SPACE to continue. </div>","32","","","","","","","","","","","","","","","","","","","",""
"html-keyboard-response","100","618344","0.0-3.0-6.0","lqhcm9yhnd892hv","instructions","5f52578f1d4ccf0b874a2c41","5f60e3c0a3b16e07647b2ff9","5f6389df20589407c02c0f1b","false","39534.93000000168","<div align=left> M and N no longer will appear on the left/right of the fixation cross. <br>Instead there will be a note at the bottom of the left or right side  <br>indicating which key you should press for an old or new object:  <br> <br>Press the <strong>right</strong> key to classify an object as <strong>old</strong> and press the <strong>left</strong>, to classify an object as <strong>new</strong>.<br>Please classify the objects as new/old by again placing your index finger on the 'S' and 'L' keys <br>and press them accordingly.<br><br><strong>Old:</strong> This object has been presented before. <br><strong>New:</strong> This object has <strong>not</strong> been presented.<br><br>Now please put your right and left index fingers on the 'S' and 'L' keys of your keyboard. <br>Please respond as fast and as accurately as possible!<br><br>Press SPACE to continue. </div>","32","","","","","","","","","","","","","","","","","","","",""
"categorize-image","101","620150","0.0-3.0-7.0-0.0","lqhcm9yhnd892hv","practice_recog","5f52578f1d4ccf0b874a2c41","5f60e3c0a3b16e07647b2ff9","5f6389df20589407c02c0f1b","true","1284.5550000020303","./Stimuli/ImagesPractice/SN75.jpg","76","","","","test","false","","83","","SN","SN75.jpg","","old","33","3","practice_recog","right","","","",""
"categorize-image","102","622109","0.0-3.0-7.0-0.1","lqhcm9yhnd892hv","practice_recog","5f52578f1d4ccf0b874a2c41","5f60e3c0a3b16e07647b2ff9","5f6389df20589407c02c0f1b","true","1444.5800000031013","./Stimuli/ImagesPractice/SM62.jpg","76","","","","test","true","","76","","SM","SM62.jpg","","new","34","3","practice_recog","right","","","",""
"categorize-image","103","623524","0.0-3.0-7.0-0.2","lqhcm9yhnd892hv","practice_recog","5f52578f1d4ccf0b874a2c41","5f60e3c0a3b16e07647b2ff9","5f6389df20589407c02c0f1b","true","896.0649999971502","./Stimuli/ImagesPractice/SN220.jpg","83","","","","test","true","","83","","SN","SN220.jpg","","old","35","3","practice_recog","left","","","",""
"categorize-image","104","625422","0.0-3.0-7.0-0.3","lqhcm9yhnd892hv","practice_recog","5f52578f1d4ccf0b874a2c41","5f60e3c0a3b16e07647b2ff9","5f6389df20589407c02c0f1b","true","1388.8649999971967","./Stimuli/ImagesPractice/LM143.jpg","76","","","","test","true","","76","","LM","LM143.jpg","","new","36","3","practice_recog","right","","","",""
"categorize-image","105","626940","0.0-3.0-7.0-0.4","lqhcm9yhnd892hv","practice_recog","5f52578f1d4ccf0b874a2c41","5f60e3c0a3b16e07647b2ff9","5f6389df20589407c02c0f1b","true","998.6000000026543","./Stimuli/ImagesPractice/LM224.jpg","76","","","","test","true","","76","","LM","LM224.jpg","","new","37","3","practice_recog","right","","","",""
"categorize-image","106","628370","0.0-3.0-7.0-0.5","lqhcm9yhnd892hv","practice_recog","5f52578f1d4ccf0b874a2c41","5f60e3c0a3b16e07647b2ff9","5f6389df20589407c02c0f1b","true","923.3400000011316","./Stimuli/ImagesPractice/LM147.jpg","83","","","","test","true","","83","","LM","LM147.jpg","","old","38","3","practice_recog","left","","","",""
"categorize-image","107","629812","0.0-3.0-7.0-0.6","lqhcm9yhnd892hv","practice_recog","5f52578f1d4ccf0b874a2c41","5f60e3c0a3b16e07647b2ff9","5f6389df20589407c02c0f1b","true","931.1950000009965","./Stimuli/ImagesPractice/LM230.jpg","83","","","","test","true","","83","","LM","LM230.jpg","","old","39","3","practice_recog","left","","","",""
"categorize-image","108","631413","0.0-3.0-7.0-0.7","lqhcm9yhnd892hv","practice_recog","5f52578f1d4ccf0b874a2c41","5f60e3c0a3b16e07647b2ff9","5f6389df20589407c02c0f1b","true","1083.2799999989802","./Stimuli/ImagesPractice/LN4.jpg","76","","","","test","true","","76","","LN","LN4.jpg","","new","40","3","practice_recog","right","","","",""
"categorize-image","109","633073","0.0-3.0-7.0-0.8","lqhcm9yhnd892hv","practice_recog","5f52578f1d4ccf0b874a2c41","5f60e3c0a3b16e07647b2ff9","5f6389df20589407c02c0f1b","true","1154.800000000163","./Stimuli/ImagesPractice/SN221.jpg","76","","","","test","true","","76","","SN","SN221.jpg","","new","41","3","practice_recog","right","","","",""
"categorize-image","110","634517","0.0-3.0-7.0-0.9","lqhcm9yhnd892hv","practice_recog","5f52578f1d4ccf0b874a2c41","5f60e3c0a3b16e07647b2ff9","5f6389df20589407c02c0f1b","true","930.9699999975273","./Stimuli/ImagesPractice/LN72.jpg","83","","","","test","true","","83","","LN","LN72.jpg","","old","42","3","practice_recog","left","","","",""
"categorize-image","111","635855","0.0-3.0-7.0-0.10","lqhcm9yhnd892hv","practice_recog","5f52578f1d4ccf0b874a2c41","5f60e3c0a3b16e07647b2ff9","5f6389df20589407c02c0f1b","true","833.2200000004377","./Stimuli/ImagesPractice/SM61.jpg","83","","","","test","true","","83","","SM","SM61.jpg","","old","43","3","practice_recog","left","","","",""
"categorize-image","112","637420","0.0-3.0-7.0-0.11","lqhcm9yhnd892hv","practice_recog","5f52578f1d4ccf0b874a2c41","5f60e3c0a3b16e07647b2ff9","5f6389df20589407c02c0f1b","true","1060.8099999990081","./Stimuli/ImagesPractice/LN17.jpg","76","","","","test","true","","76","","LN","LN17.jpg","","new","44","3","practice_recog","right","","","",""
"categorize-image","113","639000","0.0-3.0-7.0-0.12","lqhcm9yhnd892hv","practice_recog","5f52578f1d4ccf0b874a2c41","5f60e3c0a3b16e07647b2ff9","5f6389df20589407c02c0f1b","true","1075.874999998603","./Stimuli/ImagesPractice/SM37.jpg","76","","","","test","true","","76","","SM","SM37.jpg","","new","45","3","practice_recog","right","","","",""
"categorize-image","114","640245","0.0-3.0-7.0-0.13","lqhcm9yhnd892hv","practice_recog","5f52578f1d4ccf0b874a2c41","5f60e3c0a3b16e07647b2ff9","5f6389df20589407c02c0f1b","true","736.4699999998556","./Stimuli/ImagesPractice/LM55.jpg","83","","","","test","true","","83","","LM","LM55.jpg","","old","46","3","practice_recog","left","","","",""
"categorize-image","115","641678","0.0-3.0-7.0-0.14","lqhcm9yhnd892hv","practice_recog","5f52578f1d4ccf0b874a2c41","5f60e3c0a3b16e07647b2ff9","5f6389df20589407c02c0f1b","true","928.9849999987055","./Stimuli/ImagesPractice/SN205.jpg","76","","","","test","true","","76","","SN","SN205.jpg","","new","47","3","practice_recog","right","","","",""
"categorize-image","116","642934","0.0-3.0-7.0-0.15","lqhcm9yhnd892hv","practice_recog","5f52578f1d4ccf0b874a2c41","5f60e3c0a3b16e07647b2ff9","5f6389df20589407c02c0f1b","true","752.7499999996508","./Stimuli/ImagesPractice/SN76.jpg","83","","","","test","true","","83","","SN","SN76.jpg","","old","48","3","practice_recog","left","","","",""
"html-keyboard-response","117","653197","0.0-3.0-8.0","lqhcm9yhnd892hv","instructions","5f52578f1d4ccf0b874a2c41","5f60e3c0a3b16e07647b2ff9","5f6389df20589407c02c0f1b","false","10259.730000001611","<div align=left> Great!<br><br>Are you ready to continue?<br>If you want to reread the instructions and redo the practice trials, please <br>press „Z“.<br><br>You can proceed when you are ready.<br><br>After the presentation of each object, you will receive an instruction whether to <br>remember or to forget the object.<br>We will test your memory of the following pictures only at the very end of <br>the experiment after all learning blocks are completed. <br><br>Press SPACE to CONTINUE when you are ready. </div>","32","","","","","","","","","","","","","","","","","","","",""
"html-keyboard-response","118","657442","0.0-4.0-0.0","lqhcm9yhnd892hv","instructions","5f52578f1d4ccf0b874a2c41","5f60e3c0a3b16e07647b2ff9","5f6389df20589407c02c0f1b","false","4242.999999998603","<div align=left> The actual experiment is about to start.<br>The practice trials are over!<br><br>Please always respond both fast and accurately!<br><br>Remember: <br> <br><li> Please place your index fingers on the <strong>'S'</strong> and <strong>'L'</strong> keys <br>to respond as fast and accurately as possible.</li><li> Every picture can be classified as either mechanical or non-mechanical.</li><li> If you do not respond in time or commit an error, you will receive a corresponding feedback.<br> Please try to respond as <strong> fast </strong> and as <strong> accurately as possible </strong>.</li><li> Remember the <span style='color: dodgerblue; font-size: 28px'>O</span> pictures. <br></li><li> Please minimize distractions and stay focused. </li><br><br>Press SPACE to START.</div>","32","","","","","","","","","","","","","","","","","","","",""
"html-keyboard-response","119","658148","0.0-4.0-1.0-0.0","lqhcm9yhnd892hv","prime","5f52578f1d4ccf0b874a2c41","5f60e3c0a3b16e07647b2ff9","5f6389df20589407c02c0f1b","false","null","<span style=""color: black; font-size: 48px"">N + M</span>","null","","","","resp_prompt","","","","","","","","","","","","","","","",""
"categorize-image","120","658913","0.0-4.0-1.0-1.0","lqhcm9yhnd892hv","prime","5f52578f1d4ccf0b874a2c41","5f60e3c0a3b16e07647b2ff9","5f6389df20589407c02c0f1b","true","757.4899999998743","./Stimuli/SelectedImages/SM/SM78.bmp","76","","","","test","true","N + M","76","repetition","SM","SM78.bmp","forget","","49","3","prime1","right","","","",""
"html-keyboard-response","121","660930","0.0-4.0-1.0-3.0","lqhcm9yhnd892hv","prime","5f52578f1d4ccf0b874a2c41","5f60e3c0a3b16e07647b2ff9","5f6389df20589407c02c0f1b","false","null","<div style=""align-items: center; display: flex; color: darkorange; font-size: 90px""><b>ø</b></div>","null","","","","forget_cue","","","","","","","","","","","","","","","",""
"html-keyboard-response","122","661644","0.0-4.0-1.0-0.1","lqhcm9yhnd892hv","prime","5f52578f1d4ccf0b874a2c41","5f60e3c0a3b16e07647b2ff9","5f6389df20589407c02c0f1b","false","null","<span style=""color: black; font-size: 48px"">M + N</span>","null","","","","resp_prompt","","","","","","","","","","","","","","","",""
"categorize-image","123","662388","0.0-4.0-1.0-1.1","lqhcm9yhnd892hv","prime","5f52578f1d4ccf0b874a2c41","5f60e3c0a3b16e07647b2ff9","5f6389df20589407c02c0f1b","true","737.1149999998743","./Stimuli/SelectedImages/SM/SM205.bmp","83","","","","test","true","M + N","83","switch","SM","SM205.bmp","forget","","50","3","prime1","left","","","",""
"html-keyboard-response","124","664391","0.0-4.0-1.0-3.1","lqhcm9yhnd892hv","prime","5f52578f1d4ccf0b874a2c41","5f60e3c0a3b16e07647b2ff9","5f6389df20589407c02c0f1b","false","null","<div style=""align-items: center; display: flex; color: darkorange; font-size: 90px""><b>ø</b></div>","null","","","","forget_cue","","","","","","","","","","","","","","","",""
"html-keyboard-response","125","665097","0.0-4.0-1.0-0.2","lqhcm9yhnd892hv","prime","5f52578f1d4ccf0b874a2c41","5f60e3c0a3b16e07647b2ff9","5f6389df20589407c02c0f1b","false","null","<span style=""color: black; font-size: 48px"">M + N</span>","null","","","","resp_prompt","","","","","","","","","","","","","","","",""
"categorize-image","126","665898","0.0-4.0-1.0-1.2","lqhcm9yhnd892hv","prime","5f52578f1d4ccf0b874a2c41","5f60e3c0a3b16e07647b2ff9","5f6389df20589407c02c0f1b","true","793.9350000015693","./Stimuli/SelectedImages/LM/LM57.bmp","83","","","","test","true","M + N","83","switch","LM","LM57.bmp","remember","","51","3","prime1","left","","","",""
"html-keyboard-response","127","667903","0.0-4.0-1.0-3.2","lqhcm9yhnd892hv","prime","5f52578f1d4ccf0b874a2c41","5f60e3c0a3b16e07647b2ff9","5f6389df20589407c02c0f1b","false","null","<div style=""align-items: center; display: flex; color: dodgerblue; font-size: 90px""><b>o</b></div>","null","","","","forget_cue","","","","","","","","","","","","","","","",""
"html-keyboard-response","128","668612","0.0-4.0-1.0-0.3","lqhcm9yhnd892hv","prime","5f52578f1d4ccf0b874a2c41","5f60e3c0a3b16e07647b2ff9","5f6389df20589407c02c0f1b","false","null","<span style=""color: black; font-size: 48px"">N + M</span>","null","","","","resp_prompt","","","","","","","","","","","","","","","",""
"categorize-image","129","669791","0.0-4.0-1.0-1.3","lqhcm9yhnd892hv","prime","5f52578f1d4ccf0b874a2c41","5f60e3c0a3b16e07647b2ff9","5f6389df20589407c02c0f1b","true","1171.7099999986822","./Stimuli/SelectedImages/SM/SM106.bmp","76","","","","test","true","N + M","76","repetition","SM","SM106.bmp","remember","","52","3","prime1","right","","","",""
"html-keyboard-response","130","671796","0.0-4.0-1.0-3.3","lqhcm9yhnd892hv","prime","5f52578f1d4ccf0b874a2c41","5f60e3c0a3b16e07647b2ff9","5f6389df20589407c02c0f1b","false","null","<div style=""align-items: center; display: flex; color: dodgerblue; font-size: 90px""><b>o</b></div>","null","","","","forget_cue","","","","","","","","","","","","","","","",""
"html-keyboard-response","131","672509","0.0-4.0-1.0-0.4","lqhcm9yhnd892hv","prime","5f52578f1d4ccf0b874a2c41","5f60e3c0a3b16e07647b2ff9","5f6389df20589407c02c0f1b","false","null","<span style=""color: black; font-size: 48px"">M + N</span>","null","","","","resp_prompt","","","","","","","","","","","","","","","",""
"categorize-image","132","673457","0.0-4.0-1.0-1.4","lqhcm9yhnd892hv","prime","5f52578f1d4ccf0b874a2c41","5f60e3c0a3b16e07647b2ff9","5f6389df20589407c02c0f1b","true","941.1949999994831","./Stimuli/SelectedImages/LN/LN150.bmp","76","","","","test","true","M + N","76","switch","LN","LN150.bmp","forget","","53","3","prime1","right","","","",""
"html-keyboard-response","133","675463","0.0-4.0-1.0-3.4","lqhcm9yhnd892hv","prime","5f52578f1d4ccf0b874a2c41","5f60e3c0a3b16e07647b2ff9","5f6389df20589407c02c0f1b","false","null","<div style=""align-items: center; display: flex; color: darkorange; font-size: 90px""><b>ø</b></div>","null","","","","forget_cue","","","","","","","","","","","","","","","",""
"html-keyboard-response","134","676165","0.0-4.0-1.0-0.5","lqhcm9yhnd892hv","prime","5f52578f1d4ccf0b874a2c41","5f60e3c0a3b16e07647b2ff9","5f6389df20589407c02c0f1b","false","null","<span style=""color: black; font-size: 48px"">N + M</span>","null","","","","resp_prompt","","","","","","","","","","","","","","","",""
"categorize-image","135","677190","0.0-4.0-1.0-1.5","lqhcm9yhnd892hv","prime","5f52578f1d4ccf0b874a2c41","5f60e3c0a3b16e07647b2ff9","5f6389df20589407c02c0f1b","true","1018.0149999978021","./Stimuli/SelectedImages/LN/LN101.bmp","83","","","","test","true","N + M","83","repetition","LN","LN101.bmp","forget","","54","3","prime1","left","","","",""
"html-keyboard-response","136","679194","0.0-4.0-1.0-3.5","lqhcm9yhnd892hv","prime","5f52578f1d4ccf0b874a2c41","5f60e3c0a3b16e07647b2ff9","5f6389df20589407c02c0f1b","false","null","<div style=""align-items: center; display: flex; color: darkorange; font-size: 90px""><b>ø</b></div>","null","","","","forget_cue","","","","","","","","","","","","","","","",""
"html-keyboard-response","137","679896","0.0-4.0-1.0-0.6","lqhcm9yhnd892hv","prime","5f52578f1d4ccf0b874a2c41","5f60e3c0a3b16e07647b2ff9","5f6389df20589407c02c0f1b","false","null","<span style=""color: black; font-size: 48px"">N + M</span>","null","","","","resp_prompt","","","","","","","","","","","","","","","",""
"categorize-image","138","680733","0.0-4.0-1.0-1.6","lqhcm9yhnd892hv","prime","5f52578f1d4ccf0b874a2c41","5f60e3c0a3b16e07647b2ff9","5f6389df20589407c02c0f1b","true","829.0550000020303","./Stimuli/SelectedImages/LN/LN131.bmp","83","","","","test","true","N + M","83","repetition","LN","LN131.bmp","remember","","55","3","prime1","left","","","",""
"html-keyboard-response","139","682737","0.0-4.0-1.0-3.6","lqhcm9yhnd892hv","prime","5f52578f1d4ccf0b874a2c41","5f60e3c0a3b16e07647b2ff9","5f6389df20589407c02c0f1b","false","null","<div style=""align-items: center; display: flex; color: dodgerblue; font-size: 90px""><b>o</b></div>","null","","","","forget_cue","","","","","","","","","","","","","","","",""
"html-keyboard-response","140","683439","0.0-4.0-1.0-0.7","lqhcm9yhnd892hv","prime","5f52578f1d4ccf0b874a2c41","5f60e3c0a3b16e07647b2ff9","5f6389df20589407c02c0f1b","false","null","<span style=""color: black; font-size: 48px"">N + M</span>","null","","","","resp_prompt","","","","","","","","","","","","","","","",""
"categorize-image","141","684454","0.0-4.0-1.0-1.7","lqhcm9yhnd892hv","prime","5f52578f1d4ccf0b874a2c41","5f60e3c0a3b16e07647b2ff9","5f6389df20589407c02c0f1b","true","1006.9049999983981","./Stimuli/SelectedImages/SN/SN93.bmp","83","","","","test","true","N + M","83","repetition","SN","SN93.bmp","forget","","56","3","prime1","left","","","",""
"html-keyboard-response","142","686457","0.0-4.0-1.0-3.7","lqhcm9yhnd892hv","prime","5f52578f1d4ccf0b874a2c41","5f60e3c0a3b16e07647b2ff9","5f6389df20589407c02c0f1b","false","null","<div style=""align-items: center; display: flex; color: darkorange; font-size: 90px""><b>ø</b></div>","null","","","","forget_cue","","","","","","","","","","","","","","","",""
"html-keyboard-response","143","687158","0.0-4.0-1.0-0.8","lqhcm9yhnd892hv","prime","5f52578f1d4ccf0b874a2c41","5f60e3c0a3b16e07647b2ff9","5f6389df20589407c02c0f1b","false","null","<span style=""color: black; font-size: 48px"">N + M</span>","null","","","","resp_prompt","","","","","","","","","","","","","","","",""
"categorize-image","144","687987","0.0-4.0-1.0-1.8","lqhcm9yhnd892hv","prime","5f52578f1d4ccf0b874a2c41","5f60e3c0a3b16e07647b2ff9","5f6389df20589407c02c0f1b","true","822.710000000312","./Stimuli/SelectedImages/SM/SM73.bmp","76","","","","test","true","N + M","76","repetition","SM","SM73.bmp","remember","","57","3","prime1","right","","","",""
"html-keyboard-response","145","689991","0.0-4.0-1.0-3.8","lqhcm9yhnd892hv","prime","5f52578f1d4ccf0b874a2c41","5f60e3c0a3b16e07647b2ff9","5f6389df20589407c02c0f1b","false","null","<div style=""align-items: center; display: flex; color: dodgerblue; font-size: 90px""><b>o</b></div>","null","","","","forget_cue","","","","","","","","","","","","","","","",""
"html-keyboard-response","146","690693","0.0-4.0-1.0-0.9","lqhcm9yhnd892hv","prime","5f52578f1d4ccf0b874a2c41","5f60e3c0a3b16e07647b2ff9","5f6389df20589407c02c0f1b","false","null","<span style=""color: black; font-size: 48px"">N + M</span>","null","","","","resp_prompt","","","","","","","","","","","","","","","",""
"categorize-image","147","691396","0.0-4.0-1.0-1.9","lqhcm9yhnd892hv","prime","5f52578f1d4ccf0b874a2c41","5f60e3c0a3b16e07647b2ff9","5f6389df20589407c02c0f1b","true","695.1599999993341","./Stimuli/SelectedImages/SN/SN60.bmp","83","","","","test","true","N + M","83","switch","SN","SN60.bmp","forget","","58","3","prime1","left","","","",""
"html-keyboard-response","148","693410","0.0-4.0-1.0-3.9","lqhcm9yhnd892hv","prime","5f52578f1d4ccf0b874a2c41","5f60e3c0a3b16e07647b2ff9","5f6389df20589407c02c0f1b","false","null","<div style=""align-items: center; display: flex; color: darkorange; font-size: 90px""><b>ø</b></div>","null","","","","forget_cue","","","","","","","","","","","","","","","",""
"html-keyboard-response","149","694126","0.0-4.0-1.0-0.10","lqhcm9yhnd892hv","prime","5f52578f1d4ccf0b874a2c41","5f60e3c0a3b16e07647b2ff9","5f6389df20589407c02c0f1b","false","null","<span style=""color: black; font-size: 48px"">N + M</span>","null","","","","resp_prompt","","","","","","","","","","","","","","","",""
"categorize-image","150","694781","0.0-4.0-1.0-1.10","lqhcm9yhnd892hv","prime","5f52578f1d4ccf0b874a2c41","5f60e3c0a3b16e07647b2ff9","5f6389df20589407c02c0f1b","true","647.5799999970477","./Stimuli/SelectedImages/SM/SM148.bmp","76","","","","test","true","N + M","76","switch","SM","SM148.bmp","forget","","59","3","prime1","right","","","",""
"html-keyboard-response","151","696793","0.0-4.0-1.0-3.10","lqhcm9yhnd892hv","prime","5f52578f1d4ccf0b874a2c41","5f60e3c0a3b16e07647b2ff9","5f6389df20589407c02c0f1b","false","null","<div style=""align-items: center; display: flex; color: darkorange; font-size: 90px""><b>ø</b></div>","null","","","","forget_cue","","","","","","","","","","","","","","","",""
"html-keyboard-response","152","697497","0.0-4.0-1.0-0.11","lqhcm9yhnd892hv","prime","5f52578f1d4ccf0b874a2c41","5f60e3c0a3b16e07647b2ff9","5f6389df20589407c02c0f1b","false","null","<span style=""color: black; font-size: 48px"">M + N</span>","null","","","","resp_prompt","","","","","","","","","","","","","","","",""
"categorize-image","153","698493","0.0-4.0-1.0-1.11","lqhcm9yhnd892hv","prime","5f52578f1d4ccf0b874a2c41","5f60e3c0a3b16e07647b2ff9","5f6389df20589407c02c0f1b","true","988.6250000017462","./Stimuli/SelectedImages/SM/SM74.bmp","76","","","","test","false","M + N","83","switch","SM","SM74.bmp","forget","","60","3","prime1","right","","","",""
"html-keyboard-response","154","699003","0.0-4.0-1.0-2.11-0.11","lqhcm9yhnd892hv","prime","5f52578f1d4ccf0b874a2c41","5f60e3c0a3b16e07647b2ff9","5f6389df20589407c02c0f1b","false","null","<span style=""color: red; font-size: 48px"">Error!</span>","null","","","","feedback","","","","","","","","","","","","","","","",""
"html-keyboard-response","155","701009","0.0-4.0-1.0-3.11","lqhcm9yhnd892hv","prime","5f52578f1d4ccf0b874a2c41","5f60e3c0a3b16e07647b2ff9","5f6389df20589407c02c0f1b","false","null","<div style=""align-items: center; display: flex; color: darkorange; font-size: 90px""><b>ø</b></div>","null","","","","forget_cue","","","","","","","","","","","","","","","",""
"html-keyboard-response","156","701718","0.0-4.0-1.0-0.12","lqhcm9yhnd892hv","prime","5f52578f1d4ccf0b874a2c41","5f60e3c0a3b16e07647b2ff9","5f6389df20589407c02c0f1b","false","null","<span style=""color: black; font-size: 48px"">N + M</span>","null","","","","resp_prompt","","","","","","","","","","","","","","","",""
"categorize-image","157","702807","0.0-4.0-1.0-1.12","lqhcm9yhnd892hv","prime","5f52578f1d4ccf0b874a2c41","5f60e3c0a3b16e07647b2ff9","5f6389df20589407c02c0f1b","true","1079.7699999966426","./Stimuli/SelectedImages/LN/LN149.bmp","83","","","","test","true","N + M","83","switch","LN","LN149.bmp","remember","","61","3","prime1","left","","","",""
"html-keyboard-response","158","704815","0.0-4.0-1.0-3.12","lqhcm9yhnd892hv","prime","5f52578f1d4ccf0b874a2c41","5f60e3c0a3b16e07647b2ff9","5f6389df20589407c02c0f1b","false","null","<div style=""align-items: center; display: flex; color: dodgerblue; font-size: 90px""><b>o</b></div>","null","","","","forget_cue","","","","","","","","","","","","","","","",""
"html-keyboard-response","159","705524","0.0-4.0-1.0-0.13","lqhcm9yhnd892hv","prime","5f52578f1d4ccf0b874a2c41","5f60e3c0a3b16e07647b2ff9","5f6389df20589407c02c0f1b","false","null","<span style=""color: black; font-size: 48px"">M + N</span>","null","","","","resp_prompt","","","","","","","","","","","","","","","",""
"categorize-image","160","706444","0.0-4.0-1.0-1.13","lqhcm9yhnd892hv","prime","5f52578f1d4ccf0b874a2c41","5f60e3c0a3b16e07647b2ff9","5f6389df20589407c02c0f1b","true","912.4100000008475","./Stimuli/SelectedImages/SM/SM195.bmp","76","","","","test","false","M + N","83","switch","SM","SM195.bmp","remember","","62","3","prime1","right","","","",""
"html-keyboard-response","161","706954","0.0-4.0-1.0-2.13-0.13","lqhcm9yhnd892hv","prime","5f52578f1d4ccf0b874a2c41","5f60e3c0a3b16e07647b2ff9","5f6389df20589407c02c0f1b","false","null","<span style=""color: red; font-size: 48px"">Error!</span>","null","","","","feedback","","","","","","","","","","","","","","","",""
"html-keyboard-response","162","708962","0.0-4.0-1.0-3.13","lqhcm9yhnd892hv","prime","5f52578f1d4ccf0b874a2c41","5f60e3c0a3b16e07647b2ff9","5f6389df20589407c02c0f1b","false","null","<div style=""align-items: center; display: flex; color: dodgerblue; font-size: 90px""><b>o</b></div>","null","","","","forget_cue","","","","","","","","","","","","","","","",""
"html-keyboard-response","163","709674","0.0-4.0-1.0-0.14","lqhcm9yhnd892hv","prime","5f52578f1d4ccf0b874a2c41","5f60e3c0a3b16e07647b2ff9","5f6389df20589407c02c0f1b","false","null","<span style=""color: black; font-size: 48px"">N + M</span>","null","","","","resp_prompt","","","","","","","","","","","","","","","",""
"categorize-image","164","710525","0.0-4.0-1.0-1.14","lqhcm9yhnd892hv","prime","5f52578f1d4ccf0b874a2c41","5f60e3c0a3b16e07647b2ff9","5f6389df20589407c02c0f1b","true","843.2700000012992","./Stimuli/SelectedImages/LM/LM179.bmp","76","","","","test","true","N + M","76","repetition","LM","LM179.bmp","remember","","63","3","prime1","right","","","",""
"html-keyboard-response","165","712539","0.0-4.0-1.0-3.14","lqhcm9yhnd892hv","prime","5f52578f1d4ccf0b874a2c41","5f60e3c0a3b16e07647b2ff9","5f6389df20589407c02c0f1b","false","null","<div style=""align-items: center; display: flex; color: dodgerblue; font-size: 90px""><b>o</b></div>","null","","","","forget_cue","","","","","","","","","","","","","","","",""
"html-keyboard-response","166","713248","0.0-4.0-1.0-0.15","lqhcm9yhnd892hv","prime","5f52578f1d4ccf0b874a2c41","5f60e3c0a3b16e07647b2ff9","5f6389df20589407c02c0f1b","false","null","<span style=""color: black; font-size: 48px"">M + N</span>","null","","","","resp_prompt","","","","","","","","","","","","","","","",""
"categorize-image","167","713974","0.0-4.0-1.0-1.15","lqhcm9yhnd892hv","prime","5f52578f1d4ccf0b874a2c41","5f60e3c0a3b16e07647b2ff9","5f6389df20589407c02c0f1b","true","718.4049999996787","./Stimuli/SelectedImages/LN/LN12.bmp","76","","","","test","true","M + N","76","repetition","LN","LN12.bmp","forget","","64","3","prime1","right","","","",""
"html-keyboard-response","168","715988","0.0-4.0-1.0-3.15","lqhcm9yhnd892hv","prime","5f52578f1d4ccf0b874a2c41","5f60e3c0a3b16e07647b2ff9","5f6389df20589407c02c0f1b","false","null","<div style=""align-items: center; display: flex; color: darkorange; font-size: 90px""><b>ø</b></div>","null","","","","forget_cue","","","","","","","","","","","","","","","",""
"html-keyboard-response","169","716695","0.0-4.0-1.0-0.16","lqhcm9yhnd892hv","prime","5f52578f1d4ccf0b874a2c41","5f60e3c0a3b16e07647b2ff9","5f6389df20589407c02c0f1b","false","null","<span style=""color: black; font-size: 48px"">N + M</span>","null","","","","resp_prompt","","","","","","","","","","","","","","","",""
"categorize-image","170","717782","0.0-4.0-1.0-1.16","lqhcm9yhnd892hv","prime","5f52578f1d4ccf0b874a2c41","5f60e3c0a3b16e07647b2ff9","5f6389df20589407c02c0f1b","true","1078.5099999993108","./Stimuli/SelectedImages/SM/SM213.bmp","76","","","","test","true","N + M","76","switch","SM","SM213.bmp","remember","","65","3","prime1","right","","","",""
"html-keyboard-response","171","719785","0.0-4.0-1.0-3.16","lqhcm9yhnd892hv","prime","5f52578f1d4ccf0b874a2c41","5f60e3c0a3b16e07647b2ff9","5f6389df20589407c02c0f1b","false","null","<div style=""align-items: center; display: flex; color: dodgerblue; font-size: 90px""><b>o</b></div>","null","","","","forget_cue","","","","","","","","","","","","","","","",""
"html-keyboard-response","172","720493","0.0-4.0-1.0-0.17","lqhcm9yhnd892hv","prime","5f52578f1d4ccf0b874a2c41","5f60e3c0a3b16e07647b2ff9","5f6389df20589407c02c0f1b","false","null","<span style=""color: black; font-size: 48px"">N + M</span>","null","","","","resp_prompt","","","","","","","","","","","","","","","",""
"categorize-image","173","721153","0.0-4.0-1.0-1.17","lqhcm9yhnd892hv","prime","5f52578f1d4ccf0b874a2c41","5f60e3c0a3b16e07647b2ff9","5f6389df20589407c02c0f1b","true","651.8050000013318","./Stimuli/SelectedImages/SN/SN187.bmp","83","","","","test","true","N + M","83","repetition","SN","SN187.bmp","forget","","66","3","prime1","left","","","",""
"html-keyboard-response","174","723158","0.0-4.0-1.0-3.17","lqhcm9yhnd892hv","prime","5f52578f1d4ccf0b874a2c41","5f60e3c0a3b16e07647b2ff9","5f6389df20589407c02c0f1b","false","null","<div style=""align-items: center; display: flex; color: darkorange; font-size: 90px""><b>ø</b></div>","null","","","","forget_cue","","","","","","","","","","","","","","","",""
"html-keyboard-response","175","723861","0.0-4.0-1.0-0.18","lqhcm9yhnd892hv","prime","5f52578f1d4ccf0b874a2c41","5f60e3c0a3b16e07647b2ff9","5f6389df20589407c02c0f1b","false","null","<span style=""color: black; font-size: 48px"">M + N</span>","null","","","","resp_prompt","","","","","","","","","","","","","","","",""
"categorize-image","176","724987","0.0-4.0-1.0-1.18","lqhcm9yhnd892hv","prime","5f52578f1d4ccf0b874a2c41","5f60e3c0a3b16e07647b2ff9","5f6389df20589407c02c0f1b","true","1113.8500000016065","./Stimuli/SelectedImages/LN/LN42.bmp","76","","","","test","true","M + N","76","repetition","LN","LN42.bmp","remember","","67","3","prime1","right","","","",""
"html-keyboard-response","177","727004","0.0-4.0-1.0-3.18","lqhcm9yhnd892hv","prime","5f52578f1d4ccf0b874a2c41","5f60e3c0a3b16e07647b2ff9","5f6389df20589407c02c0f1b","false","null","<div style=""align-items: center; display: flex; color: dodgerblue; font-size: 90px""><b>o</b></div>","null","","","","forget_cue","","","","","","","","","","","","","","","",""
"html-keyboard-response","178","727708","0.0-4.0-1.0-0.19","lqhcm9yhnd892hv","prime","5f52578f1d4ccf0b874a2c41","5f60e3c0a3b16e07647b2ff9","5f6389df20589407c02c0f1b","false","null","<span style=""color: black; font-size: 48px"">N + M</span>","null","","","","resp_prompt","","","","","","","","","","","","","","","",""
"categorize-image","179","728448","0.0-4.0-1.0-1.19","lqhcm9yhnd892hv","prime","5f52578f1d4ccf0b874a2c41","5f60e3c0a3b16e07647b2ff9","5f6389df20589407c02c0f1b","true","732.9900000004563","./Stimuli/SelectedImages/SN/SN181.bmp","83","","","","test","true","N + M","83","switch","SN","SN181.bmp","forget","","68","3","prime1","left","","","",""
"html-keyboard-response","180","730459","0.0-4.0-1.0-3.19","lqhcm9yhnd892hv","prime","5f52578f1d4ccf0b874a2c41","5f60e3c0a3b16e07647b2ff9","5f6389df20589407c02c0f1b","false","null","<div style=""align-items: center; display: flex; color: darkorange; font-size: 90px""><b>ø</b></div>","null","","","","forget_cue","","","","","","","","","","","","","","","",""
"html-keyboard-response","181","731163","0.0-4.0-1.0-0.20","lqhcm9yhnd892hv","prime","5f52578f1d4ccf0b874a2c41","5f60e3c0a3b16e07647b2ff9","5f6389df20589407c02c0f1b","false","null","<span style=""color: black; font-size: 48px"">N + M</span>","null","","","","resp_prompt","","","","","","","","","","","","","","","",""
"categorize-image","182","731752","0.0-4.0-1.0-1.20","lqhcm9yhnd892hv","prime","5f52578f1d4ccf0b874a2c41","5f60e3c0a3b16e07647b2ff9","5f6389df20589407c02c0f1b","true","582.2699999989709","./Stimuli/SelectedImages/SN/SN27.bmp","83","","","","test","true","N + M","83","repetition","SN","SN27.bmp","remember","","69","3","prime1","left","","","",""
"html-keyboard-response","183","733757","0.0-4.0-1.0-3.20","lqhcm9yhnd892hv","prime","5f52578f1d4ccf0b874a2c41","5f60e3c0a3b16e07647b2ff9","5f6389df20589407c02c0f1b","false","null","<div style=""align-items: center; display: flex; color: dodgerblue; font-size: 90px""><b>o</b></div>","null","","","","forget_cue","","","","","","","","","","","","","","","",""
"html-keyboard-response","184","734469","0.0-4.0-1.0-0.21","lqhcm9yhnd892hv","prime","5f52578f1d4ccf0b874a2c41","5f60e3c0a3b16e07647b2ff9","5f6389df20589407c02c0f1b","false","null","<span style=""color: black; font-size: 48px"">M + N</span>","null","","","","resp_prompt","","","","","","","","","","","","","","","",""
"categorize-image","185","735218","0.0-4.0-1.0-1.21","lqhcm9yhnd892hv","prime","5f52578f1d4ccf0b874a2c41","5f60e3c0a3b16e07647b2ff9","5f6389df20589407c02c0f1b","true","741.3699999996461","./Stimuli/SelectedImages/SN/SN49.bmp","76","","","","test","true","M + N","76","repetition","SN","SN49.bmp","forget","","70","3","prime1","right","","","",""
"html-keyboard-response","186","737227","0.0-4.0-1.0-3.21","lqhcm9yhnd892hv","prime","5f52578f1d4ccf0b874a2c41","5f60e3c0a3b16e07647b2ff9","5f6389df20589407c02c0f1b","false","null","<div style=""align-items: center; display: flex; color: darkorange; font-size: 90px""><b>ø</b></div>","null","","","","forget_cue","","","","","","","","","","","","","","","",""
"html-keyboard-response","187","737929","0.0-4.0-1.0-0.22","lqhcm9yhnd892hv","prime","5f52578f1d4ccf0b874a2c41","5f60e3c0a3b16e07647b2ff9","5f6389df20589407c02c0f1b","false","null","<span style=""color: black; font-size: 48px"">N + M</span>","null","","","","resp_prompt","","","","","","","","","","","","","","","",""
"categorize-image","188","739140","0.0-4.0-1.0-1.22","lqhcm9yhnd892hv","prime","5f52578f1d4ccf0b874a2c41","5f60e3c0a3b16e07647b2ff9","5f6389df20589407c02c0f1b","true","1202.6399999995483","./Stimuli/SelectedImages/SM/SM76.bmp","76","","","","test","true","N + M","76","switch","SM","SM76.bmp","remember","","71","3","prime1","right","","","",""
"html-keyboard-response","189","741143","0.0-4.0-1.0-3.22","lqhcm9yhnd892hv","prime","5f52578f1d4ccf0b874a2c41","5f60e3c0a3b16e07647b2ff9","5f6389df20589407c02c0f1b","false","null","<div style=""align-items: center; display: flex; color: dodgerblue; font-size: 90px""><b>o</b></div>","null","","","","forget_cue","","","","","","","","","","","","","","","",""
"html-keyboard-response","190","741853","0.0-4.0-1.0-0.23","lqhcm9yhnd892hv","prime","5f52578f1d4ccf0b874a2c41","5f60e3c0a3b16e07647b2ff9","5f6389df20589407c02c0f1b","false","null","<span style=""color: black; font-size: 48px"">N + M</span>","null","","","","resp_prompt","","","","","","","","","","","","","","","",""
"categorize-image","191","742661","0.0-4.0-1.0-1.23","lqhcm9yhnd892hv","prime","5f52578f1d4ccf0b874a2c41","5f60e3c0a3b16e07647b2ff9","5f6389df20589407c02c0f1b","true","801.0300000023562","./Stimuli/SelectedImages/SN/SN64.bmp","83","","","","test","true","N + M","83","repetition","SN","SN64.bmp","remember","","72","3","prime1","left","","","",""
"html-keyboard-response","192","744665","0.0-4.0-1.0-3.23","lqhcm9yhnd892hv","prime","5f52578f1d4ccf0b874a2c41","5f60e3c0a3b16e07647b2ff9","5f6389df20589407c02c0f1b","false","null","<div style=""align-items: center; display: flex; color: dodgerblue; font-size: 90px""><b>o</b></div>","null","","","","forget_cue","","","","","","","","","","","","","","","",""
"html-keyboard-response","193","745368","0.0-4.0-1.0-0.24","lqhcm9yhnd892hv","prime","5f52578f1d4ccf0b874a2c41","5f60e3c0a3b16e07647b2ff9","5f6389df20589407c02c0f1b","false","null","<span style=""color: black; font-size: 48px"">M + N</span>","null","","","","resp_prompt","","","","","","","","","","","","","","","",""
"categorize-image","194","746381","0.0-4.0-1.0-1.24","lqhcm9yhnd892hv","prime","5f52578f1d4ccf0b874a2c41","5f60e3c0a3b16e07647b2ff9","5f6389df20589407c02c0f1b","true","1006.2300000026589","./Stimuli/SelectedImages/SM/SM17.bmp","83","","","","test","true","M + N","83","repetition","SM","SM17.bmp","forget","","73","3","prime1","left","","","",""
"html-keyboard-response","195","748392","0.0-4.0-1.0-3.24","lqhcm9yhnd892hv","prime","5f52578f1d4ccf0b874a2c41","5f60e3c0a3b16e07647b2ff9","5f6389df20589407c02c0f1b","false","null","<div style=""align-items: center; display: flex; color: darkorange; font-size: 90px""><b>ø</b></div>","null","","","","forget_cue","","","","","","","","","","","","","","","",""
"html-keyboard-response","196","749095","0.0-4.0-1.0-0.25","lqhcm9yhnd892hv","prime","5f52578f1d4ccf0b874a2c41","5f60e3c0a3b16e07647b2ff9","5f6389df20589407c02c0f1b","false","null","<span style=""color: black; font-size: 48px"">M + N</span>","null","","","","resp_prompt","","","","","","","","","","","","","","","",""
"categorize-image","197","749831","0.0-4.0-1.0-1.25","lqhcm9yhnd892hv","prime","5f52578f1d4ccf0b874a2c41","5f60e3c0a3b16e07647b2ff9","5f6389df20589407c02c0f1b","true","728.6700000003912","./Stimuli/SelectedImages/SN/SN111.bmp","76","","","","test","true","M + N","76","repetition","SN","SN111.bmp","forget","","74","3","prime1","right","","","",""
"html-keyboard-response","198","751842","0.0-4.0-1.0-3.25","lqhcm9yhnd892hv","prime","5f52578f1d4ccf0b874a2c41","5f60e3c0a3b16e07647b2ff9","5f6389df20589407c02c0f1b","false","null","<div style=""align-items: center; display: flex; color: darkorange; font-size: 90px""><b>ø</b></div>","null","","","","forget_cue","","","","","","","","","","","","","","","",""
"html-keyboard-response","199","752548","0.0-4.0-1.0-0.26","lqhcm9yhnd892hv","prime","5f52578f1d4ccf0b874a2c41","5f60e3c0a3b16e07647b2ff9","5f6389df20589407c02c0f1b","false","null","<span style=""color: black; font-size: 48px"">N + M</span>","null","","","","resp_prompt","","","","","","","","","","","","","","","",""
"categorize-image","200","753399","0.0-4.0-1.0-1.26","lqhcm9yhnd892hv","prime","5f52578f1d4ccf0b874a2c41","5f60e3c0a3b16e07647b2ff9","5f6389df20589407c02c0f1b","true","844.4699999999721","./Stimuli/SelectedImages/LN/LN13.bmp","83","","","","test","true","N + M","83","repetition","LN","LN13.bmp","forget","","75","3","prime1","left","","","",""
"html-keyboard-response","201","755402","0.0-4.0-1.0-3.26","lqhcm9yhnd892hv","prime","5f52578f1d4ccf0b874a2c41","5f60e3c0a3b16e07647b2ff9","5f6389df20589407c02c0f1b","false","null","<div style=""align-items: center; display: flex; color: darkorange; font-size: 90px""><b>ø</b></div>","null","","","","forget_cue","","","","","","","","","","","","","","","",""
"html-keyboard-response","202","756106","0.0-4.0-1.0-0.27","lqhcm9yhnd892hv","prime","5f52578f1d4ccf0b874a2c41","5f60e3c0a3b16e07647b2ff9","5f6389df20589407c02c0f1b","false","null","<span style=""color: black; font-size: 48px"">M + N</span>","null","","","","resp_prompt","","","","","","","","","","","","","","","",""
"categorize-image","203","757001","0.0-4.0-1.0-1.27","lqhcm9yhnd892hv","prime","5f52578f1d4ccf0b874a2c41","5f60e3c0a3b16e07647b2ff9","5f6389df20589407c02c0f1b","true","888.2649999976857","./Stimuli/SelectedImages/SM/SM128.bmp","83","","","","test","true","M + N","83","repetition","SM","SM128.bmp","forget","","76","3","prime1","left","","","",""
"html-keyboard-response","204","759006","0.0-4.0-1.0-3.27","lqhcm9yhnd892hv","prime","5f52578f1d4ccf0b874a2c41","5f60e3c0a3b16e07647b2ff9","5f6389df20589407c02c0f1b","false","null","<div style=""align-items: center; display: flex; color: darkorange; font-size: 90px""><b>ø</b></div>","null","","","","forget_cue","","","","","","","","","","","","","","","",""
"html-keyboard-response","205","759712","0.0-4.0-1.0-0.28","lqhcm9yhnd892hv","prime","5f52578f1d4ccf0b874a2c41","5f60e3c0a3b16e07647b2ff9","5f6389df20589407c02c0f1b","false","null","<span style=""color: black; font-size: 48px"">M + N</span>","null","","","","resp_prompt","","","","","","","","","","","","","","","",""
"categorize-image","206","760529","0.0-4.0-1.0-1.28","lqhcm9yhnd892hv","prime","5f52578f1d4ccf0b874a2c41","5f60e3c0a3b16e07647b2ff9","5f6389df20589407c02c0f1b","true","809.0200000006007","./Stimuli/SelectedImages/SM/SM200.bmp","83","","","","test","true","M + N","83","repetition","SM","SM200.bmp","remember","","77","3","prime1","left","","","",""
"html-keyboard-response","207","762536","0.0-4.0-1.0-3.28","lqhcm9yhnd892hv","prime","5f52578f1d4ccf0b874a2c41","5f60e3c0a3b16e07647b2ff9","5f6389df20589407c02c0f1b","false","null","<div style=""align-items: center; display: flex; color: dodgerblue; font-size: 90px""><b>o</b></div>","null","","","","forget_cue","","","","","","","","","","","","","","","",""
"html-keyboard-response","208","763240","0.0-4.0-1.0-0.29","lqhcm9yhnd892hv","prime","5f52578f1d4ccf0b874a2c41","5f60e3c0a3b16e07647b2ff9","5f6389df20589407c02c0f1b","false","null","<span style=""color: black; font-size: 48px"">M + N</span>","null","","","","resp_prompt","","","","","","","","","","","","","","","",""
"categorize-image","209","764042","0.0-4.0-1.0-1.29","lqhcm9yhnd892hv","prime","5f52578f1d4ccf0b874a2c41","5f60e3c0a3b16e07647b2ff9","5f6389df20589407c02c0f1b","true","794.3999999988591","./Stimuli/SelectedImages/LN/LN59.bmp","76","","","","test","true","M + N","76","switch","LN","LN59.bmp","forget","","78","3","prime1","right","","","",""
"html-keyboard-response","210","766060","0.0-4.0-1.0-3.29","lqhcm9yhnd892hv","prime","5f52578f1d4ccf0b874a2c41","5f60e3c0a3b16e07647b2ff9","5f6389df20589407c02c0f1b","false","null","<div style=""align-items: center; display: flex; color: darkorange; font-size: 90px""><b>ø</b></div>","null","","","","forget_cue","","","","","","","","","","","","","","","",""
"html-keyboard-response","211","766771","0.0-4.0-1.0-0.30","lqhcm9yhnd892hv","prime","5f52578f1d4ccf0b874a2c41","5f60e3c0a3b16e07647b2ff9","5f6389df20589407c02c0f1b","false","null","<span style=""color: black; font-size: 48px"">N + M</span>","null","","","","resp_prompt","","","","","","","","","","","","","","","",""
"categorize-image","212","767741","0.0-4.0-1.0-1.30","lqhcm9yhnd892hv","prime","5f52578f1d4ccf0b874a2c41","5f60e3c0a3b16e07647b2ff9","5f6389df20589407c02c0f1b","true","963.4249999980675","./Stimuli/SelectedImages/LM/LM150.bmp","76","","","","test","true","N + M","76","switch","LM","LM150.bmp","remember","","79","3","prime1","right","","","",""
"html-keyboard-response","213","769751","0.0-4.0-1.0-3.30","lqhcm9yhnd892hv","prime","5f52578f1d4ccf0b874a2c41","5f60e3c0a3b16e07647b2ff9","5f6389df20589407c02c0f1b","false","null","<div style=""align-items: center; display: flex; color: dodgerblue; font-size: 90px""><b>o</b></div>","null","","","","forget_cue","","","","","","","","","","","","","","","",""
"html-keyboard-response","214","770460","0.0-4.0-1.0-0.31","lqhcm9yhnd892hv","prime","5f52578f1d4ccf0b874a2c41","5f60e3c0a3b16e07647b2ff9","5f6389df20589407c02c0f1b","false","null","<span style=""color: black; font-size: 48px"">M + N</span>","null","","","","resp_prompt","","","","","","","","","","","","","","","",""
"categorize-image","215","771415","0.0-4.0-1.0-1.31","lqhcm9yhnd892hv","prime","5f52578f1d4ccf0b874a2c41","5f60e3c0a3b16e07647b2ff9","5f6389df20589407c02c0f1b","true","947.6600000016624","./Stimuli/SelectedImages/LN/LN177.bmp","76","","","","test","true","M + N","76","repetition","LN","LN177.bmp","forget","","80","3","prime1","right","","","",""
"html-keyboard-response","216","773421","0.0-4.0-1.0-3.31","lqhcm9yhnd892hv","prime","5f52578f1d4ccf0b874a2c41","5f60e3c0a3b16e07647b2ff9","5f6389df20589407c02c0f1b","false","null","<div style=""align-items: center; display: flex; color: darkorange; font-size: 90px""><b>ø</b></div>","null","","","","forget_cue","","","","","","","","","","","","","","","",""
"html-keyboard-response","217","774124","0.0-4.0-1.0-0.32","lqhcm9yhnd892hv","prime","5f52578f1d4ccf0b874a2c41","5f60e3c0a3b16e07647b2ff9","5f6389df20589407c02c0f1b","false","null","<span style=""color: black; font-size: 48px"">M + N</span>","null","","","","resp_prompt","","","","","","","","","","","","","","","",""
"categorize-image","218","774785","0.0-4.0-1.0-1.32","lqhcm9yhnd892hv","prime","5f52578f1d4ccf0b874a2c41","5f60e3c0a3b16e07647b2ff9","5f6389df20589407c02c0f1b","true","653.2900000020163","./Stimuli/SelectedImages/LM/LM59.bmp","83","","","","test","true","M + N","83","repetition","LM","LM59.bmp","forget","","81","3","prime1","left","","","",""
"html-keyboard-response","219","776792","0.0-4.0-1.0-3.32","lqhcm9yhnd892hv","prime","5f52578f1d4ccf0b874a2c41","5f60e3c0a3b16e07647b2ff9","5f6389df20589407c02c0f1b","false","null","<div style=""align-items: center; display: flex; color: darkorange; font-size: 90px""><b>ø</b></div>","null","","","","forget_cue","","","","","","","","","","","","","","","",""
"html-keyboard-response","220","777502","0.0-4.0-1.0-0.33","lqhcm9yhnd892hv","prime","5f52578f1d4ccf0b874a2c41","5f60e3c0a3b16e07647b2ff9","5f6389df20589407c02c0f1b","false","null","<span style=""color: black; font-size: 48px"">M + N</span>","null","","","","resp_prompt","","","","","","","","","","","","","","","",""
"categorize-image","221","778377","0.0-4.0-1.0-1.33","lqhcm9yhnd892hv","prime","5f52578f1d4ccf0b874a2c41","5f60e3c0a3b16e07647b2ff9","5f6389df20589407c02c0f1b","true","868.0449999993434","./Stimuli/SelectedImages/LM/LM209.bmp","83","","","","test","true","M + N","83","switch","LM","LM209.bmp","forget","","82","3","prime1","left","","","",""
"html-keyboard-response","222","780385","0.0-4.0-1.0-3.33","lqhcm9yhnd892hv","prime","5f52578f1d4ccf0b874a2c41","5f60e3c0a3b16e07647b2ff9","5f6389df20589407c02c0f1b","false","null","<div style=""align-items: center; display: flex; color: darkorange; font-size: 90px""><b>ø</b></div>","null","","","","forget_cue","","","","","","","","","","","","","","","",""
"html-keyboard-response","223","781090","0.0-4.0-1.0-0.34","lqhcm9yhnd892hv","prime","5f52578f1d4ccf0b874a2c41","5f60e3c0a3b16e07647b2ff9","5f6389df20589407c02c0f1b","false","null","<span style=""color: black; font-size: 48px"">N + M</span>","null","","","","resp_prompt","","","","","","","","","","","","","","","",""
"categorize-image","224","781752","0.0-4.0-1.0-1.34","lqhcm9yhnd892hv","prime","5f52578f1d4ccf0b874a2c41","5f60e3c0a3b16e07647b2ff9","5f6389df20589407c02c0f1b","true","654.9500000001863","./Stimuli/SelectedImages/SM/SM207.bmp","83","","","","test","false","N + M","76","switch","SM","SM207.bmp","forget","","83","3","prime1","left","","","",""
"html-keyboard-response","225","782255","0.0-4.0-1.0-2.34-0.34","lqhcm9yhnd892hv","prime","5f52578f1d4ccf0b874a2c41","5f60e3c0a3b16e07647b2ff9","5f6389df20589407c02c0f1b","false","null","<span style=""color: red; font-size: 48px"">Error!</span>","null","","","","feedback","","","","","","","","","","","","","","","",""
"html-keyboard-response","226","784256","0.0-4.0-1.0-3.34","lqhcm9yhnd892hv","prime","5f52578f1d4ccf0b874a2c41","5f60e3c0a3b16e07647b2ff9","5f6389df20589407c02c0f1b","false","null","<div style=""align-items: center; display: flex; color: darkorange; font-size: 90px""><b>ø</b></div>","null","","","","forget_cue","","","","","","","","","","","","","","","",""
"html-keyboard-response","227","784959","0.0-4.0-1.0-0.35","lqhcm9yhnd892hv","prime","5f52578f1d4ccf0b874a2c41","5f60e3c0a3b16e07647b2ff9","5f6389df20589407c02c0f1b","false","null","<span style=""color: black; font-size: 48px"">M + N</span>","null","","","","resp_prompt","","","","","","","","","","","","","","","",""
"categorize-image","228","785774","0.0-4.0-1.0-1.35","lqhcm9yhnd892hv","prime","5f52578f1d4ccf0b874a2c41","5f60e3c0a3b16e07647b2ff9","5f6389df20589407c02c0f1b","true","804.5050000001211","./Stimuli/SelectedImages/LN/LN166.bmp","83","","","","test","false","M + N","76","switch","LN","LN166.bmp","remember","","84","3","prime1","left","","","",""
"html-keyboard-response","229","786285","0.0-4.0-1.0-2.35-0.35","lqhcm9yhnd892hv","prime","5f52578f1d4ccf0b874a2c41","5f60e3c0a3b16e07647b2ff9","5f6389df20589407c02c0f1b","false","null","<span style=""color: red; font-size: 48px"">Error!</span>","null","","","","feedback","","","","","","","","","","","","","","","",""
"html-keyboard-response","230","788291","0.0-4.0-1.0-3.35","lqhcm9yhnd892hv","prime","5f52578f1d4ccf0b874a2c41","5f60e3c0a3b16e07647b2ff9","5f6389df20589407c02c0f1b","false","null","<div style=""align-items: center; display: flex; color: dodgerblue; font-size: 90px""><b>o</b></div>","null","","","","forget_cue","","","","","","","","","","","","","","","",""
"html-keyboard-response","231","788993","0.0-4.0-1.0-0.36","lqhcm9yhnd892hv","prime","5f52578f1d4ccf0b874a2c41","5f60e3c0a3b16e07647b2ff9","5f6389df20589407c02c0f1b","false","null","<span style=""color: black; font-size: 48px"">M + N</span>","null","","","","resp_prompt","","","","","","","","","","","","","","","",""
"categorize-image","232","789864","0.0-4.0-1.0-1.36","lqhcm9yhnd892hv","prime","5f52578f1d4ccf0b874a2c41","5f60e3c0a3b16e07647b2ff9","5f6389df20589407c02c0f1b","true","862.6899999980815","./Stimuli/SelectedImages/SN/SN182.bmp","76","","","","test","true","M + N","76","switch","SN","SN182.bmp","forget","","85","3","prime1","right","","","",""
"html-keyboard-response","233","791867","0.0-4.0-1.0-3.36","lqhcm9yhnd892hv","prime","5f52578f1d4ccf0b874a2c41","5f60e3c0a3b16e07647b2ff9","5f6389df20589407c02c0f1b","false","null","<div style=""align-items: center; display: flex; color: darkorange; font-size: 90px""><b>ø</b></div>","null","","","","forget_cue","","","","","","","","","","","","","","","",""
"html-keyboard-response","234","792577","0.0-4.0-1.0-0.37","lqhcm9yhnd892hv","prime","5f52578f1d4ccf0b874a2c41","5f60e3c0a3b16e07647b2ff9","5f6389df20589407c02c0f1b","false","null","<span style=""color: black; font-size: 48px"">N + M</span>","null","","","","resp_prompt","","","","","","","","","","","","","","","",""
"categorize-image","235","793406","0.0-4.0-1.0-1.37","lqhcm9yhnd892hv","prime","5f52578f1d4ccf0b874a2c41","5f60e3c0a3b16e07647b2ff9","5f6389df20589407c02c0f1b","true","819.6300000017509","./Stimuli/SelectedImages/LM/LM75.bmp","76","","","","test","true","N + M","76","switch","LM","LM75.bmp","forget","","86","3","prime1","right","","","",""
"html-keyboard-response","236","795409","0.0-4.0-1.0-3.37","lqhcm9yhnd892hv","prime","5f52578f1d4ccf0b874a2c41","5f60e3c0a3b16e07647b2ff9","5f6389df20589407c02c0f1b","false","null","<div style=""align-items: center; display: flex; color: darkorange; font-size: 90px""><b>ø</b></div>","null","","","","forget_cue","","","","","","","","","","","","","","","",""
"html-keyboard-response","237","796111","0.0-4.0-1.0-0.38","lqhcm9yhnd892hv","prime","5f52578f1d4ccf0b874a2c41","5f60e3c0a3b16e07647b2ff9","5f6389df20589407c02c0f1b","false","null","<span style=""color: black; font-size: 48px"">M + N</span>","null","","","","resp_prompt","","","","","","","","","","","","","","","",""
"categorize-image","238","797299","0.0-4.0-1.0-1.38","lqhcm9yhnd892hv","prime","5f52578f1d4ccf0b874a2c41","5f60e3c0a3b16e07647b2ff9","5f6389df20589407c02c0f1b","true","1180.515000000014","./Stimuli/SelectedImages/SN/SN240.bmp","76","","","","test","true","M + N","76","switch","SN","SN240.bmp","remember","","87","3","prime1","right","","","",""
"html-keyboard-response","239","799302","0.0-4.0-1.0-3.38","lqhcm9yhnd892hv","prime","5f52578f1d4ccf0b874a2c41","5f60e3c0a3b16e07647b2ff9","5f6389df20589407c02c0f1b","false","null","<div style=""align-items: center; display: flex; color: dodgerblue; font-size: 90px""><b>o</b></div>","null","","","","forget_cue","","","","","","","","","","","","","","","",""
"html-keyboard-response","240","800007","0.0-4.0-1.0-0.39","lqhcm9yhnd892hv","prime","5f52578f1d4ccf0b874a2c41","5f60e3c0a3b16e07647b2ff9","5f6389df20589407c02c0f1b","false","null","<span style=""color: black; font-size: 48px"">M + N</span>","null","","","","resp_prompt","","","","","","","","","","","","","","","",""
"categorize-image","241","800886","0.0-4.0-1.0-1.39","lqhcm9yhnd892hv","prime","5f52578f1d4ccf0b874a2c41","5f60e3c0a3b16e07647b2ff9","5f6389df20589407c02c0f1b","true","871.4899999976624","./Stimuli/SelectedImages/SM/SM24.bmp","76","","","","test","false","M + N","83","repetition","SM","SM24.bmp","remember","","88","3","prime1","right","","","",""
"html-keyboard-response","242","801389","0.0-4.0-1.0-2.39-0.39","lqhcm9yhnd892hv","prime","5f52578f1d4ccf0b874a2c41","5f60e3c0a3b16e07647b2ff9","5f6389df20589407c02c0f1b","false","null","<span style=""color: red; font-size: 48px"">Error!</span>","null","","","","feedback","","","","","","","","","","","","","","","",""
"html-keyboard-response","243","803391","0.0-4.0-1.0-3.39","lqhcm9yhnd892hv","prime","5f52578f1d4ccf0b874a2c41","5f60e3c0a3b16e07647b2ff9","5f6389df20589407c02c0f1b","false","null","<div style=""align-items: center; display: flex; color: dodgerblue; font-size: 90px""><b>o</b></div>","null","","","","forget_cue","","","","","","","","","","","","","","","",""
"html-keyboard-response","244","804093","0.0-4.0-1.0-0.40","lqhcm9yhnd892hv","prime","5f52578f1d4ccf0b874a2c41","5f60e3c0a3b16e07647b2ff9","5f6389df20589407c02c0f1b","false","null","<span style=""color: black; font-size: 48px"">N + M</span>","null","","","","resp_prompt","","","","","","","","","","","","","","","",""
"categorize-image","245","805024","0.0-4.0-1.0-1.40","lqhcm9yhnd892hv","prime","5f52578f1d4ccf0b874a2c41","5f60e3c0a3b16e07647b2ff9","5f6389df20589407c02c0f1b","true","923.494999999064","./Stimuli/SelectedImages/LN/LN9.bmp","83","","","","test","true","N + M","83","switch","LN","LN9.bmp","remember","","89","3","prime1","left","","","",""
"html-keyboard-response","246","807027","0.0-4.0-1.0-3.40","lqhcm9yhnd892hv","prime","5f52578f1d4ccf0b874a2c41","5f60e3c0a3b16e07647b2ff9","5f6389df20589407c02c0f1b","false","null","<div style=""align-items: center; display: flex; color: dodgerblue; font-size: 90px""><b>o</b></div>","null","","","","forget_cue","","","","","","","","","","","","","","","",""
"html-keyboard-response","247","807728","0.0-4.0-1.0-0.41","lqhcm9yhnd892hv","prime","5f52578f1d4ccf0b874a2c41","5f60e3c0a3b16e07647b2ff9","5f6389df20589407c02c0f1b","false","null","<span style=""color: black; font-size: 48px"">M + N</span>","null","","","","resp_prompt","","","","","","","","","","","","","","","",""
"categorize-image","248","808667","0.0-4.0-1.0-1.41","lqhcm9yhnd892hv","prime","5f52578f1d4ccf0b874a2c41","5f60e3c0a3b16e07647b2ff9","5f6389df20589407c02c0f1b","true","931.0899999982212","./Stimuli/SelectedImages/SN/SN155.bmp","76","","","","test","true","M + N","76","repetition","SN","SN155.bmp","remember","","90","3","prime1","right","","","",""
"html-keyboard-response","249","810671","0.0-4.0-1.0-3.41","lqhcm9yhnd892hv","prime","5f52578f1d4ccf0b874a2c41","5f60e3c0a3b16e07647b2ff9","5f6389df20589407c02c0f1b","false","null","<div style=""align-items: center; display: flex; color: dodgerblue; font-size: 90px""><b>o</b></div>","null","","","","forget_cue","","","","","","","","","","","","","","","",""
"html-keyboard-response","250","811373","0.0-4.0-1.0-0.42","lqhcm9yhnd892hv","prime","5f52578f1d4ccf0b874a2c41","5f60e3c0a3b16e07647b2ff9","5f6389df20589407c02c0f1b","false","null","<span style=""color: black; font-size: 48px"">N + M</span>","null","","","","resp_prompt","","","","","","","","","","","","","","","",""
"categorize-image","251","812437","0.0-4.0-1.0-1.42","lqhcm9yhnd892hv","prime","5f52578f1d4ccf0b874a2c41","5f60e3c0a3b16e07647b2ff9","5f6389df20589407c02c0f1b","true","1055.3350000010105","./Stimuli/SelectedImages/LN/LN128.bmp","76","","","","test","false","N + M","83","switch","LN","LN128.bmp","forget","","91","3","prime1","right","","","",""
"html-keyboard-response","252","812951","0.0-4.0-1.0-2.42-0.42","lqhcm9yhnd892hv","prime","5f52578f1d4ccf0b874a2c41","5f60e3c0a3b16e07647b2ff9","5f6389df20589407c02c0f1b","false","null","<span style=""color: red; font-size: 48px"">Error!</span>","null","","","","feedback","","","","","","","","","","","","","","","",""
