"trial_type","trial_index","time_elapsed","internal_node_id","subject","exp_part","prolific_PID","study_ID","session_ID","use","rt","stimulus","key_press","button_pressed","responses","question_order","trial_part","correct","resp_map","correct_resp","probe_condition","category","image","forget_condition","list","trial_num","block_num","block","response","test_part","n_span","sequence","num_spaces"
"pavlovia","0","7","0.0-0.0","b1z4dcj5jkyrawl","","5d651665cad1a9001839839d","5f60e3c0a3b16e07647b2ff9","5f646a68b6a0681eb8dd09d2","false","","","","","","","","","","","","","","","","","","","","","","",""
"html-keyboard-response","1","8349","0.0-1.0-0.0-0.0","b1z4dcj5jkyrawl","welcome","5d651665cad1a9001839839d","5f60e3c0a3b16e07647b2ff9","5f646a68b6a0681eb8dd09d2","false","8337.059999990743","<div align=left>Dear participant, <br> thank you for participating in an online study of the Cognition, Action, and Sustainability Unit of the University of Freiburg! <br> <br>The aim of this study is to examine our ability to remember previously learned information. <br>Our goal is to find out, whether our memory improves, when we only remember information that is relevant to us. <br>The experiment will take about 35 minutes to complete. <br> <br>Please, note that you can only participate in this study if you are using a device with a keyboard (PC, Laptop etc.) <br>and not if you are using a mobile device such as a tablet or smartphone.<br> <br>Press 'SPACE' to proceed to the experiment. </div>","32","","","","","","","","","","","","","","","","","","","",""
"html-keyboard-response","2","44870","0.0-1.0-0.0-1.0","b1z4dcj5jkyrawl","welcome","5d651665cad1a9001839839d","5f60e3c0a3b16e07647b2ff9","5f646a68b6a0681eb8dd09d2","false","36518.169999995735","<div align=left><strong> Time Course of this experiment: </strong> <br><br> <strong> 1.</strong>  First, please fill in some information regarding your demographic data. <br><br> <strong> 2.</strong>  Next, your task will be to classify everyday objects. <br>In addition, you will be asked to remember certain objects and recall them later. <br>Working on these tasks requires your undivided attention and concentration.<br>It is therefore essential that you eliminate any sources of distraction in your  <br>environment and ensure that you will not be disturbed. <br><br><strong> 3.</strong>  At the end of the experiment, you will be asked to answer a few additional questions. <br> <br><strong> Important:</strong> After finishing the experiment, only close the browser window <br> by clicking on the 'end the experiment'-button when you are asked to do so. <br>Closing the browser window prematurely will make the allocation of your participation credit impossible. <br><br> Press 'SPACE' to start the experiment. </div>","32","","","","","","","","","","","","","","","","","","","",""
"html-button-response","3","47686","0.0-1.0-0.0-2.0","b1z4dcj5jkyrawl","welcome","5d651665cad1a9001839839d","5f60e3c0a3b16e07647b2ff9","5f646a68b6a0681eb8dd09d2","true","2810.6750000151806","<div align=left><strong> Informed consent </strong>  <br>The aim of our research is to better understand human behavior and mental processes. <br>In the following study your behavior (e.g. choices, reaction times) will be studied. <br> <br><strong> Voluntariness and Anonymity </strong> <br>Your participation in this study is  <strong> voluntary</strong>.<br>You may withdraw your consent to participate at any time without providing a reason for doing so and without fear of prejudice. <br><br>As no personal data will be collected, <strong>your data and your person cannot be connected after data collection</strong> – the data-set is anonymous. <br>Respectively, deletion of your data will not be possible after data collection has been completed, as we cannot retrace your data-set.<br>The results and anonymized data collected in this study will be published as a scientific publication. <br>This will happen in an <strong>anonymized format</strong>, so that no data can be traced back to a specific person. <br> <br>The anonymized data of this study will be made available to other researchers and/or in a data archive on the Internet as a means of transparency and to enable subsequent re-use. By doing so, this study follows the recommendations of the Deutsche Forschungsgemeinschaft (DFG, German Research Foundation) and Deutsche Gesellschaft für Psychologie (DGPS, German Psychological Society) regarding quality assurance in research.<br>If you have any questions now or after the experiment, please contact our team (experiments@cs.uni-freiburg.de).<br><br><br>I hereby declare, that I understand the above described conditions of participation and I agree to participate under these conditions. <br><br> </div>","","0","","","","","","","","","","","","","","","","","","",""
"html-keyboard-response","4","87206","0.0-1.0-0.0-3.0","b1z4dcj5jkyrawl","welcome","5d651665cad1a9001839839d","5f60e3c0a3b16e07647b2ff9","5f646a68b6a0681eb8dd09d2","false","39514.529999985825","<div align=left><strong> General information concerning the experiment </strong>  <br> <br>Please follow the instructions:<ol> <li><strong> Do not leave this tab (your browser window) during the experiment and do not reload this tab! </strong>  <br>If you do switch tabs/windows during the experiment (to check your mail or visit another website, for example), <br>the experiment will end automatically and you will <strong>not receive credit</strong> for your participation. <br>Repeated participation or resumption of the experiment is impossible.</li> <br><li>Please close all other programs for the duration of your participation. </li> <br><li>Please mute or turn off your phone and put it out of your reach. </li> <br><li>Please also take off any disturbing accessories (such as wristwatches, bracelets, etc.). </li> <br><li>If you have music playing in the background, please turn it off now. </li> <br></ol>Thank you! <br>Press 'SPACE' to continue. </div>","32","","","","","","","","","","","","","","","","","","","",""
"survey-text","5","91205","0.0-1.0-1.0-0.0","b1z4dcj5jkyrawl","demographics","5d651665cad1a9001839839d","5f60e3c0a3b16e07647b2ff9","5f646a68b6a0681eb8dd09d2","true","3987.599999993108","","","","{""age"":""33""}","","","","","","","","","","","","","","","","","",""
"survey-multi-choice","6","114835","0.0-1.0-1.0-1.0","b1z4dcj5jkyrawl","demographics","5d651665cad1a9001839839d","5f60e3c0a3b16e07647b2ff9","5f646a68b6a0681eb8dd09d2","true","23621.95999996038","","","","{""gender"":""female"",""school"":""others"",""education"":""Completed university degree or equivalent""}","[0,1,2]","","","","","","","","","","","","","","","","",""
"html-keyboard-response","7","135685","0.0-1.0-2.0","b1z4dcj5jkyrawl","instructions","5d651665cad1a9001839839d","5f60e3c0a3b16e07647b2ff9","5f646a68b6a0681eb8dd09d2","false","20842.739999992773","<div align=left> The experiment is now about to start: <br> <br>In the following part, you will be presented pictures of everyday objects. <br>Your first task is to <strong>classify these objects. </strong> <br> <br> You will classify them either as mechanical or non-mechanical objects. <br> <br>Objects that include any kind of technical mechanism (for example, wheels, switches, levers, <br> electronic components) fall under the category of <strong>mechanical</strong> objects. <br>Only objects without any kind of technical mechanism should be classified as <strong>non-mechanical</strong>. <br><br>Press 'SPACE' to continue. </div>","32","","","","","","","","","","","","","","","","","","","",""
"html-keyboard-response","8","174672","0.0-2.0-0.0","b1z4dcj5jkyrawl","instructions","5d651665cad1a9001839839d","5f60e3c0a3b16e07647b2ff9","5f646a68b6a0681eb8dd09d2","false","38984.83000003034","<div align=justify>You will classify the objects using the <strong>'S'</strong> and the <strong>'L'</strong> keys on your keyboard.<br>For doing so, please place your <strong>left index finger</strong> on the <strong>'S'</strong> key and place your <strong>right index finger</strong> on the <strong>'L'</strong> key. <br><br> Each trial starts with an instruction, indicating which key ('S'/'L') you need to press to classify <br>the object as mechanical (letter M) or non-mechanical (letter N).<br>The instruction <strong>M + N</strong> indicates that, in the current trial, by pressing the left key ('S') you classify the displayed object as mechanical (M) <br> and by pressing the right key ('L') you classify the object as non-mechanical (N). <br>The instruction <strong>N + M</strong> on the other hand indicates that by pressing the left key ('S') you classify the displayed object as non-mechanical (N) <br> and by pressing the right key ('L') you classify the object as mechanical (M). <br><br>Please press the key corresponding to the correct classification as fast as possible as soon as the object is displayed and try to avoid making mistakes.<br>If you do not respond within a 2 second window, a corresponding feedback will be displayed and the next trial will start.<br> The experiment is divided into multiple blocks to give you the opportunity to take a break after each block. <br>First, you can now practice this task. <br><br>Please place your <strong>LEFT INDEX FINGER</strong> on the 'S' key and your <strong>RIGHT INDEX FINGER</strong> on the 'L' key now. <br><br>Press SPACE to continue.</div>","32","","","","","","","","","","","","","","","","","","","",""
"html-keyboard-response","9","188060","0.0-2.0-1.0","b1z4dcj5jkyrawl","instructions","5d651665cad1a9001839839d","5f60e3c0a3b16e07647b2ff9","5f646a68b6a0681eb8dd09d2","false","13385.074999998324","<div align=left> You will now have time to practice this task.<br><br>Remember: <br> <br><li>Please place your index fingers on the <strong>'S'</strong> and <strong>'L'</strong> keys <br>to respond as fast and accurately as possible.</li><li>Every picture can be classified as either mechanical or non-mechanical.</li><li>If you do not respond in time or commit an error, you will receive a corresponding feedback. </li><li> Please try to respond as <strong> fast </strong> and as <strong> accurately as possible </strong> .<br><li>To ensure optimal results, please minimize distractions and stay focused. </li><br><br>Press SPACE to continue.</div>","32","","","","","","","","","","","","","","","","","","","",""
"html-keyboard-response","10","188766","0.0-2.0-2.0-0.0","b1z4dcj5jkyrawl","practice_no_cue","5d651665cad1a9001839839d","5f60e3c0a3b16e07647b2ff9","5f646a68b6a0681eb8dd09d2","false","null","<span style=""color: black; font-size: 48px"">M + N</span>","null","","","","resp_prompt","","","","","","","","","","","","","","","",""
"categorize-image","11","191272","0.0-2.0-2.0-1.0","b1z4dcj5jkyrawl","practice_no_cue","5d651665cad1a9001839839d","5f60e3c0a3b16e07647b2ff9","5f646a68b6a0681eb8dd09d2","true","null","./Stimuli/ImagesPractice/SM35.jpg","null","","","","test","false","M + N","83","","SM","SM35.jpg","remember","old","1","1","start","too_slow","","","",""
"html-keyboard-response","12","191976","0.0-2.0-2.0-0.1","b1z4dcj5jkyrawl","practice_no_cue","5d651665cad1a9001839839d","5f60e3c0a3b16e07647b2ff9","5f646a68b6a0681eb8dd09d2","false","null","<span style=""color: black; font-size: 48px"">N + M</span>","null","","","","resp_prompt","","","","","","","","","","","","","","","",""
"categorize-image","13","193457","0.0-2.0-2.0-1.1","b1z4dcj5jkyrawl","practice_no_cue","5d651665cad1a9001839839d","5f60e3c0a3b16e07647b2ff9","5f646a68b6a0681eb8dd09d2","true","978.4050000016578","./Stimuli/ImagesPractice/SN75.jpg","76","","","","test","false","N + M","83","","SN","SN75.jpg","remember","old","2","1","start","right","","","",""
"html-keyboard-response","14","194159","0.0-2.0-2.0-0.2","b1z4dcj5jkyrawl","practice_no_cue","5d651665cad1a9001839839d","5f60e3c0a3b16e07647b2ff9","5f646a68b6a0681eb8dd09d2","false","null","<span style=""color: black; font-size: 48px"">N + M</span>","null","","","","resp_prompt","","","","","","","","","","","","","","","",""
"categorize-image","15","195926","0.0-2.0-2.0-1.2","b1z4dcj5jkyrawl","practice_no_cue","5d651665cad1a9001839839d","5f60e3c0a3b16e07647b2ff9","5f646a68b6a0681eb8dd09d2","true","1261.8549999897368","./Stimuli/ImagesPractice/SM62.jpg","76","","","","test","true","N + M","76","","SM","SM62.jpg","remember","old","3","1","start","right","","","",""
"html-keyboard-response","16","196628","0.0-2.0-2.0-0.3","b1z4dcj5jkyrawl","practice_no_cue","5d651665cad1a9001839839d","5f60e3c0a3b16e07647b2ff9","5f646a68b6a0681eb8dd09d2","false","null","<span style=""color: black; font-size: 48px"">M + N</span>","null","","","","resp_prompt","","","","","","","","","","","","","","","",""
"categorize-image","17","197757","0.0-2.0-2.0-1.3","b1z4dcj5jkyrawl","practice_no_cue","5d651665cad1a9001839839d","5f60e3c0a3b16e07647b2ff9","5f646a68b6a0681eb8dd09d2","true","624.6999999857508","./Stimuli/ImagesPractice/SN220.jpg","83","","","","test","false","M + N","76","","SN","SN220.jpg","forget","old","4","1","start","left","","","",""
"html-keyboard-response","18","198459","0.0-2.0-2.0-0.4","b1z4dcj5jkyrawl","practice_no_cue","5d651665cad1a9001839839d","5f60e3c0a3b16e07647b2ff9","5f646a68b6a0681eb8dd09d2","false","null","<span style=""color: black; font-size: 48px"">N + M</span>","null","","","","resp_prompt","","","","","","","","","","","","","","","",""
"categorize-image","19","199559","0.0-2.0-2.0-1.4","b1z4dcj5jkyrawl","practice_no_cue","5d651665cad1a9001839839d","5f60e3c0a3b16e07647b2ff9","5f646a68b6a0681eb8dd09d2","true","596.4149999781512","./Stimuli/ImagesPractice/SN76.jpg","76","","","","test","false","N + M","83","","SN","SN76.jpg","remember","old","5","1","start","right","","","",""
"html-keyboard-response","20","200261","0.0-2.0-2.0-0.5","b1z4dcj5jkyrawl","practice_no_cue","5d651665cad1a9001839839d","5f60e3c0a3b16e07647b2ff9","5f646a68b6a0681eb8dd09d2","false","null","<span style=""color: black; font-size: 48px"">N + M</span>","null","","","","resp_prompt","","","","","","","","","","","","","","","",""
"categorize-image","21","201337","0.0-2.0-2.0-1.5","b1z4dcj5jkyrawl","practice_no_cue","5d651665cad1a9001839839d","5f60e3c0a3b16e07647b2ff9","5f646a68b6a0681eb8dd09d2","true","571.8549999874085","./Stimuli/ImagesPractice/SM37.jpg","76","","","","test","true","N + M","76","","SM","SM37.jpg","forget","old","6","1","start","right","","","",""
"html-keyboard-response","22","202039","0.0-2.0-2.0-0.6","b1z4dcj5jkyrawl","practice_no_cue","5d651665cad1a9001839839d","5f60e3c0a3b16e07647b2ff9","5f646a68b6a0681eb8dd09d2","false","null","<span style=""color: black; font-size: 48px"">M + N</span>","null","","","","resp_prompt","","","","","","","","","","","","","","","",""
"categorize-image","23","203290","0.0-2.0-2.0-1.6","b1z4dcj5jkyrawl","practice_no_cue","5d651665cad1a9001839839d","5f60e3c0a3b16e07647b2ff9","5f646a68b6a0681eb8dd09d2","true","747.0200000097975","./Stimuli/ImagesPractice/LM143.jpg","76","","","","test","false","M + N","83","","LM","LM143.jpg","forget","old","7","1","start","right","","","",""
"html-keyboard-response","24","203991","0.0-2.0-2.0-0.7","b1z4dcj5jkyrawl","practice_no_cue","5d651665cad1a9001839839d","5f60e3c0a3b16e07647b2ff9","5f646a68b6a0681eb8dd09d2","false","null","<span style=""color: black; font-size: 48px"">M + N</span>","null","","","","resp_prompt","","","","","","","","","","","","","","","",""
"categorize-image","25","205074","0.0-2.0-2.0-1.7","b1z4dcj5jkyrawl","practice_no_cue","5d651665cad1a9001839839d","5f60e3c0a3b16e07647b2ff9","5f646a68b6a0681eb8dd09d2","true","579.859999998007","./Stimuli/ImagesPractice/SN221.jpg","83","","","","test","false","M + N","76","","SN","SN221.jpg","forget","old","8","1","start","left","","","",""
"html-keyboard-response","26","205779","0.0-2.0-2.0-0.8","b1z4dcj5jkyrawl","practice_no_cue","5d651665cad1a9001839839d","5f60e3c0a3b16e07647b2ff9","5f646a68b6a0681eb8dd09d2","false","null","<span style=""color: black; font-size: 48px"">N + M</span>","null","","","","resp_prompt","","","","","","","","","","","","","","","",""
"categorize-image","27","207778","0.0-2.0-2.0-1.8","b1z4dcj5jkyrawl","practice_no_cue","5d651665cad1a9001839839d","5f60e3c0a3b16e07647b2ff9","5f646a68b6a0681eb8dd09d2","true","1495.424999971874","./Stimuli/ImagesPractice/LN15.jpg","76","","","","test","false","N + M","83","","LN","LN15.jpg","forget","old","9","1","start","right","","","",""
"html-keyboard-response","28","208479","0.0-2.0-2.0-0.9","b1z4dcj5jkyrawl","practice_no_cue","5d651665cad1a9001839839d","5f60e3c0a3b16e07647b2ff9","5f646a68b6a0681eb8dd09d2","false","null","<span style=""color: black; font-size: 48px"">N + M</span>","null","","","","resp_prompt","","","","","","","","","","","","","","","",""
"categorize-image","29","209568","0.0-2.0-2.0-1.9","b1z4dcj5jkyrawl","practice_no_cue","5d651665cad1a9001839839d","5f60e3c0a3b16e07647b2ff9","5f646a68b6a0681eb8dd09d2","true","583.939999982249","./Stimuli/ImagesPractice/LN109.jpg","83","","","","test","true","N + M","83","","LN","LN109.jpg","forget","old","10","1","start","left","","","",""
"html-keyboard-response","30","210270","0.0-2.0-2.0-0.10","b1z4dcj5jkyrawl","practice_no_cue","5d651665cad1a9001839839d","5f60e3c0a3b16e07647b2ff9","5f646a68b6a0681eb8dd09d2","false","null","<span style=""color: black; font-size: 48px"">M + N</span>","null","","","","resp_prompt","","","","","","","","","","","","","","","",""
"categorize-image","31","210885","0.0-2.0-2.0-1.10","b1z4dcj5jkyrawl","practice_no_cue","5d651665cad1a9001839839d","5f60e3c0a3b16e07647b2ff9","5f646a68b6a0681eb8dd09d2","true","111.54499999247491","./Stimuli/ImagesPractice/SN205.jpg","83","","","","test","false","M + N","76","","SN","SN205.jpg","forget","old","11","1","start","left","","","",""
"html-keyboard-response","32","211587","0.0-2.0-2.0-0.11","b1z4dcj5jkyrawl","practice_no_cue","5d651665cad1a9001839839d","5f60e3c0a3b16e07647b2ff9","5f646a68b6a0681eb8dd09d2","false","null","<span style=""color: black; font-size: 48px"">M + N</span>","null","","","","resp_prompt","","","","","","","","","","","","","","","",""
"categorize-image","33","214091","0.0-2.0-2.0-1.11","b1z4dcj5jkyrawl","practice_no_cue","5d651665cad1a9001839839d","5f60e3c0a3b16e07647b2ff9","5f646a68b6a0681eb8dd09d2","true","null","./Stimuli/ImagesPractice/LN72.jpg","null","","","","test","false","M + N","76","","LN","LN72.jpg","remember","old","12","1","start","too_slow","","","",""
"html-keyboard-response","34","214793","0.0-2.0-2.0-0.12","b1z4dcj5jkyrawl","practice_no_cue","5d651665cad1a9001839839d","5f60e3c0a3b16e07647b2ff9","5f646a68b6a0681eb8dd09d2","false","null","<span style=""color: black; font-size: 48px"">N + M</span>","null","","","","resp_prompt","","","","","","","","","","","","","","","",""
"categorize-image","35","216397","0.0-2.0-2.0-1.12","b1z4dcj5jkyrawl","practice_no_cue","5d651665cad1a9001839839d","5f60e3c0a3b16e07647b2ff9","5f646a68b6a0681eb8dd09d2","true","1099.8700000345707","./Stimuli/ImagesPractice/LM239.jpg","76","","","","test","true","N + M","76","","LM","LM239.jpg","forget","old","13","1","start","right","","","",""
"html-keyboard-response","36","217099","0.0-2.0-2.0-0.13","b1z4dcj5jkyrawl","practice_no_cue","5d651665cad1a9001839839d","5f60e3c0a3b16e07647b2ff9","5f646a68b6a0681eb8dd09d2","false","null","<span style=""color: black; font-size: 48px"">M + N</span>","null","","","","resp_prompt","","","","","","","","","","","","","","","",""
"categorize-image","37","218526","0.0-2.0-2.0-1.13","b1z4dcj5jkyrawl","practice_no_cue","5d651665cad1a9001839839d","5f60e3c0a3b16e07647b2ff9","5f646a68b6a0681eb8dd09d2","true","923.3999999705702","./Stimuli/ImagesPractice/LM147.jpg","83","","","","test","true","M + N","83","","LM","LM147.jpg","remember","old","14","1","start","left","","","",""
"html-keyboard-response","38","219229","0.0-2.0-2.0-0.14","b1z4dcj5jkyrawl","practice_no_cue","5d651665cad1a9001839839d","5f60e3c0a3b16e07647b2ff9","5f646a68b6a0681eb8dd09d2","false","null","<span style=""color: black; font-size: 48px"">M + N</span>","null","","","","resp_prompt","","","","","","","","","","","","","","","",""
"categorize-image","39","220376","0.0-2.0-2.0-1.14","b1z4dcj5jkyrawl","practice_no_cue","5d651665cad1a9001839839d","5f60e3c0a3b16e07647b2ff9","5f646a68b6a0681eb8dd09d2","true","643.8400000333786","./Stimuli/ImagesPractice/SN222.jpg","76","","","","test","true","M + N","76","","SN","SN222.jpg","remember","old","15","1","start","right","","","",""
"html-keyboard-response","40","221078","0.0-2.0-2.0-0.15","b1z4dcj5jkyrawl","practice_no_cue","5d651665cad1a9001839839d","5f60e3c0a3b16e07647b2ff9","5f646a68b6a0681eb8dd09d2","false","null","<span style=""color: black; font-size: 48px"">N + M</span>","null","","","","resp_prompt","","","","","","","","","","","","","","","",""
"categorize-image","41","222364","0.0-2.0-2.0-1.15","b1z4dcj5jkyrawl","practice_no_cue","5d651665cad1a9001839839d","5f60e3c0a3b16e07647b2ff9","5f646a68b6a0681eb8dd09d2","true","782.8049999661744","./Stimuli/ImagesPractice/LN2.jpg","83","","","","test","true","N + M","83","","LN","LN2.jpg","remember","old","16","1","start","left","","","",""
"html-keyboard-response","42","226546","0.0-2.0-3.0","b1z4dcj5jkyrawl","break","5d651665cad1a9001839839d","5f60e3c0a3b16e07647b2ff9","5f646a68b6a0681eb8dd09d2","false","4177.720000036061","<p style='font-size: 32px;'>Break</><br><br><br><br><br><p style='font-size: 24px;'>In the last block, you committed 7 errors and did not respond in time on 2 trials.
</p><p style='font-size: 24px;'>Try to respond as fast and accurately as possible in the next block as well! </p><p style='font-size: 24px;'>Press SPACE to continue.</p>","32","","","","","","","","","","","","","","","","","","","",""
"html-keyboard-response","43","230598","0.0-2.0-4.0","b1z4dcj5jkyrawl","instructions","5d651665cad1a9001839839d","5f60e3c0a3b16e07647b2ff9","5f646a68b6a0681eb8dd09d2","false","4049.7750000213273","<div align=left> Great!<br><br>Are you ready to continue?<br><br>If you want to reread the instructions and redo the practice trials, <br>please press „Z“. <br><br>Press SPACE to CONTINUE with the experiment when you are ready. </div>","32","","","","","","","","","","","","","","","","","","","",""
"html-keyboard-response","44","244014","0.0-3.0-0.0","b1z4dcj5jkyrawl","instructions","5d651665cad1a9001839839d","5f60e3c0a3b16e07647b2ff9","5f646a68b6a0681eb8dd09d2","false","13410.975000006147","<div align=left>Great!<br> <strong>Attention</strong>! You will now receive a second, additional task! <br><br>To this point it was you <strong>first task</strong> to correctly <strong>classify objects</strong>. <br><br>As mentioned in the beginning, we aim to examine how well humans can remember previously learned information.<br>We would like to find out whether our memory improves if we only remember information that is relevant to us. <br><br>Therefore, your <strong>second task</strong> will be to <strong>remember</strong> the pictures you are to categorize. <br> After the learning phase, there will be a memory test phase, in which you will be asked to indicate whether you have seen a picture before or not. <br>Some, but not all pictures shown in the learning phase will appear in the memory test phase.<br>After classifying a picture, you will be told whether you should remember it for the memory test phase or not. <br>Thus, some pictures can be forgotten, whereas others have to be remembered. <br><br>Note: From now on, feedback will only be displayed if you responded incorrectly or not in time.<br><br>Press SPACE to continue.</div>","32","","","","","","","","","","","","","","","","","","","",""
"html-keyboard-response","45","260814","0.0-3.0-1.0","b1z4dcj5jkyrawl","instructions","5d651665cad1a9001839839d","5f60e3c0a3b16e07647b2ff9","5f646a68b6a0681eb8dd09d2","false","16796.495000016876","<div align=left>In the following part, you will thus have to remember only some pictures. <br>Immediately after seeing and classifying the picture, a symbol will be displayed, indicating whether you should remember or forget the previous picture. <br><br>A <span style='color: dodgerblue; font-size: 28px'>O</span> indicates REMEMBER. That means, you have to remember this picture, because it will be tested later. <br><br>A <span style='color: darkorange; font-size:28px'>Ø</span> indicates FORGET. You do not have to remember this picture. <br><br> As you will have to remember a lot of pictures, it will be hard for you to remember all of them. <br>It will put you at an advantage if you instantly forget the pictures you are not asked to remember. <br> This will make it easier for you to remember the pictures that will be tested afterwards. <br><br>Press SPACE to continue.</div>","32","","","","","","","","","","","","","","","","","","","",""
"html-keyboard-response","46","265755","0.0-3.0-2.0","b1z4dcj5jkyrawl","instructions","5d651665cad1a9001839839d","5f60e3c0a3b16e07647b2ff9","5f646a68b6a0681eb8dd09d2","false","4938.76500002807","<div align=left> Now you have the chance to practice both tasks together.<br><br>Remember: <br> <br><li>Please place your index fingers on the <strong>'S'</strong> and <strong>'L'</strong> keys <br>to respond as fast and accurately as possible.</li><li>Every picture can be classified as either mechanical or non-mechanical.</li><li>If you do not respond in time or commit an error, you will receive a corresponding feedback. <br>Please try to respond as <strong> fast </strong> and as <strong> accurately as possible </strong>.</li><li> Please remember only the to-be-remembered <span style='color: dodgerblue; font-size: 28px'>O</span> pictures. <br></li><li> Please minimize distractions and stay focused. </li><br><br>Press SPACE to START</div>","32","","","","","","","","","","","","","","","","","","","",""
"html-keyboard-response","47","266458","0.0-3.0-3.0-0.0","b1z4dcj5jkyrawl","practice_cue","5d651665cad1a9001839839d","5f60e3c0a3b16e07647b2ff9","5f646a68b6a0681eb8dd09d2","false","null","<span style=""color: black; font-size: 48px"">N + M</span>","null","","","","resp_prompt","","","","","","","","","","","","","","","",""
"categorize-image","48","267298","0.0-3.0-3.0-1.0","b1z4dcj5jkyrawl","practice_cue","5d651665cad1a9001839839d","5f60e3c0a3b16e07647b2ff9","5f646a68b6a0681eb8dd09d2","true","832.1800000267103","./Stimuli/ImagesPractice/SN76.jpg","83","","","","test","true","N + M","83","","SN","SN76.jpg","remember","old","17","2","practice_forget","left","","","",""
"html-keyboard-response","49","269302","0.0-3.0-3.0-3.0","b1z4dcj5jkyrawl","practice_cue","5d651665cad1a9001839839d","5f60e3c0a3b16e07647b2ff9","5f646a68b6a0681eb8dd09d2","false","null","<div style=""align-items: center; display: flex; color: dodgerblue; font-size: 90px""><b>o</b></div>","null","","","","forget_cue","","","","","","","","","","","","","","","",""
"html-keyboard-response","50","270004","0.0-3.0-3.0-0.1","b1z4dcj5jkyrawl","practice_cue","5d651665cad1a9001839839d","5f60e3c0a3b16e07647b2ff9","5f646a68b6a0681eb8dd09d2","false","null","<span style=""color: black; font-size: 48px"">M + N</span>","null","","","","resp_prompt","","","","","","","","","","","","","","","",""
"categorize-image","51","270642","0.0-3.0-3.0-1.1","b1z4dcj5jkyrawl","practice_cue","5d651665cad1a9001839839d","5f60e3c0a3b16e07647b2ff9","5f646a68b6a0681eb8dd09d2","true","630.6449999683537","./Stimuli/ImagesPractice/SM35.jpg","76","","","","test","false","M + N","83","","SM","SM35.jpg","remember","old","18","2","practice_forget","right","","","",""
"html-keyboard-response","52","271145","0.0-3.0-3.0-2.1-0.1","b1z4dcj5jkyrawl","practice_cue","5d651665cad1a9001839839d","5f60e3c0a3b16e07647b2ff9","5f646a68b6a0681eb8dd09d2","false","null","<span style=""color: red; font-size: 48px"">Error!</span>","null","","","","feedback","","","","","","","","","","","","","","","",""
"html-keyboard-response","53","273147","0.0-3.0-3.0-3.1","b1z4dcj5jkyrawl","practice_cue","5d651665cad1a9001839839d","5f60e3c0a3b16e07647b2ff9","5f646a68b6a0681eb8dd09d2","false","null","<div style=""align-items: center; display: flex; color: dodgerblue; font-size: 90px""><b>o</b></div>","null","","","","forget_cue","","","","","","","","","","","","","","","",""
"html-keyboard-response","54","273849","0.0-3.0-3.0-0.2","b1z4dcj5jkyrawl","practice_cue","5d651665cad1a9001839839d","5f60e3c0a3b16e07647b2ff9","5f646a68b6a0681eb8dd09d2","false","null","<span style=""color: black; font-size: 48px"">N + M</span>","null","","","","resp_prompt","","","","","","","","","","","","","","","",""
"categorize-image","55","274724","0.0-3.0-3.0-1.2","b1z4dcj5jkyrawl","practice_cue","5d651665cad1a9001839839d","5f60e3c0a3b16e07647b2ff9","5f646a68b6a0681eb8dd09d2","true","869.3250000360422","./Stimuli/ImagesPractice/LM239.jpg","83","","","","test","false","N + M","76","","LM","LM239.jpg","forget","old","19","2","practice_forget","left","","","",""
"html-keyboard-response","56","275228","0.0-3.0-3.0-2.2-0.2","b1z4dcj5jkyrawl","practice_cue","5d651665cad1a9001839839d","5f60e3c0a3b16e07647b2ff9","5f646a68b6a0681eb8dd09d2","false","null","<span style=""color: red; font-size: 48px"">Error!</span>","null","","","","feedback","","","","","","","","","","","","","","","",""
"html-keyboard-response","57","277231","0.0-3.0-3.0-3.2","b1z4dcj5jkyrawl","practice_cue","5d651665cad1a9001839839d","5f60e3c0a3b16e07647b2ff9","5f646a68b6a0681eb8dd09d2","false","null","<div style=""align-items: center; display: flex; color: darkorange; font-size: 90px""><b>ø</b></div>","null","","","","forget_cue","","","","","","","","","","","","","","","",""
"html-keyboard-response","58","277932","0.0-3.0-3.0-0.3","b1z4dcj5jkyrawl","practice_cue","5d651665cad1a9001839839d","5f60e3c0a3b16e07647b2ff9","5f646a68b6a0681eb8dd09d2","false","null","<span style=""color: black; font-size: 48px"">N + M</span>","null","","","","resp_prompt","","","","","","","","","","","","","","","",""
"categorize-image","59","278915","0.0-3.0-3.0-1.3","b1z4dcj5jkyrawl","practice_cue","5d651665cad1a9001839839d","5f60e3c0a3b16e07647b2ff9","5f646a68b6a0681eb8dd09d2","true","975.5550000118092","./Stimuli/ImagesPractice/SM62.jpg","76","","","","test","true","N + M","76","","SM","SM62.jpg","remember","old","20","2","practice_forget","right","","","",""
"html-keyboard-response","60","280918","0.0-3.0-3.0-3.3","b1z4dcj5jkyrawl","practice_cue","5d651665cad1a9001839839d","5f60e3c0a3b16e07647b2ff9","5f646a68b6a0681eb8dd09d2","false","null","<div style=""align-items: center; display: flex; color: dodgerblue; font-size: 90px""><b>o</b></div>","null","","","","forget_cue","","","","","","","","","","","","","","","",""
"html-keyboard-response","61","281620","0.0-3.0-3.0-0.4","b1z4dcj5jkyrawl","practice_cue","5d651665cad1a9001839839d","5f60e3c0a3b16e07647b2ff9","5f646a68b6a0681eb8dd09d2","false","null","<span style=""color: black; font-size: 48px"">N + M</span>","null","","","","resp_prompt","","","","","","","","","","","","","","","",""
"categorize-image","62","282440","0.0-3.0-3.0-1.4","b1z4dcj5jkyrawl","practice_cue","5d651665cad1a9001839839d","5f60e3c0a3b16e07647b2ff9","5f646a68b6a0681eb8dd09d2","true","813.8550000148825","./Stimuli/ImagesPractice/LN15.jpg","83","","","","test","true","N + M","83","","LN","LN15.jpg","forget","old","21","2","practice_forget","left","","","",""
"html-keyboard-response","63","284443","0.0-3.0-3.0-3.4","b1z4dcj5jkyrawl","practice_cue","5d651665cad1a9001839839d","5f60e3c0a3b16e07647b2ff9","5f646a68b6a0681eb8dd09d2","false","null","<div style=""align-items: center; display: flex; color: darkorange; font-size: 90px""><b>ø</b></div>","null","","","","forget_cue","","","","","","","","","","","","","","","",""
"html-keyboard-response","64","285145","0.0-3.0-3.0-0.5","b1z4dcj5jkyrawl","practice_cue","5d651665cad1a9001839839d","5f60e3c0a3b16e07647b2ff9","5f646a68b6a0681eb8dd09d2","false","null","<span style=""color: black; font-size: 48px"">N + M</span>","null","","","","resp_prompt","","","","","","","","","","","","","","","",""
"categorize-image","65","286012","0.0-3.0-3.0-1.5","b1z4dcj5jkyrawl","practice_cue","5d651665cad1a9001839839d","5f60e3c0a3b16e07647b2ff9","5f646a68b6a0681eb8dd09d2","true","859.5949999871664","./Stimuli/ImagesPractice/SM37.jpg","76","","","","test","true","N + M","76","","SM","SM37.jpg","forget","old","22","2","practice_forget","right","","","",""
"html-keyboard-response","66","288015","0.0-3.0-3.0-3.5","b1z4dcj5jkyrawl","practice_cue","5d651665cad1a9001839839d","5f60e3c0a3b16e07647b2ff9","5f646a68b6a0681eb8dd09d2","false","null","<div style=""align-items: center; display: flex; color: darkorange; font-size: 90px""><b>ø</b></div>","null","","","","forget_cue","","","","","","","","","","","","","","","",""
"html-keyboard-response","67","288717","0.0-3.0-3.0-0.6","b1z4dcj5jkyrawl","practice_cue","5d651665cad1a9001839839d","5f60e3c0a3b16e07647b2ff9","5f646a68b6a0681eb8dd09d2","false","null","<span style=""color: black; font-size: 48px"">N + M</span>","null","","","","resp_prompt","","","","","","","","","","","","","","","",""
"categorize-image","68","289431","0.0-3.0-3.0-1.6","b1z4dcj5jkyrawl","practice_cue","5d651665cad1a9001839839d","5f60e3c0a3b16e07647b2ff9","5f646a68b6a0681eb8dd09d2","true","708.9200000045821","./Stimuli/ImagesPractice/SN75.jpg","76","","","","test","false","N + M","83","","SN","SN75.jpg","remember","old","23","2","practice_forget","right","","","",""
"html-keyboard-response","69","289935","0.0-3.0-3.0-2.6-0.6","b1z4dcj5jkyrawl","practice_cue","5d651665cad1a9001839839d","5f60e3c0a3b16e07647b2ff9","5f646a68b6a0681eb8dd09d2","false","null","<span style=""color: red; font-size: 48px"">Error!</span>","null","","","","feedback","","","","","","","","","","","","","","","",""
"html-keyboard-response","70","291937","0.0-3.0-3.0-3.6","b1z4dcj5jkyrawl","practice_cue","5d651665cad1a9001839839d","5f60e3c0a3b16e07647b2ff9","5f646a68b6a0681eb8dd09d2","false","null","<div style=""align-items: center; display: flex; color: dodgerblue; font-size: 90px""><b>o</b></div>","null","","","","forget_cue","","","","","","","","","","","","","","","",""
"html-keyboard-response","71","292639","0.0-3.0-3.0-0.7","b1z4dcj5jkyrawl","practice_cue","5d651665cad1a9001839839d","5f60e3c0a3b16e07647b2ff9","5f646a68b6a0681eb8dd09d2","false","null","<span style=""color: black; font-size: 48px"">M + N</span>","null","","","","resp_prompt","","","","","","","","","","","","","","","",""
"categorize-image","72","293301","0.0-3.0-3.0-1.7","b1z4dcj5jkyrawl","practice_cue","5d651665cad1a9001839839d","5f60e3c0a3b16e07647b2ff9","5f646a68b6a0681eb8dd09d2","true","656.2050000065938","./Stimuli/ImagesPractice/LN72.jpg","76","","","","test","true","M + N","76","","LN","LN72.jpg","remember","old","24","2","practice_forget","right","","","",""
"html-keyboard-response","73","295305","0.0-3.0-3.0-3.7","b1z4dcj5jkyrawl","practice_cue","5d651665cad1a9001839839d","5f60e3c0a3b16e07647b2ff9","5f646a68b6a0681eb8dd09d2","false","null","<div style=""align-items: center; display: flex; color: dodgerblue; font-size: 90px""><b>o</b></div>","null","","","","forget_cue","","","","","","","","","","","","","","","",""
"html-keyboard-response","74","296007","0.0-3.0-3.0-0.8","b1z4dcj5jkyrawl","practice_cue","5d651665cad1a9001839839d","5f60e3c0a3b16e07647b2ff9","5f646a68b6a0681eb8dd09d2","false","null","<span style=""color: black; font-size: 48px"">M + N</span>","null","","","","resp_prompt","","","","","","","","","","","","","","","",""
"categorize-image","75","296703","0.0-3.0-3.0-1.8","b1z4dcj5jkyrawl","practice_cue","5d651665cad1a9001839839d","5f60e3c0a3b16e07647b2ff9","5f646a68b6a0681eb8dd09d2","true","688.5450000409037","./Stimuli/ImagesPractice/SN220.jpg","76","","","","test","true","M + N","76","","SN","SN220.jpg","forget","old","25","2","practice_forget","right","","","",""
"html-keyboard-response","76","298705","0.0-3.0-3.0-3.8","b1z4dcj5jkyrawl","practice_cue","5d651665cad1a9001839839d","5f60e3c0a3b16e07647b2ff9","5f646a68b6a0681eb8dd09d2","false","null","<div style=""align-items: center; display: flex; color: darkorange; font-size: 90px""><b>ø</b></div>","null","","","","forget_cue","","","","","","","","","","","","","","","",""
"html-keyboard-response","77","299408","0.0-3.0-3.0-0.9","b1z4dcj5jkyrawl","practice_cue","5d651665cad1a9001839839d","5f60e3c0a3b16e07647b2ff9","5f646a68b6a0681eb8dd09d2","false","null","<span style=""color: black; font-size: 48px"">M + N</span>","null","","","","resp_prompt","","","","","","","","","","","","","","","",""
"categorize-image","78","300508","0.0-3.0-3.0-1.9","b1z4dcj5jkyrawl","practice_cue","5d651665cad1a9001839839d","5f60e3c0a3b16e07647b2ff9","5f646a68b6a0681eb8dd09d2","true","1087.9900000290945","./Stimuli/ImagesPractice/SN221.jpg","76","","","","test","true","M + N","76","","SN","SN221.jpg","forget","old","26","2","practice_forget","right","","","",""
"html-keyboard-response","79","302511","0.0-3.0-3.0-3.9","b1z4dcj5jkyrawl","practice_cue","5d651665cad1a9001839839d","5f60e3c0a3b16e07647b2ff9","5f646a68b6a0681eb8dd09d2","false","null","<div style=""align-items: center; display: flex; color: darkorange; font-size: 90px""><b>ø</b></div>","null","","","","forget_cue","","","","","","","","","","","","","","","",""
"html-keyboard-response","80","303213","0.0-3.0-3.0-0.10","b1z4dcj5jkyrawl","practice_cue","5d651665cad1a9001839839d","5f60e3c0a3b16e07647b2ff9","5f646a68b6a0681eb8dd09d2","false","null","<span style=""color: black; font-size: 48px"">N + M</span>","null","","","","resp_prompt","","","","","","","","","","","","","","","",""
"categorize-image","81","304000","0.0-3.0-3.0-1.10","b1z4dcj5jkyrawl","practice_cue","5d651665cad1a9001839839d","5f60e3c0a3b16e07647b2ff9","5f646a68b6a0681eb8dd09d2","true","780.7249999605119","./Stimuli/ImagesPractice/LN2.jpg","83","","","","test","true","N + M","83","","LN","LN2.jpg","remember","old","27","2","practice_forget","left","","","",""
"html-keyboard-response","82","306004","0.0-3.0-3.0-3.10","b1z4dcj5jkyrawl","practice_cue","5d651665cad1a9001839839d","5f60e3c0a3b16e07647b2ff9","5f646a68b6a0681eb8dd09d2","false","null","<div style=""align-items: center; display: flex; color: dodgerblue; font-size: 90px""><b>o</b></div>","null","","","","forget_cue","","","","","","","","","","","","","","","",""
"html-keyboard-response","83","306706","0.0-3.0-3.0-0.11","b1z4dcj5jkyrawl","practice_cue","5d651665cad1a9001839839d","5f60e3c0a3b16e07647b2ff9","5f646a68b6a0681eb8dd09d2","false","null","<span style=""color: black; font-size: 48px"">N + M</span>","null","","","","resp_prompt","","","","","","","","","","","","","","","",""
"categorize-image","84","307490","0.0-3.0-3.0-1.11","b1z4dcj5jkyrawl","practice_cue","5d651665cad1a9001839839d","5f60e3c0a3b16e07647b2ff9","5f646a68b6a0681eb8dd09d2","true","778.4450000035577","./Stimuli/ImagesPractice/LN109.jpg","83","","","","test","true","N + M","83","","LN","LN109.jpg","forget","old","28","2","practice_forget","left","","","",""
"html-keyboard-response","85","309493","0.0-3.0-3.0-3.11","b1z4dcj5jkyrawl","practice_cue","5d651665cad1a9001839839d","5f60e3c0a3b16e07647b2ff9","5f646a68b6a0681eb8dd09d2","false","null","<div style=""align-items: center; display: flex; color: darkorange; font-size: 90px""><b>ø</b></div>","null","","","","forget_cue","","","","","","","","","","","","","","","",""
"html-keyboard-response","86","310195","0.0-3.0-3.0-0.12","b1z4dcj5jkyrawl","practice_cue","5d651665cad1a9001839839d","5f60e3c0a3b16e07647b2ff9","5f646a68b6a0681eb8dd09d2","false","null","<span style=""color: black; font-size: 48px"">M + N</span>","null","","","","resp_prompt","","","","","","","","","","","","","","","",""
"categorize-image","87","311139","0.0-3.0-3.0-1.12","b1z4dcj5jkyrawl","practice_cue","5d651665cad1a9001839839d","5f60e3c0a3b16e07647b2ff9","5f646a68b6a0681eb8dd09d2","true","936.0450000385754","./Stimuli/ImagesPractice/SN222.jpg","76","","","","test","true","M + N","76","","SN","SN222.jpg","remember","old","29","2","practice_forget","right","","","",""
"html-keyboard-response","88","313142","0.0-3.0-3.0-3.12","b1z4dcj5jkyrawl","practice_cue","5d651665cad1a9001839839d","5f60e3c0a3b16e07647b2ff9","5f646a68b6a0681eb8dd09d2","false","null","<div style=""align-items: center; display: flex; color: dodgerblue; font-size: 90px""><b>o</b></div>","null","","","","forget_cue","","","","","","","","","","","","","","","",""
"html-keyboard-response","89","313844","0.0-3.0-3.0-0.13","b1z4dcj5jkyrawl","practice_cue","5d651665cad1a9001839839d","5f60e3c0a3b16e07647b2ff9","5f646a68b6a0681eb8dd09d2","false","null","<span style=""color: black; font-size: 48px"">M + N</span>","null","","","","resp_prompt","","","","","","","","","","","","","","","",""
"categorize-image","90","314914","0.0-3.0-3.0-1.13","b1z4dcj5jkyrawl","practice_cue","5d651665cad1a9001839839d","5f60e3c0a3b16e07647b2ff9","5f646a68b6a0681eb8dd09d2","true","1063.4049999644049","./Stimuli/ImagesPractice/LM143.jpg","83","","","","test","true","M + N","83","","LM","LM143.jpg","forget","old","30","2","practice_forget","left","","","",""
"html-keyboard-response","91","316919","0.0-3.0-3.0-3.13","b1z4dcj5jkyrawl","practice_cue","5d651665cad1a9001839839d","5f60e3c0a3b16e07647b2ff9","5f646a68b6a0681eb8dd09d2","false","null","<div style=""align-items: center; display: flex; color: darkorange; font-size: 90px""><b>ø</b></div>","null","","","","forget_cue","","","","","","","","","","","","","","","",""
"html-keyboard-response","92","317622","0.0-3.0-3.0-0.14","b1z4dcj5jkyrawl","practice_cue","5d651665cad1a9001839839d","5f60e3c0a3b16e07647b2ff9","5f646a68b6a0681eb8dd09d2","false","null","<span style=""color: black; font-size: 48px"">M + N</span>","null","","","","resp_prompt","","","","","","","","","","","","","","","",""
"categorize-image","93","318926","0.0-3.0-3.0-1.14","b1z4dcj5jkyrawl","practice_cue","5d651665cad1a9001839839d","5f60e3c0a3b16e07647b2ff9","5f646a68b6a0681eb8dd09d2","true","1297.4650000105612","./Stimuli/ImagesPractice/LM147.jpg","83","","","","test","true","M + N","83","","LM","LM147.jpg","remember","old","31","2","practice_forget","left","","","",""
"html-keyboard-response","94","320930","0.0-3.0-3.0-3.14","b1z4dcj5jkyrawl","practice_cue","5d651665cad1a9001839839d","5f60e3c0a3b16e07647b2ff9","5f646a68b6a0681eb8dd09d2","false","null","<div style=""align-items: center; display: flex; color: dodgerblue; font-size: 90px""><b>o</b></div>","null","","","","forget_cue","","","","","","","","","","","","","","","",""
"html-keyboard-response","95","321632","0.0-3.0-3.0-0.15","b1z4dcj5jkyrawl","practice_cue","5d651665cad1a9001839839d","5f60e3c0a3b16e07647b2ff9","5f646a68b6a0681eb8dd09d2","false","null","<span style=""color: black; font-size: 48px"">M + N</span>","null","","","","resp_prompt","","","","","","","","","","","","","","","",""
"categorize-image","96","322457","0.0-3.0-3.0-1.15","b1z4dcj5jkyrawl","practice_cue","5d651665cad1a9001839839d","5f60e3c0a3b16e07647b2ff9","5f646a68b6a0681eb8dd09d2","true","817.6450000028126","./Stimuli/ImagesPractice/SN205.jpg","76","","","","test","true","M + N","76","","SN","SN205.jpg","forget","old","32","2","practice_forget","right","","","",""
"html-keyboard-response","97","324461","0.0-3.0-3.0-3.15","b1z4dcj5jkyrawl","practice_cue","5d651665cad1a9001839839d","5f60e3c0a3b16e07647b2ff9","5f646a68b6a0681eb8dd09d2","false","null","<div style=""align-items: center; display: flex; color: darkorange; font-size: 90px""><b>ø</b></div>","null","","","","forget_cue","","","","","","","","","","","","","","","",""
"html-keyboard-response","98","329669","0.0-3.0-4.0","b1z4dcj5jkyrawl","break","5d651665cad1a9001839839d","5f60e3c0a3b16e07647b2ff9","5f646a68b6a0681eb8dd09d2","false","5205.9599999920465","<p style='font-size: 32px;'>Break</><br><br><br><br><br><p style='font-size: 24px;'>In the last block, you committed 3 errors and did not respond in time on 0 trials.
</p><p style='font-size: 24px;'>Try to respond as fast and accurately as possible in the next block as well! </p><p style='font-size: 24px;'>Press SPACE to continue.</p>","32","","","","","","","","","","","","","","","","","","","",""
"html-keyboard-response","99","333536","0.0-3.0-5.0","b1z4dcj5jkyrawl","instructions","5d651665cad1a9001839839d","5f60e3c0a3b16e07647b2ff9","5f646a68b6a0681eb8dd09d2","false","3864.8099999991246","<div align=left> Now, to practice, we kindly ask you to remember as many of the to-be-remembered pictures<br>of the previous learning phase as possible.<br><br>The pictures you were instructed to remember were the pictures followed by a <span style='color: dodgerblue; font-size: 28px'>O</span>.<br><br>In this memory test phase, you will also see some new pictures.<br>It is your task to remember whether you were presented with this specific picture in this study so far or not.<br>If you recognize an object (you have already seen it in this study), it is an OLD object. <br>If you do not recognize an object (you have NOT seen it in this study), it is a NEW object. <br><strong> Attention</strong>: As already mentioned, <span style='color: darkorange; font-size:28px'>Ø</span>-pictures will <strong>never</strong> appear in this memory test (neither as new objects). <br><br>Press SPACE to continue. </div>","32","","","","","","","","","","","","","","","","","","","",""
"html-keyboard-response","100","348497","0.0-3.0-6.0","b1z4dcj5jkyrawl","instructions","5d651665cad1a9001839839d","5f60e3c0a3b16e07647b2ff9","5f646a68b6a0681eb8dd09d2","false","14957.959999970626","<div align=left> M and N no longer will appear on the left/right of the fixation cross. <br>Instead there will be a note at the bottom of the left or right side  <br>indicating which key you should press for an old or new object:  <br> <br>Press the <strong>right</strong> key to classify an object as <strong>old</strong> and press the <strong>left</strong>, to classify an object as <strong>new</strong>.<br>Please classify the objects as new/old by again placing your index finger on the 'S' and 'L' keys <br>and press them accordingly.<br><br><strong>Old:</strong> This object has been presented before. <br><strong>New:</strong> This object has <strong>not</strong> been presented.<br><br>Now please put your right and left index fingers on the 'S' and 'L' keys of your keyboard. <br>Please respond as fast and as accurately as possible!<br><br>Press SPACE to continue. </div>","32","","","","","","","","","","","","","","","","","","","",""
"categorize-image","101","351806","0.0-3.0-7.0-0.0","b1z4dcj5jkyrawl","practice_recog","5d651665cad1a9001839839d","5f60e3c0a3b16e07647b2ff9","5f646a68b6a0681eb8dd09d2","true","2802.7000000001863","./Stimuli/ImagesPractice/LM230.jpg","76","","","","test","false","","83","","LM","LM230.jpg","","new","33","3","practice_recog","right","","","",""
"categorize-image","102","354901","0.0-3.0-7.0-0.1","b1z4dcj5jkyrawl","practice_recog","5d651665cad1a9001839839d","5f60e3c0a3b16e07647b2ff9","5f646a68b6a0681eb8dd09d2","true","2590.4800000134856","./Stimuli/ImagesPractice/SN75.jpg","83","","","","test","false","","76","","SN","SN75.jpg","","old","34","3","practice_recog","left","","","",""
"categorize-image","103","357412","0.0-3.0-7.0-0.2","b1z4dcj5jkyrawl","practice_recog","5d651665cad1a9001839839d","5f60e3c0a3b16e07647b2ff9","5f646a68b6a0681eb8dd09d2","true","2005.7050000177696","./Stimuli/ImagesPractice/SM97.jpg","83","","","","test","true","","83","","SM","SM97.jpg","","new","35","3","practice_recog","left","","","",""
"categorize-image","104","358932","0.0-3.0-7.0-0.3","b1z4dcj5jkyrawl","practice_recog","5d651665cad1a9001839839d","5f60e3c0a3b16e07647b2ff9","5f646a68b6a0681eb8dd09d2","true","1008.0249999882653","./Stimuli/ImagesPractice/LN72.jpg","76","","","","test","true","","76","","LN","LN72.jpg","","old","36","3","practice_recog","right","","","",""
"categorize-image","105","360906","0.0-3.0-7.0-0.4","b1z4dcj5jkyrawl","practice_recog","5d651665cad1a9001839839d","5f60e3c0a3b16e07647b2ff9","5f646a68b6a0681eb8dd09d2","true","1448.999999964144","./Stimuli/ImagesPractice/LM224.jpg","83","","","","test","true","","83","","LM","LM224.jpg","","new","37","3","practice_recog","left","","","",""
"categorize-image","106","362400","0.0-3.0-7.0-0.5","b1z4dcj5jkyrawl","practice_recog","5d651665cad1a9001839839d","5f60e3c0a3b16e07647b2ff9","5f646a68b6a0681eb8dd09d2","true","990.5749999452382","./Stimuli/ImagesPractice/LN4.jpg","83","","","","test","true","","83","","LN","LN4.jpg","","new","38","3","practice_recog","left","","","",""
"categorize-image","107","363890","0.0-3.0-7.0-0.6","b1z4dcj5jkyrawl","practice_recog","5d651665cad1a9001839839d","5f60e3c0a3b16e07647b2ff9","5f646a68b6a0681eb8dd09d2","true","985.6549999676645","./Stimuli/ImagesPractice/LN17.jpg","83","","","","test","true","","83","","LN","LN17.jpg","","new","39","3","practice_recog","left","","","",""
"categorize-image","108","365227","0.0-3.0-7.0-0.7","b1z4dcj5jkyrawl","practice_recog","5d651665cad1a9001839839d","5f60e3c0a3b16e07647b2ff9","5f646a68b6a0681eb8dd09d2","true","833.234999969136","./Stimuli/ImagesPractice/SN222.jpg","76","","","","test","true","","76","","SN","SN222.jpg","","old","40","3","practice_recog","right","","","",""
"categorize-image","109","366802","0.0-3.0-7.0-0.8","b1z4dcj5jkyrawl","practice_recog","5d651665cad1a9001839839d","5f60e3c0a3b16e07647b2ff9","5f646a68b6a0681eb8dd09d2","true","1070.0899999937974","./Stimuli/ImagesPractice/SN76.jpg","83","","","","test","false","","76","","SN","SN76.jpg","","old","41","3","practice_recog","left","","","",""
"categorize-image","110","368277","0.0-3.0-7.0-0.9","b1z4dcj5jkyrawl","practice_recog","5d651665cad1a9001839839d","5f60e3c0a3b16e07647b2ff9","5f646a68b6a0681eb8dd09d2","true","971.4300000341609","./Stimuli/ImagesPractice/LN2.jpg","76","","","","test","true","","76","","LN","LN2.jpg","","old","42","3","practice_recog","right","","","",""
"categorize-image","111","369633","0.0-3.0-7.0-0.10","b1z4dcj5jkyrawl","practice_recog","5d651665cad1a9001839839d","5f60e3c0a3b16e07647b2ff9","5f646a68b6a0681eb8dd09d2","true","851.9799999776296","./Stimuli/ImagesPractice/LM147.jpg","76","","","","test","true","","76","","LM","LM147.jpg","","old","43","3","practice_recog","right","","","",""
"categorize-image","112","370890","0.0-3.0-7.0-0.11","b1z4dcj5jkyrawl","practice_recog","5d651665cad1a9001839839d","5f60e3c0a3b16e07647b2ff9","5f646a68b6a0681eb8dd09d2","true","753.2999999821186","./Stimuli/ImagesPractice/SM62.jpg","76","","","","test","true","","76","","SM","SM62.jpg","","old","44","3","practice_recog","right","","","",""
"categorize-image","113","372256","0.0-3.0-7.0-0.12","b1z4dcj5jkyrawl","practice_recog","5d651665cad1a9001839839d","5f60e3c0a3b16e07647b2ff9","5f646a68b6a0681eb8dd09d2","true","861.8349999887869","./Stimuli/ImagesPractice/SM98.jpg","83","","","","test","true","","83","","SM","SM98.jpg","","new","45","3","practice_recog","left","","","",""
"categorize-image","114","373788","0.0-3.0-7.0-0.13","b1z4dcj5jkyrawl","practice_recog","5d651665cad1a9001839839d","5f60e3c0a3b16e07647b2ff9","5f646a68b6a0681eb8dd09d2","true","1028.0450000427663","./Stimuli/ImagesPractice/LM55.jpg","83","","","","test","true","","83","","LM","LM55.jpg","","new","46","3","practice_recog","left","","","",""
"categorize-image","115","375381","0.0-3.0-7.0-0.14","b1z4dcj5jkyrawl","practice_recog","5d651665cad1a9001839839d","5f60e3c0a3b16e07647b2ff9","5f646a68b6a0681eb8dd09d2","true","1089.2050000256859","./Stimuli/ImagesPractice/SM61.jpg","83","","","","test","true","","83","","SM","SM61.jpg","","new","47","3","practice_recog","left","","","",""
"categorize-image","116","376729","0.0-3.0-7.0-0.15","b1z4dcj5jkyrawl","practice_recog","5d651665cad1a9001839839d","5f60e3c0a3b16e07647b2ff9","5f646a68b6a0681eb8dd09d2","true","843.9650000073016","./Stimuli/ImagesPractice/SM35.jpg","76","","","","test","true","","76","","SM","SM35.jpg","","old","48","3","practice_recog","right","","","",""
"html-keyboard-response","117","380157","0.0-3.0-8.0","b1z4dcj5jkyrawl","instructions","5d651665cad1a9001839839d","5f60e3c0a3b16e07647b2ff9","5f646a68b6a0681eb8dd09d2","false","3425.6249999743886","<div align=left> Great!<br><br>Are you ready to continue?<br>If you want to reread the instructions and redo the practice trials, please <br>press „Z“.<br><br>You can proceed when you are ready.<br><br>After the presentation of each object, you will receive an instruction whether to <br>remember or to forget the object.<br>We will test your memory of the following pictures only at the very end of <br>the experiment after all learning blocks are completed. <br><br>Press SPACE to CONTINUE when you are ready. </div>","32","","","","","","","","","","","","","","","","","","","",""
"html-keyboard-response","118","385261","0.0-4.0-0.0","b1z4dcj5jkyrawl","instructions","5d651665cad1a9001839839d","5f60e3c0a3b16e07647b2ff9","5f646a68b6a0681eb8dd09d2","false","5100.990000006277","<div align=left> The actual experiment is about to start.<br>The practice trials are over!<br><br>Please always respond both fast and accurately!<br><br>Remember: <br> <br><li> Please place your index fingers on the <strong>'S'</strong> and <strong>'L'</strong> keys <br>to respond as fast and accurately as possible.</li><li> Every picture can be classified as either mechanical or non-mechanical.</li><li> If you do not respond in time or commit an error, you will receive a corresponding feedback.<br> Please try to respond as <strong> fast </strong> and as <strong> accurately as possible </strong>.</li><li> Remember the <span style='color: dodgerblue; font-size: 28px'>O</span> pictures. <br></li><li> Please minimize distractions and stay focused. </li><br><br>Press SPACE to START.</div>","32","","","","","","","","","","","","","","","","","","","",""
"html-keyboard-response","119","385964","0.0-4.0-1.0-0.0","b1z4dcj5jkyrawl","prime","5d651665cad1a9001839839d","5f60e3c0a3b16e07647b2ff9","5f646a68b6a0681eb8dd09d2","false","null","<span style=""color: black; font-size: 48px"">N + M</span>","null","","","","resp_prompt","","","","","","","","","","","","","","","",""
"categorize-image","120","386919","0.0-4.0-1.0-1.0","b1z4dcj5jkyrawl","prime","5d651665cad1a9001839839d","5f60e3c0a3b16e07647b2ff9","5f646a68b6a0681eb8dd09d2","true","947.0849999925122","./Stimuli/SelectedImages/SN/SN182.bmp","83","","","","test","true","N + M","83","switch","SN","SN182.bmp","remember","","49","3","prime1","left","","","",""
"html-keyboard-response","121","388922","0.0-4.0-1.0-3.0","b1z4dcj5jkyrawl","prime","5d651665cad1a9001839839d","5f60e3c0a3b16e07647b2ff9","5f646a68b6a0681eb8dd09d2","false","null","<div style=""align-items: center; display: flex; color: dodgerblue; font-size: 90px""><b>o</b></div>","null","","","","forget_cue","","","","","","","","","","","","","","","",""
"html-keyboard-response","122","389624","0.0-4.0-1.0-0.1","b1z4dcj5jkyrawl","prime","5d651665cad1a9001839839d","5f60e3c0a3b16e07647b2ff9","5f646a68b6a0681eb8dd09d2","false","null","<span style=""color: black; font-size: 48px"">M + N</span>","null","","","","resp_prompt","","","","","","","","","","","","","","","",""
"categorize-image","123","391011","0.0-4.0-1.0-1.1","b1z4dcj5jkyrawl","prime","5d651665cad1a9001839839d","5f60e3c0a3b16e07647b2ff9","5f646a68b6a0681eb8dd09d2","true","1379.5850000460632","./Stimuli/SelectedImages/LN/LN82.bmp","76","","","","test","true","M + N","76","repetition","LN","LN82.bmp","remember","","50","3","prime1","right","","","",""
"html-keyboard-response","124","393014","0.0-4.0-1.0-3.1","b1z4dcj5jkyrawl","prime","5d651665cad1a9001839839d","5f60e3c0a3b16e07647b2ff9","5f646a68b6a0681eb8dd09d2","false","null","<div style=""align-items: center; display: flex; color: dodgerblue; font-size: 90px""><b>o</b></div>","null","","","","forget_cue","","","","","","","","","","","","","","","",""
"html-keyboard-response","125","393716","0.0-4.0-1.0-0.2","b1z4dcj5jkyrawl","prime","5d651665cad1a9001839839d","5f60e3c0a3b16e07647b2ff9","5f646a68b6a0681eb8dd09d2","false","null","<span style=""color: black; font-size: 48px"">M + N</span>","null","","","","resp_prompt","","","","","","","","","","","","","","","",""
"categorize-image","126","394705","0.0-4.0-1.0-1.2","b1z4dcj5jkyrawl","prime","5d651665cad1a9001839839d","5f60e3c0a3b16e07647b2ff9","5f646a68b6a0681eb8dd09d2","true","982.8149999957532","./Stimuli/SelectedImages/SM/SM200.bmp","83","","","","test","true","M + N","83","switch","SM","SM200.bmp","remember","","51","3","prime1","left","","","",""
"html-keyboard-response","127","396707","0.0-4.0-1.0-3.2","b1z4dcj5jkyrawl","prime","5d651665cad1a9001839839d","5f60e3c0a3b16e07647b2ff9","5f646a68b6a0681eb8dd09d2","false","null","<div style=""align-items: center; display: flex; color: dodgerblue; font-size: 90px""><b>o</b></div>","null","","","","forget_cue","","","","","","","","","","","","","","","",""
"html-keyboard-response","128","397409","0.0-4.0-1.0-0.3","b1z4dcj5jkyrawl","prime","5d651665cad1a9001839839d","5f60e3c0a3b16e07647b2ff9","5f646a68b6a0681eb8dd09d2","false","null","<span style=""color: black; font-size: 48px"">N + M</span>","null","","","","resp_prompt","","","","","","","","","","","","","","","",""
"categorize-image","129","398313","0.0-4.0-1.0-1.3","b1z4dcj5jkyrawl","prime","5d651665cad1a9001839839d","5f60e3c0a3b16e07647b2ff9","5f646a68b6a0681eb8dd09d2","true","897.0700000063516","./Stimuli/SelectedImages/SM/SM148.bmp","76","","","","test","true","N + M","76","repetition","SM","SM148.bmp","remember","","52","3","prime1","right","","","",""
"html-keyboard-response","130","400316","0.0-4.0-1.0-3.3","b1z4dcj5jkyrawl","prime","5d651665cad1a9001839839d","5f60e3c0a3b16e07647b2ff9","5f646a68b6a0681eb8dd09d2","false","null","<div style=""align-items: center; display: flex; color: dodgerblue; font-size: 90px""><b>o</b></div>","null","","","","forget_cue","","","","","","","","","","","","","","","",""
"html-keyboard-response","131","401018","0.0-4.0-1.0-0.4","b1z4dcj5jkyrawl","prime","5d651665cad1a9001839839d","5f60e3c0a3b16e07647b2ff9","5f646a68b6a0681eb8dd09d2","false","null","<span style=""color: black; font-size: 48px"">M + N</span>","null","","","","resp_prompt","","","","","","","","","","","","","","","",""
"categorize-image","132","401970","0.0-4.0-1.0-1.4","b1z4dcj5jkyrawl","prime","5d651665cad1a9001839839d","5f60e3c0a3b16e07647b2ff9","5f646a68b6a0681eb8dd09d2","true","945.8750000339933","./Stimuli/SelectedImages/LM/LM51.bmp","83","","","","test","true","M + N","83","repetition","LM","LM51.bmp","remember","","53","3","prime1","left","","","",""
"html-keyboard-response","133","403973","0.0-4.0-1.0-3.4","b1z4dcj5jkyrawl","prime","5d651665cad1a9001839839d","5f60e3c0a3b16e07647b2ff9","5f646a68b6a0681eb8dd09d2","false","null","<div style=""align-items: center; display: flex; color: dodgerblue; font-size: 90px""><b>o</b></div>","null","","","","forget_cue","","","","","","","","","","","","","","","",""
"html-keyboard-response","134","404675","0.0-4.0-1.0-0.5","b1z4dcj5jkyrawl","prime","5d651665cad1a9001839839d","5f60e3c0a3b16e07647b2ff9","5f646a68b6a0681eb8dd09d2","false","null","<span style=""color: black; font-size: 48px"">N + M</span>","null","","","","resp_prompt","","","","","","","","","","","","","","","",""
"categorize-image","135","405627","0.0-4.0-1.0-1.5","b1z4dcj5jkyrawl","prime","5d651665cad1a9001839839d","5f60e3c0a3b16e07647b2ff9","5f646a68b6a0681eb8dd09d2","true","944.0700000268407","./Stimuli/SelectedImages/SM/SM24.bmp","76","","","","test","true","N + M","76","repetition","SM","SM24.bmp","forget","","54","3","prime1","right","","","",""
"html-keyboard-response","136","407630","0.0-4.0-1.0-3.5","b1z4dcj5jkyrawl","prime","5d651665cad1a9001839839d","5f60e3c0a3b16e07647b2ff9","5f646a68b6a0681eb8dd09d2","false","null","<div style=""align-items: center; display: flex; color: darkorange; font-size: 90px""><b>ø</b></div>","null","","","","forget_cue","","","","","","","","","","","","","","","",""
"html-keyboard-response","137","408332","0.0-4.0-1.0-0.6","b1z4dcj5jkyrawl","prime","5d651665cad1a9001839839d","5f60e3c0a3b16e07647b2ff9","5f646a68b6a0681eb8dd09d2","false","null","<span style=""color: black; font-size: 48px"">N + M</span>","null","","","","resp_prompt","","","","","","","","","","","","","","","",""
"categorize-image","138","409240","0.0-4.0-1.0-1.6","b1z4dcj5jkyrawl","prime","5d651665cad1a9001839839d","5f60e3c0a3b16e07647b2ff9","5f646a68b6a0681eb8dd09d2","true","902.4699999717996","./Stimuli/SelectedImages/LN/LN131.bmp","83","","","","test","true","N + M","83","repetition","LN","LN131.bmp","forget","","55","3","prime1","left","","","",""
"html-keyboard-response","139","411243","0.0-4.0-1.0-3.6","b1z4dcj5jkyrawl","prime","5d651665cad1a9001839839d","5f60e3c0a3b16e07647b2ff9","5f646a68b6a0681eb8dd09d2","false","null","<div style=""align-items: center; display: flex; color: darkorange; font-size: 90px""><b>ø</b></div>","null","","","","forget_cue","","","","","","","","","","","","","","","",""
"html-keyboard-response","140","411945","0.0-4.0-1.0-0.7","b1z4dcj5jkyrawl","prime","5d651665cad1a9001839839d","5f60e3c0a3b16e07647b2ff9","5f646a68b6a0681eb8dd09d2","false","null","<span style=""color: black; font-size: 48px"">M + N</span>","null","","","","resp_prompt","","","","","","","","","","","","","","","",""
"categorize-image","141","413216","0.0-4.0-1.0-1.7","b1z4dcj5jkyrawl","prime","5d651665cad1a9001839839d","5f60e3c0a3b16e07647b2ff9","5f646a68b6a0681eb8dd09d2","true","1264.0900000114925","./Stimuli/SelectedImages/SN/SN179.bmp","76","","","","test","true","M + N","76","switch","SN","SN179.bmp","remember","","56","3","prime1","right","","","",""
"html-keyboard-response","142","415220","0.0-4.0-1.0-3.7","b1z4dcj5jkyrawl","prime","5d651665cad1a9001839839d","5f60e3c0a3b16e07647b2ff9","5f646a68b6a0681eb8dd09d2","false","null","<div style=""align-items: center; display: flex; color: dodgerblue; font-size: 90px""><b>o</b></div>","null","","","","forget_cue","","","","","","","","","","","","","","","",""
"html-keyboard-response","143","415922","0.0-4.0-1.0-0.8","b1z4dcj5jkyrawl","prime","5d651665cad1a9001839839d","5f60e3c0a3b16e07647b2ff9","5f646a68b6a0681eb8dd09d2","false","null","<span style=""color: black; font-size: 48px"">M + N</span>","null","","","","resp_prompt","","","","","","","","","","","","","","","",""
"categorize-image","144","416810","0.0-4.0-1.0-1.8","b1z4dcj5jkyrawl","prime","5d651665cad1a9001839839d","5f60e3c0a3b16e07647b2ff9","5f646a68b6a0681eb8dd09d2","true","881.8900000187568","./Stimuli/SelectedImages/SN/SN27.bmp","76","","","","test","true","M + N","76","repetition","SN","SN27.bmp","remember","","57","3","prime1","right","","","",""
"html-keyboard-response","145","418813","0.0-4.0-1.0-3.8","b1z4dcj5jkyrawl","prime","5d651665cad1a9001839839d","5f60e3c0a3b16e07647b2ff9","5f646a68b6a0681eb8dd09d2","false","null","<div style=""align-items: center; display: flex; color: dodgerblue; font-size: 90px""><b>o</b></div>","null","","","","forget_cue","","","","","","","","","","","","","","","",""
"html-keyboard-response","146","419515","0.0-4.0-1.0-0.9","b1z4dcj5jkyrawl","prime","5d651665cad1a9001839839d","5f60e3c0a3b16e07647b2ff9","5f646a68b6a0681eb8dd09d2","false","null","<span style=""color: black; font-size: 48px"">M + N</span>","null","","","","resp_prompt","","","","","","","","","","","","","","","",""
"categorize-image","147","420310","0.0-4.0-1.0-1.9","b1z4dcj5jkyrawl","prime","5d651665cad1a9001839839d","5f60e3c0a3b16e07647b2ff9","5f646a68b6a0681eb8dd09d2","true","787.6650000107475","./Stimuli/SelectedImages/LN/LN177.bmp","76","","","","test","true","M + N","76","repetition","LN","LN177.bmp","forget","","58","3","prime1","right","","","",""
"html-keyboard-response","148","422313","0.0-4.0-1.0-3.9","b1z4dcj5jkyrawl","prime","5d651665cad1a9001839839d","5f60e3c0a3b16e07647b2ff9","5f646a68b6a0681eb8dd09d2","false","null","<div style=""align-items: center; display: flex; color: darkorange; font-size: 90px""><b>ø</b></div>","null","","","","forget_cue","","","","","","","","","","","","","","","",""
"html-keyboard-response","149","423015","0.0-4.0-1.0-0.10","b1z4dcj5jkyrawl","prime","5d651665cad1a9001839839d","5f60e3c0a3b16e07647b2ff9","5f646a68b6a0681eb8dd09d2","false","null","<span style=""color: black; font-size: 48px"">N + M</span>","null","","","","resp_prompt","","","","","","","","","","","","","","","",""
"categorize-image","150","423970","0.0-4.0-1.0-1.10","b1z4dcj5jkyrawl","prime","5d651665cad1a9001839839d","5f60e3c0a3b16e07647b2ff9","5f646a68b6a0681eb8dd09d2","true","948.1050000176765","./Stimuli/SelectedImages/SN/SN93.bmp","83","","","","test","true","N + M","83","switch","SN","SN93.bmp","forget","","59","3","prime1","left","","","",""
"html-keyboard-response","151","425973","0.0-4.0-1.0-3.10","b1z4dcj5jkyrawl","prime","5d651665cad1a9001839839d","5f60e3c0a3b16e07647b2ff9","5f646a68b6a0681eb8dd09d2","false","null","<div style=""align-items: center; display: flex; color: darkorange; font-size: 90px""><b>ø</b></div>","null","","","","forget_cue","","","","","","","","","","","","","","","",""
"html-keyboard-response","152","426675","0.0-4.0-1.0-0.11","b1z4dcj5jkyrawl","prime","5d651665cad1a9001839839d","5f60e3c0a3b16e07647b2ff9","5f646a68b6a0681eb8dd09d2","false","null","<span style=""color: black; font-size: 48px"">N + M</span>","null","","","","resp_prompt","","","","","","","","","","","","","","","",""
"categorize-image","153","427464","0.0-4.0-1.0-1.11","b1z4dcj5jkyrawl","prime","5d651665cad1a9001839839d","5f60e3c0a3b16e07647b2ff9","5f646a68b6a0681eb8dd09d2","true","782.7450000331737","./Stimuli/SelectedImages/SM/SM78.bmp","76","","","","test","true","N + M","76","repetition","SM","SM78.bmp","forget","","60","3","prime1","right","","","",""
"html-keyboard-response","154","429467","0.0-4.0-1.0-3.11","b1z4dcj5jkyrawl","prime","5d651665cad1a9001839839d","5f60e3c0a3b16e07647b2ff9","5f646a68b6a0681eb8dd09d2","false","null","<div style=""align-items: center; display: flex; color: darkorange; font-size: 90px""><b>ø</b></div>","null","","","","forget_cue","","","","","","","","","","","","","","","",""
"html-keyboard-response","155","430170","0.0-4.0-1.0-0.12","b1z4dcj5jkyrawl","prime","5d651665cad1a9001839839d","5f60e3c0a3b16e07647b2ff9","5f646a68b6a0681eb8dd09d2","false","null","<span style=""color: black; font-size: 48px"">M + N</span>","null","","","","resp_prompt","","","","","","","","","","","","","","","",""
"categorize-image","156","430756","0.0-4.0-1.0-1.12","b1z4dcj5jkyrawl","prime","5d651665cad1a9001839839d","5f60e3c0a3b16e07647b2ff9","5f646a68b6a0681eb8dd09d2","true","581.319999997504","./Stimuli/SelectedImages/LN/LN101.bmp","76","","","","test","true","M + N","76","repetition","LN","LN101.bmp","remember","","61","3","prime1","right","","","",""
"html-keyboard-response","157","432762","0.0-4.0-1.0-3.12","b1z4dcj5jkyrawl","prime","5d651665cad1a9001839839d","5f60e3c0a3b16e07647b2ff9","5f646a68b6a0681eb8dd09d2","false","null","<div style=""align-items: center; display: flex; color: dodgerblue; font-size: 90px""><b>o</b></div>","null","","","","forget_cue","","","","","","","","","","","","","","","",""
"html-keyboard-response","158","433465","0.0-4.0-1.0-0.13","b1z4dcj5jkyrawl","prime","5d651665cad1a9001839839d","5f60e3c0a3b16e07647b2ff9","5f646a68b6a0681eb8dd09d2","false","null","<span style=""color: black; font-size: 48px"">N + M</span>","null","","","","resp_prompt","","","","","","","","","","","","","","","",""
"categorize-image","159","434748","0.0-4.0-1.0-1.13","b1z4dcj5jkyrawl","prime","5d651665cad1a9001839839d","5f60e3c0a3b16e07647b2ff9","5f646a68b6a0681eb8dd09d2","true","1277.349999989383","./Stimuli/SelectedImages/SM/SM205.bmp","76","","","","test","true","N + M","76","switch","SM","SM205.bmp","forget","","62","3","prime1","right","","","",""
"html-keyboard-response","160","436751","0.0-4.0-1.0-3.13","b1z4dcj5jkyrawl","prime","5d651665cad1a9001839839d","5f60e3c0a3b16e07647b2ff9","5f646a68b6a0681eb8dd09d2","false","null","<div style=""align-items: center; display: flex; color: darkorange; font-size: 90px""><b>ø</b></div>","null","","","","forget_cue","","","","","","","","","","","","","","","",""
"html-keyboard-response","161","437453","0.0-4.0-1.0-0.14","b1z4dcj5jkyrawl","prime","5d651665cad1a9001839839d","5f60e3c0a3b16e07647b2ff9","5f646a68b6a0681eb8dd09d2","false","null","<span style=""color: black; font-size: 48px"">N + M</span>","null","","","","resp_prompt","","","","","","","","","","","","","","","",""
"categorize-image","162","438487","0.0-4.0-1.0-1.14","b1z4dcj5jkyrawl","prime","5d651665cad1a9001839839d","5f60e3c0a3b16e07647b2ff9","5f646a68b6a0681eb8dd09d2","true","1027.925000002142","./Stimuli/SelectedImages/LN/LN12.bmp","83","","","","test","true","N + M","83","repetition","LN","LN12.bmp","remember","","63","3","prime1","left","","","",""
"html-keyboard-response","163","440491","0.0-4.0-1.0-3.14","b1z4dcj5jkyrawl","prime","5d651665cad1a9001839839d","5f60e3c0a3b16e07647b2ff9","5f646a68b6a0681eb8dd09d2","false","null","<div style=""align-items: center; display: flex; color: dodgerblue; font-size: 90px""><b>o</b></div>","null","","","","forget_cue","","","","","","","","","","","","","","","",""
"html-keyboard-response","164","441193","0.0-4.0-1.0-0.15","b1z4dcj5jkyrawl","prime","5d651665cad1a9001839839d","5f60e3c0a3b16e07647b2ff9","5f646a68b6a0681eb8dd09d2","false","null","<span style=""color: black; font-size: 48px"">M + N</span>","null","","","","resp_prompt","","","","","","","","","","","","","","","",""
"categorize-image","165","442318","0.0-4.0-1.0-1.15","b1z4dcj5jkyrawl","prime","5d651665cad1a9001839839d","5f60e3c0a3b16e07647b2ff9","5f646a68b6a0681eb8dd09d2","true","1118.2549999793991","./Stimuli/SelectedImages/SN/SN140.bmp","76","","","","test","true","M + N","76","repetition","SN","SN140.bmp","forget","","64","3","prime1","right","","","",""
"html-keyboard-response","166","444321","0.0-4.0-1.0-3.15","b1z4dcj5jkyrawl","prime","5d651665cad1a9001839839d","5f60e3c0a3b16e07647b2ff9","5f646a68b6a0681eb8dd09d2","false","null","<div style=""align-items: center; display: flex; color: darkorange; font-size: 90px""><b>ø</b></div>","null","","","","forget_cue","","","","","","","","","","","","","","","",""
"html-keyboard-response","167","445023","0.0-4.0-1.0-0.16","b1z4dcj5jkyrawl","prime","5d651665cad1a9001839839d","5f60e3c0a3b16e07647b2ff9","5f646a68b6a0681eb8dd09d2","false","null","<span style=""color: black; font-size: 48px"">N + M</span>","null","","","","resp_prompt","","","","","","","","","","","","","","","",""
"categorize-image","168","445820","0.0-4.0-1.0-1.16","b1z4dcj5jkyrawl","prime","5d651665cad1a9001839839d","5f60e3c0a3b16e07647b2ff9","5f646a68b6a0681eb8dd09d2","true","788.0950000253506","./Stimuli/SelectedImages/LN/LN59.bmp","83","","","","test","true","N + M","83","switch","LN","LN59.bmp","forget","","65","3","prime1","left","","","",""
"html-keyboard-response","169","447823","0.0-4.0-1.0-3.16","b1z4dcj5jkyrawl","prime","5d651665cad1a9001839839d","5f60e3c0a3b16e07647b2ff9","5f646a68b6a0681eb8dd09d2","false","null","<div style=""align-items: center; display: flex; color: darkorange; font-size: 90px""><b>ø</b></div>","null","","","","forget_cue","","","","","","","","","","","","","","","",""
"html-keyboard-response","170","448524","0.0-4.0-1.0-0.17","b1z4dcj5jkyrawl","prime","5d651665cad1a9001839839d","5f60e3c0a3b16e07647b2ff9","5f646a68b6a0681eb8dd09d2","false","null","<span style=""color: black; font-size: 48px"">N + M</span>","null","","","","resp_prompt","","","","","","","","","","","","","","","",""
"categorize-image","171","449075","0.0-4.0-1.0-1.17","b1z4dcj5jkyrawl","prime","5d651665cad1a9001839839d","5f60e3c0a3b16e07647b2ff9","5f646a68b6a0681eb8dd09d2","true","545.4200000385754","./Stimuli/SelectedImages/SM/SM73.bmp","76","","","","test","true","N + M","76","repetition","SM","SM73.bmp","remember","","66","3","prime1","right","","","",""
"html-keyboard-response","172","451079","0.0-4.0-1.0-3.17","b1z4dcj5jkyrawl","prime","5d651665cad1a9001839839d","5f60e3c0a3b16e07647b2ff9","5f646a68b6a0681eb8dd09d2","false","null","<div style=""align-items: center; display: flex; color: dodgerblue; font-size: 90px""><b>o</b></div>","null","","","","forget_cue","","","","","","","","","","","","","","","",""
"html-keyboard-response","173","451781","0.0-4.0-1.0-0.18","b1z4dcj5jkyrawl","prime","5d651665cad1a9001839839d","5f60e3c0a3b16e07647b2ff9","5f646a68b6a0681eb8dd09d2","false","null","<span style=""color: black; font-size: 48px"">M + N</span>","null","","","","resp_prompt","","","","","","","","","","","","","","","",""
"categorize-image","174","452622","0.0-4.0-1.0-1.18","b1z4dcj5jkyrawl","prime","5d651665cad1a9001839839d","5f60e3c0a3b16e07647b2ff9","5f646a68b6a0681eb8dd09d2","true","834.2249999986961","./Stimuli/SelectedImages/LM/LM216.bmp","83","","","","test","true","M + N","83","repetition","LM","LM216.bmp","forget","","67","3","prime1","left","","","",""
"html-keyboard-response","175","454625","0.0-4.0-1.0-3.18","b1z4dcj5jkyrawl","prime","5d651665cad1a9001839839d","5f60e3c0a3b16e07647b2ff9","5f646a68b6a0681eb8dd09d2","false","null","<div style=""align-items: center; display: flex; color: darkorange; font-size: 90px""><b>ø</b></div>","null","","","","forget_cue","","","","","","","","","","","","","","","",""
"html-keyboard-response","176","455327","0.0-4.0-1.0-0.19","b1z4dcj5jkyrawl","prime","5d651665cad1a9001839839d","5f60e3c0a3b16e07647b2ff9","5f646a68b6a0681eb8dd09d2","false","null","<span style=""color: black; font-size: 48px"">N + M</span>","null","","","","resp_prompt","","","","","","","","","","","","","","","",""
"categorize-image","177","456285","0.0-4.0-1.0-1.19","b1z4dcj5jkyrawl","prime","5d651665cad1a9001839839d","5f60e3c0a3b16e07647b2ff9","5f646a68b6a0681eb8dd09d2","true","950.4499999457039","./Stimuli/SelectedImages/LM/LM59.bmp","76","","","","test","true","N + M","76","switch","LM","LM59.bmp","remember","","68","3","prime1","right","","","",""
"html-keyboard-response","178","458288","0.0-4.0-1.0-3.19","b1z4dcj5jkyrawl","prime","5d651665cad1a9001839839d","5f60e3c0a3b16e07647b2ff9","5f646a68b6a0681eb8dd09d2","false","null","<div style=""align-items: center; display: flex; color: dodgerblue; font-size: 90px""><b>o</b></div>","null","","","","forget_cue","","","","","","","","","","","","","","","",""
"html-keyboard-response","179","458990","0.0-4.0-1.0-0.20","b1z4dcj5jkyrawl","prime","5d651665cad1a9001839839d","5f60e3c0a3b16e07647b2ff9","5f646a68b6a0681eb8dd09d2","false","null","<span style=""color: black; font-size: 48px"">N + M</span>","null","","","","resp_prompt","","","","","","","","","","","","","","","",""
"categorize-image","180","459690","0.0-4.0-1.0-1.20","b1z4dcj5jkyrawl","prime","5d651665cad1a9001839839d","5f60e3c0a3b16e07647b2ff9","5f646a68b6a0681eb8dd09d2","true","694.8400000110269","./Stimuli/SelectedImages/LM/LM157.bmp","76","","","","test","true","N + M","76","switch","LM","LM157.bmp","remember","","69","3","prime1","right","","","",""
"html-keyboard-response","181","461693","0.0-4.0-1.0-3.20","b1z4dcj5jkyrawl","prime","5d651665cad1a9001839839d","5f60e3c0a3b16e07647b2ff9","5f646a68b6a0681eb8dd09d2","false","null","<div style=""align-items: center; display: flex; color: dodgerblue; font-size: 90px""><b>o</b></div>","null","","","","forget_cue","","","","","","","","","","","","","","","",""
"html-keyboard-response","182","462395","0.0-4.0-1.0-0.21","b1z4dcj5jkyrawl","prime","5d651665cad1a9001839839d","5f60e3c0a3b16e07647b2ff9","5f646a68b6a0681eb8dd09d2","false","null","<span style=""color: black; font-size: 48px"">M + N</span>","null","","","","resp_prompt","","","","","","","","","","","","","","","",""
"categorize-image","183","463411","0.0-4.0-1.0-1.21","b1z4dcj5jkyrawl","prime","5d651665cad1a9001839839d","5f60e3c0a3b16e07647b2ff9","5f646a68b6a0681eb8dd09d2","true","1009.7799999639392","./Stimuli/SelectedImages/SM/SM74.bmp","76","","","","test","false","M + N","83","switch","SM","SM74.bmp","remember","","70","3","prime1","right","","","",""
"html-keyboard-response","184","463914","0.0-4.0-1.0-2.21-0.21","b1z4dcj5jkyrawl","prime","5d651665cad1a9001839839d","5f60e3c0a3b16e07647b2ff9","5f646a68b6a0681eb8dd09d2","false","null","<span style=""color: red; font-size: 48px"">Error!</span>","null","","","","feedback","","","","","","","","","","","","","","","",""
"html-keyboard-response","185","465916","0.0-4.0-1.0-3.21","b1z4dcj5jkyrawl","prime","5d651665cad1a9001839839d","5f60e3c0a3b16e07647b2ff9","5f646a68b6a0681eb8dd09d2","false","null","<div style=""align-items: center; display: flex; color: dodgerblue; font-size: 90px""><b>o</b></div>","null","","","","forget_cue","","","","","","","","","","","","","","","",""
"html-keyboard-response","186","466618","0.0-4.0-1.0-0.22","b1z4dcj5jkyrawl","prime","5d651665cad1a9001839839d","5f60e3c0a3b16e07647b2ff9","5f646a68b6a0681eb8dd09d2","false","null","<span style=""color: black; font-size: 48px"">N + M</span>","null","","","","resp_prompt","","","","","","","","","","","","","","","",""
"categorize-image","187","467433","0.0-4.0-1.0-1.22","b1z4dcj5jkyrawl","prime","5d651665cad1a9001839839d","5f60e3c0a3b16e07647b2ff9","5f646a68b6a0681eb8dd09d2","true","808.0100000370294","./Stimuli/SelectedImages/LM/LM129.bmp","76","","","","test","true","N + M","76","repetition","LM","LM129.bmp","forget","","71","3","prime1","right","","","",""
"html-keyboard-response","188","469436","0.0-4.0-1.0-3.22","b1z4dcj5jkyrawl","prime","5d651665cad1a9001839839d","5f60e3c0a3b16e07647b2ff9","5f646a68b6a0681eb8dd09d2","false","null","<div style=""align-items: center; display: flex; color: darkorange; font-size: 90px""><b>ø</b></div>","null","","","","forget_cue","","","","","","","","","","","","","","","",""
"html-keyboard-response","189","470138","0.0-4.0-1.0-0.23","b1z4dcj5jkyrawl","prime","5d651665cad1a9001839839d","5f60e3c0a3b16e07647b2ff9","5f646a68b6a0681eb8dd09d2","false","null","<span style=""color: black; font-size: 48px"">N + M</span>","null","","","","resp_prompt","","","","","","","","","","","","","","","",""
"categorize-image","190","470950","0.0-4.0-1.0-1.23","b1z4dcj5jkyrawl","prime","5d651665cad1a9001839839d","5f60e3c0a3b16e07647b2ff9","5f646a68b6a0681eb8dd09d2","true","808.469999989029","./Stimuli/SelectedImages/LM/LM179.bmp","76","","","","test","true","N + M","76","switch","LM","LM179.bmp","forget","","72","3","prime1","right","","","",""
"html-keyboard-response","191","472953","0.0-4.0-1.0-3.23","b1z4dcj5jkyrawl","prime","5d651665cad1a9001839839d","5f60e3c0a3b16e07647b2ff9","5f646a68b6a0681eb8dd09d2","false","null","<div style=""align-items: center; display: flex; color: darkorange; font-size: 90px""><b>ø</b></div>","null","","","","forget_cue","","","","","","","","","","","","","","","",""
"html-keyboard-response","192","473655","0.0-4.0-1.0-0.24","b1z4dcj5jkyrawl","prime","5d651665cad1a9001839839d","5f60e3c0a3b16e07647b2ff9","5f646a68b6a0681eb8dd09d2","false","null","<span style=""color: black; font-size: 48px"">M + N</span>","null","","","","resp_prompt","","","","","","","","","","","","","","","",""
"categorize-image","193","474424","0.0-4.0-1.0-1.24","b1z4dcj5jkyrawl","prime","5d651665cad1a9001839839d","5f60e3c0a3b16e07647b2ff9","5f646a68b6a0681eb8dd09d2","true","763.1399999954738","./Stimuli/SelectedImages/SN/SN18.bmp","83","","","","test","false","M + N","76","switch","SN","SN18.bmp","remember","","73","3","prime1","left","","","",""
"html-keyboard-response","194","474928","0.0-4.0-1.0-2.24-0.24","b1z4dcj5jkyrawl","prime","5d651665cad1a9001839839d","5f60e3c0a3b16e07647b2ff9","5f646a68b6a0681eb8dd09d2","false","null","<span style=""color: red; font-size: 48px"">Error!</span>","null","","","","feedback","","","","","","","","","","","","","","","",""
"html-keyboard-response","195","476930","0.0-4.0-1.0-3.24","b1z4dcj5jkyrawl","prime","5d651665cad1a9001839839d","5f60e3c0a3b16e07647b2ff9","5f646a68b6a0681eb8dd09d2","false","null","<div style=""align-items: center; display: flex; color: dodgerblue; font-size: 90px""><b>o</b></div>","null","","","","forget_cue","","","","","","","","","","","","","","","",""
"html-keyboard-response","196","477632","0.0-4.0-1.0-0.25","b1z4dcj5jkyrawl","prime","5d651665cad1a9001839839d","5f60e3c0a3b16e07647b2ff9","5f646a68b6a0681eb8dd09d2","false","null","<span style=""color: black; font-size: 48px"">M + N</span>","null","","","","resp_prompt","","","","","","","","","","","","","","","",""
"categorize-image","197","478190","0.0-4.0-1.0-1.25","b1z4dcj5jkyrawl","prime","5d651665cad1a9001839839d","5f60e3c0a3b16e07647b2ff9","5f646a68b6a0681eb8dd09d2","true","551.8799999845214","./Stimuli/SelectedImages/LM/LM167.bmp","76","","","","test","false","M + N","83","repetition","LM","LM167.bmp","remember","","74","3","prime1","right","","","",""
"html-keyboard-response","198","478693","0.0-4.0-1.0-2.25-0.25","b1z4dcj5jkyrawl","prime","5d651665cad1a9001839839d","5f60e3c0a3b16e07647b2ff9","5f646a68b6a0681eb8dd09d2","false","null","<span style=""color: red; font-size: 48px"">Error!</span>","null","","","","feedback","","","","","","","","","","","","","","","",""
"html-keyboard-response","199","480695","0.0-4.0-1.0-3.25","b1z4dcj5jkyrawl","prime","5d651665cad1a9001839839d","5f60e3c0a3b16e07647b2ff9","5f646a68b6a0681eb8dd09d2","false","null","<div style=""align-items: center; display: flex; color: dodgerblue; font-size: 90px""><b>o</b></div>","null","","","","forget_cue","","","","","","","","","","","","","","","",""
"html-keyboard-response","200","481397","0.0-4.0-1.0-0.26","b1z4dcj5jkyrawl","prime","5d651665cad1a9001839839d","5f60e3c0a3b16e07647b2ff9","5f646a68b6a0681eb8dd09d2","false","null","<span style=""color: black; font-size: 48px"">N + M</span>","null","","","","resp_prompt","","","","","","","","","","","","","","","",""
"categorize-image","201","483406","0.0-4.0-1.0-1.26","b1z4dcj5jkyrawl","prime","5d651665cad1a9001839839d","5f60e3c0a3b16e07647b2ff9","5f646a68b6a0681eb8dd09d2","true","null","./Stimuli/SelectedImages/SM/SM128.bmp","null","","","","test","false","N + M","76","switch","SM","SM128.bmp","remember","","75","3","prime1","too_slow","","","",""
"html-keyboard-response","202","483908","0.0-4.0-1.0-2.26-0.26","b1z4dcj5jkyrawl","prime","5d651665cad1a9001839839d","5f60e3c0a3b16e07647b2ff9","5f646a68b6a0681eb8dd09d2","false","null","<span style=""color: red; font-size: 48px"">Too slow!</span>","null","","","","feedback","","","","","","","","","","","","","","","",""
"html-keyboard-response","203","485910","0.0-4.0-1.0-3.26","b1z4dcj5jkyrawl","prime","5d651665cad1a9001839839d","5f60e3c0a3b16e07647b2ff9","5f646a68b6a0681eb8dd09d2","false","null","<div style=""align-items: center; display: flex; color: dodgerblue; font-size: 90px""><b>o</b></div>","null","","","","forget_cue","","","","","","","","","","","","","","","",""
"html-keyboard-response","204","486612","0.0-4.0-1.0-0.27","b1z4dcj5jkyrawl","prime","5d651665cad1a9001839839d","5f60e3c0a3b16e07647b2ff9","5f646a68b6a0681eb8dd09d2","false","null","<span style=""color: black; font-size: 48px"">N + M</span>","null","","","","resp_prompt","","","","","","","","","","","","","","","",""
"categorize-image","205","488088","0.0-4.0-1.0-1.27","b1z4dcj5jkyrawl","prime","5d651665cad1a9001839839d","5f60e3c0a3b16e07647b2ff9","5f646a68b6a0681eb8dd09d2","true","1468.9150000340305","./Stimuli/SelectedImages/LM/LM100.bmp","76","","","","test","true","N + M","76","repetition","LM","LM100.bmp","remember","","76","3","prime1","right","","","",""
"html-keyboard-response","206","490092","0.0-4.0-1.0-3.27","b1z4dcj5jkyrawl","prime","5d651665cad1a9001839839d","5f60e3c0a3b16e07647b2ff9","5f646a68b6a0681eb8dd09d2","false","null","<div style=""align-items: center; display: flex; color: dodgerblue; font-size: 90px""><b>o</b></div>","null","","","","forget_cue","","","","","","","","","","","","","","","",""
"html-keyboard-response","207","490794","0.0-4.0-1.0-0.28","b1z4dcj5jkyrawl","prime","5d651665cad1a9001839839d","5f60e3c0a3b16e07647b2ff9","5f646a68b6a0681eb8dd09d2","false","null","<span style=""color: black; font-size: 48px"">M + N</span>","null","","","","resp_prompt","","","","","","","","","","","","","","","",""
"categorize-image","208","491946","0.0-4.0-1.0-1.28","b1z4dcj5jkyrawl","prime","5d651665cad1a9001839839d","5f60e3c0a3b16e07647b2ff9","5f646a68b6a0681eb8dd09d2","true","1144.3050000234507","./Stimuli/SelectedImages/LN/LN28.bmp","83","","","","test","false","M + N","76","switch","LN","LN28.bmp","forget","","77","3","prime1","left","","","",""
"html-keyboard-response","209","492448","0.0-4.0-1.0-2.28-0.28","b1z4dcj5jkyrawl","prime","5d651665cad1a9001839839d","5f60e3c0a3b16e07647b2ff9","5f646a68b6a0681eb8dd09d2","false","null","<span style=""color: red; font-size: 48px"">Error!</span>","null","","","","feedback","","","","","","","","","","","","","","","",""
"html-keyboard-response","210","494450","0.0-4.0-1.0-3.28","b1z4dcj5jkyrawl","prime","5d651665cad1a9001839839d","5f60e3c0a3b16e07647b2ff9","5f646a68b6a0681eb8dd09d2","false","null","<div style=""align-items: center; display: flex; color: darkorange; font-size: 90px""><b>ø</b></div>","null","","","","forget_cue","","","","","","","","","","","","","","","",""
"html-keyboard-response","211","495153","0.0-4.0-1.0-0.29","b1z4dcj5jkyrawl","prime","5d651665cad1a9001839839d","5f60e3c0a3b16e07647b2ff9","5f646a68b6a0681eb8dd09d2","false","null","<span style=""color: black; font-size: 48px"">N + M</span>","null","","","","resp_prompt","","","","","","","","","","","","","","","",""
"categorize-image","212","496132","0.0-4.0-1.0-1.29","b1z4dcj5jkyrawl","prime","5d651665cad1a9001839839d","5f60e3c0a3b16e07647b2ff9","5f646a68b6a0681eb8dd09d2","true","973.4949999838136","./Stimuli/SelectedImages/SM/SM213.bmp","76","","","","test","true","N + M","76","switch","SM","SM213.bmp","remember","","78","3","prime1","right","","","",""
"html-keyboard-response","213","498135","0.0-4.0-1.0-3.29","b1z4dcj5jkyrawl","prime","5d651665cad1a9001839839d","5f60e3c0a3b16e07647b2ff9","5f646a68b6a0681eb8dd09d2","false","null","<div style=""align-items: center; display: flex; color: dodgerblue; font-size: 90px""><b>o</b></div>","null","","","","forget_cue","","","","","","","","","","","","","","","",""
"html-keyboard-response","214","498838","0.0-4.0-1.0-0.30","b1z4dcj5jkyrawl","prime","5d651665cad1a9001839839d","5f60e3c0a3b16e07647b2ff9","5f646a68b6a0681eb8dd09d2","false","null","<span style=""color: black; font-size: 48px"">M + N</span>","null","","","","resp_prompt","","","","","","","","","","","","","","","",""
"categorize-image","215","499659","0.0-4.0-1.0-1.30","b1z4dcj5jkyrawl","prime","5d651665cad1a9001839839d","5f60e3c0a3b16e07647b2ff9","5f646a68b6a0681eb8dd09d2","true","814.8149999906309","./Stimuli/SelectedImages/SN/SN240.bmp","76","","","","test","true","M + N","76","switch","SN","SN240.bmp","forget","","79","3","prime1","right","","","",""
"html-keyboard-response","216","501662","0.0-4.0-1.0-3.30","b1z4dcj5jkyrawl","prime","5d651665cad1a9001839839d","5f60e3c0a3b16e07647b2ff9","5f646a68b6a0681eb8dd09d2","false","null","<div style=""align-items: center; display: flex; color: darkorange; font-size: 90px""><b>ø</b></div>","null","","","","forget_cue","","","","","","","","","","","","","","","",""
"html-keyboard-response","217","502364","0.0-4.0-1.0-0.31","b1z4dcj5jkyrawl","prime","5d651665cad1a9001839839d","5f60e3c0a3b16e07647b2ff9","5f646a68b6a0681eb8dd09d2","false","null","<span style=""color: black; font-size: 48px"">N + M</span>","null","","","","resp_prompt","","","","","","","","","","","","","","","",""
"categorize-image","218","503150","0.0-4.0-1.0-1.31","b1z4dcj5jkyrawl","prime","5d651665cad1a9001839839d","5f60e3c0a3b16e07647b2ff9","5f646a68b6a0681eb8dd09d2","true","781.0649999883026","./Stimuli/SelectedImages/LM/LM235.bmp","76","","","","test","true","N + M","76","repetition","LM","LM235.bmp","remember","","80","3","prime1","right","","","",""
"html-keyboard-response","219","505153","0.0-4.0-1.0-3.31","b1z4dcj5jkyrawl","prime","5d651665cad1a9001839839d","5f60e3c0a3b16e07647b2ff9","5f646a68b6a0681eb8dd09d2","false","null","<div style=""align-items: center; display: flex; color: dodgerblue; font-size: 90px""><b>o</b></div>","null","","","","forget_cue","","","","","","","","","","","","","","","",""
"html-keyboard-response","220","505856","0.0-4.0-1.0-0.32","b1z4dcj5jkyrawl","prime","5d651665cad1a9001839839d","5f60e3c0a3b16e07647b2ff9","5f646a68b6a0681eb8dd09d2","false","null","<span style=""color: black; font-size: 48px"">M + N</span>","null","","","","resp_prompt","","","","","","","","","","","","","","","",""
"categorize-image","221","506999","0.0-4.0-1.0-1.32","b1z4dcj5jkyrawl","prime","5d651665cad1a9001839839d","5f60e3c0a3b16e07647b2ff9","5f646a68b6a0681eb8dd09d2","true","1136.899999983143","./Stimuli/SelectedImages/LN/LN128.bmp","76","","","","test","true","M + N","76","switch","LN","LN128.bmp","remember","","81","3","prime1","right","","","",""
"html-keyboard-response","222","509002","0.0-4.0-1.0-3.32","b1z4dcj5jkyrawl","prime","5d651665cad1a9001839839d","5f60e3c0a3b16e07647b2ff9","5f646a68b6a0681eb8dd09d2","false","null","<div style=""align-items: center; display: flex; color: dodgerblue; font-size: 90px""><b>o</b></div>","null","","","","forget_cue","","","","","","","","","","","","","","","",""
"html-keyboard-response","223","509704","0.0-4.0-1.0-0.33","b1z4dcj5jkyrawl","prime","5d651665cad1a9001839839d","5f60e3c0a3b16e07647b2ff9","5f646a68b6a0681eb8dd09d2","false","null","<span style=""color: black; font-size: 48px"">M + N</span>","null","","","","resp_prompt","","","","","","","","","","","","","","","",""
"categorize-image","224","510635","0.0-4.0-1.0-1.33","b1z4dcj5jkyrawl","prime","5d651665cad1a9001839839d","5f60e3c0a3b16e07647b2ff9","5f646a68b6a0681eb8dd09d2","true","926.5149999991991","./Stimuli/SelectedImages/LM/LM57.bmp","83","","","","test","true","M + N","83","switch","LM","LM57.bmp","remember","","82","3","prime1","left","","","",""
"html-keyboard-response","225","512639","0.0-4.0-1.0-3.33","b1z4dcj5jkyrawl","prime","5d651665cad1a9001839839d","5f60e3c0a3b16e07647b2ff9","5f646a68b6a0681eb8dd09d2","false","null","<div style=""align-items: center; display: flex; color: dodgerblue; font-size: 90px""><b>o</b></div>","null","","","","forget_cue","","","","","","","","","","","","","","","",""
"html-keyboard-response","226","513341","0.0-4.0-1.0-0.34","b1z4dcj5jkyrawl","prime","5d651665cad1a9001839839d","5f60e3c0a3b16e07647b2ff9","5f646a68b6a0681eb8dd09d2","false","null","<span style=""color: black; font-size: 48px"">N + M</span>","null","","","","resp_prompt","","","","","","","","","","","","","","","",""
"categorize-image","227","514673","0.0-4.0-1.0-1.34","b1z4dcj5jkyrawl","prime","5d651665cad1a9001839839d","5f60e3c0a3b16e07647b2ff9","5f646a68b6a0681eb8dd09d2","true","1326.404999999795","./Stimuli/SelectedImages/SN/SN155.bmp","83","","","","test","true","N + M","83","repetition","SN","SN155.bmp","forget","","83","3","prime1","left","","","",""
"html-keyboard-response","228","516676","0.0-4.0-1.0-3.34","b1z4dcj5jkyrawl","prime","5d651665cad1a9001839839d","5f60e3c0a3b16e07647b2ff9","5f646a68b6a0681eb8dd09d2","false","null","<div style=""align-items: center; display: flex; color: darkorange; font-size: 90px""><b>ø</b></div>","null","","","","forget_cue","","","","","","","","","","","","","","","",""
"html-keyboard-response","229","517378","0.0-4.0-1.0-0.35","b1z4dcj5jkyrawl","prime","5d651665cad1a9001839839d","5f60e3c0a3b16e07647b2ff9","5f646a68b6a0681eb8dd09d2","false","null","<span style=""color: black; font-size: 48px"">M + N</span>","null","","","","resp_prompt","","","","","","","","","","","","","","","",""
"categorize-image","230","518482","0.0-4.0-1.0-1.35","b1z4dcj5jkyrawl","prime","5d651665cad1a9001839839d","5f60e3c0a3b16e07647b2ff9","5f646a68b6a0681eb8dd09d2","true","1097.0399999641813","./Stimuli/SelectedImages/SM/SM106.bmp","83","","","","test","true","M + N","83","repetition","SM","SM106.bmp","forget","","84","3","prime1","left","","","",""
"html-keyboard-response","231","520486","0.0-4.0-1.0-3.35","b1z4dcj5jkyrawl","prime","5d651665cad1a9001839839d","5f60e3c0a3b16e07647b2ff9","5f646a68b6a0681eb8dd09d2","false","null","<div style=""align-items: center; display: flex; color: darkorange; font-size: 90px""><b>ø</b></div>","null","","","","forget_cue","","","","","","","","","","","","","","","",""
"html-keyboard-response","232","521188","0.0-4.0-1.0-0.36","b1z4dcj5jkyrawl","prime","5d651665cad1a9001839839d","5f60e3c0a3b16e07647b2ff9","5f646a68b6a0681eb8dd09d2","false","null","<span style=""color: black; font-size: 48px"">M + N</span>","null","","","","resp_prompt","","","","","","","","","","","","","","","",""
"categorize-image","233","522081","0.0-4.0-1.0-1.36","b1z4dcj5jkyrawl","prime","5d651665cad1a9001839839d","5f60e3c0a3b16e07647b2ff9","5f646a68b6a0681eb8dd09d2","true","886.3549999659881","./Stimuli/SelectedImages/LN/LN149.bmp","76","","","","test","true","M + N","76","repetition","LN","LN149.bmp","forget","","85","3","prime1","right","","","",""
"html-keyboard-response","234","524084","0.0-4.0-1.0-3.36","b1z4dcj5jkyrawl","prime","5d651665cad1a9001839839d","5f60e3c0a3b16e07647b2ff9","5f646a68b6a0681eb8dd09d2","false","null","<div style=""align-items: center; display: flex; color: darkorange; font-size: 90px""><b>ø</b></div>","null","","","","forget_cue","","","","","","","","","","","","","","","",""
"html-keyboard-response","235","524786","0.0-4.0-1.0-0.37","b1z4dcj5jkyrawl","prime","5d651665cad1a9001839839d","5f60e3c0a3b16e07647b2ff9","5f646a68b6a0681eb8dd09d2","false","null","<span style=""color: black; font-size: 48px"">M + N</span>","null","","","","resp_prompt","","","","","","","","","","","","","","","",""
"categorize-image","236","525428","0.0-4.0-1.0-1.37","b1z4dcj5jkyrawl","prime","5d651665cad1a9001839839d","5f60e3c0a3b16e07647b2ff9","5f646a68b6a0681eb8dd09d2","true","636.4850000245497","./Stimuli/SelectedImages/SN/SN187.bmp","76","","","","test","true","M + N","76","repetition","SN","SN187.bmp","forget","","86","3","prime1","right","","","",""
"html-keyboard-response","237","527432","0.0-4.0-1.0-3.37","b1z4dcj5jkyrawl","prime","5d651665cad1a9001839839d","5f60e3c0a3b16e07647b2ff9","5f646a68b6a0681eb8dd09d2","false","null","<div style=""align-items: center; display: flex; color: darkorange; font-size: 90px""><b>ø</b></div>","null","","","","forget_cue","","","","","","","","","","","","","","","",""
"html-keyboard-response","238","528134","0.0-4.0-1.0-0.38","b1z4dcj5jkyrawl","prime","5d651665cad1a9001839839d","5f60e3c0a3b16e07647b2ff9","5f646a68b6a0681eb8dd09d2","false","null","<span style=""color: black; font-size: 48px"">M + N</span>","null","","","","resp_prompt","","","","","","","","","","","","","","","",""
"categorize-image","239","528677","0.0-4.0-1.0-1.38","b1z4dcj5jkyrawl","prime","5d651665cad1a9001839839d","5f60e3c0a3b16e07647b2ff9","5f646a68b6a0681eb8dd09d2","true","537.2750000096858","./Stimuli/SelectedImages/SM/SM76.bmp","83","","","","test","true","M + N","83","repetition","SM","SM76.bmp","remember","","87","3","prime1","left","","","",""
"html-keyboard-response","240","530680","0.0-4.0-1.0-3.38","b1z4dcj5jkyrawl","prime","5d651665cad1a9001839839d","5f60e3c0a3b16e07647b2ff9","5f646a68b6a0681eb8dd09d2","false","null","<div style=""align-items: center; display: flex; color: dodgerblue; font-size: 90px""><b>o</b></div>","null","","","","forget_cue","","","","","","","","","","","","","","","",""
"html-keyboard-response","241","531382","0.0-4.0-1.0-0.39","b1z4dcj5jkyrawl","prime","5d651665cad1a9001839839d","5f60e3c0a3b16e07647b2ff9","5f646a68b6a0681eb8dd09d2","false","null","<span style=""color: black; font-size: 48px"">M + N</span>","null","","","","resp_prompt","","","","","","","","","","","","","","","",""
"categorize-image","242","532068","0.0-4.0-1.0-1.39","b1z4dcj5jkyrawl","prime","5d651665cad1a9001839839d","5f60e3c0a3b16e07647b2ff9","5f646a68b6a0681eb8dd09d2","true","676.065000006929","./Stimuli/SelectedImages/LN/LN166.bmp","76","","","","test","true","M + N","76","switch","LN","LN166.bmp","forget","","88","3","prime1","right","","","",""
"html-keyboard-response","243","534070","0.0-4.0-1.0-3.39","b1z4dcj5jkyrawl","prime","5d651665cad1a9001839839d","5f60e3c0a3b16e07647b2ff9","5f646a68b6a0681eb8dd09d2","false","null","<div style=""align-items: center; display: flex; color: darkorange; font-size: 90px""><b>ø</b></div>","null","","","","forget_cue","","","","","","","","","","","","","","","",""
"html-keyboard-response","244","534772","0.0-4.0-1.0-0.40","b1z4dcj5jkyrawl","prime","5d651665cad1a9001839839d","5f60e3c0a3b16e07647b2ff9","5f646a68b6a0681eb8dd09d2","false","null","<span style=""color: black; font-size: 48px"">N + M</span>","null","","","","resp_prompt","","","","","","","","","","","","","","","",""
"categorize-image","245","535507","0.0-4.0-1.0-1.40","b1z4dcj5jkyrawl","prime","5d651665cad1a9001839839d","5f60e3c0a3b16e07647b2ff9","5f646a68b6a0681eb8dd09d2","true","727.4150000303052","./Stimuli/SelectedImages/LN/LN92.bmp","76","","","","test","false","N + M","83","repetition","LN","LN92.bmp","forget","","89","3","prime1","right","","","",""
"html-keyboard-response","246","536010","0.0-4.0-1.0-2.40-0.40","b1z4dcj5jkyrawl","prime","5d651665cad1a9001839839d","5f60e3c0a3b16e07647b2ff9","5f646a68b6a0681eb8dd09d2","false","null","<span style=""color: red; font-size: 48px"">Error!</span>","null","","","","feedback","","","","","","","","","","","","","","","",""
"html-keyboard-response","247","538012","0.0-4.0-1.0-3.40","b1z4dcj5jkyrawl","prime","5d651665cad1a9001839839d","5f60e3c0a3b16e07647b2ff9","5f646a68b6a0681eb8dd09d2","false","null","<div style=""align-items: center; display: flex; color: darkorange; font-size: 90px""><b>ø</b></div>","null","","","","forget_cue","","","","","","","","","","","","","","","",""
"html-keyboard-response","248","538714","0.0-4.0-1.0-0.41","b1z4dcj5jkyrawl","prime","5d651665cad1a9001839839d","5f60e3c0a3b16e07647b2ff9","5f646a68b6a0681eb8dd09d2","false","null","<span style=""color: black; font-size: 48px"">N + M</span>","null","","","","resp_prompt","","","","","","","","","","","","","","","",""
"categorize-image","249","539622","0.0-4.0-1.0-1.41","b1z4dcj5jkyrawl","prime","5d651665cad1a9001839839d","5f60e3c0a3b16e07647b2ff9","5f646a68b6a0681eb8dd09d2","true","902.0850000088103","./Stimuli/SelectedImages/SN/SN60.bmp","83","","","","test","true","N + M","83","repetition","SN","SN60.bmp","forget","","90","3","prime1","left","","","",""
"html-keyboard-response","250","541626","0.0-4.0-1.0-3.41","b1z4dcj5jkyrawl","prime","5d651665cad1a9001839839d","5f60e3c0a3b16e07647b2ff9","5f646a68b6a0681eb8dd09d2","false","null","<div style=""align-items: center; display: flex; color: darkorange; font-size: 90px""><b>ø</b></div>","null","","","","forget_cue","","","","","","","","","","","","","","","",""
"html-keyboard-response","251","542329","0.0-4.0-1.0-0.42","b1z4dcj5jkyrawl","prime","5d651665cad1a9001839839d","5f60e3c0a3b16e07647b2ff9","5f646a68b6a0681eb8dd09d2","false","null","<span style=""color: black; font-size: 48px"">M + N</span>","null","","","","resp_prompt","","","","","","","","","","","","","","","",""
"categorize-image","252","543278","0.0-4.0-1.0-1.42","b1z4dcj5jkyrawl","prime","5d651665cad1a9001839839d","5f60e3c0a3b16e07647b2ff9","5f646a68b6a0681eb8dd09d2","true","944.7349999682046","./Stimuli/SelectedImages/LN/LN13.bmp","76","","","","test","true","M + N","76","switch","LN","LN13.bmp","remember","","91","3","prime1","right","","","",""
