"trial_type","trial_index","time_elapsed","internal_node_id","subject","exp_part","prolific_PID","study_ID","session_ID","use","rt","stimulus","key_press","button_pressed","responses","question_order","trial_part","correct","resp_map","correct_resp","probe_condition","category","image","forget_condition","list","trial_num","block_num","block","response","test_part","n_span","sequence","num_spaces"
"pavlovia","0","5","0.0-0.0","uhk6k9t3v0b5ns8","","5f3fac9aecaa2b027a89663b","5f5a55364e9b770ed21874ff","5f60d83d77cc910572e75c11","false","","","","","","","","","","","","","","","","","","","","","","",""
"html-keyboard-response","1","5504","0.0-1.0-0.0-0.0","uhk6k9t3v0b5ns8","welcome","5f3fac9aecaa2b027a89663b","5f5a55364e9b770ed21874ff","5f60d83d77cc910572e75c11","false","5495.690000010654","<div align=left>Dear participant, <br> thank you for participating in an online study of the Cognition, Action, and Sustainability Unit of the University of Freiburg! <br> <br>The aim of this study is to examine our ability to remember previously learned information. <br>Our goal is to find out, whether our memory improves, when we only remember information that is relevant to us. <br>The experiment will take about 30 minutes to complete. <br> <br>Please, note that you can only participate in this study if you are using a device with a keyboard (PC, Laptop etc.) <br>and not if you are using a mobile device such as a tablet or smartphone.<br> <br>Press 'SPACE' to proceed to the experiment. </div>","32","","","","","","","","","","","","","","","","","","","",""
"html-keyboard-response","2","7652","0.0-1.0-0.0-1.0","uhk6k9t3v0b5ns8","welcome","5f3fac9aecaa2b027a89663b","5f5a55364e9b770ed21874ff","5f60d83d77cc910572e75c11","false","2145.559999975376","<div align=left><strong> Time Course of this experiment: </strong> <br><br> <strong> 1.</strong>  First, please fill in some information regarding your demographic data. <br><br> <strong> 2.</strong>  Next, your task will be to classify everyday objects. <br>In addition, you will be asked to remember certain objects and recall them later. <br>Working on these tasks requires your undivided attention and concentration.<br>It is therefore essential that you eliminate any sources of distraction in your  <br>environment and ensure that you will not be disturbed. <br><br><strong> 3.</strong>  At the end of the experiment, you will be asked to answer a few additional questions. <br> <br><strong> Important:</strong> After finishing the experiment, only close the browser window <br> by clicking on the 'end the experiment'-button when you are asked to do so. <br>Closing the browser window prematurely will make the allocation of your participation credit impossible. <br><br> Press 'SPACE' to start the experiment. </div>","32","","","","","","","","","","","","","","","","","","","",""
"html-button-response","3","9453","0.0-1.0-0.0-2.0","uhk6k9t3v0b5ns8","welcome","5f3fac9aecaa2b027a89663b","5f5a55364e9b770ed21874ff","5f60d83d77cc910572e75c11","true","1798.59000002034","<div align=left><strong> Informed consent </strong>  <br>The aim of our research is to better understand human behavior and mental processes. <br>In the following study your behavior (e.g. choices, reaction times) will be studied. <br> <br><strong> Voluntariness and Anonymity </strong> <br>Your participation in this study is  <strong> voluntary</strong>.<br>You may withdraw your consent to participate at any time without providing a reason for doing so and without fear of prejudice. <br><br>As no personal data will be collected, <strong>your data and your person cannot be connected after data collection</strong> – the data-set is anonymous. <br>Respectively, deletion of your data will not be possible after data collection has been completed, as we cannot retrace your data-set.<br>The results and anonymized data collected in this study will be published as a scientific publication. <br>This will happen in an <strong>anonymized format</strong>, so that no data can be traced back to a specific person. <br> <br>The anonymized data of this study will be made available to other researchers and/or in a data archive on the Internet as a means of transparency and to enable subsequent re-use. By doing so, this study follows the recommendations of the Deutsche Forschungsgemeinschaft (DFG, German Research Foundation) and Deutsche Gesellschaft für Psychologie (DGPS, German Psychological Society) regarding quality assurance in research.<br>If you have any questions now or after the experiment, please contact our team (experiments@cs.uni-freiburg.de).<br><br><br>I hereby declare, that I understand the above described conditions of participation and I agree to participate under these conditions. <br><br> </div>","","0","","","","","","","","","","","","","","","","","","",""
"html-keyboard-response","4","11797","0.0-1.0-0.0-3.0","uhk6k9t3v0b5ns8","welcome","5f3fac9aecaa2b027a89663b","5f5a55364e9b770ed21874ff","5f60d83d77cc910572e75c11","false","2341.454999987036","<div align=left><strong> General information concerning the experiment </strong>  <br> <br>Please follow the instructions:<ol> <li><strong> Do not leave this tab (your browser window) during the experiment and do not reload this tab! </strong>  <br>If you do switch tabs/windows during the experiment (to check your mail or visit another website, for example), <br>the experiment will end automatically and you will <strong>not receive credit</strong> for your participation. <br>Repeated participation or resumption of the experiment is impossible.</li> <br><li>Please close all other programs for the duration of your participation. </li> <br><li>Please mute or turn off your phone and put it out of your reach. </li> <br><li>Please also take off any disturbing accessories (such as wristwatches, bracelets, etc.). </li> <br><li>If you have music playing in the background, please turn it off now. </li> <br></ol>Thank you! <br>Press 'SPACE' to continue. </div>","32","","","","","","","","","","","","","","","","","","","",""
"survey-text","5","13978","0.0-1.0-1.0-0.0","uhk6k9t3v0b5ns8","demographics","5f3fac9aecaa2b027a89663b","5f5a55364e9b770ed21874ff","5f60d83d77cc910572e75c11","true","2175.1899999799207","","","","{""age"":""23""}","","","","","","","","","","","","","","","","","",""
"survey-multi-choice","6","28067","0.0-1.0-1.0-1.0","uhk6k9t3v0b5ns8","demographics","5f3fac9aecaa2b027a89663b","5f5a55364e9b770ed21874ff","5f60d83d77cc910572e75c11","true","14083.084999991115","","","","{""gender"":""female"",""school"":""others"",""education"":""Completed university degree or equivalent""}","[0,1,2]","","","","","","","","","","","","","","","","",""
"html-keyboard-response","7","29069","0.0-1.0-2.0","uhk6k9t3v0b5ns8","instructions","5f3fac9aecaa2b027a89663b","5f5a55364e9b770ed21874ff","5f60d83d77cc910572e75c11","false","998.3800000045449","<div align=left> The experiment is now about to start: <br> <br>In the following part, you will be presented pictures of everyday objects. <br>Your first task is to <strong>classify these objects. </strong> <br> <br> You will classify them either as mechanical or non-mechanical objects. <br> <br>Objects that include any kind of technical mechanism (for example, wheels, switches, levers, <br> electronic components) fall under the category of <strong>mechanical</strong> objects. <br>Only objects without any kind of technical mechanism should be classified as <strong>non-mechanical</strong>. <br><br>Press 'SPACE' to continue. </div>","32","","","","","","","","","","","","","","","","","","","",""
"html-keyboard-response","8","75965","0.0-2.0-0.0","uhk6k9t3v0b5ns8","instructions","5f3fac9aecaa2b027a89663b","5f5a55364e9b770ed21874ff","5f60d83d77cc910572e75c11","false","46892.329999944195","<div align=justify>You will classify the objects using the <strong>'S'</strong> and the <strong>'L'</strong> keys on your keyboard.<br>For doing so, please place your <strong>left index finger</strong> on the <strong>'S'</strong> key and place your <strong>right index finger</strong> on the <strong>'L'</strong> key. <br><br> Each trial starts with an instruction, indicating which key ('S'/'L') you need to press to classify <br>the object as mechanical (letter M) or non-mechanical (letter N).<br>The instruction <strong>M + N</strong> indicates that, in the current trial, by pressing the left key ('S') you classify the displayed object as mechanical (M) <br> and by pressing the right key ('L') you classify the object as non-mechanical (N). <br>The instruction <strong>N + M</strong> on the other hand indicates that by pressing the left key ('S') you classify the displayed object as non-mechanical (N) <br> and by pressing the right key ('L') you classify the object as mechanical (M). <br><br>Please press the key corresponding to the correct classification as fast as possible as soon as the object is displayed and try to avoid making mistakes.<br>If you do not respond within a 2 second window, a corresponding feedback will be displayed and the next trial will start.<br> The experiment is divided into multiple blocks to give you the opportunity to take a break after each block. <br>First, you can now practice this task. <br><br>Please place your <strong>LEFT INDEX FINGER</strong> on the 'S' key and your <strong>RIGHT INDEX FINGER</strong> on the 'L' key now. <br><br>Press SPACE to continue.</div>","32","","","","","","","","","","","","","","","","","","","",""
"html-keyboard-response","9","76021","0.0-2.0-1.0","uhk6k9t3v0b5ns8","instructions","5f3fac9aecaa2b027a89663b","5f5a55364e9b770ed21874ff","5f60d83d77cc910572e75c11","false","54.700000036973506","<div align=left> You will now have time to practice this task.<br><br>Remember: <br> <br><li>Please place your index fingers on the <strong>'S'</strong> and <strong>'L'</strong> keys <br>to respond as fast and accurately as possible.</li><li>Every picture can be classified as either mechanical or non-mechanical.</li><li>If you do not respond in time or commit an error, you will receive a corresponding feedback. </li><li> Please try to respond as <strong> fast </strong> and as <strong> accurately as possible </strong> .<br><li>To ensure optimal results, please minimize distractions and stay focused. </li><br><br>Press SPACE to continue.</div>","32","","","","","","","","","","","","","","","","","","","",""
"html-keyboard-response","10","76728","0.0-2.0-2.0-0.0","uhk6k9t3v0b5ns8","practice_no_cue","5f3fac9aecaa2b027a89663b","5f5a55364e9b770ed21874ff","5f60d83d77cc910572e75c11","false","null","<span style=""color: black; font-size: 48px"">N + M</span>","null","","","","resp_prompt","","","","","","","","","","","","","","","",""
"categorize-image","11","79240","0.0-2.0-2.0-1.0","uhk6k9t3v0b5ns8","practice_no_cue","5f3fac9aecaa2b027a89663b","5f5a55364e9b770ed21874ff","5f60d83d77cc910572e75c11","true","null","./Stimuli/ImagesPractice/LN72.jpg","null","","","","test","false","N + M","83","","LN","LN72.jpg","forget","old","1","1","start","too_slow","","","",""
"html-keyboard-response","12","79942","0.0-2.0-2.0-0.1","uhk6k9t3v0b5ns8","practice_no_cue","5f3fac9aecaa2b027a89663b","5f5a55364e9b770ed21874ff","5f60d83d77cc910572e75c11","false","null","<span style=""color: black; font-size: 48px"">M + N</span>","null","","","","resp_prompt","","","","","","","","","","","","","","","",""
"categorize-image","13","80722","0.0-2.0-2.0-1.1","uhk6k9t3v0b5ns8","practice_no_cue","5f3fac9aecaa2b027a89663b","5f5a55364e9b770ed21874ff","5f60d83d77cc910572e75c11","true","277.70500001497567","./Stimuli/ImagesPractice/SM97.jpg","83","","","","test","true","M + N","83","","SM","SM97.jpg","remember","old","2","1","start","left","","","",""
"html-keyboard-response","14","81426","0.0-2.0-2.0-0.2","uhk6k9t3v0b5ns8","practice_no_cue","5f3fac9aecaa2b027a89663b","5f5a55364e9b770ed21874ff","5f60d83d77cc910572e75c11","false","null","<span style=""color: black; font-size: 48px"">N + M</span>","null","","","","resp_prompt","","","","","","","","","","","","","","","",""
"categorize-image","15","82637","0.0-2.0-2.0-1.2","uhk6k9t3v0b5ns8","practice_no_cue","5f3fac9aecaa2b027a89663b","5f5a55364e9b770ed21874ff","5f60d83d77cc910572e75c11","true","705.8900000411086","./Stimuli/ImagesPractice/LN17.jpg","83","","","","test","true","N + M","83","","LN","LN17.jpg","forget","old","3","1","start","left","","","",""
"html-keyboard-response","16","83341","0.0-2.0-2.0-0.3","uhk6k9t3v0b5ns8","practice_no_cue","5f3fac9aecaa2b027a89663b","5f5a55364e9b770ed21874ff","5f60d83d77cc910572e75c11","false","null","<span style=""color: black; font-size: 48px"">N + M</span>","null","","","","resp_prompt","","","","","","","","","","","","","","","",""
"categorize-image","17","84392","0.0-2.0-2.0-1.3","uhk6k9t3v0b5ns8","practice_no_cue","5f3fac9aecaa2b027a89663b","5f5a55364e9b770ed21874ff","5f60d83d77cc910572e75c11","true","547.7699999464676","./Stimuli/ImagesPractice/LM147.jpg","76","","","","test","true","N + M","76","","LM","LM147.jpg","forget","old","4","1","start","right","","","",""
"html-keyboard-response","18","85096","0.0-2.0-2.0-0.4","uhk6k9t3v0b5ns8","practice_no_cue","5f3fac9aecaa2b027a89663b","5f5a55364e9b770ed21874ff","5f60d83d77cc910572e75c11","false","null","<span style=""color: black; font-size: 48px"">N + M</span>","null","","","","resp_prompt","","","","","","","","","","","","","","","",""
"categorize-image","19","85965","0.0-2.0-2.0-1.4","uhk6k9t3v0b5ns8","practice_no_cue","5f3fac9aecaa2b027a89663b","5f5a55364e9b770ed21874ff","5f60d83d77cc910572e75c11","true","363.67000004975125","./Stimuli/ImagesPractice/SN76.jpg","83","","","","test","true","N + M","83","","SN","SN76.jpg","remember","old","5","1","start","left","","","",""
"html-keyboard-response","20","86669","0.0-2.0-2.0-0.5","uhk6k9t3v0b5ns8","practice_no_cue","5f3fac9aecaa2b027a89663b","5f5a55364e9b770ed21874ff","5f60d83d77cc910572e75c11","false","null","<span style=""color: black; font-size: 48px"">M + N</span>","null","","","","resp_prompt","","","","","","","","","","","","","","","",""
"categorize-image","21","87571","0.0-2.0-2.0-1.5","uhk6k9t3v0b5ns8","practice_no_cue","5f3fac9aecaa2b027a89663b","5f5a55364e9b770ed21874ff","5f60d83d77cc910572e75c11","true","396.91000001039356","./Stimuli/ImagesPractice/LN2.jpg","83","","","","test","false","M + N","76","","LN","LN2.jpg","remember","old","6","1","start","left","","","",""
"html-keyboard-response","22","88274","0.0-2.0-2.0-0.6","uhk6k9t3v0b5ns8","practice_no_cue","5f3fac9aecaa2b027a89663b","5f5a55364e9b770ed21874ff","5f60d83d77cc910572e75c11","false","null","<span style=""color: black; font-size: 48px"">N + M</span>","null","","","","resp_prompt","","","","","","","","","","","","","","","",""
"categorize-image","23","89191","0.0-2.0-2.0-1.6","uhk6k9t3v0b5ns8","practice_no_cue","5f3fac9aecaa2b027a89663b","5f5a55364e9b770ed21874ff","5f60d83d77cc910572e75c11","true","410.64499999629334","./Stimuli/ImagesPractice/SN220.jpg","76","","","","test","false","N + M","83","","SN","SN220.jpg","remember","old","7","1","start","right","","","",""
"html-keyboard-response","24","89896","0.0-2.0-2.0-0.7","uhk6k9t3v0b5ns8","practice_no_cue","5f3fac9aecaa2b027a89663b","5f5a55364e9b770ed21874ff","5f60d83d77cc910572e75c11","false","null","<span style=""color: black; font-size: 48px"">M + N</span>","null","","","","resp_prompt","","","","","","","","","","","","","","","",""
"categorize-image","25","90861","0.0-2.0-2.0-1.7","uhk6k9t3v0b5ns8","practice_no_cue","5f3fac9aecaa2b027a89663b","5f5a55364e9b770ed21874ff","5f60d83d77cc910572e75c11","true","459.2450000345707","./Stimuli/ImagesPractice/LM230.jpg","83","","","","test","true","M + N","83","","LM","LM230.jpg","forget","old","8","1","start","left","","","",""
"html-keyboard-response","26","91569","0.0-2.0-2.0-0.8","uhk6k9t3v0b5ns8","practice_no_cue","5f3fac9aecaa2b027a89663b","5f5a55364e9b770ed21874ff","5f60d83d77cc910572e75c11","false","null","<span style=""color: black; font-size: 48px"">M + N</span>","null","","","","resp_prompt","","","","","","","","","","","","","","","",""
"categorize-image","27","92540","0.0-2.0-2.0-1.8","uhk6k9t3v0b5ns8","practice_no_cue","5f3fac9aecaa2b027a89663b","5f5a55364e9b770ed21874ff","5f60d83d77cc910572e75c11","true","464.71499995095655","./Stimuli/ImagesPractice/SM35.jpg","76","","","","test","false","M + N","83","","SM","SM35.jpg","remember","old","9","1","start","right","","","",""
"html-keyboard-response","28","93247","0.0-2.0-2.0-0.9","uhk6k9t3v0b5ns8","practice_no_cue","5f3fac9aecaa2b027a89663b","5f5a55364e9b770ed21874ff","5f60d83d77cc910572e75c11","false","null","<span style=""color: black; font-size: 48px"">M + N</span>","null","","","","resp_prompt","","","","","","","","","","","","","","","",""
"categorize-image","29","94131","0.0-2.0-2.0-1.9","uhk6k9t3v0b5ns8","practice_no_cue","5f3fac9aecaa2b027a89663b","5f5a55364e9b770ed21874ff","5f60d83d77cc910572e75c11","true","377.6850000140257","./Stimuli/ImagesPractice/LM143.jpg","83","","","","test","true","M + N","83","","LM","LM143.jpg","forget","old","10","1","start","left","","","",""
"html-keyboard-response","30","94835","0.0-2.0-2.0-0.10","uhk6k9t3v0b5ns8","practice_no_cue","5f3fac9aecaa2b027a89663b","5f5a55364e9b770ed21874ff","5f60d83d77cc910572e75c11","false","null","<span style=""color: black; font-size: 48px"">M + N</span>","null","","","","resp_prompt","","","","","","","","","","","","","","","",""
"categorize-image","31","95811","0.0-2.0-2.0-1.10","uhk6k9t3v0b5ns8","practice_no_cue","5f3fac9aecaa2b027a89663b","5f5a55364e9b770ed21874ff","5f60d83d77cc910572e75c11","true","469.6600000024773","./Stimuli/ImagesPractice/SN205.jpg","83","","","","test","false","M + N","76","","SN","SN205.jpg","remember","old","11","1","start","left","","","",""
"html-keyboard-response","32","96514","0.0-2.0-2.0-0.11","uhk6k9t3v0b5ns8","practice_no_cue","5f3fac9aecaa2b027a89663b","5f5a55364e9b770ed21874ff","5f60d83d77cc910572e75c11","false","null","<span style=""color: black; font-size: 48px"">N + M</span>","null","","","","resp_prompt","","","","","","","","","","","","","","","",""
"categorize-image","33","97709","0.0-2.0-2.0-1.11","uhk6k9t3v0b5ns8","practice_no_cue","5f3fac9aecaa2b027a89663b","5f5a55364e9b770ed21874ff","5f60d83d77cc910572e75c11","true","689.5999999833293","./Stimuli/ImagesPractice/LN15.jpg","76","","","","test","false","N + M","83","","LN","LN15.jpg","remember","old","12","1","start","right","","","",""
"html-keyboard-response","34","98413","0.0-2.0-2.0-0.12","uhk6k9t3v0b5ns8","practice_no_cue","5f3fac9aecaa2b027a89663b","5f5a55364e9b770ed21874ff","5f60d83d77cc910572e75c11","false","null","<span style=""color: black; font-size: 48px"">M + N</span>","null","","","","resp_prompt","","","","","","","","","","","","","","","",""
"categorize-image","35","99149","0.0-2.0-2.0-1.12","uhk6k9t3v0b5ns8","practice_no_cue","5f3fac9aecaa2b027a89663b","5f5a55364e9b770ed21874ff","5f60d83d77cc910572e75c11","true","233.07000001659617","./Stimuli/ImagesPractice/LN109.jpg","76","","","","test","true","M + N","76","","LN","LN109.jpg","forget","old","13","1","start","right","","","",""
"html-keyboard-response","36","99853","0.0-2.0-2.0-0.13","uhk6k9t3v0b5ns8","practice_no_cue","5f3fac9aecaa2b027a89663b","5f5a55364e9b770ed21874ff","5f60d83d77cc910572e75c11","false","null","<span style=""color: black; font-size: 48px"">M + N</span>","null","","","","resp_prompt","","","","","","","","","","","","","","","",""
"categorize-image","37","100703","0.0-2.0-2.0-1.13","uhk6k9t3v0b5ns8","practice_no_cue","5f3fac9aecaa2b027a89663b","5f5a55364e9b770ed21874ff","5f60d83d77cc910572e75c11","true","345.0199999497272","./Stimuli/ImagesPractice/SM61.jpg","76","","","","test","false","M + N","83","","SM","SM61.jpg","forget","old","14","1","start","right","","","",""
"html-keyboard-response","38","101405","0.0-2.0-2.0-0.14","uhk6k9t3v0b5ns8","practice_no_cue","5f3fac9aecaa2b027a89663b","5f5a55364e9b770ed21874ff","5f60d83d77cc910572e75c11","false","null","<span style=""color: black; font-size: 48px"">N + M</span>","null","","","","resp_prompt","","","","","","","","","","","","","","","",""
"categorize-image","39","101926","0.0-2.0-2.0-1.14","uhk6k9t3v0b5ns8","practice_no_cue","5f3fac9aecaa2b027a89663b","5f5a55364e9b770ed21874ff","5f60d83d77cc910572e75c11","true","15.149999991990626","./Stimuli/ImagesPractice/SN221.jpg","83","","","","test","true","N + M","83","","SN","SN221.jpg","forget","old","15","1","start","left","","","",""
"html-keyboard-response","40","102632","0.0-2.0-2.0-0.15","uhk6k9t3v0b5ns8","practice_no_cue","5f3fac9aecaa2b027a89663b","5f5a55364e9b770ed21874ff","5f60d83d77cc910572e75c11","false","null","<span style=""color: black; font-size: 48px"">N + M</span>","null","","","","resp_prompt","","","","","","","","","","","","","","","",""
"categorize-image","41","103839","0.0-2.0-2.0-1.15","uhk6k9t3v0b5ns8","practice_no_cue","5f3fac9aecaa2b027a89663b","5f5a55364e9b770ed21874ff","5f60d83d77cc910572e75c11","true","703.4099999582395","./Stimuli/ImagesPractice/SN75.jpg","76","","","","test","false","N + M","83","","SN","SN75.jpg","remember","old","16","1","start","right","","","",""
"html-keyboard-response","42","109126","0.0-2.0-3.0","uhk6k9t3v0b5ns8","break","5f3fac9aecaa2b027a89663b","5f5a55364e9b770ed21874ff","5f60d83d77cc910572e75c11","false","5283.77499995986","<p style='font-size: 32px;'>Break</><br><br><br><br><br><p style='font-size: 24px;'>In the last block, you committed 7 errors and did not respond in time on 1 trials.
</p><p style='font-size: 24px;'>Try to respond as fast and accurately as possible in the next block as well! </p><p style='font-size: 24px;'>Press SPACE to continue.</p>","32","","","","","","","","","","","","","","","","","","","",""
"html-keyboard-response","43","111937","0.0-2.0-4.0","uhk6k9t3v0b5ns8","instructions","5f3fac9aecaa2b027a89663b","5f5a55364e9b770ed21874ff","5f60d83d77cc910572e75c11","false","2809.3949999893084","<div align=left> Great!<br><br>Are you ready to continue?<br><br>If you want to reread the instructions and redo the practice trials, <br>please press „Z“. <br><br>Press SPACE to CONTINUE with the experiment when you are ready. </div>","32","","","","","","","","","","","","","","","","","","","",""
"html-keyboard-response","44","122577","0.0-3.0-0.0","uhk6k9t3v0b5ns8","instructions","5f3fac9aecaa2b027a89663b","5f5a55364e9b770ed21874ff","5f60d83d77cc910572e75c11","false","10637.604999996256","<div align=left>Great!<br> <strong>Attention</strong>! You will now receive a second, additional task! <br><br>To this point it was you <strong>first task</strong> to correctly <strong>classify objects</strong>. <br><br>As mentioned in the beginning, we aim to examine how well humans can remember previously learned information.<br>We would like to find out whether our memory improves if we only remember information that is relevant to us. <br><br>Therefore, your <strong>second task</strong> will be to <strong>remember</strong> the pictures you are to categorize. <br> After the learning phase, there will be a memory test phase, in which you will be asked to indicate whether you have seen a picture before or not. <br>Some, but not all pictures shown in the learning phase will appear in the memory test phase.<br>After classifying a picture, you will be told whether you should remember it for the memory test phase or not. <br>Thus, some pictures can be forgotten, whereas others have to be remembered. <br><br>Note: From now on, feedback will only be displayed if you responded incorrectly or not in time.<br><br>Press SPACE to continue.</div>","32","","","","","","","","","","","","","","","","","","","",""
"html-keyboard-response","45","122694","0.0-3.0-1.0","uhk6k9t3v0b5ns8","instructions","5f3fac9aecaa2b027a89663b","5f5a55364e9b770ed21874ff","5f60d83d77cc910572e75c11","false","115.85500004002824","<div align=left>In the following part, you will thus have to remember only some pictures. <br>Immediately after seeing and classifying the picture, a symbol will be displayed, indicating whether you should remember or forget the previous picture. <br><br>A <span style='color: dodgerblue; font-size: 28px'>O</span> indicates REMEMBER. That means, you have to remember this picture, because it will be tested later. <br><br>A <span style='color: darkorange; font-size:28px'>Ø</span> indicates FORGET. You do not have to remember this picture. <br><br> As you will have to remember a lot of pictures, it will be hard for you to remember all of them. <br>It will put you at an advantage if you instantly forget the pictures you are not asked to remember. <br> This will make it easier for you to remember the pictures that will be tested afterwards. <br><br>Press SPACE to continue.</div>","32","","","","","","","","","","","","","","","","","","","",""
"html-keyboard-response","46","135558","0.0-3.0-2.0","uhk6k9t3v0b5ns8","instructions","5f3fac9aecaa2b027a89663b","5f5a55364e9b770ed21874ff","5f60d83d77cc910572e75c11","false","12862.590000033379","<div align=left> Now you have the chance to practice both tasks together.<br><br>Remember: <br> <br><li>Please place your index fingers on the <strong>'S'</strong> and <strong>'L'</strong> keys <br>to respond as fast and accurately as possible.</li><li>Every picture can be classified as either mechanical or non-mechanical.</li><li>If you do not respond in time or commit an error, you will receive a corresponding feedback. <br>Please try to respond as <strong> fast </strong> and as <strong> accurately as possible </strong>.</li><li> Please remember only the to-be-remembered <span style='color: dodgerblue; font-size: 28px'>O</span> pictures. <br></li><li> Please minimize distractions and stay focused. </li><br><br>Press SPACE to START</div>","32","","","","","","","","","","","","","","","","","","","",""
"html-keyboard-response","47","136264","0.0-3.0-3.0-0.0","uhk6k9t3v0b5ns8","practice_cue","5f3fac9aecaa2b027a89663b","5f5a55364e9b770ed21874ff","5f60d83d77cc910572e75c11","false","null","<span style=""color: black; font-size: 48px"">N + M</span>","null","","","","resp_prompt","","","","","","","","","","","","","","","",""
"categorize-image","48","137072","0.0-3.0-3.0-1.0","uhk6k9t3v0b5ns8","practice_cue","5f3fac9aecaa2b027a89663b","5f5a55364e9b770ed21874ff","5f60d83d77cc910572e75c11","true","802.3650000104681","./Stimuli/ImagesPractice/LN15.jpg","76","","","","test","false","N + M","83","","LN","LN15.jpg","remember","old","17","2","practice_forget","right","","","",""
"html-keyboard-response","49","137573","0.0-3.0-3.0-2.0-0.0","uhk6k9t3v0b5ns8","practice_cue","5f3fac9aecaa2b027a89663b","5f5a55364e9b770ed21874ff","5f60d83d77cc910572e75c11","false","null","<span style=""color: red; font-size: 48px"">Error!</span>","null","","","","feedback","","","","","","","","","","","","","","","",""
"html-keyboard-response","50","139577","0.0-3.0-3.0-3.0","uhk6k9t3v0b5ns8","practice_cue","5f3fac9aecaa2b027a89663b","5f5a55364e9b770ed21874ff","5f60d83d77cc910572e75c11","false","null","<div style=""align-items: center; display: flex; color: dodgerblue; font-size: 90px""><b>o</b></div>","null","","","","forget_cue","","","","","","","","","","","","","","","",""
"html-keyboard-response","51","140281","0.0-3.0-3.0-0.1","uhk6k9t3v0b5ns8","practice_cue","5f3fac9aecaa2b027a89663b","5f5a55364e9b770ed21874ff","5f60d83d77cc910572e75c11","false","null","<span style=""color: black; font-size: 48px"">M + N</span>","null","","","","resp_prompt","","","","","","","","","","","","","","","",""
"categorize-image","52","141055","0.0-3.0-3.0-1.1","uhk6k9t3v0b5ns8","practice_cue","5f3fac9aecaa2b027a89663b","5f5a55364e9b770ed21874ff","5f60d83d77cc910572e75c11","true","769.4250000058673","./Stimuli/ImagesPractice/SN205.jpg","83","","","","test","false","M + N","76","","SN","SN205.jpg","remember","old","18","2","practice_forget","left","","","",""
"html-keyboard-response","53","141556","0.0-3.0-3.0-2.1-0.1","uhk6k9t3v0b5ns8","practice_cue","5f3fac9aecaa2b027a89663b","5f5a55364e9b770ed21874ff","5f60d83d77cc910572e75c11","false","null","<span style=""color: red; font-size: 48px"">Error!</span>","null","","","","feedback","","","","","","","","","","","","","","","",""
"html-keyboard-response","54","143561","0.0-3.0-3.0-3.1","uhk6k9t3v0b5ns8","practice_cue","5f3fac9aecaa2b027a89663b","5f5a55364e9b770ed21874ff","5f60d83d77cc910572e75c11","false","null","<div style=""align-items: center; display: flex; color: dodgerblue; font-size: 90px""><b>o</b></div>","null","","","","forget_cue","","","","","","","","","","","","","","","",""
"html-keyboard-response","55","144267","0.0-3.0-3.0-0.2","uhk6k9t3v0b5ns8","practice_cue","5f3fac9aecaa2b027a89663b","5f5a55364e9b770ed21874ff","5f60d83d77cc910572e75c11","false","null","<span style=""color: black; font-size: 48px"">M + N</span>","null","","","","resp_prompt","","","","","","","","","","","","","","","",""
"categorize-image","56","145073","0.0-3.0-3.0-1.2","uhk6k9t3v0b5ns8","practice_cue","5f3fac9aecaa2b027a89663b","5f5a55364e9b770ed21874ff","5f60d83d77cc910572e75c11","true","801.4550000079907","./Stimuli/ImagesPractice/SM97.jpg","83","","","","test","true","M + N","83","","SM","SM97.jpg","remember","old","19","2","practice_forget","left","","","",""
"html-keyboard-response","57","147076","0.0-3.0-3.0-3.2","uhk6k9t3v0b5ns8","practice_cue","5f3fac9aecaa2b027a89663b","5f5a55364e9b770ed21874ff","5f60d83d77cc910572e75c11","false","null","<div style=""align-items: center; display: flex; color: dodgerblue; font-size: 90px""><b>o</b></div>","null","","","","forget_cue","","","","","","","","","","","","","","","",""
"html-keyboard-response","58","147780","0.0-3.0-3.0-0.3","uhk6k9t3v0b5ns8","practice_cue","5f3fac9aecaa2b027a89663b","5f5a55364e9b770ed21874ff","5f60d83d77cc910572e75c11","false","null","<span style=""color: black; font-size: 48px"">M + N</span>","null","","","","resp_prompt","","","","","","","","","","","","","","","",""
"categorize-image","59","148586","0.0-3.0-3.0-1.3","uhk6k9t3v0b5ns8","practice_cue","5f3fac9aecaa2b027a89663b","5f5a55364e9b770ed21874ff","5f60d83d77cc910572e75c11","true","801.0300000314601","./Stimuli/ImagesPractice/LM230.jpg","83","","","","test","true","M + N","83","","LM","LM230.jpg","forget","old","20","2","practice_forget","left","","","",""
"html-keyboard-response","60","150588","0.0-3.0-3.0-3.3","uhk6k9t3v0b5ns8","practice_cue","5f3fac9aecaa2b027a89663b","5f5a55364e9b770ed21874ff","5f60d83d77cc910572e75c11","false","null","<div style=""align-items: center; display: flex; color: darkorange; font-size: 90px""><b>ø</b></div>","null","","","","forget_cue","","","","","","","","","","","","","","","",""
"html-keyboard-response","61","151300","0.0-3.0-3.0-0.4","uhk6k9t3v0b5ns8","practice_cue","5f3fac9aecaa2b027a89663b","5f5a55364e9b770ed21874ff","5f60d83d77cc910572e75c11","false","null","<span style=""color: black; font-size: 48px"">N + M</span>","null","","","","resp_prompt","","","","","","","","","","","","","","","",""
"categorize-image","62","151724","0.0-3.0-3.0-1.4","uhk6k9t3v0b5ns8","practice_cue","5f3fac9aecaa2b027a89663b","5f5a55364e9b770ed21874ff","5f60d83d77cc910572e75c11","true","418.73999999370426","./Stimuli/ImagesPractice/LM147.jpg","76","","","","test","true","N + M","76","","LM","LM147.jpg","forget","old","21","2","practice_forget","right","","","",""
"html-keyboard-response","63","153727","0.0-3.0-3.0-3.4","uhk6k9t3v0b5ns8","practice_cue","5f3fac9aecaa2b027a89663b","5f5a55364e9b770ed21874ff","5f60d83d77cc910572e75c11","false","null","<div style=""align-items: center; display: flex; color: darkorange; font-size: 90px""><b>ø</b></div>","null","","","","forget_cue","","","","","","","","","","","","","","","",""
"html-keyboard-response","64","154431","0.0-3.0-3.0-0.5","uhk6k9t3v0b5ns8","practice_cue","5f3fac9aecaa2b027a89663b","5f5a55364e9b770ed21874ff","5f60d83d77cc910572e75c11","false","null","<span style=""color: black; font-size: 48px"">N + M</span>","null","","","","resp_prompt","","","","","","","","","","","","","","","",""
"categorize-image","65","154871","0.0-3.0-3.0-1.5","uhk6k9t3v0b5ns8","practice_cue","5f3fac9aecaa2b027a89663b","5f5a55364e9b770ed21874ff","5f60d83d77cc910572e75c11","true","435.2550000185147","./Stimuli/ImagesPractice/SN76.jpg","76","","","","test","false","N + M","83","","SN","SN76.jpg","remember","old","22","2","practice_forget","right","","","",""
"html-keyboard-response","66","155372","0.0-3.0-3.0-2.5-0.5","uhk6k9t3v0b5ns8","practice_cue","5f3fac9aecaa2b027a89663b","5f5a55364e9b770ed21874ff","5f60d83d77cc910572e75c11","false","null","<span style=""color: red; font-size: 48px"">Error!</span>","null","","","","feedback","","","","","","","","","","","","","","","",""
"html-keyboard-response","67","157377","0.0-3.0-3.0-3.5","uhk6k9t3v0b5ns8","practice_cue","5f3fac9aecaa2b027a89663b","5f5a55364e9b770ed21874ff","5f60d83d77cc910572e75c11","false","null","<div style=""align-items: center; display: flex; color: dodgerblue; font-size: 90px""><b>o</b></div>","null","","","","forget_cue","","","","","","","","","","","","","","","",""
"html-keyboard-response","68","158081","0.0-3.0-3.0-0.6","uhk6k9t3v0b5ns8","practice_cue","5f3fac9aecaa2b027a89663b","5f5a55364e9b770ed21874ff","5f60d83d77cc910572e75c11","false","null","<span style=""color: black; font-size: 48px"">N + M</span>","null","","","","resp_prompt","","","","","","","","","","","","","","","",""
"categorize-image","69","158886","0.0-3.0-3.0-1.6","uhk6k9t3v0b5ns8","practice_cue","5f3fac9aecaa2b027a89663b","5f5a55364e9b770ed21874ff","5f60d83d77cc910572e75c11","true","800.069999997504","./Stimuli/ImagesPractice/SN75.jpg","83","","","","test","true","N + M","83","","SN","SN75.jpg","remember","old","23","2","practice_forget","left","","","",""
"html-keyboard-response","70","160890","0.0-3.0-3.0-3.6","uhk6k9t3v0b5ns8","practice_cue","5f3fac9aecaa2b027a89663b","5f5a55364e9b770ed21874ff","5f60d83d77cc910572e75c11","false","null","<div style=""align-items: center; display: flex; color: dodgerblue; font-size: 90px""><b>o</b></div>","null","","","","forget_cue","","","","","","","","","","","","","","","",""
"html-keyboard-response","71","161592","0.0-3.0-3.0-0.7","uhk6k9t3v0b5ns8","practice_cue","5f3fac9aecaa2b027a89663b","5f5a55364e9b770ed21874ff","5f60d83d77cc910572e75c11","false","null","<span style=""color: black; font-size: 48px"">M + N</span>","null","","","","resp_prompt","","","","","","","","","","","","","","","",""
"categorize-image","72","162129","0.0-3.0-3.0-1.7","uhk6k9t3v0b5ns8","practice_cue","5f3fac9aecaa2b027a89663b","5f5a55364e9b770ed21874ff","5f60d83d77cc910572e75c11","true","532.1400000248104","./Stimuli/ImagesPractice/SM61.jpg","76","","","","test","false","M + N","83","","SM","SM61.jpg","forget","old","24","2","practice_forget","right","","","",""
"html-keyboard-response","73","162630","0.0-3.0-3.0-2.7-0.7","uhk6k9t3v0b5ns8","practice_cue","5f3fac9aecaa2b027a89663b","5f5a55364e9b770ed21874ff","5f60d83d77cc910572e75c11","false","null","<span style=""color: red; font-size: 48px"">Error!</span>","null","","","","feedback","","","","","","","","","","","","","","","",""
"html-keyboard-response","74","164634","0.0-3.0-3.0-3.7","uhk6k9t3v0b5ns8","practice_cue","5f3fac9aecaa2b027a89663b","5f5a55364e9b770ed21874ff","5f60d83d77cc910572e75c11","false","null","<div style=""align-items: center; display: flex; color: darkorange; font-size: 90px""><b>ø</b></div>","null","","","","forget_cue","","","","","","","","","","","","","","","",""
"html-keyboard-response","75","165338","0.0-3.0-3.0-0.8","uhk6k9t3v0b5ns8","practice_cue","5f3fac9aecaa2b027a89663b","5f5a55364e9b770ed21874ff","5f60d83d77cc910572e75c11","false","null","<span style=""color: black; font-size: 48px"">M + N</span>","null","","","","resp_prompt","","","","","","","","","","","","","","","",""
"categorize-image","76","165973","0.0-3.0-3.0-1.8","uhk6k9t3v0b5ns8","practice_cue","5f3fac9aecaa2b027a89663b","5f5a55364e9b770ed21874ff","5f60d83d77cc910572e75c11","true","630.509999988135","./Stimuli/ImagesPractice/LN2.jpg","83","","","","test","false","M + N","76","","LN","LN2.jpg","remember","old","25","2","practice_forget","left","","","",""
"html-keyboard-response","77","166474","0.0-3.0-3.0-2.8-0.8","uhk6k9t3v0b5ns8","practice_cue","5f3fac9aecaa2b027a89663b","5f5a55364e9b770ed21874ff","5f60d83d77cc910572e75c11","false","null","<span style=""color: red; font-size: 48px"">Error!</span>","null","","","","feedback","","","","","","","","","","","","","","","",""
"html-keyboard-response","78","168483","0.0-3.0-3.0-3.8","uhk6k9t3v0b5ns8","practice_cue","5f3fac9aecaa2b027a89663b","5f5a55364e9b770ed21874ff","5f60d83d77cc910572e75c11","false","null","<div style=""align-items: center; display: flex; color: dodgerblue; font-size: 90px""><b>o</b></div>","null","","","","forget_cue","","","","","","","","","","","","","","","",""
"html-keyboard-response","79","169189","0.0-3.0-3.0-0.9","uhk6k9t3v0b5ns8","practice_cue","5f3fac9aecaa2b027a89663b","5f5a55364e9b770ed21874ff","5f60d83d77cc910572e75c11","false","null","<span style=""color: black; font-size: 48px"">N + M</span>","null","","","","resp_prompt","","","","","","","","","","","","","","","",""
"categorize-image","80","169987","0.0-3.0-3.0-1.9","uhk6k9t3v0b5ns8","practice_cue","5f3fac9aecaa2b027a89663b","5f5a55364e9b770ed21874ff","5f60d83d77cc910572e75c11","true","794.1550000105053","./Stimuli/ImagesPractice/LN72.jpg","83","","","","test","true","N + M","83","","LN","LN72.jpg","forget","old","26","2","practice_forget","left","","","",""
"html-keyboard-response","81","171989","0.0-3.0-3.0-3.9","uhk6k9t3v0b5ns8","practice_cue","5f3fac9aecaa2b027a89663b","5f5a55364e9b770ed21874ff","5f60d83d77cc910572e75c11","false","null","<div style=""align-items: center; display: flex; color: darkorange; font-size: 90px""><b>ø</b></div>","null","","","","forget_cue","","","","","","","","","","","","","","","",""
"html-keyboard-response","82","172693","0.0-3.0-3.0-0.10","uhk6k9t3v0b5ns8","practice_cue","5f3fac9aecaa2b027a89663b","5f5a55364e9b770ed21874ff","5f60d83d77cc910572e75c11","false","null","<span style=""color: black; font-size: 48px"">M + N</span>","null","","","","resp_prompt","","","","","","","","","","","","","","","",""
"categorize-image","83","173199","0.0-3.0-3.0-1.10","uhk6k9t3v0b5ns8","practice_cue","5f3fac9aecaa2b027a89663b","5f5a55364e9b770ed21874ff","5f60d83d77cc910572e75c11","true","501.82999996468425","./Stimuli/ImagesPractice/LN109.jpg","76","","","","test","true","M + N","76","","LN","LN109.jpg","forget","old","27","2","practice_forget","right","","","",""
"html-keyboard-response","84","175201","0.0-3.0-3.0-3.10","uhk6k9t3v0b5ns8","practice_cue","5f3fac9aecaa2b027a89663b","5f5a55364e9b770ed21874ff","5f60d83d77cc910572e75c11","false","null","<div style=""align-items: center; display: flex; color: darkorange; font-size: 90px""><b>ø</b></div>","null","","","","forget_cue","","","","","","","","","","","","","","","",""
"html-keyboard-response","85","175904","0.0-3.0-3.0-0.11","uhk6k9t3v0b5ns8","practice_cue","5f3fac9aecaa2b027a89663b","5f5a55364e9b770ed21874ff","5f60d83d77cc910572e75c11","false","null","<span style=""color: black; font-size: 48px"">N + M</span>","null","","","","resp_prompt","","","","","","","","","","","","","","","",""
"categorize-image","86","176276","0.0-3.0-3.0-1.11","uhk6k9t3v0b5ns8","practice_cue","5f3fac9aecaa2b027a89663b","5f5a55364e9b770ed21874ff","5f60d83d77cc910572e75c11","true","368.06999996770173","./Stimuli/ImagesPractice/LN17.jpg","76","","","","test","false","N + M","83","","LN","LN17.jpg","forget","old","28","2","practice_forget","right","","","",""
"html-keyboard-response","87","176778","0.0-3.0-3.0-2.11-0.11","uhk6k9t3v0b5ns8","practice_cue","5f3fac9aecaa2b027a89663b","5f5a55364e9b770ed21874ff","5f60d83d77cc910572e75c11","false","null","<span style=""color: red; font-size: 48px"">Error!</span>","null","","","","feedback","","","","","","","","","","","","","","","",""
"html-keyboard-response","88","178784","0.0-3.0-3.0-3.11","uhk6k9t3v0b5ns8","practice_cue","5f3fac9aecaa2b027a89663b","5f5a55364e9b770ed21874ff","5f60d83d77cc910572e75c11","false","null","<div style=""align-items: center; display: flex; color: darkorange; font-size: 90px""><b>ø</b></div>","null","","","","forget_cue","","","","","","","","","","","","","","","",""
"html-keyboard-response","89","179488","0.0-3.0-3.0-0.12","uhk6k9t3v0b5ns8","practice_cue","5f3fac9aecaa2b027a89663b","5f5a55364e9b770ed21874ff","5f60d83d77cc910572e75c11","false","null","<span style=""color: black; font-size: 48px"">N + M</span>","null","","","","resp_prompt","","","","","","","","","","","","","","","",""
"categorize-image","90","179899","0.0-3.0-3.0-1.12","uhk6k9t3v0b5ns8","practice_cue","5f3fac9aecaa2b027a89663b","5f5a55364e9b770ed21874ff","5f60d83d77cc910572e75c11","true","407.1649999823421","./Stimuli/ImagesPractice/SN221.jpg","83","","","","test","true","N + M","83","","SN","SN221.jpg","forget","old","29","2","practice_forget","left","","","",""
"html-keyboard-response","91","181904","0.0-3.0-3.0-3.12","uhk6k9t3v0b5ns8","practice_cue","5f3fac9aecaa2b027a89663b","5f5a55364e9b770ed21874ff","5f60d83d77cc910572e75c11","false","null","<div style=""align-items: center; display: flex; color: darkorange; font-size: 90px""><b>ø</b></div>","null","","","","forget_cue","","","","","","","","","","","","","","","",""
"html-keyboard-response","92","182607","0.0-3.0-3.0-0.13","uhk6k9t3v0b5ns8","practice_cue","5f3fac9aecaa2b027a89663b","5f5a55364e9b770ed21874ff","5f60d83d77cc910572e75c11","false","null","<span style=""color: black; font-size: 48px"">M + N</span>","null","","","","resp_prompt","","","","","","","","","","","","","","","",""
"categorize-image","93","183667","0.0-3.0-3.0-1.13","uhk6k9t3v0b5ns8","practice_cue","5f3fac9aecaa2b027a89663b","5f5a55364e9b770ed21874ff","5f60d83d77cc910572e75c11","true","1055.9750000247732","./Stimuli/ImagesPractice/SM35.jpg","76","","","","test","false","M + N","83","","SM","SM35.jpg","remember","old","30","2","practice_forget","right","","","",""
"html-keyboard-response","94","184169","0.0-3.0-3.0-2.13-0.13","uhk6k9t3v0b5ns8","practice_cue","5f3fac9aecaa2b027a89663b","5f5a55364e9b770ed21874ff","5f60d83d77cc910572e75c11","false","null","<span style=""color: red; font-size: 48px"">Error!</span>","null","","","","feedback","","","","","","","","","","","","","","","",""
"html-keyboard-response","95","186171","0.0-3.0-3.0-3.13","uhk6k9t3v0b5ns8","practice_cue","5f3fac9aecaa2b027a89663b","5f5a55364e9b770ed21874ff","5f60d83d77cc910572e75c11","false","null","<div style=""align-items: center; display: flex; color: dodgerblue; font-size: 90px""><b>o</b></div>","null","","","","forget_cue","","","","","","","","","","","","","","","",""
"html-keyboard-response","96","186875","0.0-3.0-3.0-0.14","uhk6k9t3v0b5ns8","practice_cue","5f3fac9aecaa2b027a89663b","5f5a55364e9b770ed21874ff","5f60d83d77cc910572e75c11","false","null","<span style=""color: black; font-size: 48px"">M + N</span>","null","","","","resp_prompt","","","","","","","","","","","","","","","",""
"categorize-image","97","187268","0.0-3.0-3.0-1.14","uhk6k9t3v0b5ns8","practice_cue","5f3fac9aecaa2b027a89663b","5f5a55364e9b770ed21874ff","5f60d83d77cc910572e75c11","true","388.42999999178573","./Stimuli/ImagesPractice/LM143.jpg","76","","","","test","false","M + N","83","","LM","LM143.jpg","forget","old","31","2","practice_forget","right","","","",""
"html-keyboard-response","98","187770","0.0-3.0-3.0-2.14-0.14","uhk6k9t3v0b5ns8","practice_cue","5f3fac9aecaa2b027a89663b","5f5a55364e9b770ed21874ff","5f60d83d77cc910572e75c11","false","null","<span style=""color: red; font-size: 48px"">Error!</span>","null","","","","feedback","","","","","","","","","","","","","","","",""
"html-keyboard-response","99","189776","0.0-3.0-3.0-3.14","uhk6k9t3v0b5ns8","practice_cue","5f3fac9aecaa2b027a89663b","5f5a55364e9b770ed21874ff","5f60d83d77cc910572e75c11","false","null","<div style=""align-items: center; display: flex; color: darkorange; font-size: 90px""><b>ø</b></div>","null","","","","forget_cue","","","","","","","","","","","","","","","",""
"html-keyboard-response","100","190483","0.0-3.0-3.0-0.15","uhk6k9t3v0b5ns8","practice_cue","5f3fac9aecaa2b027a89663b","5f5a55364e9b770ed21874ff","5f60d83d77cc910572e75c11","false","null","<span style=""color: black; font-size: 48px"">N + M</span>","null","","","","resp_prompt","","","","","","","","","","","","","","","",""
"categorize-image","101","190825","0.0-3.0-3.0-1.15","uhk6k9t3v0b5ns8","practice_cue","5f3fac9aecaa2b027a89663b","5f5a55364e9b770ed21874ff","5f60d83d77cc910572e75c11","true","336.4599999622442","./Stimuli/ImagesPractice/SN220.jpg","76","","","","test","false","N + M","83","","SN","SN220.jpg","remember","old","32","2","practice_forget","right","","","",""
"html-keyboard-response","102","191327","0.0-3.0-3.0-2.15-0.15","uhk6k9t3v0b5ns8","practice_cue","5f3fac9aecaa2b027a89663b","5f5a55364e9b770ed21874ff","5f60d83d77cc910572e75c11","false","null","<span style=""color: red; font-size: 48px"">Error!</span>","null","","","","feedback","","","","","","","","","","","","","","","",""
"html-keyboard-response","103","193331","0.0-3.0-3.0-3.15","uhk6k9t3v0b5ns8","practice_cue","5f3fac9aecaa2b027a89663b","5f5a55364e9b770ed21874ff","5f60d83d77cc910572e75c11","false","null","<div style=""align-items: center; display: flex; color: dodgerblue; font-size: 90px""><b>o</b></div>","null","","","","forget_cue","","","","","","","","","","","","","","","",""
"html-keyboard-response","104","195807","0.0-3.0-4.0","uhk6k9t3v0b5ns8","break","5f3fac9aecaa2b027a89663b","5f5a55364e9b770ed21874ff","5f60d83d77cc910572e75c11","false","2473.894999944605","<p style='font-size: 32px;'>Break</><br><br><br><br><br><p style='font-size: 24px;'>In the last block, you committed 9 errors and did not respond in time on 0 trials.
</p><p style='font-size: 24px;'>Try to respond as fast and accurately as possible in the next block as well! </p><p style='font-size: 24px;'>Press SPACE to continue.</p>","32","","","","","","","","","","","","","","","","","","","",""
"html-keyboard-response","105","197559","0.0-3.0-5.0","uhk6k9t3v0b5ns8","instructions","5f3fac9aecaa2b027a89663b","5f5a55364e9b770ed21874ff","5f60d83d77cc910572e75c11","false","1750.6849999772385","<div align=left> Now, to practice, we kindly ask you to remember as many of the to-be-remembered pictures<br>of the previous learning phase as possible.<br><br>The pictures you were instructed to remember were the pictures followed by a <span style='color: dodgerblue; font-size: 28px'>O</span>.<br><br>In this memory test phase, you will also see some new pictures.<br>It is your task to remember whether you were presented with this specific picture in this study so far or not.<br>If you recognize an object (you have already seen it in this study), it is an OLD object. <br>If you do not recognize an object (you have NOT seen it in this study), it is a NEW object. <br><strong> Attention</strong>: As already mentioned, <span style='color: darkorange; font-size:28px'>Ø</span>-pictures will <strong>never</strong> appear in this memory test (neither as new objects). <br><br>Press SPACE to continue. </div>","32","","","","","","","","","","","","","","","","","","","",""
"html-keyboard-response","106","198008","0.0-3.0-6.0","uhk6k9t3v0b5ns8","instructions","5f3fac9aecaa2b027a89663b","5f5a55364e9b770ed21874ff","5f60d83d77cc910572e75c11","false","447.76000001002103","<div align=left> M and N no longer will appear on the left/right of the fixation cross. <br>Instead there will be a note at the bottom of the left or right side  <br>indicating which key you should press for an old or new object:  <br> <br>Press the <strong>right</strong> key to classify an object as <strong>old</strong> and press the <strong>left</strong>, to classify an object as <strong>new</strong>.<br>Please classify the objects as new/old by again placing your index finger on the 'S' and 'L' keys <br>and press them accordingly.<br><br><strong>Old:</strong> This object has been presented before. <br><strong>New:</strong> This object has <strong>not</strong> been presented.<br><br>Now please put your right and left index fingers on the 'S' and 'L' keys of your keyboard. <br>Please respond as fast and as accurately as possible!<br><br>Press SPACE to continue. </div>","32","","","","","","","","","","","","","","","","","","","",""
"categorize-image","107","203531","0.0-3.0-7.0-0.0","uhk6k9t3v0b5ns8","practice_recog","5f3fac9aecaa2b027a89663b","5f5a55364e9b770ed21874ff","5f60d83d77cc910572e75c11","true","5014.895000029355","./Stimuli/ImagesPractice/SN222.jpg","83","","","","test","true","","83","","SN","SN222.jpg","","new","33","3","practice_recog","left","","","",""
"categorize-image","108","204929","0.0-3.0-7.0-0.1","uhk6k9t3v0b5ns8","practice_recog","5f3fac9aecaa2b027a89663b","5f5a55364e9b770ed21874ff","5f60d83d77cc910572e75c11","true","893.8399999751709","./Stimuli/ImagesPractice/SN205.jpg","83","","","","test","false","","76","","SN","SN205.jpg","","old","34","3","practice_recog","left","","","",""
"categorize-image","109","206978","0.0-3.0-7.0-0.2","uhk6k9t3v0b5ns8","practice_recog","5f3fac9aecaa2b027a89663b","5f5a55364e9b770ed21874ff","5f60d83d77cc910572e75c11","true","1544.2549999570474","./Stimuli/ImagesPractice/LN4.jpg","83","","","","test","true","","83","","LN","LN4.jpg","","new","35","3","practice_recog","left","","","",""
"categorize-image","110","208826","0.0-3.0-7.0-0.3","uhk6k9t3v0b5ns8","practice_recog","5f3fac9aecaa2b027a89663b","5f5a55364e9b770ed21874ff","5f60d83d77cc910572e75c11","true","1343.4899999992922","./Stimuli/ImagesPractice/SM35.jpg","76","","","","test","true","","76","","SM","SM35.jpg","","old","36","3","practice_recog","right","","","",""
"categorize-image","111","210316","0.0-3.0-7.0-0.4","uhk6k9t3v0b5ns8","practice_recog","5f3fac9aecaa2b027a89663b","5f5a55364e9b770ed21874ff","5f60d83d77cc910572e75c11","true","986.9949999847449","./Stimuli/ImagesPractice/LM55.jpg","83","","","","test","true","","83","","LM","LM55.jpg","","new","37","3","practice_recog","left","","","",""
"categorize-image","112","211686","0.0-3.0-7.0-0.5","uhk6k9t3v0b5ns8","practice_recog","5f3fac9aecaa2b027a89663b","5f5a55364e9b770ed21874ff","5f60d83d77cc910572e75c11","true","863.9550000079907","./Stimuli/ImagesPractice/LN2.jpg","76","","","","test","true","","76","","LN","LN2.jpg","","old","38","3","practice_recog","right","","","",""
"categorize-image","113","213020","0.0-3.0-7.0-0.6","uhk6k9t3v0b5ns8","practice_recog","5f3fac9aecaa2b027a89663b","5f5a55364e9b770ed21874ff","5f60d83d77cc910572e75c11","true","827.0749999792315","./Stimuli/ImagesPractice/SM97.jpg","76","","","","test","true","","76","","SM","SM97.jpg","","old","39","3","practice_recog","right","","","",""
"categorize-image","114","214282","0.0-3.0-7.0-0.7","uhk6k9t3v0b5ns8","practice_recog","5f3fac9aecaa2b027a89663b","5f5a55364e9b770ed21874ff","5f60d83d77cc910572e75c11","true","756.6400000359863","./Stimuli/ImagesPractice/LM239.jpg","83","","","","test","true","","83","","LM","LM239.jpg","","new","40","3","practice_recog","left","","","",""
"categorize-image","115","215782","0.0-3.0-7.0-0.8","uhk6k9t3v0b5ns8","practice_recog","5f3fac9aecaa2b027a89663b","5f5a55364e9b770ed21874ff","5f60d83d77cc910572e75c11","true","995.2750000520609","./Stimuli/ImagesPractice/SN76.jpg","76","","","","test","true","","76","","SN","SN76.jpg","","old","41","3","practice_recog","right","","","",""
"categorize-image","116","217057","0.0-3.0-7.0-0.9","uhk6k9t3v0b5ns8","practice_recog","5f3fac9aecaa2b027a89663b","5f5a55364e9b770ed21874ff","5f60d83d77cc910572e75c11","true","769.9950000387616","./Stimuli/ImagesPractice/LN15.jpg","76","","","","test","true","","76","","LN","LN15.jpg","","old","42","3","practice_recog","right","","","",""
"categorize-image","117","218225","0.0-3.0-7.0-0.10","uhk6k9t3v0b5ns8","practice_recog","5f3fac9aecaa2b027a89663b","5f5a55364e9b770ed21874ff","5f60d83d77cc910572e75c11","true","662.7549999975599","./Stimuli/ImagesPractice/SM98.jpg","83","","","","test","true","","83","","SM","SM98.jpg","","new","43","3","practice_recog","left","","","",""
"categorize-image","118","220170","0.0-3.0-7.0-0.11","uhk6k9t3v0b5ns8","practice_recog","5f3fac9aecaa2b027a89663b","5f5a55364e9b770ed21874ff","5f60d83d77cc910572e75c11","true","1441.324999963399","./Stimuli/ImagesPractice/LM224.jpg","83","","","","test","true","","83","","LM","LM224.jpg","","new","44","3","practice_recog","left","","","",""
"categorize-image","119","221201","0.0-3.0-7.0-0.12","uhk6k9t3v0b5ns8","practice_recog","5f3fac9aecaa2b027a89663b","5f5a55364e9b770ed21874ff","5f60d83d77cc910572e75c11","true","528.1350000295788","./Stimuli/ImagesPractice/SN220.jpg","76","","","","test","true","","76","","SN","SN220.jpg","","old","45","3","practice_recog","right","","","",""
"categorize-image","120","222361","0.0-3.0-7.0-0.13","uhk6k9t3v0b5ns8","practice_recog","5f3fac9aecaa2b027a89663b","5f5a55364e9b770ed21874ff","5f60d83d77cc910572e75c11","true","655.4800000158139","./Stimuli/ImagesPractice/SN75.jpg","83","","","","test","false","","76","","SN","SN75.jpg","","old","46","3","practice_recog","left","","","",""
"categorize-image","121","223852","0.0-3.0-7.0-0.14","uhk6k9t3v0b5ns8","practice_recog","5f3fac9aecaa2b027a89663b","5f5a55364e9b770ed21874ff","5f60d83d77cc910572e75c11","true","987.7350000315346","./Stimuli/ImagesPractice/SM37.jpg","76","","","","test","false","","83","","SM","SM37.jpg","","new","47","3","practice_recog","right","","","",""
"categorize-image","122","225684","0.0-3.0-7.0-0.15","uhk6k9t3v0b5ns8","practice_recog","5f3fac9aecaa2b027a89663b","5f5a55364e9b770ed21874ff","5f60d83d77cc910572e75c11","true","1329.5900000375696","./Stimuli/ImagesPractice/SM62.jpg","83","","","","test","true","","83","","SM","SM62.jpg","","new","48","3","practice_recog","left","","","",""
"html-keyboard-response","123","227859","0.0-3.0-8.0","uhk6k9t3v0b5ns8","instructions","5f3fac9aecaa2b027a89663b","5f5a55364e9b770ed21874ff","5f60d83d77cc910572e75c11","false","2173.8250000053085","<div align=left> Great!<br><br>Are you ready to continue?<br>If you want to reread the instructions and redo the practice trials, please <br>press „Z“.<br><br>You can proceed when you are ready.<br><br>After the presentation of each object, you will receive an instruction whether to <br>remember or to forget the object.<br>We will test your memory of the following pictures only at the very end of <br>the experiment after all learning blocks are completed. <br><br>Press SPACE to CONTINUE when you are ready. </div>","32","","","","","","","","","","","","","","","","","","","",""
"html-keyboard-response","124","228699","0.0-4.0-0.0","uhk6k9t3v0b5ns8","instructions","5f3fac9aecaa2b027a89663b","5f5a55364e9b770ed21874ff","5f60d83d77cc910572e75c11","false","837.8999999840744","<div align=left> The actual experiment is about to start.<br>The practice trials are over!<br><br>Please always respond both fast and accurately!<br><br>Remember: <br> <br><li> Please place your index fingers on the <strong>'S'</strong> and <strong>'L'</strong> keys <br>to respond as fast and accurately as possible.</li><li> Every picture can be classified as either mechanical or non-mechanical.</li><li> If you do not respond in time or commit an error, you will receive a corresponding feedback.<br> Please try to respond as <strong> fast </strong> and as <strong> accurately as possible </strong>.</li><li> Remember the <span style='color: dodgerblue; font-size: 28px'>O</span> pictures. <br></li><li> Please minimize distractions and stay focused. </li><br><br>Press SPACE to START.</div>","32","","","","","","","","","","","","","","","","","","","",""
"html-keyboard-response","125","229404","0.0-4.0-1.0-0.0","uhk6k9t3v0b5ns8","prime","5f3fac9aecaa2b027a89663b","5f5a55364e9b770ed21874ff","5f60d83d77cc910572e75c11","false","null","<span style=""color: black; font-size: 48px"">M + N</span>","null","","","","resp_prompt","","","","","","","","","","","","","","","",""
"categorize-image","126","229963","0.0-4.0-1.0-1.0","uhk6k9t3v0b5ns8","prime","5f3fac9aecaa2b027a89663b","5f5a55364e9b770ed21874ff","5f60d83d77cc910572e75c11","true","554.6549999853596","./Stimuli/SelectedImages/SM/SM106.bmp","76","","","","test","false","M + N","83","switch","SM","SM106.bmp","remember","","49","3","prime1","right","","","",""
"html-keyboard-response","127","230465","0.0-4.0-1.0-2.0-0.0","uhk6k9t3v0b5ns8","prime","5f3fac9aecaa2b027a89663b","5f5a55364e9b770ed21874ff","5f60d83d77cc910572e75c11","false","null","<span style=""color: red; font-size: 48px"">Error!</span>","null","","","","feedback","","","","","","","","","","","","","","","",""
"html-keyboard-response","128","232468","0.0-4.0-1.0-3.0","uhk6k9t3v0b5ns8","prime","5f3fac9aecaa2b027a89663b","5f5a55364e9b770ed21874ff","5f60d83d77cc910572e75c11","false","null","<div style=""align-items: center; display: flex; color: dodgerblue; font-size: 90px""><b>o</b></div>","null","","","","forget_cue","","","","","","","","","","","","","","","",""
"html-keyboard-response","129","233175","0.0-4.0-1.0-0.1","uhk6k9t3v0b5ns8","prime","5f3fac9aecaa2b027a89663b","5f5a55364e9b770ed21874ff","5f60d83d77cc910572e75c11","false","null","<span style=""color: black; font-size: 48px"">M + N</span>","null","","","","resp_prompt","","","","","","","","","","","","","","","",""
"categorize-image","130","234396","0.0-4.0-1.0-1.1","uhk6k9t3v0b5ns8","prime","5f3fac9aecaa2b027a89663b","5f5a55364e9b770ed21874ff","5f60d83d77cc910572e75c11","true","1216.6299999807961","./Stimuli/SelectedImages/LN/LN177.bmp","76","","","","test","true","M + N","76","repetition","LN","LN177.bmp","forget","","50","3","prime1","right","","","",""
"html-keyboard-response","131","236402","0.0-4.0-1.0-3.1","uhk6k9t3v0b5ns8","prime","5f3fac9aecaa2b027a89663b","5f5a55364e9b770ed21874ff","5f60d83d77cc910572e75c11","false","null","<div style=""align-items: center; display: flex; color: darkorange; font-size: 90px""><b>ø</b></div>","null","","","","forget_cue","","","","","","","","","","","","","","","",""
"html-keyboard-response","132","237105","0.0-4.0-1.0-0.2","uhk6k9t3v0b5ns8","prime","5f3fac9aecaa2b027a89663b","5f5a55364e9b770ed21874ff","5f60d83d77cc910572e75c11","false","null","<span style=""color: black; font-size: 48px"">M + N</span>","null","","","","resp_prompt","","","","","","","","","","","","","","","",""
"categorize-image","133","237840","0.0-4.0-1.0-1.2","uhk6k9t3v0b5ns8","prime","5f3fac9aecaa2b027a89663b","5f5a55364e9b770ed21874ff","5f60d83d77cc910572e75c11","true","730.1650000154041","./Stimuli/SelectedImages/SM/SM78.bmp","83","","","","test","true","M + N","83","repetition","SM","SM78.bmp","remember","","51","3","prime1","left","","","",""
"html-keyboard-response","134","239842","0.0-4.0-1.0-3.2","uhk6k9t3v0b5ns8","prime","5f3fac9aecaa2b027a89663b","5f5a55364e9b770ed21874ff","5f60d83d77cc910572e75c11","false","null","<div style=""align-items: center; display: flex; color: dodgerblue; font-size: 90px""><b>o</b></div>","null","","","","forget_cue","","","","","","","","","","","","","","","",""
"html-keyboard-response","135","240546","0.0-4.0-1.0-0.3","uhk6k9t3v0b5ns8","prime","5f3fac9aecaa2b027a89663b","5f5a55364e9b770ed21874ff","5f60d83d77cc910572e75c11","false","null","<span style=""color: black; font-size: 48px"">N + M</span>","null","","","","resp_prompt","","","","","","","","","","","","","","","",""
"categorize-image","136","241534","0.0-4.0-1.0-1.3","uhk6k9t3v0b5ns8","prime","5f3fac9aecaa2b027a89663b","5f5a55364e9b770ed21874ff","5f60d83d77cc910572e75c11","true","984.1050000395626","./Stimuli/SelectedImages/LM/LM51.bmp","83","","","","test","false","N + M","76","switch","LM","LM51.bmp","forget","","52","3","prime1","left","","","",""
"html-keyboard-response","137","242035","0.0-4.0-1.0-2.3-0.3","uhk6k9t3v0b5ns8","prime","5f3fac9aecaa2b027a89663b","5f5a55364e9b770ed21874ff","5f60d83d77cc910572e75c11","false","null","<span style=""color: red; font-size: 48px"">Error!</span>","null","","","","feedback","","","","","","","","","","","","","","","",""
"html-keyboard-response","138","244039","0.0-4.0-1.0-3.3","uhk6k9t3v0b5ns8","prime","5f3fac9aecaa2b027a89663b","5f5a55364e9b770ed21874ff","5f60d83d77cc910572e75c11","false","null","<div style=""align-items: center; display: flex; color: darkorange; font-size: 90px""><b>ø</b></div>","null","","","","forget_cue","","","","","","","","","","","","","","","",""
"html-keyboard-response","139","244743","0.0-4.0-1.0-0.4","uhk6k9t3v0b5ns8","prime","5f3fac9aecaa2b027a89663b","5f5a55364e9b770ed21874ff","5f60d83d77cc910572e75c11","false","null","<span style=""color: black; font-size: 48px"">N + M</span>","null","","","","resp_prompt","","","","","","","","","","","","","","","",""
"categorize-image","140","245735","0.0-4.0-1.0-1.4","uhk6k9t3v0b5ns8","prime","5f3fac9aecaa2b027a89663b","5f5a55364e9b770ed21874ff","5f60d83d77cc910572e75c11","true","987.6449999865144","./Stimuli/SelectedImages/SM/SM108.bmp","76","","","","test","true","N + M","76","switch","SM","SM108.bmp","remember","","53","3","prime1","right","","","",""
"html-keyboard-response","141","247749","0.0-4.0-1.0-3.4","uhk6k9t3v0b5ns8","prime","5f3fac9aecaa2b027a89663b","5f5a55364e9b770ed21874ff","5f60d83d77cc910572e75c11","false","null","<div style=""align-items: center; display: flex; color: dodgerblue; font-size: 90px""><b>o</b></div>","null","","","","forget_cue","","","","","","","","","","","","","","","",""
"html-keyboard-response","142","248450","0.0-4.0-1.0-0.5","uhk6k9t3v0b5ns8","prime","5f3fac9aecaa2b027a89663b","5f5a55364e9b770ed21874ff","5f60d83d77cc910572e75c11","false","null","<span style=""color: black; font-size: 48px"">M + N</span>","null","","","","resp_prompt","","","","","","","","","","","","","","","",""
"categorize-image","143","249793","0.0-4.0-1.0-1.5","uhk6k9t3v0b5ns8","prime","5f3fac9aecaa2b027a89663b","5f5a55364e9b770ed21874ff","5f60d83d77cc910572e75c11","true","1339.6400000201538","./Stimuli/SelectedImages/SN/SN181.bmp","76","","","","test","true","M + N","76","switch","SN","SN181.bmp","forget","","54","3","prime1","right","","","",""
"html-keyboard-response","144","251798","0.0-4.0-1.0-3.5","uhk6k9t3v0b5ns8","prime","5f3fac9aecaa2b027a89663b","5f5a55364e9b770ed21874ff","5f60d83d77cc910572e75c11","false","null","<div style=""align-items: center; display: flex; color: darkorange; font-size: 90px""><b>ø</b></div>","null","","","","forget_cue","","","","","","","","","","","","","","","",""
"html-keyboard-response","145","252503","0.0-4.0-1.0-0.6","uhk6k9t3v0b5ns8","prime","5f3fac9aecaa2b027a89663b","5f5a55364e9b770ed21874ff","5f60d83d77cc910572e75c11","false","null","<span style=""color: black; font-size: 48px"">N + M</span>","null","","","","resp_prompt","","","","","","","","","","","","","","","",""
"categorize-image","146","253231","0.0-4.0-1.0-1.6","uhk6k9t3v0b5ns8","prime","5f3fac9aecaa2b027a89663b","5f5a55364e9b770ed21874ff","5f60d83d77cc910572e75c11","true","721.9850000110455","./Stimuli/SelectedImages/LM/LM179.bmp","83","","","","test","false","N + M","76","switch","LM","LM179.bmp","remember","","55","3","prime1","left","","","",""
"html-keyboard-response","147","253732","0.0-4.0-1.0-2.6-0.6","uhk6k9t3v0b5ns8","prime","5f3fac9aecaa2b027a89663b","5f5a55364e9b770ed21874ff","5f60d83d77cc910572e75c11","false","null","<span style=""color: red; font-size: 48px"">Error!</span>","null","","","","feedback","","","","","","","","","","","","","","","",""
"html-keyboard-response","148","255735","0.0-4.0-1.0-3.6","uhk6k9t3v0b5ns8","prime","5f3fac9aecaa2b027a89663b","5f5a55364e9b770ed21874ff","5f60d83d77cc910572e75c11","false","null","<div style=""align-items: center; display: flex; color: dodgerblue; font-size: 90px""><b>o</b></div>","null","","","","forget_cue","","","","","","","","","","","","","","","",""
"html-keyboard-response","149","256439","0.0-4.0-1.0-0.7","uhk6k9t3v0b5ns8","prime","5f3fac9aecaa2b027a89663b","5f5a55364e9b770ed21874ff","5f60d83d77cc910572e75c11","false","null","<span style=""color: black; font-size: 48px"">N + M</span>","null","","","","resp_prompt","","","","","","","","","","","","","","","",""
"categorize-image","150","257203","0.0-4.0-1.0-1.7","uhk6k9t3v0b5ns8","prime","5f3fac9aecaa2b027a89663b","5f5a55364e9b770ed21874ff","5f60d83d77cc910572e75c11","true","759.055000031367","./Stimuli/SelectedImages/SM/SM73.bmp","76","","","","test","true","N + M","76","repetition","SM","SM73.bmp","remember","","56","3","prime1","right","","","",""
"html-keyboard-response","151","259204","0.0-4.0-1.0-3.7","uhk6k9t3v0b5ns8","prime","5f3fac9aecaa2b027a89663b","5f5a55364e9b770ed21874ff","5f60d83d77cc910572e75c11","false","null","<div style=""align-items: center; display: flex; color: dodgerblue; font-size: 90px""><b>o</b></div>","null","","","","forget_cue","","","","","","","","","","","","","","","",""
"html-keyboard-response","152","259906","0.0-4.0-1.0-0.8","uhk6k9t3v0b5ns8","prime","5f3fac9aecaa2b027a89663b","5f5a55364e9b770ed21874ff","5f60d83d77cc910572e75c11","false","null","<span style=""color: black; font-size: 48px"">M + N</span>","null","","","","resp_prompt","","","","","","","","","","","","","","","",""
"categorize-image","153","260964","0.0-4.0-1.0-1.8","uhk6k9t3v0b5ns8","prime","5f3fac9aecaa2b027a89663b","5f5a55364e9b770ed21874ff","5f60d83d77cc910572e75c11","true","1053.9299999945797","./Stimuli/SelectedImages/LN/LN131.bmp","76","","","","test","true","M + N","76","switch","LN","LN131.bmp","remember","","57","3","prime1","right","","","",""
"html-keyboard-response","154","262968","0.0-4.0-1.0-3.8","uhk6k9t3v0b5ns8","prime","5f3fac9aecaa2b027a89663b","5f5a55364e9b770ed21874ff","5f60d83d77cc910572e75c11","false","null","<div style=""align-items: center; display: flex; color: dodgerblue; font-size: 90px""><b>o</b></div>","null","","","","forget_cue","","","","","","","","","","","","","","","",""
"html-keyboard-response","155","263673","0.0-4.0-1.0-0.9","uhk6k9t3v0b5ns8","prime","5f3fac9aecaa2b027a89663b","5f5a55364e9b770ed21874ff","5f60d83d77cc910572e75c11","false","null","<span style=""color: black; font-size: 48px"">N + M</span>","null","","","","resp_prompt","","","","","","","","","","","","","","","",""
"categorize-image","156","265117","0.0-4.0-1.0-1.9","uhk6k9t3v0b5ns8","prime","5f3fac9aecaa2b027a89663b","5f5a55364e9b770ed21874ff","5f60d83d77cc910572e75c11","true","1439.7999999928288","./Stimuli/SelectedImages/SM/SM17.bmp","76","","","","test","true","N + M","76","repetition","SM","SM17.bmp","remember","","58","3","prime1","right","","","",""
"html-keyboard-response","157","267121","0.0-4.0-1.0-3.9","uhk6k9t3v0b5ns8","prime","5f3fac9aecaa2b027a89663b","5f5a55364e9b770ed21874ff","5f60d83d77cc910572e75c11","false","null","<div style=""align-items: center; display: flex; color: dodgerblue; font-size: 90px""><b>o</b></div>","null","","","","forget_cue","","","","","","","","","","","","","","","",""
"html-keyboard-response","158","267826","0.0-4.0-1.0-0.10","uhk6k9t3v0b5ns8","prime","5f3fac9aecaa2b027a89663b","5f5a55364e9b770ed21874ff","5f60d83d77cc910572e75c11","false","null","<span style=""color: black; font-size: 48px"">M + N</span>","null","","","","resp_prompt","","","","","","","","","","","","","","","",""
"categorize-image","159","268431","0.0-4.0-1.0-1.10","uhk6k9t3v0b5ns8","prime","5f3fac9aecaa2b027a89663b","5f5a55364e9b770ed21874ff","5f60d83d77cc910572e75c11","true","596.3700000429526","./Stimuli/SelectedImages/SN/SN27.bmp","76","","","","test","true","M + N","76","repetition","SN","SN27.bmp","forget","","59","3","prime1","right","","","",""
"html-keyboard-response","160","270435","0.0-4.0-1.0-3.10","uhk6k9t3v0b5ns8","prime","5f3fac9aecaa2b027a89663b","5f5a55364e9b770ed21874ff","5f60d83d77cc910572e75c11","false","null","<div style=""align-items: center; display: flex; color: darkorange; font-size: 90px""><b>ø</b></div>","null","","","","forget_cue","","","","","","","","","","","","","","","",""
"html-keyboard-response","161","271138","0.0-4.0-1.0-0.11","uhk6k9t3v0b5ns8","prime","5f3fac9aecaa2b027a89663b","5f5a55364e9b770ed21874ff","5f60d83d77cc910572e75c11","false","null","<span style=""color: black; font-size: 48px"">M + N</span>","null","","","","resp_prompt","","","","","","","","","","","","","","","",""
"categorize-image","162","271948","0.0-4.0-1.0-1.11","uhk6k9t3v0b5ns8","prime","5f3fac9aecaa2b027a89663b","5f5a55364e9b770ed21874ff","5f60d83d77cc910572e75c11","true","806.3099999562837","./Stimuli/SelectedImages/SM/SM128.bmp","83","","","","test","true","M + N","83","repetition","SM","SM128.bmp","forget","","60","3","prime1","left","","","",""
"html-keyboard-response","163","273949","0.0-4.0-1.0-3.11","uhk6k9t3v0b5ns8","prime","5f3fac9aecaa2b027a89663b","5f5a55364e9b770ed21874ff","5f60d83d77cc910572e75c11","false","null","<div style=""align-items: center; display: flex; color: darkorange; font-size: 90px""><b>ø</b></div>","null","","","","forget_cue","","","","","","","","","","","","","","","",""
"html-keyboard-response","164","274653","0.0-4.0-1.0-0.12","uhk6k9t3v0b5ns8","prime","5f3fac9aecaa2b027a89663b","5f5a55364e9b770ed21874ff","5f60d83d77cc910572e75c11","false","null","<span style=""color: black; font-size: 48px"">M + N</span>","null","","","","resp_prompt","","","","","","","","","","","","","","","",""
"categorize-image","165","275660","0.0-4.0-1.0-1.12","uhk6k9t3v0b5ns8","prime","5f3fac9aecaa2b027a89663b","5f5a55364e9b770ed21874ff","5f60d83d77cc910572e75c11","true","1002.5799999712035","./Stimuli/SelectedImages/SM/SM195.bmp","83","","","","test","true","M + N","83","switch","SM","SM195.bmp","remember","","61","3","prime1","left","","","",""
"html-keyboard-response","166","277665","0.0-4.0-1.0-3.12","uhk6k9t3v0b5ns8","prime","5f3fac9aecaa2b027a89663b","5f5a55364e9b770ed21874ff","5f60d83d77cc910572e75c11","false","null","<div style=""align-items: center; display: flex; color: dodgerblue; font-size: 90px""><b>o</b></div>","null","","","","forget_cue","","","","","","","","","","","","","","","",""
"html-keyboard-response","167","278371","0.0-4.0-1.0-0.13","uhk6k9t3v0b5ns8","prime","5f3fac9aecaa2b027a89663b","5f5a55364e9b770ed21874ff","5f60d83d77cc910572e75c11","false","null","<span style=""color: black; font-size: 48px"">N + M</span>","null","","","","resp_prompt","","","","","","","","","","","","","","","",""
"categorize-image","168","279242","0.0-4.0-1.0-1.13","uhk6k9t3v0b5ns8","prime","5f3fac9aecaa2b027a89663b","5f5a55364e9b770ed21874ff","5f60d83d77cc910572e75c11","true","864.6899999585003","./Stimuli/SelectedImages/LN/LN128.bmp","83","","","","test","true","N + M","83","repetition","LN","LN128.bmp","forget","","62","3","prime1","left","","","",""
"html-keyboard-response","169","281245","0.0-4.0-1.0-3.13","uhk6k9t3v0b5ns8","prime","5f3fac9aecaa2b027a89663b","5f5a55364e9b770ed21874ff","5f60d83d77cc910572e75c11","false","null","<div style=""align-items: center; display: flex; color: darkorange; font-size: 90px""><b>ø</b></div>","null","","","","forget_cue","","","","","","","","","","","","","","","",""
"html-keyboard-response","170","281950","0.0-4.0-1.0-0.14","uhk6k9t3v0b5ns8","prime","5f3fac9aecaa2b027a89663b","5f5a55364e9b770ed21874ff","5f60d83d77cc910572e75c11","false","null","<span style=""color: black; font-size: 48px"">M + N</span>","null","","","","resp_prompt","","","","","","","","","","","","","","","",""
"categorize-image","171","282524","0.0-4.0-1.0-1.14","uhk6k9t3v0b5ns8","prime","5f3fac9aecaa2b027a89663b","5f5a55364e9b770ed21874ff","5f60d83d77cc910572e75c11","true","569.3450000253506","./Stimuli/SelectedImages/SM/SM205.bmp","83","","","","test","true","M + N","83","repetition","SM","SM205.bmp","forget","","63","3","prime1","left","","","",""
"html-keyboard-response","172","284526","0.0-4.0-1.0-3.14","uhk6k9t3v0b5ns8","prime","5f3fac9aecaa2b027a89663b","5f5a55364e9b770ed21874ff","5f60d83d77cc910572e75c11","false","null","<div style=""align-items: center; display: flex; color: darkorange; font-size: 90px""><b>ø</b></div>","null","","","","forget_cue","","","","","","","","","","","","","","","",""
"html-keyboard-response","173","285230","0.0-4.0-1.0-0.15","uhk6k9t3v0b5ns8","prime","5f3fac9aecaa2b027a89663b","5f5a55364e9b770ed21874ff","5f60d83d77cc910572e75c11","false","null","<span style=""color: black; font-size: 48px"">N + M</span>","null","","","","resp_prompt","","","","","","","","","","","","","","","",""
"categorize-image","174","286140","0.0-4.0-1.0-1.15","uhk6k9t3v0b5ns8","prime","5f3fac9aecaa2b027a89663b","5f5a55364e9b770ed21874ff","5f60d83d77cc910572e75c11","true","906.5450000343844","./Stimuli/SelectedImages/SM/SM184.bmp","76","","","","test","true","N + M","76","switch","SM","SM184.bmp","forget","","64","3","prime1","right","","","",""
"html-keyboard-response","175","288145","0.0-4.0-1.0-3.15","uhk6k9t3v0b5ns8","prime","5f3fac9aecaa2b027a89663b","5f5a55364e9b770ed21874ff","5f60d83d77cc910572e75c11","false","null","<div style=""align-items: center; display: flex; color: darkorange; font-size: 90px""><b>ø</b></div>","null","","","","forget_cue","","","","","","","","","","","","","","","",""
"html-keyboard-response","176","288846","0.0-4.0-1.0-0.16","uhk6k9t3v0b5ns8","prime","5f3fac9aecaa2b027a89663b","5f5a55364e9b770ed21874ff","5f60d83d77cc910572e75c11","false","null","<span style=""color: black; font-size: 48px"">M + N</span>","null","","","","resp_prompt","","","","","","","","","","","","","","","",""
"categorize-image","177","289737","0.0-4.0-1.0-1.16","uhk6k9t3v0b5ns8","prime","5f3fac9aecaa2b027a89663b","5f5a55364e9b770ed21874ff","5f60d83d77cc910572e75c11","true","886.8199999560602","./Stimuli/SelectedImages/LN/LN28.bmp","76","","","","test","true","M + N","76","repetition","LN","LN28.bmp","remember","","65","3","prime1","right","","","",""
"html-keyboard-response","178","291742","0.0-4.0-1.0-3.16","uhk6k9t3v0b5ns8","prime","5f3fac9aecaa2b027a89663b","5f5a55364e9b770ed21874ff","5f60d83d77cc910572e75c11","false","null","<div style=""align-items: center; display: flex; color: dodgerblue; font-size: 90px""><b>o</b></div>","null","","","","forget_cue","","","","","","","","","","","","","","","",""
"html-keyboard-response","179","292446","0.0-4.0-1.0-0.17","uhk6k9t3v0b5ns8","prime","5f3fac9aecaa2b027a89663b","5f5a55364e9b770ed21874ff","5f60d83d77cc910572e75c11","false","null","<span style=""color: black; font-size: 48px"">N + M</span>","null","","","","resp_prompt","","","","","","","","","","","","","","","",""
"categorize-image","180","293176","0.0-4.0-1.0-1.17","uhk6k9t3v0b5ns8","prime","5f3fac9aecaa2b027a89663b","5f5a55364e9b770ed21874ff","5f60d83d77cc910572e75c11","true","725.3250000067055","./Stimuli/SelectedImages/LN/LN9.bmp","83","","","","test","true","N + M","83","repetition","LN","LN9.bmp","forget","","66","3","prime1","left","","","",""
"html-keyboard-response","181","295178","0.0-4.0-1.0-3.17","uhk6k9t3v0b5ns8","prime","5f3fac9aecaa2b027a89663b","5f5a55364e9b770ed21874ff","5f60d83d77cc910572e75c11","false","null","<div style=""align-items: center; display: flex; color: darkorange; font-size: 90px""><b>ø</b></div>","null","","","","forget_cue","","","","","","","","","","","","","","","",""
"html-keyboard-response","182","295881","0.0-4.0-1.0-0.18","uhk6k9t3v0b5ns8","prime","5f3fac9aecaa2b027a89663b","5f5a55364e9b770ed21874ff","5f60d83d77cc910572e75c11","false","null","<span style=""color: black; font-size: 48px"">M + N</span>","null","","","","resp_prompt","","","","","","","","","","","","","","","",""
"categorize-image","183","296821","0.0-4.0-1.0-1.18","uhk6k9t3v0b5ns8","prime","5f3fac9aecaa2b027a89663b","5f5a55364e9b770ed21874ff","5f60d83d77cc910572e75c11","true","935.8500000089407","./Stimuli/SelectedImages/SN/SN49.bmp","76","","","","test","true","M + N","76","switch","SN","SN49.bmp","forget","","67","3","prime1","right","","","",""
"html-keyboard-response","184","298825","0.0-4.0-1.0-3.18","uhk6k9t3v0b5ns8","prime","5f3fac9aecaa2b027a89663b","5f5a55364e9b770ed21874ff","5f60d83d77cc910572e75c11","false","null","<div style=""align-items: center; display: flex; color: darkorange; font-size: 90px""><b>ø</b></div>","null","","","","forget_cue","","","","","","","","","","","","","","","",""
"html-keyboard-response","185","299528","0.0-4.0-1.0-0.19","uhk6k9t3v0b5ns8","prime","5f3fac9aecaa2b027a89663b","5f5a55364e9b770ed21874ff","5f60d83d77cc910572e75c11","false","null","<span style=""color: black; font-size: 48px"">M + N</span>","null","","","","resp_prompt","","","","","","","","","","","","","","","",""
"categorize-image","186","300197","0.0-4.0-1.0-1.19","uhk6k9t3v0b5ns8","prime","5f3fac9aecaa2b027a89663b","5f5a55364e9b770ed21874ff","5f60d83d77cc910572e75c11","true","665.160000033211","./Stimuli/SelectedImages/SN/SN111.bmp","76","","","","test","true","M + N","76","repetition","SN","SN111.bmp","remember","","68","3","prime1","right","","","",""
"html-keyboard-response","187","302201","0.0-4.0-1.0-3.19","uhk6k9t3v0b5ns8","prime","5f3fac9aecaa2b027a89663b","5f5a55364e9b770ed21874ff","5f60d83d77cc910572e75c11","false","null","<div style=""align-items: center; display: flex; color: dodgerblue; font-size: 90px""><b>o</b></div>","null","","","","forget_cue","","","","","","","","","","","","","","","",""
"html-keyboard-response","188","302907","0.0-4.0-1.0-0.20","uhk6k9t3v0b5ns8","prime","5f3fac9aecaa2b027a89663b","5f5a55364e9b770ed21874ff","5f60d83d77cc910572e75c11","false","null","<span style=""color: black; font-size: 48px"">N + M</span>","null","","","","resp_prompt","","","","","","","","","","","","","","","",""
"categorize-image","189","303664","0.0-4.0-1.0-1.20","uhk6k9t3v0b5ns8","prime","5f3fac9aecaa2b027a89663b","5f5a55364e9b770ed21874ff","5f60d83d77cc910572e75c11","true","752.4550000089221","./Stimuli/SelectedImages/LN/LN166.bmp","83","","","","test","true","N + M","83","switch","LN","LN166.bmp","remember","","69","3","prime1","left","","","",""
"html-keyboard-response","190","305670","0.0-4.0-1.0-3.20","uhk6k9t3v0b5ns8","prime","5f3fac9aecaa2b027a89663b","5f5a55364e9b770ed21874ff","5f60d83d77cc910572e75c11","false","null","<div style=""align-items: center; display: flex; color: dodgerblue; font-size: 90px""><b>o</b></div>","null","","","","forget_cue","","","","","","","","","","","","","","","",""
"html-keyboard-response","191","306372","0.0-4.0-1.0-0.21","uhk6k9t3v0b5ns8","prime","5f3fac9aecaa2b027a89663b","5f5a55364e9b770ed21874ff","5f60d83d77cc910572e75c11","false","null","<span style=""color: black; font-size: 48px"">N + M</span>","null","","","","resp_prompt","","","","","","","","","","","","","","","",""
"categorize-image","192","307095","0.0-4.0-1.0-1.21","uhk6k9t3v0b5ns8","prime","5f3fac9aecaa2b027a89663b","5f5a55364e9b770ed21874ff","5f60d83d77cc910572e75c11","true","719.1699999966659","./Stimuli/SelectedImages/LN/LN82.bmp","83","","","","test","true","N + M","83","switch","LN","LN82.bmp","forget","","70","3","prime1","left","","","",""
"html-keyboard-response","193","309102","0.0-4.0-1.0-3.21","uhk6k9t3v0b5ns8","prime","5f3fac9aecaa2b027a89663b","5f5a55364e9b770ed21874ff","5f60d83d77cc910572e75c11","false","null","<div style=""align-items: center; display: flex; color: darkorange; font-size: 90px""><b>ø</b></div>","null","","","","forget_cue","","","","","","","","","","","","","","","",""
"html-keyboard-response","194","309806","0.0-4.0-1.0-0.22","uhk6k9t3v0b5ns8","prime","5f3fac9aecaa2b027a89663b","5f5a55364e9b770ed21874ff","5f60d83d77cc910572e75c11","false","null","<span style=""color: black; font-size: 48px"">N + M</span>","null","","","","resp_prompt","","","","","","","","","","","","","","","",""
"categorize-image","195","310618","0.0-4.0-1.0-1.22","uhk6k9t3v0b5ns8","prime","5f3fac9aecaa2b027a89663b","5f5a55364e9b770ed21874ff","5f60d83d77cc910572e75c11","true","807.7049999847077","./Stimuli/SelectedImages/LN/LN12.bmp","83","","","","test","true","N + M","83","switch","LN","LN12.bmp","remember","","71","3","prime1","left","","","",""
"html-keyboard-response","196","312622","0.0-4.0-1.0-3.22","uhk6k9t3v0b5ns8","prime","5f3fac9aecaa2b027a89663b","5f5a55364e9b770ed21874ff","5f60d83d77cc910572e75c11","false","null","<div style=""align-items: center; display: flex; color: dodgerblue; font-size: 90px""><b>o</b></div>","null","","","","forget_cue","","","","","","","","","","","","","","","",""
"html-keyboard-response","197","313326","0.0-4.0-1.0-0.23","uhk6k9t3v0b5ns8","prime","5f3fac9aecaa2b027a89663b","5f5a55364e9b770ed21874ff","5f60d83d77cc910572e75c11","false","null","<span style=""color: black; font-size: 48px"">M + N</span>","null","","","","resp_prompt","","","","","","","","","","","","","","","",""
"categorize-image","198","314058","0.0-4.0-1.0-1.23","uhk6k9t3v0b5ns8","prime","5f3fac9aecaa2b027a89663b","5f5a55364e9b770ed21874ff","5f60d83d77cc910572e75c11","true","728.4099999815226","./Stimuli/SelectedImages/LM/LM235.bmp","83","","","","test","true","M + N","83","switch","LM","LM235.bmp","forget","","72","3","prime1","left","","","",""
"html-keyboard-response","199","316062","0.0-4.0-1.0-3.23","uhk6k9t3v0b5ns8","prime","5f3fac9aecaa2b027a89663b","5f5a55364e9b770ed21874ff","5f60d83d77cc910572e75c11","false","null","<div style=""align-items: center; display: flex; color: darkorange; font-size: 90px""><b>ø</b></div>","null","","","","forget_cue","","","","","","","","","","","","","","","",""
"html-keyboard-response","200","316764","0.0-4.0-1.0-0.24","uhk6k9t3v0b5ns8","prime","5f3fac9aecaa2b027a89663b","5f5a55364e9b770ed21874ff","5f60d83d77cc910572e75c11","false","null","<span style=""color: black; font-size: 48px"">M + N</span>","null","","","","resp_prompt","","","","","","","","","","","","","","","",""
"categorize-image","201","317277","0.0-4.0-1.0-1.24","uhk6k9t3v0b5ns8","prime","5f3fac9aecaa2b027a89663b","5f5a55364e9b770ed21874ff","5f60d83d77cc910572e75c11","true","508.559999987483","./Stimuli/SelectedImages/LN/LN111.bmp","76","","","","test","true","M + N","76","repetition","LN","LN111.bmp","remember","","73","3","prime1","right","","","",""
"html-keyboard-response","202","319279","0.0-4.0-1.0-3.24","uhk6k9t3v0b5ns8","prime","5f3fac9aecaa2b027a89663b","5f5a55364e9b770ed21874ff","5f60d83d77cc910572e75c11","false","null","<div style=""align-items: center; display: flex; color: dodgerblue; font-size: 90px""><b>o</b></div>","null","","","","forget_cue","","","","","","","","","","","","","","","",""
"html-keyboard-response","203","319983","0.0-4.0-1.0-0.25","uhk6k9t3v0b5ns8","prime","5f3fac9aecaa2b027a89663b","5f5a55364e9b770ed21874ff","5f60d83d77cc910572e75c11","false","null","<span style=""color: black; font-size: 48px"">N + M</span>","null","","","","resp_prompt","","","","","","","","","","","","","","","",""
"categorize-image","204","321110","0.0-4.0-1.0-1.25","uhk6k9t3v0b5ns8","prime","5f3fac9aecaa2b027a89663b","5f5a55364e9b770ed21874ff","5f60d83d77cc910572e75c11","true","1122.8149999515153","./Stimuli/SelectedImages/SN/SN18.bmp","83","","","","test","true","N + M","83","repetition","SN","SN18.bmp","remember","","74","3","prime1","left","","","",""
"html-keyboard-response","205","323113","0.0-4.0-1.0-3.25","uhk6k9t3v0b5ns8","prime","5f3fac9aecaa2b027a89663b","5f5a55364e9b770ed21874ff","5f60d83d77cc910572e75c11","false","null","<div style=""align-items: center; display: flex; color: dodgerblue; font-size: 90px""><b>o</b></div>","null","","","","forget_cue","","","","","","","","","","","","","","","",""
"html-keyboard-response","206","323815","0.0-4.0-1.0-0.26","uhk6k9t3v0b5ns8","prime","5f3fac9aecaa2b027a89663b","5f5a55364e9b770ed21874ff","5f60d83d77cc910572e75c11","false","null","<span style=""color: black; font-size: 48px"">M + N</span>","null","","","","resp_prompt","","","","","","","","","","","","","","","",""
"categorize-image","207","324445","0.0-4.0-1.0-1.26","uhk6k9t3v0b5ns8","prime","5f3fac9aecaa2b027a89663b","5f5a55364e9b770ed21874ff","5f60d83d77cc910572e75c11","true","624.9299999908544","./Stimuli/SelectedImages/LM/LM75.bmp","83","","","","test","true","M + N","83","repetition","LM","LM75.bmp","remember","","75","3","prime1","left","","","",""
"html-keyboard-response","208","326450","0.0-4.0-1.0-3.26","uhk6k9t3v0b5ns8","prime","5f3fac9aecaa2b027a89663b","5f5a55364e9b770ed21874ff","5f60d83d77cc910572e75c11","false","null","<div style=""align-items: center; display: flex; color: dodgerblue; font-size: 90px""><b>o</b></div>","null","","","","forget_cue","","","","","","","","","","","","","","","",""
"html-keyboard-response","209","327156","0.0-4.0-1.0-0.27","uhk6k9t3v0b5ns8","prime","5f3fac9aecaa2b027a89663b","5f5a55364e9b770ed21874ff","5f60d83d77cc910572e75c11","false","null","<span style=""color: black; font-size: 48px"">M + N</span>","null","","","","resp_prompt","","","","","","","","","","","","","","","",""
"categorize-image","210","328095","0.0-4.0-1.0-1.27","uhk6k9t3v0b5ns8","prime","5f3fac9aecaa2b027a89663b","5f5a55364e9b770ed21874ff","5f60d83d77cc910572e75c11","true","935.3199999895878","./Stimuli/SelectedImages/LN/LN101.bmp","76","","","","test","true","M + N","76","switch","LN","LN101.bmp","forget","","76","3","prime1","right","","","",""
"html-keyboard-response","211","330100","0.0-4.0-1.0-3.27","uhk6k9t3v0b5ns8","prime","5f3fac9aecaa2b027a89663b","5f5a55364e9b770ed21874ff","5f60d83d77cc910572e75c11","false","null","<div style=""align-items: center; display: flex; color: darkorange; font-size: 90px""><b>ø</b></div>","null","","","","forget_cue","","","","","","","","","","","","","","","",""
"html-keyboard-response","212","330804","0.0-4.0-1.0-0.28","uhk6k9t3v0b5ns8","prime","5f3fac9aecaa2b027a89663b","5f5a55364e9b770ed21874ff","5f60d83d77cc910572e75c11","false","null","<span style=""color: black; font-size: 48px"">M + N</span>","null","","","","resp_prompt","","","","","","","","","","","","","","","",""
"categorize-image","213","331563","0.0-4.0-1.0-1.28","uhk6k9t3v0b5ns8","prime","5f3fac9aecaa2b027a89663b","5f5a55364e9b770ed21874ff","5f60d83d77cc910572e75c11","true","753.8000000058673","./Stimuli/SelectedImages/LN/LN92.bmp","76","","","","test","true","M + N","76","switch","LN","LN92.bmp","forget","","77","3","prime1","right","","","",""
"html-keyboard-response","214","333567","0.0-4.0-1.0-3.28","uhk6k9t3v0b5ns8","prime","5f3fac9aecaa2b027a89663b","5f5a55364e9b770ed21874ff","5f60d83d77cc910572e75c11","false","null","<div style=""align-items: center; display: flex; color: darkorange; font-size: 90px""><b>ø</b></div>","null","","","","forget_cue","","","","","","","","","","","","","","","",""
"html-keyboard-response","215","334271","0.0-4.0-1.0-0.29","uhk6k9t3v0b5ns8","prime","5f3fac9aecaa2b027a89663b","5f5a55364e9b770ed21874ff","5f60d83d77cc910572e75c11","false","null","<span style=""color: black; font-size: 48px"">N + M</span>","null","","","","resp_prompt","","","","","","","","","","","","","","","",""
"categorize-image","216","335154","0.0-4.0-1.0-1.29","uhk6k9t3v0b5ns8","prime","5f3fac9aecaa2b027a89663b","5f5a55364e9b770ed21874ff","5f60d83d77cc910572e75c11","true","879.3650000006892","./Stimuli/SelectedImages/LN/LN149.bmp","83","","","","test","true","N + M","83","repetition","LN","LN149.bmp","remember","","78","3","prime1","left","","","",""
"html-keyboard-response","217","337160","0.0-4.0-1.0-3.29","uhk6k9t3v0b5ns8","prime","5f3fac9aecaa2b027a89663b","5f5a55364e9b770ed21874ff","5f60d83d77cc910572e75c11","false","null","<div style=""align-items: center; display: flex; color: dodgerblue; font-size: 90px""><b>o</b></div>","null","","","","forget_cue","","","","","","","","","","","","","","","",""
"html-keyboard-response","218","337866","0.0-4.0-1.0-0.30","uhk6k9t3v0b5ns8","prime","5f3fac9aecaa2b027a89663b","5f5a55364e9b770ed21874ff","5f60d83d77cc910572e75c11","false","null","<span style=""color: black; font-size: 48px"">N + M</span>","null","","","","resp_prompt","","","","","","","","","","","","","","","",""
"categorize-image","219","338905","0.0-4.0-1.0-1.30","uhk6k9t3v0b5ns8","prime","5f3fac9aecaa2b027a89663b","5f5a55364e9b770ed21874ff","5f60d83d77cc910572e75c11","true","1034.4950000289828","./Stimuli/SelectedImages/LN/LN59.bmp","83","","","","test","true","N + M","83","repetition","LN","LN59.bmp","remember","","79","3","prime1","left","","","",""
"html-keyboard-response","220","340910","0.0-4.0-1.0-3.30","uhk6k9t3v0b5ns8","prime","5f3fac9aecaa2b027a89663b","5f5a55364e9b770ed21874ff","5f60d83d77cc910572e75c11","false","null","<div style=""align-items: center; display: flex; color: dodgerblue; font-size: 90px""><b>o</b></div>","null","","","","forget_cue","","","","","","","","","","","","","","","",""
"html-keyboard-response","221","341615","0.0-4.0-1.0-0.31","uhk6k9t3v0b5ns8","prime","5f3fac9aecaa2b027a89663b","5f5a55364e9b770ed21874ff","5f60d83d77cc910572e75c11","false","null","<span style=""color: black; font-size: 48px"">N + M</span>","null","","","","resp_prompt","","","","","","","","","","","","","","","",""
"categorize-image","222","342595","0.0-4.0-1.0-1.31","uhk6k9t3v0b5ns8","prime","5f3fac9aecaa2b027a89663b","5f5a55364e9b770ed21874ff","5f60d83d77cc910572e75c11","true","975.3749999799766","./Stimuli/SelectedImages/SN/SN128.bmp","83","","","","test","true","N + M","83","repetition","SN","SN128.bmp","remember","","80","3","prime1","left","","","",""
"html-keyboard-response","223","344597","0.0-4.0-1.0-3.31","uhk6k9t3v0b5ns8","prime","5f3fac9aecaa2b027a89663b","5f5a55364e9b770ed21874ff","5f60d83d77cc910572e75c11","false","null","<div style=""align-items: center; display: flex; color: dodgerblue; font-size: 90px""><b>o</b></div>","null","","","","forget_cue","","","","","","","","","","","","","","","",""
"html-keyboard-response","224","345300","0.0-4.0-1.0-0.32","uhk6k9t3v0b5ns8","prime","5f3fac9aecaa2b027a89663b","5f5a55364e9b770ed21874ff","5f60d83d77cc910572e75c11","false","null","<span style=""color: black; font-size: 48px"">M + N</span>","null","","","","resp_prompt","","","","","","","","","","","","","","","",""
"categorize-image","225","346208","0.0-4.0-1.0-1.32","uhk6k9t3v0b5ns8","prime","5f3fac9aecaa2b027a89663b","5f5a55364e9b770ed21874ff","5f60d83d77cc910572e75c11","true","904.355000006035","./Stimuli/SelectedImages/SN/SN240.bmp","76","","","","test","true","M + N","76","switch","SN","SN240.bmp","remember","","81","3","prime1","right","","","",""
"html-keyboard-response","226","348213","0.0-4.0-1.0-3.32","uhk6k9t3v0b5ns8","prime","5f3fac9aecaa2b027a89663b","5f5a55364e9b770ed21874ff","5f60d83d77cc910572e75c11","false","null","<div style=""align-items: center; display: flex; color: dodgerblue; font-size: 90px""><b>o</b></div>","null","","","","forget_cue","","","","","","","","","","","","","","","",""
"html-keyboard-response","227","348916","0.0-4.0-1.0-0.33","uhk6k9t3v0b5ns8","prime","5f3fac9aecaa2b027a89663b","5f5a55364e9b770ed21874ff","5f60d83d77cc910572e75c11","false","null","<span style=""color: black; font-size: 48px"">M + N</span>","null","","","","resp_prompt","","","","","","","","","","","","","","","",""
"categorize-image","228","349620","0.0-4.0-1.0-1.33","uhk6k9t3v0b5ns8","prime","5f3fac9aecaa2b027a89663b","5f5a55364e9b770ed21874ff","5f60d83d77cc910572e75c11","true","699.2900000186637","./Stimuli/SelectedImages/SN/SN60.bmp","76","","","","test","true","M + N","76","switch","SN","SN60.bmp","remember","","82","3","prime1","right","","","",""
"html-keyboard-response","229","351626","0.0-4.0-1.0-3.33","uhk6k9t3v0b5ns8","prime","5f3fac9aecaa2b027a89663b","5f5a55364e9b770ed21874ff","5f60d83d77cc910572e75c11","false","null","<div style=""align-items: center; display: flex; color: dodgerblue; font-size: 90px""><b>o</b></div>","null","","","","forget_cue","","","","","","","","","","","","","","","",""
"html-keyboard-response","230","352330","0.0-4.0-1.0-0.34","uhk6k9t3v0b5ns8","prime","5f3fac9aecaa2b027a89663b","5f5a55364e9b770ed21874ff","5f60d83d77cc910572e75c11","false","null","<span style=""color: black; font-size: 48px"">N + M</span>","null","","","","resp_prompt","","","","","","","","","","","","","","","",""
"categorize-image","231","352998","0.0-4.0-1.0-1.34","uhk6k9t3v0b5ns8","prime","5f3fac9aecaa2b027a89663b","5f5a55364e9b770ed21874ff","5f60d83d77cc910572e75c11","true","663.3800000417978","./Stimuli/SelectedImages/SN/SN187.bmp","83","","","","test","true","N + M","83","switch","SN","SN187.bmp","remember","","83","3","prime1","left","","","",""
"html-keyboard-response","232","355003","0.0-4.0-1.0-3.34","uhk6k9t3v0b5ns8","prime","5f3fac9aecaa2b027a89663b","5f5a55364e9b770ed21874ff","5f60d83d77cc910572e75c11","false","null","<div style=""align-items: center; display: flex; color: dodgerblue; font-size: 90px""><b>o</b></div>","null","","","","forget_cue","","","","","","","","","","","","","","","",""
"html-keyboard-response","233","355709","0.0-4.0-1.0-0.35","uhk6k9t3v0b5ns8","prime","5f3fac9aecaa2b027a89663b","5f5a55364e9b770ed21874ff","5f60d83d77cc910572e75c11","false","null","<span style=""color: black; font-size: 48px"">N + M</span>","null","","","","resp_prompt","","","","","","","","","","","","","","","",""
"categorize-image","234","356340","0.0-4.0-1.0-1.35","uhk6k9t3v0b5ns8","prime","5f3fac9aecaa2b027a89663b","5f5a55364e9b770ed21874ff","5f60d83d77cc910572e75c11","true","627.730000007432","./Stimuli/SelectedImages/SN/SN93.bmp","83","","","","test","true","N + M","83","switch","SN","SN93.bmp","forget","","84","3","prime1","left","","","",""
"html-keyboard-response","235","358341","0.0-4.0-1.0-3.35","uhk6k9t3v0b5ns8","prime","5f3fac9aecaa2b027a89663b","5f5a55364e9b770ed21874ff","5f60d83d77cc910572e75c11","false","null","<div style=""align-items: center; display: flex; color: darkorange; font-size: 90px""><b>ø</b></div>","null","","","","forget_cue","","","","","","","","","","","","","","","",""
"html-keyboard-response","236","359045","0.0-4.0-1.0-0.36","uhk6k9t3v0b5ns8","prime","5f3fac9aecaa2b027a89663b","5f5a55364e9b770ed21874ff","5f60d83d77cc910572e75c11","false","null","<span style=""color: black; font-size: 48px"">M + N</span>","null","","","","resp_prompt","","","","","","","","","","","","","","","",""
"categorize-image","237","359468","0.0-4.0-1.0-1.36","uhk6k9t3v0b5ns8","prime","5f3fac9aecaa2b027a89663b","5f5a55364e9b770ed21874ff","5f60d83d77cc910572e75c11","true","418.21999999228865","./Stimuli/SelectedImages/LM/LM167.bmp","83","","","","test","true","M + N","83","switch","LM","LM167.bmp","forget","","85","3","prime1","left","","","",""
"html-keyboard-response","238","361472","0.0-4.0-1.0-3.36","uhk6k9t3v0b5ns8","prime","5f3fac9aecaa2b027a89663b","5f5a55364e9b770ed21874ff","5f60d83d77cc910572e75c11","false","null","<div style=""align-items: center; display: flex; color: darkorange; font-size: 90px""><b>ø</b></div>","null","","","","forget_cue","","","","","","","","","","","","","","","",""
"html-keyboard-response","239","362176","0.0-4.0-1.0-0.37","uhk6k9t3v0b5ns8","prime","5f3fac9aecaa2b027a89663b","5f5a55364e9b770ed21874ff","5f60d83d77cc910572e75c11","false","null","<span style=""color: black; font-size: 48px"">N + M</span>","null","","","","resp_prompt","","","","","","","","","","","","","","","",""
"categorize-image","240","363142","0.0-4.0-1.0-1.37","uhk6k9t3v0b5ns8","prime","5f3fac9aecaa2b027a89663b","5f5a55364e9b770ed21874ff","5f60d83d77cc910572e75c11","true","961.2049999996088","./Stimuli/SelectedImages/SN/SN64.bmp","83","","","","test","true","N + M","83","repetition","SN","SN64.bmp","forget","","86","3","prime1","left","","","",""
"html-keyboard-response","241","365147","0.0-4.0-1.0-3.37","uhk6k9t3v0b5ns8","prime","5f3fac9aecaa2b027a89663b","5f5a55364e9b770ed21874ff","5f60d83d77cc910572e75c11","false","null","<div style=""align-items: center; display: flex; color: darkorange; font-size: 90px""><b>ø</b></div>","null","","","","forget_cue","","","","","","","","","","","","","","","",""
"html-keyboard-response","242","365851","0.0-4.0-1.0-0.38","uhk6k9t3v0b5ns8","prime","5f3fac9aecaa2b027a89663b","5f5a55364e9b770ed21874ff","5f60d83d77cc910572e75c11","false","null","<span style=""color: black; font-size: 48px"">M + N</span>","null","","","","resp_prompt","","","","","","","","","","","","","","","",""
"categorize-image","243","366471","0.0-4.0-1.0-1.38","uhk6k9t3v0b5ns8","prime","5f3fac9aecaa2b027a89663b","5f5a55364e9b770ed21874ff","5f60d83d77cc910572e75c11","true","606.1599999666214","./Stimuli/SelectedImages/LM/LM129.bmp","83","","","","test","true","M + N","83","switch","LM","LM129.bmp","remember","","87","3","prime1","left","","","",""
"html-keyboard-response","244","368475","0.0-4.0-1.0-3.38","uhk6k9t3v0b5ns8","prime","5f3fac9aecaa2b027a89663b","5f5a55364e9b770ed21874ff","5f60d83d77cc910572e75c11","false","null","<div style=""align-items: center; display: flex; color: dodgerblue; font-size: 90px""><b>o</b></div>","null","","","","forget_cue","","","","","","","","","","","","","","","",""
"html-keyboard-response","245","369179","0.0-4.0-1.0-0.39","uhk6k9t3v0b5ns8","prime","5f3fac9aecaa2b027a89663b","5f5a55364e9b770ed21874ff","5f60d83d77cc910572e75c11","false","null","<span style=""color: black; font-size: 48px"">M + N</span>","null","","","","resp_prompt","","","","","","","","","","","","","","","",""
"categorize-image","246","369666","0.0-4.0-1.0-1.39","uhk6k9t3v0b5ns8","prime","5f3fac9aecaa2b027a89663b","5f5a55364e9b770ed21874ff","5f60d83d77cc910572e75c11","true","482.5849999906495","./Stimuli/SelectedImages/SM/SM24.bmp","83","","","","test","true","M + N","83","switch","SM","SM24.bmp","forget","","88","3","prime1","left","","","",""
"html-keyboard-response","247","371670","0.0-4.0-1.0-3.39","uhk6k9t3v0b5ns8","prime","5f3fac9aecaa2b027a89663b","5f5a55364e9b770ed21874ff","5f60d83d77cc910572e75c11","false","null","<div style=""align-items: center; display: flex; color: darkorange; font-size: 90px""><b>ø</b></div>","null","","","","forget_cue","","","","","","","","","","","","","","","",""
"html-keyboard-response","248","372374","0.0-4.0-1.0-0.40","uhk6k9t3v0b5ns8","prime","5f3fac9aecaa2b027a89663b","5f5a55364e9b770ed21874ff","5f60d83d77cc910572e75c11","false","null","<span style=""color: black; font-size: 48px"">N + M</span>","null","","","","resp_prompt","","","","","","","","","","","","","","","",""
"categorize-image","249","373015","0.0-4.0-1.0-1.40","uhk6k9t3v0b5ns8","prime","5f3fac9aecaa2b027a89663b","5f5a55364e9b770ed21874ff","5f60d83d77cc910572e75c11","true","636.7699999827892","./Stimuli/SelectedImages/SN/SN155.bmp","83","","","","test","true","N + M","83","repetition","SN","SN155.bmp","forget","","89","3","prime1","left","","","",""
"html-keyboard-response","250","375019","0.0-4.0-1.0-3.40","uhk6k9t3v0b5ns8","prime","5f3fac9aecaa2b027a89663b","5f5a55364e9b770ed21874ff","5f60d83d77cc910572e75c11","false","null","<div style=""align-items: center; display: flex; color: darkorange; font-size: 90px""><b>ø</b></div>","null","","","","forget_cue","","","","","","","","","","","","","","","",""
"html-keyboard-response","251","375723","0.0-4.0-1.0-0.41","uhk6k9t3v0b5ns8","prime","5f3fac9aecaa2b027a89663b","5f5a55364e9b770ed21874ff","5f60d83d77cc910572e75c11","false","null","<span style=""color: black; font-size: 48px"">M + N</span>","null","","","","resp_prompt","","","","","","","","","","","","","","","",""
"categorize-image","252","376459","0.0-4.0-1.0-1.41","uhk6k9t3v0b5ns8","prime","5f3fac9aecaa2b027a89663b","5f5a55364e9b770ed21874ff","5f60d83d77cc910572e75c11","true","731.03500000434","./Stimuli/SelectedImages/SN/SN182.bmp","76","","","","test","true","M + N","76","repetition","SN","SN182.bmp","remember","","90","3","prime1","right","","","",""
"html-keyboard-response","253","378464","0.0-4.0-1.0-3.41","uhk6k9t3v0b5ns8","prime","5f3fac9aecaa2b027a89663b","5f5a55364e9b770ed21874ff","5f60d83d77cc910572e75c11","false","null","<div style=""align-items: center; display: flex; color: dodgerblue; font-size: 90px""><b>o</b></div>","null","","","","forget_cue","","","","","","","","","","","","","","","",""
