"trial_type","trial_index","time_elapsed","internal_node_id","subject","exp_part","prolific_PID","study_ID","session_ID","use","rt","stimulus","key_press","button_pressed","responses","question_order","trial_part","correct","resp_map","correct_resp","probe_condition","category","image","forget_condition","list","trial_num","block_num","block","response","test_part","n_span","sequence","num_spaces"
"pavlovia","0","5","0.0-0.0","8bxgsavwxaun3dr","","5ec6a189a077bc0ab10c2269","5f60e3c0a3b16e07647b2ff9","5f60ec6027665101639a9c67","false","","","","","","","","","","","","","","","","","","","","","","",""
"html-keyboard-response","1","17848","0.0-1.0-0.0-0.0","8bxgsavwxaun3dr","welcome","5ec6a189a077bc0ab10c2269","5f60e3c0a3b16e07647b2ff9","5f60ec6027665101639a9c67","false","17840.45000001788","<div align=left>Dear participant, <br> thank you for participating in an online study of the Cognition, Action, and Sustainability Unit of the University of Freiburg! <br> <br>The aim of this study is to examine our ability to remember previously learned information. <br>Our goal is to find out, whether our memory improves, when we only remember information that is relevant to us. <br>The experiment will take about 35 minutes to complete. <br> <br>Please, note that you can only participate in this study if you are using a device with a keyboard (PC, Laptop etc.) <br>and not if you are using a mobile device such as a tablet or smartphone.<br> <br>Press 'SPACE' to proceed to the experiment. </div>","32","","","","","","","","","","","","","","","","","","","",""
"html-keyboard-response","2","50053","0.0-1.0-0.0-1.0","8bxgsavwxaun3dr","welcome","5ec6a189a077bc0ab10c2269","5f60e3c0a3b16e07647b2ff9","5f60ec6027665101639a9c67","false","32202.119999972638","<div align=left><strong> Time Course of this experiment: </strong> <br><br> <strong> 1.</strong>  First, please fill in some information regarding your demographic data. <br><br> <strong> 2.</strong>  Next, your task will be to classify everyday objects. <br>In addition, you will be asked to remember certain objects and recall them later. <br>Working on these tasks requires your undivided attention and concentration.<br>It is therefore essential that you eliminate any sources of distraction in your  <br>environment and ensure that you will not be disturbed. <br><br><strong> 3.</strong>  At the end of the experiment, you will be asked to answer a few additional questions. <br> <br><strong> Important:</strong> After finishing the experiment, only close the browser window <br> by clicking on the 'end the experiment'-button when you are asked to do so. <br>Closing the browser window prematurely will make the allocation of your participation credit impossible. <br><br> Press 'SPACE' to start the experiment. </div>","32","","","","","","","","","","","","","","","","","","","",""
"html-button-response","3","53434","0.0-1.0-0.0-2.0","8bxgsavwxaun3dr","welcome","5ec6a189a077bc0ab10c2269","5f60e3c0a3b16e07647b2ff9","5f60ec6027665101639a9c67","true","3377.180000010412","<div align=left><strong> Informed consent </strong>  <br>The aim of our research is to better understand human behavior and mental processes. <br>In the following study your behavior (e.g. choices, reaction times) will be studied. <br> <br><strong> Voluntariness and Anonymity </strong> <br>Your participation in this study is  <strong> voluntary</strong>.<br>You may withdraw your consent to participate at any time without providing a reason for doing so and without fear of prejudice. <br><br>As no personal data will be collected, <strong>your data and your person cannot be connected after data collection</strong> – the data-set is anonymous. <br>Respectively, deletion of your data will not be possible after data collection has been completed, as we cannot retrace your data-set.<br>The results and anonymized data collected in this study will be published as a scientific publication. <br>This will happen in an <strong>anonymized format</strong>, so that no data can be traced back to a specific person. <br> <br>The anonymized data of this study will be made available to other researchers and/or in a data archive on the Internet as a means of transparency and to enable subsequent re-use. By doing so, this study follows the recommendations of the Deutsche Forschungsgemeinschaft (DFG, German Research Foundation) and Deutsche Gesellschaft für Psychologie (DGPS, German Psychological Society) regarding quality assurance in research.<br>If you have any questions now or after the experiment, please contact our team (experiments@cs.uni-freiburg.de).<br><br><br>I hereby declare, that I understand the above described conditions of participation and I agree to participate under these conditions. <br><br> </div>","","0","","","","","","","","","","","","","","","","","","",""
"html-keyboard-response","4","72152","0.0-1.0-0.0-3.0","8bxgsavwxaun3dr","welcome","5ec6a189a077bc0ab10c2269","5f60e3c0a3b16e07647b2ff9","5f60ec6027665101639a9c67","false","18713.630000012927","<div align=left><strong> General information concerning the experiment </strong>  <br> <br>Please follow the instructions:<ol> <li><strong> Do not leave this tab (your browser window) during the experiment and do not reload this tab! </strong>  <br>If you do switch tabs/windows during the experiment (to check your mail or visit another website, for example), <br>the experiment will end automatically and you will <strong>not receive credit</strong> for your participation. <br>Repeated participation or resumption of the experiment is impossible.</li> <br><li>Please close all other programs for the duration of your participation. </li> <br><li>Please mute or turn off your phone and put it out of your reach. </li> <br><li>Please also take off any disturbing accessories (such as wristwatches, bracelets, etc.). </li> <br><li>If you have music playing in the background, please turn it off now. </li> <br></ol>Thank you! <br>Press 'SPACE' to continue. </div>","32","","","","","","","","","","","","","","","","","","","",""
"survey-text","5","75803","0.0-1.0-1.0-0.0","8bxgsavwxaun3dr","demographics","5ec6a189a077bc0ab10c2269","5f60e3c0a3b16e07647b2ff9","5f60ec6027665101639a9c67","true","3632.9750000149943","","","","{""age"":""23""}","","","","","","","","","","","","","","","","","",""
"survey-multi-choice","6","95146","0.0-1.0-1.0-1.0","8bxgsavwxaun3dr","demographics","5ec6a189a077bc0ab10c2269","5f60e3c0a3b16e07647b2ff9","5f60ec6027665101639a9c67","true","19338.13500002725","","","","{""gender"":""female"",""school"":""high school"",""education"":""Completed university degree or equivalent""}","[0,1,2]","","","","","","","","","","","","","","","","",""
"html-keyboard-response","7","132462","0.0-1.0-2.0","8bxgsavwxaun3dr","instructions","5ec6a189a077bc0ab10c2269","5f60e3c0a3b16e07647b2ff9","5f60ec6027665101639a9c67","false","37306.73000001116","<div align=left> The experiment is now about to start: <br> <br>In the following part, you will be presented pictures of everyday objects. <br>Your first task is to <strong>classify these objects. </strong> <br> <br> You will classify them either as mechanical or non-mechanical objects. <br> <br>Objects that include any kind of technical mechanism (for example, wheels, switches, levers, <br> electronic components) fall under the category of <strong>mechanical</strong> objects. <br>Only objects without any kind of technical mechanism should be classified as <strong>non-mechanical</strong>. <br><br>Press 'SPACE' to continue. </div>","32","","","","","","","","","","","","","","","","","","","",""
"html-keyboard-response","8","168161","0.0-2.0-0.0","8bxgsavwxaun3dr","instructions","5ec6a189a077bc0ab10c2269","5f60e3c0a3b16e07647b2ff9","5f60ec6027665101639a9c67","false","35696.50499999989","<div align=justify>You will classify the objects using the <strong>'S'</strong> and the <strong>'L'</strong> keys on your keyboard.<br>For doing so, please place your <strong>left index finger</strong> on the <strong>'S'</strong> key and place your <strong>right index finger</strong> on the <strong>'L'</strong> key. <br><br> Each trial starts with an instruction, indicating which key ('S'/'L') you need to press to classify <br>the object as mechanical (letter M) or non-mechanical (letter N).<br>The instruction <strong>M + N</strong> indicates that, in the current trial, by pressing the left key ('S') you classify the displayed object as mechanical (M) <br> and by pressing the right key ('L') you classify the object as non-mechanical (N). <br>The instruction <strong>N + M</strong> on the other hand indicates that by pressing the left key ('S') you classify the displayed object as non-mechanical (N) <br> and by pressing the right key ('L') you classify the object as mechanical (M). <br><br>Please press the key corresponding to the correct classification as fast as possible as soon as the object is displayed and try to avoid making mistakes.<br>If you do not respond within a 2 second window, a corresponding feedback will be displayed and the next trial will start.<br> The experiment is divided into multiple blocks to give you the opportunity to take a break after each block. <br>First, you can now practice this task. <br><br>Please place your <strong>LEFT INDEX FINGER</strong> on the 'S' key and your <strong>RIGHT INDEX FINGER</strong> on the 'L' key now. <br><br>Press SPACE to continue.</div>","32","","","","","","","","","","","","","","","","","","","",""
"html-keyboard-response","9","176022","0.0-2.0-1.0","8bxgsavwxaun3dr","instructions","5ec6a189a077bc0ab10c2269","5f60e3c0a3b16e07647b2ff9","5f60ec6027665101639a9c67","false","7858.7850000476465","<div align=left> You will now have time to practice this task.<br><br>Remember: <br> <br><li>Please place your index fingers on the <strong>'S'</strong> and <strong>'L'</strong> keys <br>to respond as fast and accurately as possible.</li><li>Every picture can be classified as either mechanical or non-mechanical.</li><li>If you do not respond in time or commit an error, you will receive a corresponding feedback. </li><li> Please try to respond as <strong> fast </strong> and as <strong> accurately as possible </strong> .<br><li>To ensure optimal results, please minimize distractions and stay focused. </li><br><br>Press SPACE to continue.</div>","32","","","","","","","","","","","","","","","","","","","",""
"html-keyboard-response","10","176730","0.0-2.0-2.0-0.0","8bxgsavwxaun3dr","practice_no_cue","5ec6a189a077bc0ab10c2269","5f60e3c0a3b16e07647b2ff9","5f60ec6027665101639a9c67","false","null","<span style=""color: black; font-size: 48px"">M + N</span>","null","","","","resp_prompt","","","","","","","","","","","","","","","",""
"categorize-image","11","178171","0.0-2.0-2.0-1.0","8bxgsavwxaun3dr","practice_no_cue","5ec6a189a077bc0ab10c2269","5f60e3c0a3b16e07647b2ff9","5f60ec6027665101639a9c67","true","936.905000009574","./Stimuli/ImagesPractice/LM55.jpg","83","","","","test","true","M + N","83","","LM","LM55.jpg","remember","old","1","1","start","left","","","",""
"html-keyboard-response","12","178874","0.0-2.0-2.0-0.1","8bxgsavwxaun3dr","practice_no_cue","5ec6a189a077bc0ab10c2269","5f60e3c0a3b16e07647b2ff9","5f60ec6027665101639a9c67","false","null","<span style=""color: black; font-size: 48px"">M + N</span>","null","","","","resp_prompt","","","","","","","","","","","","","","","",""
"categorize-image","13","180234","0.0-2.0-2.0-1.1","8bxgsavwxaun3dr","practice_no_cue","5ec6a189a077bc0ab10c2269","5f60e3c0a3b16e07647b2ff9","5f60ec6027665101639a9c67","true","854.2950000264682","./Stimuli/ImagesPractice/LN4.jpg","76","","","","test","true","M + N","76","","LN","LN4.jpg","forget","old","2","1","start","right","","","",""
"html-keyboard-response","14","180936","0.0-2.0-2.0-0.2","8bxgsavwxaun3dr","practice_no_cue","5ec6a189a077bc0ab10c2269","5f60e3c0a3b16e07647b2ff9","5f60ec6027665101639a9c67","false","null","<span style=""color: black; font-size: 48px"">N + M</span>","null","","","","resp_prompt","","","","","","","","","","","","","","","",""
"categorize-image","15","183209","0.0-2.0-2.0-1.2","8bxgsavwxaun3dr","practice_no_cue","5ec6a189a077bc0ab10c2269","5f60e3c0a3b16e07647b2ff9","5f60ec6027665101639a9c67","true","1769.815000006929","./Stimuli/ImagesPractice/LM239.jpg","83","","","","test","false","N + M","76","","LM","LM239.jpg","remember","old","3","1","start","left","","","",""
"html-keyboard-response","16","183915","0.0-2.0-2.0-0.3","8bxgsavwxaun3dr","practice_no_cue","5ec6a189a077bc0ab10c2269","5f60e3c0a3b16e07647b2ff9","5f60ec6027665101639a9c67","false","null","<span style=""color: black; font-size: 48px"">N + M</span>","null","","","","resp_prompt","","","","","","","","","","","","","","","",""
"categorize-image","17","186064","0.0-2.0-2.0-1.3","8bxgsavwxaun3dr","practice_no_cue","5ec6a189a077bc0ab10c2269","5f60e3c0a3b16e07647b2ff9","5f60ec6027665101639a9c67","true","1642.0100000104867","./Stimuli/ImagesPractice/LM143.jpg","76","","","","test","true","N + M","76","","LM","LM143.jpg","remember","old","4","1","start","right","","","",""
"html-keyboard-response","18","186769","0.0-2.0-2.0-0.4","8bxgsavwxaun3dr","practice_no_cue","5ec6a189a077bc0ab10c2269","5f60e3c0a3b16e07647b2ff9","5f60ec6027665101639a9c67","false","null","<span style=""color: black; font-size: 48px"">N + M</span>","null","","","","resp_prompt","","","","","","","","","","","","","","","",""
"categorize-image","19","188218","0.0-2.0-2.0-1.4","8bxgsavwxaun3dr","practice_no_cue","5ec6a189a077bc0ab10c2269","5f60e3c0a3b16e07647b2ff9","5f60ec6027665101639a9c67","true","944.5149999810383","./Stimuli/ImagesPractice/LN72.jpg","83","","","","test","true","N + M","83","","LN","LN72.jpg","forget","old","5","1","start","left","","","",""
"html-keyboard-response","20","188924","0.0-2.0-2.0-0.5","8bxgsavwxaun3dr","practice_no_cue","5ec6a189a077bc0ab10c2269","5f60e3c0a3b16e07647b2ff9","5f60ec6027665101639a9c67","false","null","<span style=""color: black; font-size: 48px"">N + M</span>","null","","","","resp_prompt","","","","","","","","","","","","","","","",""
"categorize-image","21","191196","0.0-2.0-2.0-1.5","8bxgsavwxaun3dr","practice_no_cue","5ec6a189a077bc0ab10c2269","5f60e3c0a3b16e07647b2ff9","5f60ec6027665101639a9c67","true","1765.079999982845","./Stimuli/ImagesPractice/SN220.jpg","83","","","","test","true","N + M","83","","SN","SN220.jpg","forget","old","6","1","start","left","","","",""
"html-keyboard-response","22","191902","0.0-2.0-2.0-0.6","8bxgsavwxaun3dr","practice_no_cue","5ec6a189a077bc0ab10c2269","5f60e3c0a3b16e07647b2ff9","5f60ec6027665101639a9c67","false","null","<span style=""color: black; font-size: 48px"">N + M</span>","null","","","","resp_prompt","","","","","","","","","","","","","","","",""
"categorize-image","23","193328","0.0-2.0-2.0-1.6","8bxgsavwxaun3dr","practice_no_cue","5ec6a189a077bc0ab10c2269","5f60e3c0a3b16e07647b2ff9","5f60ec6027665101639a9c67","true","919.579999987036","./Stimuli/ImagesPractice/LN2.jpg","83","","","","test","true","N + M","83","","LN","LN2.jpg","remember","old","7","1","start","left","","","",""
"html-keyboard-response","24","194031","0.0-2.0-2.0-0.7","8bxgsavwxaun3dr","practice_no_cue","5ec6a189a077bc0ab10c2269","5f60e3c0a3b16e07647b2ff9","5f60ec6027665101639a9c67","false","null","<span style=""color: black; font-size: 48px"">M + N</span>","null","","","","resp_prompt","","","","","","","","","","","","","","","",""
"categorize-image","25","195835","0.0-2.0-2.0-1.7","8bxgsavwxaun3dr","practice_no_cue","5ec6a189a077bc0ab10c2269","5f60e3c0a3b16e07647b2ff9","5f60ec6027665101639a9c67","true","1299.6849999763072","./Stimuli/ImagesPractice/LN17.jpg","76","","","","test","true","M + N","76","","LN","LN17.jpg","forget","old","8","1","start","right","","","",""
"html-keyboard-response","26","196543","0.0-2.0-2.0-0.8","8bxgsavwxaun3dr","practice_no_cue","5ec6a189a077bc0ab10c2269","5f60e3c0a3b16e07647b2ff9","5f60ec6027665101639a9c67","false","null","<span style=""color: black; font-size: 48px"">M + N</span>","null","","","","resp_prompt","","","","","","","","","","","","","","","",""
"categorize-image","27","198077","0.0-2.0-2.0-1.8","8bxgsavwxaun3dr","practice_no_cue","5ec6a189a077bc0ab10c2269","5f60e3c0a3b16e07647b2ff9","5f60ec6027665101639a9c67","true","1027.574999956414","./Stimuli/ImagesPractice/SM35.jpg","83","","","","test","true","M + N","83","","SM","SM35.jpg","remember","old","9","1","start","left","","","",""
"html-keyboard-response","28","198784","0.0-2.0-2.0-0.9","8bxgsavwxaun3dr","practice_no_cue","5ec6a189a077bc0ab10c2269","5f60e3c0a3b16e07647b2ff9","5f60ec6027665101639a9c67","false","null","<span style=""color: black; font-size: 48px"">N + M</span>","null","","","","resp_prompt","","","","","","","","","","","","","","","",""
"categorize-image","29","201009","0.0-2.0-2.0-1.9","8bxgsavwxaun3dr","practice_no_cue","5ec6a189a077bc0ab10c2269","5f60e3c0a3b16e07647b2ff9","5f60ec6027665101639a9c67","true","1720.2300000353716","./Stimuli/ImagesPractice/SN205.jpg","83","","","","test","true","N + M","83","","SN","SN205.jpg","remember","old","10","1","start","left","","","",""
"html-keyboard-response","30","201710","0.0-2.0-2.0-0.10","8bxgsavwxaun3dr","practice_no_cue","5ec6a189a077bc0ab10c2269","5f60e3c0a3b16e07647b2ff9","5f60ec6027665101639a9c67","false","null","<span style=""color: black; font-size: 48px"">M + N</span>","null","","","","resp_prompt","","","","","","","","","","","","","","","",""
"categorize-image","31","203503","0.0-2.0-2.0-1.10","8bxgsavwxaun3dr","practice_no_cue","5ec6a189a077bc0ab10c2269","5f60e3c0a3b16e07647b2ff9","5f60ec6027665101639a9c67","true","1286.2699999823235","./Stimuli/ImagesPractice/SN222.jpg","76","","","","test","true","M + N","76","","SN","SN222.jpg","forget","old","11","1","start","right","","","",""
"html-keyboard-response","32","204208","0.0-2.0-2.0-0.11","8bxgsavwxaun3dr","practice_no_cue","5ec6a189a077bc0ab10c2269","5f60e3c0a3b16e07647b2ff9","5f60ec6027665101639a9c67","false","null","<span style=""color: black; font-size: 48px"">M + N</span>","null","","","","resp_prompt","","","","","","","","","","","","","","","",""
"categorize-image","33","206049","0.0-2.0-2.0-1.11","8bxgsavwxaun3dr","practice_no_cue","5ec6a189a077bc0ab10c2269","5f60e3c0a3b16e07647b2ff9","5f60ec6027665101639a9c67","true","1338.545000005979","./Stimuli/ImagesPractice/LM224.jpg","83","","","","test","true","M + N","83","","LM","LM224.jpg","remember","old","12","1","start","left","","","",""
"html-keyboard-response","34","206755","0.0-2.0-2.0-0.12","8bxgsavwxaun3dr","practice_no_cue","5ec6a189a077bc0ab10c2269","5f60e3c0a3b16e07647b2ff9","5f60ec6027665101639a9c67","false","null","<span style=""color: black; font-size: 48px"">M + N</span>","null","","","","resp_prompt","","","","","","","","","","","","","","","",""
"categorize-image","35","208723","0.0-2.0-2.0-1.12","8bxgsavwxaun3dr","practice_no_cue","5ec6a189a077bc0ab10c2269","5f60e3c0a3b16e07647b2ff9","5f60ec6027665101639a9c67","true","1463.404999987688","./Stimuli/ImagesPractice/SM61.jpg","83","","","","test","true","M + N","83","","SM","SM61.jpg","remember","old","13","1","start","left","","","",""
"html-keyboard-response","36","209427","0.0-2.0-2.0-0.13","8bxgsavwxaun3dr","practice_no_cue","5ec6a189a077bc0ab10c2269","5f60e3c0a3b16e07647b2ff9","5f60ec6027665101639a9c67","false","null","<span style=""color: black; font-size: 48px"">N + M</span>","null","","","","resp_prompt","","","","","","","","","","","","","","","",""
"categorize-image","37","211453","0.0-2.0-2.0-1.13","8bxgsavwxaun3dr","practice_no_cue","5ec6a189a077bc0ab10c2269","5f60e3c0a3b16e07647b2ff9","5f60ec6027665101639a9c67","true","1522.499999962747","./Stimuli/ImagesPractice/SM97.jpg","76","","","","test","true","N + M","76","","SM","SM97.jpg","forget","old","14","1","start","right","","","",""
"html-keyboard-response","38","212159","0.0-2.0-2.0-0.14","8bxgsavwxaun3dr","practice_no_cue","5ec6a189a077bc0ab10c2269","5f60e3c0a3b16e07647b2ff9","5f60ec6027665101639a9c67","false","null","<span style=""color: black; font-size: 48px"">M + N</span>","null","","","","resp_prompt","","","","","","","","","","","","","","","",""
"categorize-image","39","214436","0.0-2.0-2.0-1.14","8bxgsavwxaun3dr","practice_no_cue","5ec6a189a077bc0ab10c2269","5f60e3c0a3b16e07647b2ff9","5f60ec6027665101639a9c67","true","1771.6350000118837","./Stimuli/ImagesPractice/SN75.jpg","76","","","","test","true","M + N","76","","SN","SN75.jpg","forget","old","15","1","start","right","","","",""
"html-keyboard-response","40","215142","0.0-2.0-2.0-0.15","8bxgsavwxaun3dr","practice_no_cue","5ec6a189a077bc0ab10c2269","5f60e3c0a3b16e07647b2ff9","5f60ec6027665101639a9c67","false","null","<span style=""color: black; font-size: 48px"">N + M</span>","null","","","","resp_prompt","","","","","","","","","","","","","","","",""
"categorize-image","41","216913","0.0-2.0-2.0-1.15","8bxgsavwxaun3dr","practice_no_cue","5ec6a189a077bc0ab10c2269","5f60e3c0a3b16e07647b2ff9","5f60ec6027665101639a9c67","true","1266.6999999783002","./Stimuli/ImagesPractice/SM37.jpg","76","","","","test","true","N + M","76","","SM","SM37.jpg","forget","old","16","1","start","right","","","",""
"html-keyboard-response","42","223739","0.0-2.0-3.0","8bxgsavwxaun3dr","break","5ec6a189a077bc0ab10c2269","5f60e3c0a3b16e07647b2ff9","5f60ec6027665101639a9c67","false","6822.8849999723025","<p style='font-size: 32px;'>Break</><br><br><br><br><br><p style='font-size: 24px;'>In the last block, you committed 1 errors and did not respond in time on 0 trials.
</p><p style='font-size: 24px;'>Try to respond as fast and accurately as possible in the next block as well! </p><p style='font-size: 24px;'>Press SPACE to continue.</p>","32","","","","","","","","","","","","","","","","","","","",""
"html-keyboard-response","43","229270","0.0-2.0-4.0","8bxgsavwxaun3dr","instructions","5ec6a189a077bc0ab10c2269","5f60e3c0a3b16e07647b2ff9","5f60ec6027665101639a9c67","false","5529.444999992847","<div align=left> Great!<br><br>Are you ready to continue?<br><br>If you want to reread the instructions and redo the practice trials, <br>please press „Z“. <br><br>Press SPACE to CONTINUE with the experiment when you are ready. </div>","32","","","","","","","","","","","","","","","","","","","",""
"html-keyboard-response","44","255669","0.0-3.0-0.0","8bxgsavwxaun3dr","instructions","5ec6a189a077bc0ab10c2269","5f60e3c0a3b16e07647b2ff9","5f60ec6027665101639a9c67","false","26395.774999982677","<div align=left>Great!<br> <strong>Attention</strong>! You will now receive a second, additional task! <br><br>To this point it was you <strong>first task</strong> to correctly <strong>classify objects</strong>. <br><br>As mentioned in the beginning, we aim to examine how well humans can remember previously learned information.<br>We would like to find out whether our memory improves if we only remember information that is relevant to us. <br><br>Therefore, your <strong>second task</strong> will be to <strong>remember</strong> the pictures you are to categorize. <br> After the learning phase, there will be a memory test phase, in which you will be asked to indicate whether you have seen a picture before or not. <br>Some, but not all pictures shown in the learning phase will appear in the memory test phase.<br>After classifying a picture, you will be told whether you should remember it for the memory test phase or not. <br>Thus, some pictures can be forgotten, whereas others have to be remembered. <br><br>Note: From now on, feedback will only be displayed if you responded incorrectly or not in time.<br><br>Press SPACE to continue.</div>","32","","","","","","","","","","","","","","","","","","","",""
"html-keyboard-response","45","268789","0.0-3.0-1.0","8bxgsavwxaun3dr","instructions","5ec6a189a077bc0ab10c2269","5f60e3c0a3b16e07647b2ff9","5f60ec6027665101639a9c67","false","13117.930000007618","<div align=left>In the following part, you will thus have to remember only some pictures. <br>Immediately after seeing and classifying the picture, a symbol will be displayed, indicating whether you should remember or forget the previous picture. <br><br>A <span style='color: dodgerblue; font-size: 28px'>O</span> indicates REMEMBER. That means, you have to remember this picture, because it will be tested later. <br><br>A <span style='color: darkorange; font-size:28px'>Ø</span> indicates FORGET. You do not have to remember this picture. <br><br> As you will have to remember a lot of pictures, it will be hard for you to remember all of them. <br>It will put you at an advantage if you instantly forget the pictures you are not asked to remember. <br> This will make it easier for you to remember the pictures that will be tested afterwards. <br><br>Press SPACE to continue.</div>","32","","","","","","","","","","","","","","","","","","","",""
"html-keyboard-response","46","273663","0.0-3.0-2.0","8bxgsavwxaun3dr","instructions","5ec6a189a077bc0ab10c2269","5f60e3c0a3b16e07647b2ff9","5f60ec6027665101639a9c67","false","4872.105000016745","<div align=left> Now you have the chance to practice both tasks together.<br><br>Remember: <br> <br><li>Please place your index fingers on the <strong>'S'</strong> and <strong>'L'</strong> keys <br>to respond as fast and accurately as possible.</li><li>Every picture can be classified as either mechanical or non-mechanical.</li><li>If you do not respond in time or commit an error, you will receive a corresponding feedback. <br>Please try to respond as <strong> fast </strong> and as <strong> accurately as possible </strong>.</li><li> Please remember only the to-be-remembered <span style='color: dodgerblue; font-size: 28px'>O</span> pictures. <br></li><li> Please minimize distractions and stay focused. </li><br><br>Press SPACE to START</div>","32","","","","","","","","","","","","","","","","","","","",""
"html-keyboard-response","47","274366","0.0-3.0-3.0-0.0","8bxgsavwxaun3dr","practice_cue","5ec6a189a077bc0ab10c2269","5f60e3c0a3b16e07647b2ff9","5f60ec6027665101639a9c67","false","null","<span style=""color: black; font-size: 48px"">N + M</span>","null","","","","resp_prompt","","","","","","","","","","","","","","","",""
"categorize-image","48","275474","0.0-3.0-3.0-1.0","8bxgsavwxaun3dr","practice_cue","5ec6a189a077bc0ab10c2269","5f60e3c0a3b16e07647b2ff9","5f60ec6027665101639a9c67","true","1103.015000000596","./Stimuli/ImagesPractice/LN72.jpg","83","","","","test","true","N + M","83","","LN","LN72.jpg","forget","old","17","2","practice_forget","left","","","",""
"html-keyboard-response","49","277480","0.0-3.0-3.0-3.0","8bxgsavwxaun3dr","practice_cue","5ec6a189a077bc0ab10c2269","5f60e3c0a3b16e07647b2ff9","5f60ec6027665101639a9c67","false","null","<div style=""align-items: center; display: flex; color: darkorange; font-size: 90px""><b>ø</b></div>","null","","","","forget_cue","","","","","","","","","","","","","","","",""
"html-keyboard-response","50","278181","0.0-3.0-3.0-0.1","8bxgsavwxaun3dr","practice_cue","5ec6a189a077bc0ab10c2269","5f60e3c0a3b16e07647b2ff9","5f60ec6027665101639a9c67","false","null","<span style=""color: black; font-size: 48px"">N + M</span>","null","","","","resp_prompt","","","","","","","","","","","","","","","",""
"categorize-image","51","279108","0.0-3.0-3.0-1.1","8bxgsavwxaun3dr","practice_cue","5ec6a189a077bc0ab10c2269","5f60e3c0a3b16e07647b2ff9","5f60ec6027665101639a9c67","true","921.9650000450201","./Stimuli/ImagesPractice/SN205.jpg","83","","","","test","true","N + M","83","","SN","SN205.jpg","remember","old","18","2","practice_forget","left","","","",""
"html-keyboard-response","52","281110","0.0-3.0-3.0-3.1","8bxgsavwxaun3dr","practice_cue","5ec6a189a077bc0ab10c2269","5f60e3c0a3b16e07647b2ff9","5f60ec6027665101639a9c67","false","null","<div style=""align-items: center; display: flex; color: dodgerblue; font-size: 90px""><b>o</b></div>","null","","","","forget_cue","","","","","","","","","","","","","","","",""
"html-keyboard-response","53","281816","0.0-3.0-3.0-0.2","8bxgsavwxaun3dr","practice_cue","5ec6a189a077bc0ab10c2269","5f60e3c0a3b16e07647b2ff9","5f60ec6027665101639a9c67","false","null","<span style=""color: black; font-size: 48px"">N + M</span>","null","","","","resp_prompt","","","","","","","","","","","","","","","",""
"categorize-image","54","282817","0.0-3.0-3.0-1.2","8bxgsavwxaun3dr","practice_cue","5ec6a189a077bc0ab10c2269","5f60e3c0a3b16e07647b2ff9","5f60ec6027665101639a9c67","true","996.7349999933504","./Stimuli/ImagesPractice/SM37.jpg","76","","","","test","true","N + M","76","","SM","SM37.jpg","forget","old","19","2","practice_forget","right","","","",""
"html-keyboard-response","55","284819","0.0-3.0-3.0-3.2","8bxgsavwxaun3dr","practice_cue","5ec6a189a077bc0ab10c2269","5f60e3c0a3b16e07647b2ff9","5f60ec6027665101639a9c67","false","null","<div style=""align-items: center; display: flex; color: darkorange; font-size: 90px""><b>ø</b></div>","null","","","","forget_cue","","","","","","","","","","","","","","","",""
"html-keyboard-response","56","285526","0.0-3.0-3.0-0.3","8bxgsavwxaun3dr","practice_cue","5ec6a189a077bc0ab10c2269","5f60e3c0a3b16e07647b2ff9","5f60ec6027665101639a9c67","false","null","<span style=""color: black; font-size: 48px"">M + N</span>","null","","","","resp_prompt","","","","","","","","","","","","","","","",""
"categorize-image","57","286608","0.0-3.0-3.0-1.3","8bxgsavwxaun3dr","practice_cue","5ec6a189a077bc0ab10c2269","5f60e3c0a3b16e07647b2ff9","5f60ec6027665101639a9c67","true","1077.8299999656156","./Stimuli/ImagesPractice/SM61.jpg","83","","","","test","true","M + N","83","","SM","SM61.jpg","remember","old","20","2","practice_forget","left","","","",""
"html-keyboard-response","58","288614","0.0-3.0-3.0-3.3","8bxgsavwxaun3dr","practice_cue","5ec6a189a077bc0ab10c2269","5f60e3c0a3b16e07647b2ff9","5f60ec6027665101639a9c67","false","null","<div style=""align-items: center; display: flex; color: dodgerblue; font-size: 90px""><b>o</b></div>","null","","","","forget_cue","","","","","","","","","","","","","","","",""
"html-keyboard-response","59","289317","0.0-3.0-3.0-0.4","8bxgsavwxaun3dr","practice_cue","5ec6a189a077bc0ab10c2269","5f60e3c0a3b16e07647b2ff9","5f60ec6027665101639a9c67","false","null","<span style=""color: black; font-size: 48px"">M + N</span>","null","","","","resp_prompt","","","","","","","","","","","","","","","",""
"categorize-image","60","290243","0.0-3.0-3.0-1.4","8bxgsavwxaun3dr","practice_cue","5ec6a189a077bc0ab10c2269","5f60e3c0a3b16e07647b2ff9","5f60ec6027665101639a9c67","true","921.5400000102818","./Stimuli/ImagesPractice/LN17.jpg","76","","","","test","true","M + N","76","","LN","LN17.jpg","forget","old","21","2","practice_forget","right","","","",""
"html-keyboard-response","61","292244","0.0-3.0-3.0-3.4","8bxgsavwxaun3dr","practice_cue","5ec6a189a077bc0ab10c2269","5f60e3c0a3b16e07647b2ff9","5f60ec6027665101639a9c67","false","null","<div style=""align-items: center; display: flex; color: darkorange; font-size: 90px""><b>ø</b></div>","null","","","","forget_cue","","","","","","","","","","","","","","","",""
"html-keyboard-response","62","292951","0.0-3.0-3.0-0.5","8bxgsavwxaun3dr","practice_cue","5ec6a189a077bc0ab10c2269","5f60e3c0a3b16e07647b2ff9","5f60ec6027665101639a9c67","false","null","<span style=""color: black; font-size: 48px"">N + M</span>","null","","","","resp_prompt","","","","","","","","","","","","","","","",""
"categorize-image","63","294170","0.0-3.0-3.0-1.5","8bxgsavwxaun3dr","practice_cue","5ec6a189a077bc0ab10c2269","5f60e3c0a3b16e07647b2ff9","5f60ec6027665101639a9c67","true","1215.2249999926426","./Stimuli/ImagesPractice/LM239.jpg","76","","","","test","true","N + M","76","","LM","LM239.jpg","remember","old","22","2","practice_forget","right","","","",""
"html-keyboard-response","64","296177","0.0-3.0-3.0-3.5","8bxgsavwxaun3dr","practice_cue","5ec6a189a077bc0ab10c2269","5f60e3c0a3b16e07647b2ff9","5f60ec6027665101639a9c67","false","null","<div style=""align-items: center; display: flex; color: dodgerblue; font-size: 90px""><b>o</b></div>","null","","","","forget_cue","","","","","","","","","","","","","","","",""
"html-keyboard-response","65","296878","0.0-3.0-3.0-0.6","8bxgsavwxaun3dr","practice_cue","5ec6a189a077bc0ab10c2269","5f60e3c0a3b16e07647b2ff9","5f60ec6027665101639a9c67","false","null","<span style=""color: black; font-size: 48px"">N + M</span>","null","","","","resp_prompt","","","","","","","","","","","","","","","",""
"categorize-image","66","297979","0.0-3.0-3.0-1.6","8bxgsavwxaun3dr","practice_cue","5ec6a189a077bc0ab10c2269","5f60e3c0a3b16e07647b2ff9","5f60ec6027665101639a9c67","true","1095.8600000012666","./Stimuli/ImagesPractice/LM143.jpg","76","","","","test","true","N + M","76","","LM","LM143.jpg","remember","old","23","2","practice_forget","right","","","",""
"html-keyboard-response","67","299985","0.0-3.0-3.0-3.6","8bxgsavwxaun3dr","practice_cue","5ec6a189a077bc0ab10c2269","5f60e3c0a3b16e07647b2ff9","5f60ec6027665101639a9c67","false","null","<div style=""align-items: center; display: flex; color: dodgerblue; font-size: 90px""><b>o</b></div>","null","","","","forget_cue","","","","","","","","","","","","","","","",""
"html-keyboard-response","68","300688","0.0-3.0-3.0-0.7","8bxgsavwxaun3dr","practice_cue","5ec6a189a077bc0ab10c2269","5f60e3c0a3b16e07647b2ff9","5f60ec6027665101639a9c67","false","null","<span style=""color: black; font-size: 48px"">N + M</span>","null","","","","resp_prompt","","","","","","","","","","","","","","","",""
"categorize-image","69","301552","0.0-3.0-3.0-1.7","8bxgsavwxaun3dr","practice_cue","5ec6a189a077bc0ab10c2269","5f60e3c0a3b16e07647b2ff9","5f60ec6027665101639a9c67","true","859.7500000032596","./Stimuli/ImagesPractice/SN220.jpg","83","","","","test","true","N + M","83","","SN","SN220.jpg","forget","old","24","2","practice_forget","left","","","",""
"html-keyboard-response","70","303557","0.0-3.0-3.0-3.7","8bxgsavwxaun3dr","practice_cue","5ec6a189a077bc0ab10c2269","5f60e3c0a3b16e07647b2ff9","5f60ec6027665101639a9c67","false","null","<div style=""align-items: center; display: flex; color: darkorange; font-size: 90px""><b>ø</b></div>","null","","","","forget_cue","","","","","","","","","","","","","","","",""
"html-keyboard-response","71","304262","0.0-3.0-3.0-0.8","8bxgsavwxaun3dr","practice_cue","5ec6a189a077bc0ab10c2269","5f60e3c0a3b16e07647b2ff9","5f60ec6027665101639a9c67","false","null","<span style=""color: black; font-size: 48px"">N + M</span>","null","","","","resp_prompt","","","","","","","","","","","","","","","",""
"categorize-image","72","305051","0.0-3.0-3.0-1.8","8bxgsavwxaun3dr","practice_cue","5ec6a189a077bc0ab10c2269","5f60e3c0a3b16e07647b2ff9","5f60ec6027665101639a9c67","true","784.1550000011921","./Stimuli/ImagesPractice/SM97.jpg","76","","","","test","true","N + M","76","","SM","SM97.jpg","forget","old","25","2","practice_forget","right","","","",""
"html-keyboard-response","73","307055","0.0-3.0-3.0-3.8","8bxgsavwxaun3dr","practice_cue","5ec6a189a077bc0ab10c2269","5f60e3c0a3b16e07647b2ff9","5f60ec6027665101639a9c67","false","null","<div style=""align-items: center; display: flex; color: darkorange; font-size: 90px""><b>ø</b></div>","null","","","","forget_cue","","","","","","","","","","","","","","","",""
"html-keyboard-response","74","307758","0.0-3.0-3.0-0.9","8bxgsavwxaun3dr","practice_cue","5ec6a189a077bc0ab10c2269","5f60e3c0a3b16e07647b2ff9","5f60ec6027665101639a9c67","false","null","<span style=""color: black; font-size: 48px"">M + N</span>","null","","","","resp_prompt","","","","","","","","","","","","","","","",""
"categorize-image","75","309350","0.0-3.0-3.0-1.9","8bxgsavwxaun3dr","practice_cue","5ec6a189a077bc0ab10c2269","5f60e3c0a3b16e07647b2ff9","5f60ec6027665101639a9c67","true","1587.6700000371784","./Stimuli/ImagesPractice/SN222.jpg","76","","","","test","true","M + N","76","","SN","SN222.jpg","forget","old","26","2","practice_forget","right","","","",""
"html-keyboard-response","76","311356","0.0-3.0-3.0-3.9","8bxgsavwxaun3dr","practice_cue","5ec6a189a077bc0ab10c2269","5f60e3c0a3b16e07647b2ff9","5f60ec6027665101639a9c67","false","null","<div style=""align-items: center; display: flex; color: darkorange; font-size: 90px""><b>ø</b></div>","null","","","","forget_cue","","","","","","","","","","","","","","","",""
"html-keyboard-response","77","312062","0.0-3.0-3.0-0.10","8bxgsavwxaun3dr","practice_cue","5ec6a189a077bc0ab10c2269","5f60e3c0a3b16e07647b2ff9","5f60ec6027665101639a9c67","false","null","<span style=""color: black; font-size: 48px"">M + N</span>","null","","","","resp_prompt","","","","","","","","","","","","","","","",""
"categorize-image","78","312587","0.0-3.0-3.0-1.10","8bxgsavwxaun3dr","practice_cue","5ec6a189a077bc0ab10c2269","5f60e3c0a3b16e07647b2ff9","5f60ec6027665101639a9c67","true","518.5700000147335","./Stimuli/ImagesPractice/LM224.jpg","83","","","","test","true","M + N","83","","LM","LM224.jpg","remember","old","27","2","practice_forget","left","","","",""
"html-keyboard-response","79","314590","0.0-3.0-3.0-3.10","8bxgsavwxaun3dr","practice_cue","5ec6a189a077bc0ab10c2269","5f60e3c0a3b16e07647b2ff9","5f60ec6027665101639a9c67","false","null","<div style=""align-items: center; display: flex; color: dodgerblue; font-size: 90px""><b>o</b></div>","null","","","","forget_cue","","","","","","","","","","","","","","","",""
"html-keyboard-response","80","315294","0.0-3.0-3.0-0.11","8bxgsavwxaun3dr","practice_cue","5ec6a189a077bc0ab10c2269","5f60e3c0a3b16e07647b2ff9","5f60ec6027665101639a9c67","false","null","<span style=""color: black; font-size: 48px"">M + N</span>","null","","","","resp_prompt","","","","","","","","","","","","","","","",""
"categorize-image","81","315958","0.0-3.0-3.0-1.11","8bxgsavwxaun3dr","practice_cue","5ec6a189a077bc0ab10c2269","5f60e3c0a3b16e07647b2ff9","5f60ec6027665101639a9c67","true","659.7999999648891","./Stimuli/ImagesPractice/LN4.jpg","76","","","","test","true","M + N","76","","LN","LN4.jpg","forget","old","28","2","practice_forget","right","","","",""
"html-keyboard-response","82","317963","0.0-3.0-3.0-3.11","8bxgsavwxaun3dr","practice_cue","5ec6a189a077bc0ab10c2269","5f60e3c0a3b16e07647b2ff9","5f60ec6027665101639a9c67","false","null","<div style=""align-items: center; display: flex; color: darkorange; font-size: 90px""><b>ø</b></div>","null","","","","forget_cue","","","","","","","","","","","","","","","",""
"html-keyboard-response","83","318669","0.0-3.0-3.0-0.12","8bxgsavwxaun3dr","practice_cue","5ec6a189a077bc0ab10c2269","5f60e3c0a3b16e07647b2ff9","5f60ec6027665101639a9c67","false","null","<span style=""color: black; font-size: 48px"">M + N</span>","null","","","","resp_prompt","","","","","","","","","","","","","","","",""
"categorize-image","84","319355","0.0-3.0-3.0-1.12","8bxgsavwxaun3dr","practice_cue","5ec6a189a077bc0ab10c2269","5f60e3c0a3b16e07647b2ff9","5f60ec6027665101639a9c67","true","681.9999999715947","./Stimuli/ImagesPractice/SN75.jpg","76","","","","test","true","M + N","76","","SN","SN75.jpg","forget","old","29","2","practice_forget","right","","","",""
"html-keyboard-response","85","321361","0.0-3.0-3.0-3.12","8bxgsavwxaun3dr","practice_cue","5ec6a189a077bc0ab10c2269","5f60e3c0a3b16e07647b2ff9","5f60ec6027665101639a9c67","false","null","<div style=""align-items: center; display: flex; color: darkorange; font-size: 90px""><b>ø</b></div>","null","","","","forget_cue","","","","","","","","","","","","","","","",""
"html-keyboard-response","86","322066","0.0-3.0-3.0-0.13","8bxgsavwxaun3dr","practice_cue","5ec6a189a077bc0ab10c2269","5f60e3c0a3b16e07647b2ff9","5f60ec6027665101639a9c67","false","null","<span style=""color: black; font-size: 48px"">M + N</span>","null","","","","resp_prompt","","","","","","","","","","","","","","","",""
"categorize-image","87","322761","0.0-3.0-3.0-1.13","8bxgsavwxaun3dr","practice_cue","5ec6a189a077bc0ab10c2269","5f60e3c0a3b16e07647b2ff9","5f60ec6027665101639a9c67","true","691.0299999872223","./Stimuli/ImagesPractice/SM35.jpg","83","","","","test","true","M + N","83","","SM","SM35.jpg","remember","old","30","2","practice_forget","left","","","",""
"html-keyboard-response","88","324762","0.0-3.0-3.0-3.13","8bxgsavwxaun3dr","practice_cue","5ec6a189a077bc0ab10c2269","5f60e3c0a3b16e07647b2ff9","5f60ec6027665101639a9c67","false","null","<div style=""align-items: center; display: flex; color: dodgerblue; font-size: 90px""><b>o</b></div>","null","","","","forget_cue","","","","","","","","","","","","","","","",""
"html-keyboard-response","89","325464","0.0-3.0-3.0-0.14","8bxgsavwxaun3dr","practice_cue","5ec6a189a077bc0ab10c2269","5f60e3c0a3b16e07647b2ff9","5f60ec6027665101639a9c67","false","null","<span style=""color: black; font-size: 48px"">M + N</span>","null","","","","resp_prompt","","","","","","","","","","","","","","","",""
"categorize-image","90","326145","0.0-3.0-3.0-1.14","8bxgsavwxaun3dr","practice_cue","5ec6a189a077bc0ab10c2269","5f60e3c0a3b16e07647b2ff9","5f60ec6027665101639a9c67","true","676.0699999867938","./Stimuli/ImagesPractice/LM55.jpg","83","","","","test","true","M + N","83","","LM","LM55.jpg","remember","old","31","2","practice_forget","left","","","",""
"html-keyboard-response","91","328147","0.0-3.0-3.0-3.14","8bxgsavwxaun3dr","practice_cue","5ec6a189a077bc0ab10c2269","5f60e3c0a3b16e07647b2ff9","5f60ec6027665101639a9c67","false","null","<div style=""align-items: center; display: flex; color: dodgerblue; font-size: 90px""><b>o</b></div>","null","","","","forget_cue","","","","","","","","","","","","","","","",""
"html-keyboard-response","92","328853","0.0-3.0-3.0-0.15","8bxgsavwxaun3dr","practice_cue","5ec6a189a077bc0ab10c2269","5f60e3c0a3b16e07647b2ff9","5f60ec6027665101639a9c67","false","null","<span style=""color: black; font-size: 48px"">N + M</span>","null","","","","resp_prompt","","","","","","","","","","","","","","","",""
"categorize-image","93","329606","0.0-3.0-3.0-1.15","8bxgsavwxaun3dr","practice_cue","5ec6a189a077bc0ab10c2269","5f60e3c0a3b16e07647b2ff9","5f60ec6027665101639a9c67","true","748.7599999876693","./Stimuli/ImagesPractice/LN2.jpg","83","","","","test","true","N + M","83","","LN","LN2.jpg","remember","old","32","2","practice_forget","left","","","",""
"html-keyboard-response","94","331609","0.0-3.0-3.0-3.15","8bxgsavwxaun3dr","practice_cue","5ec6a189a077bc0ab10c2269","5f60e3c0a3b16e07647b2ff9","5f60ec6027665101639a9c67","false","null","<div style=""align-items: center; display: flex; color: dodgerblue; font-size: 90px""><b>o</b></div>","null","","","","forget_cue","","","","","","","","","","","","","","","",""
"html-keyboard-response","95","333807","0.0-3.0-4.0","8bxgsavwxaun3dr","break","5ec6a189a077bc0ab10c2269","5f60e3c0a3b16e07647b2ff9","5f60ec6027665101639a9c67","false","2196.0800000233576","<p style='font-size: 32px;'>Break</><br><br><br><br><br><p style='font-size: 24px;'>In the last block, you committed 0 errors and did not respond in time on 0 trials.
</p><p style='font-size: 24px;'>Try to respond as fast and accurately as possible in the next block as well! </p><p style='font-size: 24px;'>Press SPACE to continue.</p>","32","","","","","","","","","","","","","","","","","","","",""
"html-keyboard-response","96","354535","0.0-3.0-5.0","8bxgsavwxaun3dr","instructions","5ec6a189a077bc0ab10c2269","5f60e3c0a3b16e07647b2ff9","5f60ec6027665101639a9c67","false","20726.574999978766","<div align=left> Now, to practice, we kindly ask you to remember as many of the to-be-remembered pictures<br>of the previous learning phase as possible.<br><br>The pictures you were instructed to remember were the pictures followed by a <span style='color: dodgerblue; font-size: 28px'>O</span>.<br><br>In this memory test phase, you will also see some new pictures.<br>It is your task to remember whether you were presented with this specific picture in this study so far or not.<br>If you recognize an object (you have already seen it in this study), it is an OLD object. <br>If you do not recognize an object (you have NOT seen it in this study), it is a NEW object. <br><strong> Attention</strong>: As already mentioned, <span style='color: darkorange; font-size:28px'>Ø</span>-pictures will <strong>never</strong> appear in this memory test (neither as new objects). <br><br>Press SPACE to continue. </div>","32","","","","","","","","","","","","","","","","","","","",""
"html-keyboard-response","97","375803","0.0-3.0-6.0","8bxgsavwxaun3dr","instructions","5ec6a189a077bc0ab10c2269","5f60e3c0a3b16e07647b2ff9","5f60ec6027665101639a9c67","false","21264.945000002626","<div align=left> M and N no longer will appear on the left/right of the fixation cross. <br>Instead there will be a note at the bottom of the left or right side  <br>indicating which key you should press for an old or new object:  <br> <br>Press the <strong>right</strong> key to classify an object as <strong>old</strong> and press the <strong>left</strong>, to classify an object as <strong>new</strong>.<br>Please classify the objects as new/old by again placing your index finger on the 'S' and 'L' keys <br>and press them accordingly.<br><br><strong>Old:</strong> This object has been presented before. <br><strong>New:</strong> This object has <strong>not</strong> been presented.<br><br>Now please put your right and left index fingers on the 'S' and 'L' keys of your keyboard. <br>Please respond as fast and as accurately as possible!<br><br>Press SPACE to continue. </div>","32","","","","","","","","","","","","","","","","","","","",""
"categorize-image","98","378102","0.0-3.0-7.0-0.0","8bxgsavwxaun3dr","practice_recog","5ec6a189a077bc0ab10c2269","5f60e3c0a3b16e07647b2ff9","5f60ec6027665101639a9c67","true","1795.1149999862537","./Stimuli/ImagesPractice/SN205.jpg","76","","","","test","true","","76","","SN","SN205.jpg","","old","33","3","practice_recog","right","","","",""
"categorize-image","99","379761","0.0-3.0-7.0-0.1","8bxgsavwxaun3dr","practice_recog","5ec6a189a077bc0ab10c2269","5f60e3c0a3b16e07647b2ff9","5f60ec6027665101639a9c67","true","1152.2499999846332","./Stimuli/ImagesPractice/SN76.jpg","83","","","","test","true","","83","","SN","SN76.jpg","","new","34","3","practice_recog","left","","","",""
"categorize-image","100","381063","0.0-3.0-7.0-0.2","8bxgsavwxaun3dr","practice_recog","5ec6a189a077bc0ab10c2269","5f60e3c0a3b16e07647b2ff9","5f60ec6027665101639a9c67","true","798.5599999665283","./Stimuli/ImagesPractice/SM98.jpg","83","","","","test","true","","83","","SM","SM98.jpg","","new","35","3","practice_recog","left","","","",""
"categorize-image","101","382262","0.0-3.0-7.0-0.3","8bxgsavwxaun3dr","practice_recog","5ec6a189a077bc0ab10c2269","5f60e3c0a3b16e07647b2ff9","5f60ec6027665101639a9c67","true","696.8099999940023","./Stimuli/ImagesPractice/SM62.jpg","83","","","","test","true","","83","","SM","SM62.jpg","","new","36","3","practice_recog","left","","","",""
"categorize-image","102","383568","0.0-3.0-7.0-0.4","8bxgsavwxaun3dr","practice_recog","5ec6a189a077bc0ab10c2269","5f60e3c0a3b16e07647b2ff9","5f60ec6027665101639a9c67","true","800.1749999821186","./Stimuli/ImagesPractice/LM147.jpg","83","","","","test","true","","83","","LM","LM147.jpg","","new","37","3","practice_recog","left","","","",""
"categorize-image","103","385364","0.0-3.0-7.0-0.5","8bxgsavwxaun3dr","practice_recog","5ec6a189a077bc0ab10c2269","5f60e3c0a3b16e07647b2ff9","5f60ec6027665101639a9c67","true","1289.2700000084005","./Stimuli/ImagesPractice/LM239.jpg","76","","","","test","true","","76","","LM","LM239.jpg","","old","38","3","practice_recog","right","","","",""
"categorize-image","104","386959","0.0-3.0-7.0-0.6","8bxgsavwxaun3dr","practice_recog","5ec6a189a077bc0ab10c2269","5f60e3c0a3b16e07647b2ff9","5f60ec6027665101639a9c67","true","1090.2100000530481","./Stimuli/ImagesPractice/LM55.jpg","76","","","","test","true","","76","","LM","LM55.jpg","","old","39","3","practice_recog","right","","","",""
"categorize-image","105","388543","0.0-3.0-7.0-0.7","8bxgsavwxaun3dr","practice_recog","5ec6a189a077bc0ab10c2269","5f60e3c0a3b16e07647b2ff9","5f60ec6027665101639a9c67","true","1077.2100000176579","./Stimuli/ImagesPractice/LN15.jpg","83","","","","test","true","","83","","LN","LN15.jpg","","new","40","3","practice_recog","left","","","",""
"categorize-image","106","389942","0.0-3.0-7.0-0.8","8bxgsavwxaun3dr","practice_recog","5ec6a189a077bc0ab10c2269","5f60e3c0a3b16e07647b2ff9","5f60ec6027665101639a9c67","true","896.004999987781","./Stimuli/ImagesPractice/LM224.jpg","76","","","","test","true","","76","","LM","LM224.jpg","","old","41","3","practice_recog","right","","","",""
"categorize-image","107","392677","0.0-3.0-7.0-0.9","8bxgsavwxaun3dr","practice_recog","5ec6a189a077bc0ab10c2269","5f60e3c0a3b16e07647b2ff9","5f60ec6027665101639a9c67","true","2230.664999980945","./Stimuli/ImagesPractice/LN2.jpg","76","","","","test","true","","76","","LN","LN2.jpg","","old","42","3","practice_recog","right","","","",""
"categorize-image","108","393986","0.0-3.0-7.0-0.10","8bxgsavwxaun3dr","practice_recog","5ec6a189a077bc0ab10c2269","5f60e3c0a3b16e07647b2ff9","5f60ec6027665101639a9c67","true","803.2249999814667","./Stimuli/ImagesPractice/SM35.jpg","76","","","","test","true","","76","","SM","SM35.jpg","","old","43","3","practice_recog","right","","","",""
"categorize-image","109","395245","0.0-3.0-7.0-0.11","8bxgsavwxaun3dr","practice_recog","5ec6a189a077bc0ab10c2269","5f60e3c0a3b16e07647b2ff9","5f60ec6027665101639a9c67","true","755.040000018198","./Stimuli/ImagesPractice/LN109.jpg","83","","","","test","true","","83","","LN","LN109.jpg","","new","44","3","practice_recog","left","","","",""
"categorize-image","110","396384","0.0-3.0-7.0-0.12","8bxgsavwxaun3dr","practice_recog","5ec6a189a077bc0ab10c2269","5f60e3c0a3b16e07647b2ff9","5f60ec6027665101639a9c67","true","631.2449999968521","./Stimuli/ImagesPractice/SN221.jpg","83","","","","test","true","","83","","SN","SN221.jpg","","new","45","3","practice_recog","left","","","",""
"categorize-image","111","397751","0.0-3.0-7.0-0.13","8bxgsavwxaun3dr","practice_recog","5ec6a189a077bc0ab10c2269","5f60e3c0a3b16e07647b2ff9","5f60ec6027665101639a9c67","true","865.2350000338629","./Stimuli/ImagesPractice/SM61.jpg","76","","","","test","true","","76","","SM","SM61.jpg","","old","46","3","practice_recog","right","","","",""
"categorize-image","112","399780","0.0-3.0-7.0-0.14","8bxgsavwxaun3dr","practice_recog","5ec6a189a077bc0ab10c2269","5f60e3c0a3b16e07647b2ff9","5f60ec6027665101639a9c67","true","1521.3300000177696","./Stimuli/ImagesPractice/LM230.jpg","83","","","","test","true","","83","","LM","LM230.jpg","","new","47","3","practice_recog","left","","","",""
"categorize-image","113","401434","0.0-3.0-7.0-0.15","8bxgsavwxaun3dr","practice_recog","5ec6a189a077bc0ab10c2269","5f60e3c0a3b16e07647b2ff9","5f60ec6027665101639a9c67","true","1148.2599999872036","./Stimuli/ImagesPractice/LM143.jpg","76","","","","test","true","","76","","LM","LM143.jpg","","old","48","3","practice_recog","right","","","",""
"html-keyboard-response","114","408285","0.0-3.0-8.0","8bxgsavwxaun3dr","instructions","5ec6a189a077bc0ab10c2269","5f60e3c0a3b16e07647b2ff9","5f60ec6027665101639a9c67","false","6850.1300000352785","<div align=left> Great!<br><br>Are you ready to continue?<br>If you want to reread the instructions and redo the practice trials, please <br>press „Z“.<br><br>You can proceed when you are ready.<br><br>After the presentation of each object, you will receive an instruction whether to <br>remember or to forget the object.<br>We will test your memory of the following pictures only at the very end of <br>the experiment after all learning blocks are completed. <br><br>Press SPACE to CONTINUE when you are ready. </div>","32","","","","","","","","","","","","","","","","","","","",""
"html-keyboard-response","115","414859","0.0-4.0-0.0","8bxgsavwxaun3dr","instructions","5ec6a189a077bc0ab10c2269","5f60e3c0a3b16e07647b2ff9","5f60ec6027665101639a9c67","false","6571.394999977201","<div align=left> The actual experiment is about to start.<br>The practice trials are over!<br><br>Please always respond both fast and accurately!<br><br>Remember: <br> <br><li> Please place your index fingers on the <strong>'S'</strong> and <strong>'L'</strong> keys <br>to respond as fast and accurately as possible.</li><li> Every picture can be classified as either mechanical or non-mechanical.</li><li> If you do not respond in time or commit an error, you will receive a corresponding feedback.<br> Please try to respond as <strong> fast </strong> and as <strong> accurately as possible </strong>.</li><li> Remember the <span style='color: dodgerblue; font-size: 28px'>O</span> pictures. <br></li><li> Please minimize distractions and stay focused. </li><br><br>Press SPACE to START.</div>","32","","","","","","","","","","","","","","","","","","","",""
"html-keyboard-response","116","415561","0.0-4.0-1.0-0.0","8bxgsavwxaun3dr","prime","5ec6a189a077bc0ab10c2269","5f60e3c0a3b16e07647b2ff9","5f60ec6027665101639a9c67","false","null","<span style=""color: black; font-size: 48px"">N + M</span>","null","","","","resp_prompt","","","","","","","","","","","","","","","",""
"categorize-image","117","417046","0.0-4.0-1.0-1.0","8bxgsavwxaun3dr","prime","5ec6a189a077bc0ab10c2269","5f60e3c0a3b16e07647b2ff9","5f60ec6027665101639a9c67","true","1480.0849999883212","./Stimuli/SelectedImages/LM/LM48.bmp","76","","","","test","true","N + M","76","switch","LM","LM48.bmp","forget","","49","3","prime1","right","","","",""
"html-keyboard-response","118","419050","0.0-4.0-1.0-3.0","8bxgsavwxaun3dr","prime","5ec6a189a077bc0ab10c2269","5f60e3c0a3b16e07647b2ff9","5f60ec6027665101639a9c67","false","null","<div style=""align-items: center; display: flex; color: darkorange; font-size: 90px""><b>ø</b></div>","null","","","","forget_cue","","","","","","","","","","","","","","","",""
"html-keyboard-response","119","419757","0.0-4.0-1.0-0.1","8bxgsavwxaun3dr","prime","5ec6a189a077bc0ab10c2269","5f60e3c0a3b16e07647b2ff9","5f60ec6027665101639a9c67","false","null","<span style=""color: black; font-size: 48px"">N + M</span>","null","","","","resp_prompt","","","","","","","","","","","","","","","",""
"categorize-image","120","420966","0.0-4.0-1.0-1.1","8bxgsavwxaun3dr","prime","5ec6a189a077bc0ab10c2269","5f60e3c0a3b16e07647b2ff9","5f60ec6027665101639a9c67","true","1205.3899999591522","./Stimuli/SelectedImages/SN/SN240.bmp","83","","","","test","true","N + M","83","repetition","SN","SN240.bmp","remember","","50","3","prime1","left","","","",""
"html-keyboard-response","121","422969","0.0-4.0-1.0-3.1","8bxgsavwxaun3dr","prime","5ec6a189a077bc0ab10c2269","5f60e3c0a3b16e07647b2ff9","5f60ec6027665101639a9c67","false","null","<div style=""align-items: center; display: flex; color: dodgerblue; font-size: 90px""><b>o</b></div>","null","","","","forget_cue","","","","","","","","","","","","","","","",""
"html-keyboard-response","122","423673","0.0-4.0-1.0-0.2","8bxgsavwxaun3dr","prime","5ec6a189a077bc0ab10c2269","5f60e3c0a3b16e07647b2ff9","5f60ec6027665101639a9c67","false","null","<span style=""color: black; font-size: 48px"">N + M</span>","null","","","","resp_prompt","","","","","","","","","","","","","","","",""
"categorize-image","123","425685","0.0-4.0-1.0-1.2","8bxgsavwxaun3dr","prime","5ec6a189a077bc0ab10c2269","5f60e3c0a3b16e07647b2ff9","5f60ec6027665101639a9c67","true","null","./Stimuli/SelectedImages/SM/SM78.bmp","null","","","","test","false","N + M","76","repetition","SM","SM78.bmp","remember","","51","3","prime1","too_slow","","","",""
"html-keyboard-response","124","426190","0.0-4.0-1.0-2.2-0.2","8bxgsavwxaun3dr","prime","5ec6a189a077bc0ab10c2269","5f60e3c0a3b16e07647b2ff9","5f60ec6027665101639a9c67","false","null","<span style=""color: red; font-size: 48px"">Too slow!</span>","null","","","","feedback","","","","","","","","","","","","","","","",""
"html-keyboard-response","125","428196","0.0-4.0-1.0-3.2","8bxgsavwxaun3dr","prime","5ec6a189a077bc0ab10c2269","5f60e3c0a3b16e07647b2ff9","5f60ec6027665101639a9c67","false","null","<div style=""align-items: center; display: flex; color: dodgerblue; font-size: 90px""><b>o</b></div>","null","","","","forget_cue","","","","","","","","","","","","","","","",""
"html-keyboard-response","126","428901","0.0-4.0-1.0-0.3","8bxgsavwxaun3dr","prime","5ec6a189a077bc0ab10c2269","5f60e3c0a3b16e07647b2ff9","5f60ec6027665101639a9c67","false","null","<span style=""color: black; font-size: 48px"">N + M</span>","null","","","","resp_prompt","","","","","","","","","","","","","","","",""
"categorize-image","127","429869","0.0-4.0-1.0-1.3","8bxgsavwxaun3dr","prime","5ec6a189a077bc0ab10c2269","5f60e3c0a3b16e07647b2ff9","5f60ec6027665101639a9c67","true","963.5499999858439","./Stimuli/SelectedImages/LN/LN128.bmp","83","","","","test","true","N + M","83","switch","LN","LN128.bmp","forget","","52","3","prime1","left","","","",""
"html-keyboard-response","128","431875","0.0-4.0-1.0-3.3","8bxgsavwxaun3dr","prime","5ec6a189a077bc0ab10c2269","5f60e3c0a3b16e07647b2ff9","5f60ec6027665101639a9c67","false","null","<div style=""align-items: center; display: flex; color: darkorange; font-size: 90px""><b>ø</b></div>","null","","","","forget_cue","","","","","","","","","","","","","","","",""
"html-keyboard-response","129","432580","0.0-4.0-1.0-0.4","8bxgsavwxaun3dr","prime","5ec6a189a077bc0ab10c2269","5f60e3c0a3b16e07647b2ff9","5f60ec6027665101639a9c67","false","null","<span style=""color: black; font-size: 48px"">M + N</span>","null","","","","resp_prompt","","","","","","","","","","","","","","","",""
"categorize-image","130","433415","0.0-4.0-1.0-1.4","8bxgsavwxaun3dr","prime","5ec6a189a077bc0ab10c2269","5f60e3c0a3b16e07647b2ff9","5f60ec6027665101639a9c67","true","828.2449999824166","./Stimuli/SelectedImages/LN/LN59.bmp","76","","","","test","true","M + N","76","repetition","LN","LN59.bmp","remember","","53","3","prime1","right","","","",""
"html-keyboard-response","131","435421","0.0-4.0-1.0-3.4","8bxgsavwxaun3dr","prime","5ec6a189a077bc0ab10c2269","5f60e3c0a3b16e07647b2ff9","5f60ec6027665101639a9c67","false","null","<div style=""align-items: center; display: flex; color: dodgerblue; font-size: 90px""><b>o</b></div>","null","","","","forget_cue","","","","","","","","","","","","","","","",""
"html-keyboard-response","132","436123","0.0-4.0-1.0-0.5","8bxgsavwxaun3dr","prime","5ec6a189a077bc0ab10c2269","5f60e3c0a3b16e07647b2ff9","5f60ec6027665101639a9c67","false","null","<span style=""color: black; font-size: 48px"">N + M</span>","null","","","","resp_prompt","","","","","","","","","","","","","","","",""
"categorize-image","133","437060","0.0-4.0-1.0-1.5","8bxgsavwxaun3dr","prime","5ec6a189a077bc0ab10c2269","5f60e3c0a3b16e07647b2ff9","5f60ec6027665101639a9c67","true","933.3950000000186","./Stimuli/SelectedImages/LM/LM209.bmp","76","","","","test","true","N + M","76","repetition","LM","LM209.bmp","forget","","54","3","prime1","right","","","",""
"html-keyboard-response","134","439065","0.0-4.0-1.0-3.5","8bxgsavwxaun3dr","prime","5ec6a189a077bc0ab10c2269","5f60e3c0a3b16e07647b2ff9","5f60ec6027665101639a9c67","false","null","<div style=""align-items: center; display: flex; color: darkorange; font-size: 90px""><b>ø</b></div>","null","","","","forget_cue","","","","","","","","","","","","","","","",""
"html-keyboard-response","135","439768","0.0-4.0-1.0-0.6","8bxgsavwxaun3dr","prime","5ec6a189a077bc0ab10c2269","5f60e3c0a3b16e07647b2ff9","5f60ec6027665101639a9c67","false","null","<span style=""color: black; font-size: 48px"">N + M</span>","null","","","","resp_prompt","","","","","","","","","","","","","","","",""
"categorize-image","136","441780","0.0-4.0-1.0-1.6","8bxgsavwxaun3dr","prime","5ec6a189a077bc0ab10c2269","5f60e3c0a3b16e07647b2ff9","5f60ec6027665101639a9c67","true","null","./Stimuli/SelectedImages/LM/LM129.bmp","null","","","","test","false","N + M","76","switch","LM","LM129.bmp","remember","","55","3","prime1","too_slow","","","",""
"html-keyboard-response","137","442282","0.0-4.0-1.0-2.6-0.6","8bxgsavwxaun3dr","prime","5ec6a189a077bc0ab10c2269","5f60e3c0a3b16e07647b2ff9","5f60ec6027665101639a9c67","false","null","<span style=""color: red; font-size: 48px"">Too slow!</span>","null","","","","feedback","","","","","","","","","","","","","","","",""
"html-keyboard-response","138","444289","0.0-4.0-1.0-3.6","8bxgsavwxaun3dr","prime","5ec6a189a077bc0ab10c2269","5f60e3c0a3b16e07647b2ff9","5f60ec6027665101639a9c67","false","null","<div style=""align-items: center; display: flex; color: dodgerblue; font-size: 90px""><b>o</b></div>","null","","","","forget_cue","","","","","","","","","","","","","","","",""
"html-keyboard-response","139","444992","0.0-4.0-1.0-0.7","8bxgsavwxaun3dr","prime","5ec6a189a077bc0ab10c2269","5f60e3c0a3b16e07647b2ff9","5f60ec6027665101639a9c67","false","null","<span style=""color: black; font-size: 48px"">N + M</span>","null","","","","resp_prompt","","","","","","","","","","","","","","","",""
"categorize-image","140","445760","0.0-4.0-1.0-1.7","8bxgsavwxaun3dr","prime","5ec6a189a077bc0ab10c2269","5f60e3c0a3b16e07647b2ff9","5f60ec6027665101639a9c67","true","764.4199999631383","./Stimuli/SelectedImages/LN/LN166.bmp","83","","","","test","true","N + M","83","repetition","LN","LN166.bmp","forget","","56","3","prime1","left","","","",""
"html-keyboard-response","141","447767","0.0-4.0-1.0-3.7","8bxgsavwxaun3dr","prime","5ec6a189a077bc0ab10c2269","5f60e3c0a3b16e07647b2ff9","5f60ec6027665101639a9c67","false","null","<div style=""align-items: center; display: flex; color: darkorange; font-size: 90px""><b>ø</b></div>","null","","","","forget_cue","","","","","","","","","","","","","","","",""
"html-keyboard-response","142","448468","0.0-4.0-1.0-0.8","8bxgsavwxaun3dr","prime","5ec6a189a077bc0ab10c2269","5f60e3c0a3b16e07647b2ff9","5f60ec6027665101639a9c67","false","null","<span style=""color: black; font-size: 48px"">M + N</span>","null","","","","resp_prompt","","","","","","","","","","","","","","","",""
"categorize-image","143","449395","0.0-4.0-1.0-1.8","8bxgsavwxaun3dr","prime","5ec6a189a077bc0ab10c2269","5f60e3c0a3b16e07647b2ff9","5f60ec6027665101639a9c67","true","922.4049999611452","./Stimuli/SelectedImages/SM/SM184.bmp","76","","","","test","false","M + N","83","switch","SM","SM184.bmp","remember","","57","3","prime1","right","","","",""
"html-keyboard-response","144","449897","0.0-4.0-1.0-2.8-0.8","8bxgsavwxaun3dr","prime","5ec6a189a077bc0ab10c2269","5f60e3c0a3b16e07647b2ff9","5f60ec6027665101639a9c67","false","null","<span style=""color: red; font-size: 48px"">Error!</span>","null","","","","feedback","","","","","","","","","","","","","","","",""
"html-keyboard-response","145","451902","0.0-4.0-1.0-3.8","8bxgsavwxaun3dr","prime","5ec6a189a077bc0ab10c2269","5f60e3c0a3b16e07647b2ff9","5f60ec6027665101639a9c67","false","null","<div style=""align-items: center; display: flex; color: dodgerblue; font-size: 90px""><b>o</b></div>","null","","","","forget_cue","","","","","","","","","","","","","","","",""
"html-keyboard-response","146","452605","0.0-4.0-1.0-0.9","8bxgsavwxaun3dr","prime","5ec6a189a077bc0ab10c2269","5f60e3c0a3b16e07647b2ff9","5f60ec6027665101639a9c67","false","null","<span style=""color: black; font-size: 48px"">M + N</span>","null","","","","resp_prompt","","","","","","","","","","","","","","","",""
"categorize-image","147","453425","0.0-4.0-1.0-1.9","8bxgsavwxaun3dr","prime","5ec6a189a077bc0ab10c2269","5f60e3c0a3b16e07647b2ff9","5f60ec6027665101639a9c67","true","815.8100000000559","./Stimuli/SelectedImages/SM/SM17.bmp","83","","","","test","true","M + N","83","switch","SM","SM17.bmp","remember","","58","3","prime1","left","","","",""
"html-keyboard-response","148","455432","0.0-4.0-1.0-3.9","8bxgsavwxaun3dr","prime","5ec6a189a077bc0ab10c2269","5f60e3c0a3b16e07647b2ff9","5f60ec6027665101639a9c67","false","null","<div style=""align-items: center; display: flex; color: dodgerblue; font-size: 90px""><b>o</b></div>","null","","","","forget_cue","","","","","","","","","","","","","","","",""
"html-keyboard-response","149","456138","0.0-4.0-1.0-0.10","8bxgsavwxaun3dr","prime","5ec6a189a077bc0ab10c2269","5f60e3c0a3b16e07647b2ff9","5f60ec6027665101639a9c67","false","null","<span style=""color: black; font-size: 48px"">M + N</span>","null","","","","resp_prompt","","","","","","","","","","","","","","","",""
"categorize-image","150","456825","0.0-4.0-1.0-1.10","8bxgsavwxaun3dr","prime","5ec6a189a077bc0ab10c2269","5f60e3c0a3b16e07647b2ff9","5f60ec6027665101639a9c67","true","682.7700000139885","./Stimuli/SelectedImages/LN/LN42.bmp","76","","","","test","true","M + N","76","switch","LN","LN42.bmp","remember","","59","3","prime1","right","","","",""
"html-keyboard-response","151","458828","0.0-4.0-1.0-3.10","8bxgsavwxaun3dr","prime","5ec6a189a077bc0ab10c2269","5f60e3c0a3b16e07647b2ff9","5f60ec6027665101639a9c67","false","null","<div style=""align-items: center; display: flex; color: dodgerblue; font-size: 90px""><b>o</b></div>","null","","","","forget_cue","","","","","","","","","","","","","","","",""
"html-keyboard-response","152","459534","0.0-4.0-1.0-0.11","8bxgsavwxaun3dr","prime","5ec6a189a077bc0ab10c2269","5f60e3c0a3b16e07647b2ff9","5f60ec6027665101639a9c67","false","null","<span style=""color: black; font-size: 48px"">M + N</span>","null","","","","resp_prompt","","","","","","","","","","","","","","","",""
"categorize-image","153","460496","0.0-4.0-1.0-1.11","8bxgsavwxaun3dr","prime","5ec6a189a077bc0ab10c2269","5f60e3c0a3b16e07647b2ff9","5f60ec6027665101639a9c67","true","957.7799999970011","./Stimuli/SelectedImages/SM/SM200.bmp","83","","","","test","true","M + N","83","repetition","SM","SM200.bmp","forget","","60","3","prime1","left","","","",""
"html-keyboard-response","154","462501","0.0-4.0-1.0-3.11","8bxgsavwxaun3dr","prime","5ec6a189a077bc0ab10c2269","5f60e3c0a3b16e07647b2ff9","5f60ec6027665101639a9c67","false","null","<div style=""align-items: center; display: flex; color: darkorange; font-size: 90px""><b>ø</b></div>","null","","","","forget_cue","","","","","","","","","","","","","","","",""
"html-keyboard-response","155","463205","0.0-4.0-1.0-0.12","8bxgsavwxaun3dr","prime","5ec6a189a077bc0ab10c2269","5f60e3c0a3b16e07647b2ff9","5f60ec6027665101639a9c67","false","null","<span style=""color: black; font-size: 48px"">N + M</span>","null","","","","resp_prompt","","","","","","","","","","","","","","","",""
"categorize-image","156","464293","0.0-4.0-1.0-1.12","8bxgsavwxaun3dr","prime","5ec6a189a077bc0ab10c2269","5f60e3c0a3b16e07647b2ff9","5f60ec6027665101639a9c67","true","1083.7599999504164","./Stimuli/SelectedImages/SM/SM108.bmp","76","","","","test","true","N + M","76","switch","SM","SM108.bmp","forget","","61","3","prime1","right","","","",""
"html-keyboard-response","157","466299","0.0-4.0-1.0-3.12","8bxgsavwxaun3dr","prime","5ec6a189a077bc0ab10c2269","5f60e3c0a3b16e07647b2ff9","5f60ec6027665101639a9c67","false","null","<div style=""align-items: center; display: flex; color: darkorange; font-size: 90px""><b>ø</b></div>","null","","","","forget_cue","","","","","","","","","","","","","","","",""
"html-keyboard-response","158","467005","0.0-4.0-1.0-0.13","8bxgsavwxaun3dr","prime","5ec6a189a077bc0ab10c2269","5f60e3c0a3b16e07647b2ff9","5f60ec6027665101639a9c67","false","null","<span style=""color: black; font-size: 48px"">M + N</span>","null","","","","resp_prompt","","","","","","","","","","","","","","","",""
"categorize-image","159","468031","0.0-4.0-1.0-1.13","8bxgsavwxaun3dr","prime","5ec6a189a077bc0ab10c2269","5f60e3c0a3b16e07647b2ff9","5f60ec6027665101639a9c67","true","1022.350000042934","./Stimuli/SelectedImages/SM/SM213.bmp","83","","","","test","true","M + N","83","switch","SM","SM213.bmp","forget","","62","3","prime1","left","","","",""
"html-keyboard-response","160","470037","0.0-4.0-1.0-3.13","8bxgsavwxaun3dr","prime","5ec6a189a077bc0ab10c2269","5f60e3c0a3b16e07647b2ff9","5f60ec6027665101639a9c67","false","null","<div style=""align-items: center; display: flex; color: darkorange; font-size: 90px""><b>ø</b></div>","null","","","","forget_cue","","","","","","","","","","","","","","","",""
"html-keyboard-response","161","470743","0.0-4.0-1.0-0.14","8bxgsavwxaun3dr","prime","5ec6a189a077bc0ab10c2269","5f60e3c0a3b16e07647b2ff9","5f60ec6027665101639a9c67","false","null","<span style=""color: black; font-size: 48px"">N + M</span>","null","","","","resp_prompt","","","","","","","","","","","","","","","",""
"categorize-image","162","472141","0.0-4.0-1.0-1.14","8bxgsavwxaun3dr","prime","5ec6a189a077bc0ab10c2269","5f60e3c0a3b16e07647b2ff9","5f60ec6027665101639a9c67","true","1393.1449999799952","./Stimuli/SelectedImages/SM/SM195.bmp","83","","","","test","false","N + M","76","repetition","SM","SM195.bmp","forget","","63","3","prime1","left","","","",""
"html-keyboard-response","163","472644","0.0-4.0-1.0-2.14-0.14","8bxgsavwxaun3dr","prime","5ec6a189a077bc0ab10c2269","5f60e3c0a3b16e07647b2ff9","5f60ec6027665101639a9c67","false","null","<span style=""color: red; font-size: 48px"">Error!</span>","null","","","","feedback","","","","","","","","","","","","","","","",""
"html-keyboard-response","164","474645","0.0-4.0-1.0-3.14","8bxgsavwxaun3dr","prime","5ec6a189a077bc0ab10c2269","5f60e3c0a3b16e07647b2ff9","5f60ec6027665101639a9c67","false","null","<div style=""align-items: center; display: flex; color: darkorange; font-size: 90px""><b>ø</b></div>","null","","","","forget_cue","","","","","","","","","","","","","","","",""
"html-keyboard-response","165","475351","0.0-4.0-1.0-0.15","8bxgsavwxaun3dr","prime","5ec6a189a077bc0ab10c2269","5f60e3c0a3b16e07647b2ff9","5f60ec6027665101639a9c67","false","null","<span style=""color: black; font-size: 48px"">N + M</span>","null","","","","resp_prompt","","","","","","","","","","","","","","","",""
"categorize-image","166","476245","0.0-4.0-1.0-1.15","8bxgsavwxaun3dr","prime","5ec6a189a077bc0ab10c2269","5f60e3c0a3b16e07647b2ff9","5f60ec6027665101639a9c67","true","890.0349999894388","./Stimuli/SelectedImages/LN/LN82.bmp","83","","","","test","true","N + M","83","repetition","LN","LN82.bmp","remember","","64","3","prime1","left","","","",""
"html-keyboard-response","167","478250","0.0-4.0-1.0-3.15","8bxgsavwxaun3dr","prime","5ec6a189a077bc0ab10c2269","5f60e3c0a3b16e07647b2ff9","5f60ec6027665101639a9c67","false","null","<div style=""align-items: center; display: flex; color: dodgerblue; font-size: 90px""><b>o</b></div>","null","","","","forget_cue","","","","","","","","","","","","","","","",""
"html-keyboard-response","168","478953","0.0-4.0-1.0-0.16","8bxgsavwxaun3dr","prime","5ec6a189a077bc0ab10c2269","5f60e3c0a3b16e07647b2ff9","5f60ec6027665101639a9c67","false","null","<span style=""color: black; font-size: 48px"">M + N</span>","null","","","","resp_prompt","","","","","","","","","","","","","","","",""
"categorize-image","169","480049","0.0-4.0-1.0-1.16","8bxgsavwxaun3dr","prime","5ec6a189a077bc0ab10c2269","5f60e3c0a3b16e07647b2ff9","5f60ec6027665101639a9c67","true","1091.0499999881722","./Stimuli/SelectedImages/SN/SN49.bmp","76","","","","test","true","M + N","76","switch","SN","SN49.bmp","remember","","65","3","prime1","right","","","",""
"html-keyboard-response","170","482055","0.0-4.0-1.0-3.16","8bxgsavwxaun3dr","prime","5ec6a189a077bc0ab10c2269","5f60e3c0a3b16e07647b2ff9","5f60ec6027665101639a9c67","false","null","<div style=""align-items: center; display: flex; color: dodgerblue; font-size: 90px""><b>o</b></div>","null","","","","forget_cue","","","","","","","","","","","","","","","",""
"html-keyboard-response","171","482761","0.0-4.0-1.0-0.17","8bxgsavwxaun3dr","prime","5ec6a189a077bc0ab10c2269","5f60e3c0a3b16e07647b2ff9","5f60ec6027665101639a9c67","false","null","<span style=""color: black; font-size: 48px"">M + N</span>","null","","","","resp_prompt","","","","","","","","","","","","","","","",""
"categorize-image","172","484067","0.0-4.0-1.0-1.17","8bxgsavwxaun3dr","prime","5ec6a189a077bc0ab10c2269","5f60e3c0a3b16e07647b2ff9","5f60ec6027665101639a9c67","true","1302.0649999962188","./Stimuli/SelectedImages/LN/LN13.bmp","76","","","","test","true","M + N","76","repetition","LN","LN13.bmp","remember","","66","3","prime1","right","","","",""
"html-keyboard-response","173","486071","0.0-4.0-1.0-3.17","8bxgsavwxaun3dr","prime","5ec6a189a077bc0ab10c2269","5f60e3c0a3b16e07647b2ff9","5f60ec6027665101639a9c67","false","null","<div style=""align-items: center; display: flex; color: dodgerblue; font-size: 90px""><b>o</b></div>","null","","","","forget_cue","","","","","","","","","","","","","","","",""
"html-keyboard-response","174","486775","0.0-4.0-1.0-0.18","8bxgsavwxaun3dr","prime","5ec6a189a077bc0ab10c2269","5f60e3c0a3b16e07647b2ff9","5f60ec6027665101639a9c67","false","null","<span style=""color: black; font-size: 48px"">N + M</span>","null","","","","resp_prompt","","","","","","","","","","","","","","","",""
"categorize-image","175","487408","0.0-4.0-1.0-1.18","8bxgsavwxaun3dr","prime","5ec6a189a077bc0ab10c2269","5f60e3c0a3b16e07647b2ff9","5f60ec6027665101639a9c67","true","628.2450000289828","./Stimuli/SelectedImages/SN/SN182.bmp","83","","","","test","true","N + M","83","switch","SN","SN182.bmp","forget","","67","3","prime1","left","","","",""
"html-keyboard-response","176","489414","0.0-4.0-1.0-3.18","8bxgsavwxaun3dr","prime","5ec6a189a077bc0ab10c2269","5f60e3c0a3b16e07647b2ff9","5f60ec6027665101639a9c67","false","null","<div style=""align-items: center; display: flex; color: darkorange; font-size: 90px""><b>ø</b></div>","null","","","","forget_cue","","","","","","","","","","","","","","","",""
"html-keyboard-response","177","490117","0.0-4.0-1.0-0.19","8bxgsavwxaun3dr","prime","5ec6a189a077bc0ab10c2269","5f60e3c0a3b16e07647b2ff9","5f60ec6027665101639a9c67","false","null","<span style=""color: black; font-size: 48px"">N + M</span>","null","","","","resp_prompt","","","","","","","","","","","","","","","",""
"categorize-image","178","490764","0.0-4.0-1.0-1.19","8bxgsavwxaun3dr","prime","5ec6a189a077bc0ab10c2269","5f60e3c0a3b16e07647b2ff9","5f60ec6027665101639a9c67","true","642.3450000002049","./Stimuli/SelectedImages/LM/LM59.bmp","76","","","","test","true","N + M","76","switch","LM","LM59.bmp","forget","","68","3","prime1","right","","","",""
"html-keyboard-response","179","492766","0.0-4.0-1.0-3.19","8bxgsavwxaun3dr","prime","5ec6a189a077bc0ab10c2269","5f60e3c0a3b16e07647b2ff9","5f60ec6027665101639a9c67","false","null","<div style=""align-items: center; display: flex; color: darkorange; font-size: 90px""><b>ø</b></div>","null","","","","forget_cue","","","","","","","","","","","","","","","",""
"html-keyboard-response","180","493469","0.0-4.0-1.0-0.20","8bxgsavwxaun3dr","prime","5ec6a189a077bc0ab10c2269","5f60e3c0a3b16e07647b2ff9","5f60ec6027665101639a9c67","false","null","<span style=""color: black; font-size: 48px"">M + N</span>","null","","","","resp_prompt","","","","","","","","","","","","","","","",""
"categorize-image","181","494045","0.0-4.0-1.0-1.20","8bxgsavwxaun3dr","prime","5ec6a189a077bc0ab10c2269","5f60e3c0a3b16e07647b2ff9","5f60ec6027665101639a9c67","true","571.204999985639","./Stimuli/SelectedImages/SN/SN52.bmp","76","","","","test","true","M + N","76","repetition","SN","SN52.bmp","forget","","69","3","prime1","right","","","",""
"html-keyboard-response","182","496051","0.0-4.0-1.0-3.20","8bxgsavwxaun3dr","prime","5ec6a189a077bc0ab10c2269","5f60e3c0a3b16e07647b2ff9","5f60ec6027665101639a9c67","false","null","<div style=""align-items: center; display: flex; color: darkorange; font-size: 90px""><b>ø</b></div>","null","","","","forget_cue","","","","","","","","","","","","","","","",""
"html-keyboard-response","183","496757","0.0-4.0-1.0-0.21","8bxgsavwxaun3dr","prime","5ec6a189a077bc0ab10c2269","5f60e3c0a3b16e07647b2ff9","5f60ec6027665101639a9c67","false","null","<span style=""color: black; font-size: 48px"">N + M</span>","null","","","","resp_prompt","","","","","","","","","","","","","","","",""
"categorize-image","184","497864","0.0-4.0-1.0-1.21","8bxgsavwxaun3dr","prime","5ec6a189a077bc0ab10c2269","5f60e3c0a3b16e07647b2ff9","5f60ec6027665101639a9c67","true","1102.1750000072643","./Stimuli/SelectedImages/LN/LN111.bmp","83","","","","test","true","N + M","83","switch","LN","LN111.bmp","remember","","70","3","prime1","left","","","",""
"html-keyboard-response","185","499867","0.0-4.0-1.0-3.21","8bxgsavwxaun3dr","prime","5ec6a189a077bc0ab10c2269","5f60e3c0a3b16e07647b2ff9","5f60ec6027665101639a9c67","false","null","<div style=""align-items: center; display: flex; color: dodgerblue; font-size: 90px""><b>o</b></div>","null","","","","forget_cue","","","","","","","","","","","","","","","",""
"html-keyboard-response","186","500571","0.0-4.0-1.0-0.22","8bxgsavwxaun3dr","prime","5ec6a189a077bc0ab10c2269","5f60e3c0a3b16e07647b2ff9","5f60ec6027665101639a9c67","false","null","<span style=""color: black; font-size: 48px"">M + N</span>","null","","","","resp_prompt","","","","","","","","","","","","","","","",""
"categorize-image","187","501774","0.0-4.0-1.0-1.22","8bxgsavwxaun3dr","prime","5ec6a189a077bc0ab10c2269","5f60e3c0a3b16e07647b2ff9","5f60ec6027665101639a9c67","true","1198.8899999996647","./Stimuli/SelectedImages/LN/LN101.bmp","76","","","","test","true","M + N","76","repetition","LN","LN101.bmp","forget","","71","3","prime1","right","","","",""
"html-keyboard-response","188","503781","0.0-4.0-1.0-3.22","8bxgsavwxaun3dr","prime","5ec6a189a077bc0ab10c2269","5f60e3c0a3b16e07647b2ff9","5f60ec6027665101639a9c67","false","null","<div style=""align-items: center; display: flex; color: darkorange; font-size: 90px""><b>ø</b></div>","null","","","","forget_cue","","","","","","","","","","","","","","","",""
"html-keyboard-response","189","504486","0.0-4.0-1.0-0.23","8bxgsavwxaun3dr","prime","5ec6a189a077bc0ab10c2269","5f60e3c0a3b16e07647b2ff9","5f60ec6027665101639a9c67","false","null","<span style=""color: black; font-size: 48px"">N + M</span>","null","","","","resp_prompt","","","","","","","","","","","","","","","",""
"categorize-image","190","505891","0.0-4.0-1.0-1.23","8bxgsavwxaun3dr","prime","5ec6a189a077bc0ab10c2269","5f60e3c0a3b16e07647b2ff9","5f60ec6027665101639a9c67","true","1400.9599999990314","./Stimuli/SelectedImages/SM/SM74.bmp","76","","","","test","true","N + M","76","repetition","SM","SM74.bmp","forget","","72","3","prime1","right","","","",""
"html-keyboard-response","191","507895","0.0-4.0-1.0-3.23","8bxgsavwxaun3dr","prime","5ec6a189a077bc0ab10c2269","5f60e3c0a3b16e07647b2ff9","5f60ec6027665101639a9c67","false","null","<div style=""align-items: center; display: flex; color: darkorange; font-size: 90px""><b>ø</b></div>","null","","","","forget_cue","","","","","","","","","","","","","","","",""
"html-keyboard-response","192","508601","0.0-4.0-1.0-0.24","8bxgsavwxaun3dr","prime","5ec6a189a077bc0ab10c2269","5f60e3c0a3b16e07647b2ff9","5f60ec6027665101639a9c67","false","null","<span style=""color: black; font-size: 48px"">N + M</span>","null","","","","resp_prompt","","","","","","","","","","","","","","","",""
"categorize-image","193","509624","0.0-4.0-1.0-1.24","8bxgsavwxaun3dr","prime","5ec6a189a077bc0ab10c2269","5f60e3c0a3b16e07647b2ff9","5f60ec6027665101639a9c67","true","1017.9099999950267","./Stimuli/SelectedImages/LN/LN12.bmp","83","","","","test","true","N + M","83","repetition","LN","LN12.bmp","remember","","73","3","prime1","left","","","",""
"html-keyboard-response","194","511630","0.0-4.0-1.0-3.24","8bxgsavwxaun3dr","prime","5ec6a189a077bc0ab10c2269","5f60e3c0a3b16e07647b2ff9","5f60ec6027665101639a9c67","false","null","<div style=""align-items: center; display: flex; color: dodgerblue; font-size: 90px""><b>o</b></div>","null","","","","forget_cue","","","","","","","","","","","","","","","",""
"html-keyboard-response","195","512336","0.0-4.0-1.0-0.25","8bxgsavwxaun3dr","prime","5ec6a189a077bc0ab10c2269","5f60e3c0a3b16e07647b2ff9","5f60ec6027665101639a9c67","false","null","<span style=""color: black; font-size: 48px"">M + N</span>","null","","","","resp_prompt","","","","","","","","","","","","","","","",""
"categorize-image","196","513217","0.0-4.0-1.0-1.25","8bxgsavwxaun3dr","prime","5ec6a189a077bc0ab10c2269","5f60e3c0a3b16e07647b2ff9","5f60ec6027665101639a9c67","true","876.3850000104867","./Stimuli/SelectedImages/LM/LM235.bmp","83","","","","test","true","M + N","83","switch","LM","LM235.bmp","forget","","74","3","prime1","left","","","",""
"html-keyboard-response","197","515220","0.0-4.0-1.0-3.25","8bxgsavwxaun3dr","prime","5ec6a189a077bc0ab10c2269","5f60e3c0a3b16e07647b2ff9","5f60ec6027665101639a9c67","false","null","<div style=""align-items: center; display: flex; color: darkorange; font-size: 90px""><b>ø</b></div>","null","","","","forget_cue","","","","","","","","","","","","","","","",""
"html-keyboard-response","198","515922","0.0-4.0-1.0-0.26","8bxgsavwxaun3dr","prime","5ec6a189a077bc0ab10c2269","5f60e3c0a3b16e07647b2ff9","5f60ec6027665101639a9c67","false","null","<span style=""color: black; font-size: 48px"">M + N</span>","null","","","","resp_prompt","","","","","","","","","","","","","","","",""
"categorize-image","199","516813","0.0-4.0-1.0-1.26","8bxgsavwxaun3dr","prime","5ec6a189a077bc0ab10c2269","5f60e3c0a3b16e07647b2ff9","5f60ec6027665101639a9c67","true","886.7149999714456","./Stimuli/SelectedImages/SM/SM128.bmp","83","","","","test","true","M + N","83","repetition","SM","SM128.bmp","forget","","75","3","prime1","left","","","",""
"html-keyboard-response","200","518816","0.0-4.0-1.0-3.26","8bxgsavwxaun3dr","prime","5ec6a189a077bc0ab10c2269","5f60e3c0a3b16e07647b2ff9","5f60ec6027665101639a9c67","false","null","<div style=""align-items: center; display: flex; color: darkorange; font-size: 90px""><b>ø</b></div>","null","","","","forget_cue","","","","","","","","","","","","","","","",""
"html-keyboard-response","201","519518","0.0-4.0-1.0-0.27","8bxgsavwxaun3dr","prime","5ec6a189a077bc0ab10c2269","5f60e3c0a3b16e07647b2ff9","5f60ec6027665101639a9c67","false","null","<span style=""color: black; font-size: 48px"">M + N</span>","null","","","","resp_prompt","","","","","","","","","","","","","","","",""
"categorize-image","202","520397","0.0-4.0-1.0-1.27","8bxgsavwxaun3dr","prime","5ec6a189a077bc0ab10c2269","5f60e3c0a3b16e07647b2ff9","5f60ec6027665101639a9c67","true","873.9499999792315","./Stimuli/SelectedImages/LM/LM58.bmp","76","","","","test","false","M + N","83","switch","LM","LM58.bmp","forget","","76","3","prime1","right","","","",""
"html-keyboard-response","203","520900","0.0-4.0-1.0-2.27-0.27","8bxgsavwxaun3dr","prime","5ec6a189a077bc0ab10c2269","5f60e3c0a3b16e07647b2ff9","5f60ec6027665101639a9c67","false","null","<span style=""color: red; font-size: 48px"">Error!</span>","null","","","","feedback","","","","","","","","","","","","","","","",""
"html-keyboard-response","204","522906","0.0-4.0-1.0-3.27","8bxgsavwxaun3dr","prime","5ec6a189a077bc0ab10c2269","5f60e3c0a3b16e07647b2ff9","5f60ec6027665101639a9c67","false","null","<div style=""align-items: center; display: flex; color: darkorange; font-size: 90px""><b>ø</b></div>","null","","","","forget_cue","","","","","","","","","","","","","","","",""
"html-keyboard-response","205","523611","0.0-4.0-1.0-0.28","8bxgsavwxaun3dr","prime","5ec6a189a077bc0ab10c2269","5f60e3c0a3b16e07647b2ff9","5f60ec6027665101639a9c67","false","null","<span style=""color: black; font-size: 48px"">M + N</span>","null","","","","resp_prompt","","","","","","","","","","","","","","","",""
"categorize-image","206","524618","0.0-4.0-1.0-1.28","8bxgsavwxaun3dr","prime","5ec6a189a077bc0ab10c2269","5f60e3c0a3b16e07647b2ff9","5f60ec6027665101639a9c67","true","1002.695000031963","./Stimuli/SelectedImages/SN/SN179.bmp","76","","","","test","true","M + N","76","repetition","SN","SN179.bmp","forget","","77","3","prime1","right","","","",""
"html-keyboard-response","207","526620","0.0-4.0-1.0-3.28","8bxgsavwxaun3dr","prime","5ec6a189a077bc0ab10c2269","5f60e3c0a3b16e07647b2ff9","5f60ec6027665101639a9c67","false","null","<div style=""align-items: center; display: flex; color: darkorange; font-size: 90px""><b>ø</b></div>","null","","","","forget_cue","","","","","","","","","","","","","","","",""
"html-keyboard-response","208","527323","0.0-4.0-1.0-0.29","8bxgsavwxaun3dr","prime","5ec6a189a077bc0ab10c2269","5f60e3c0a3b16e07647b2ff9","5f60ec6027665101639a9c67","false","null","<span style=""color: black; font-size: 48px"">M + N</span>","null","","","","resp_prompt","","","","","","","","","","","","","","","",""
"categorize-image","209","528084","0.0-4.0-1.0-1.29","8bxgsavwxaun3dr","prime","5ec6a189a077bc0ab10c2269","5f60e3c0a3b16e07647b2ff9","5f60ec6027665101639a9c67","true","758.3699999959208","./Stimuli/SelectedImages/LM/LM150.bmp","83","","","","test","true","M + N","83","repetition","LM","LM150.bmp","remember","","78","3","prime1","left","","","",""
"html-keyboard-response","210","530089","0.0-4.0-1.0-3.29","8bxgsavwxaun3dr","prime","5ec6a189a077bc0ab10c2269","5f60e3c0a3b16e07647b2ff9","5f60ec6027665101639a9c67","false","null","<div style=""align-items: center; display: flex; color: dodgerblue; font-size: 90px""><b>o</b></div>","null","","","","forget_cue","","","","","","","","","","","","","","","",""
"html-keyboard-response","211","530790","0.0-4.0-1.0-0.30","8bxgsavwxaun3dr","prime","5ec6a189a077bc0ab10c2269","5f60e3c0a3b16e07647b2ff9","5f60ec6027665101639a9c67","false","null","<span style=""color: black; font-size: 48px"">M + N</span>","null","","","","resp_prompt","","","","","","","","","","","","","","","",""
"categorize-image","212","532074","0.0-4.0-1.0-1.30","8bxgsavwxaun3dr","prime","5ec6a189a077bc0ab10c2269","5f60e3c0a3b16e07647b2ff9","5f60ec6027665101639a9c67","true","1279.0449999738485","./Stimuli/SelectedImages/SM/SM76.bmp","83","","","","test","true","M + N","83","switch","SM","SM76.bmp","forget","","79","3","prime1","left","","","",""
"html-keyboard-response","213","534079","0.0-4.0-1.0-3.30","8bxgsavwxaun3dr","prime","5ec6a189a077bc0ab10c2269","5f60e3c0a3b16e07647b2ff9","5f60ec6027665101639a9c67","false","null","<div style=""align-items: center; display: flex; color: darkorange; font-size: 90px""><b>ø</b></div>","null","","","","forget_cue","","","","","","","","","","","","","","","",""
"html-keyboard-response","214","534785","0.0-4.0-1.0-0.31","8bxgsavwxaun3dr","prime","5ec6a189a077bc0ab10c2269","5f60e3c0a3b16e07647b2ff9","5f60ec6027665101639a9c67","false","null","<span style=""color: black; font-size: 48px"">M + N</span>","null","","","","resp_prompt","","","","","","","","","","","","","","","",""
"categorize-image","215","535713","0.0-4.0-1.0-1.31","8bxgsavwxaun3dr","prime","5ec6a189a077bc0ab10c2269","5f60e3c0a3b16e07647b2ff9","5f60ec6027665101639a9c67","true","922.8449999936856","./Stimuli/SelectedImages/SM/SM106.bmp","83","","","","test","true","M + N","83","repetition","SM","SM106.bmp","remember","","80","3","prime1","left","","","",""
"html-keyboard-response","216","537719","0.0-4.0-1.0-3.31","8bxgsavwxaun3dr","prime","5ec6a189a077bc0ab10c2269","5f60e3c0a3b16e07647b2ff9","5f60ec6027665101639a9c67","false","null","<div style=""align-items: center; display: flex; color: dodgerblue; font-size: 90px""><b>o</b></div>","null","","","","forget_cue","","","","","","","","","","","","","","","",""
"html-keyboard-response","217","538425","0.0-4.0-1.0-0.32","8bxgsavwxaun3dr","prime","5ec6a189a077bc0ab10c2269","5f60e3c0a3b16e07647b2ff9","5f60ec6027665101639a9c67","false","null","<span style=""color: black; font-size: 48px"">M + N</span>","null","","","","resp_prompt","","","","","","","","","","","","","","","",""
"categorize-image","218","539112","0.0-4.0-1.0-1.32","8bxgsavwxaun3dr","prime","5ec6a189a077bc0ab10c2269","5f60e3c0a3b16e07647b2ff9","5f60ec6027665101639a9c67","true","682.1900000213645","./Stimuli/SelectedImages/LM/LM75.bmp","83","","","","test","true","M + N","83","switch","LM","LM75.bmp","remember","","81","3","prime1","left","","","",""
"html-keyboard-response","219","541113","0.0-4.0-1.0-3.32","8bxgsavwxaun3dr","prime","5ec6a189a077bc0ab10c2269","5f60e3c0a3b16e07647b2ff9","5f60ec6027665101639a9c67","false","null","<div style=""align-items: center; display: flex; color: dodgerblue; font-size: 90px""><b>o</b></div>","null","","","","forget_cue","","","","","","","","","","","","","","","",""
"html-keyboard-response","220","541818","0.0-4.0-1.0-0.33","8bxgsavwxaun3dr","prime","5ec6a189a077bc0ab10c2269","5f60e3c0a3b16e07647b2ff9","5f60ec6027665101639a9c67","false","null","<span style=""color: black; font-size: 48px"">M + N</span>","null","","","","resp_prompt","","","","","","","","","","","","","","","",""
"categorize-image","221","542461","0.0-4.0-1.0-1.33","8bxgsavwxaun3dr","prime","5ec6a189a077bc0ab10c2269","5f60e3c0a3b16e07647b2ff9","5f60ec6027665101639a9c67","true","638.3599999826401","./Stimuli/SelectedImages/LM/LM167.bmp","83","","","","test","true","M + N","83","repetition","LM","LM167.bmp","remember","","82","3","prime1","left","","","",""
"html-keyboard-response","222","544466","0.0-4.0-1.0-3.33","8bxgsavwxaun3dr","prime","5ec6a189a077bc0ab10c2269","5f60e3c0a3b16e07647b2ff9","5f60ec6027665101639a9c67","false","null","<div style=""align-items: center; display: flex; color: dodgerblue; font-size: 90px""><b>o</b></div>","null","","","","forget_cue","","","","","","","","","","","","","","","",""
"html-keyboard-response","223","545172","0.0-4.0-1.0-0.34","8bxgsavwxaun3dr","prime","5ec6a189a077bc0ab10c2269","5f60e3c0a3b16e07647b2ff9","5f60ec6027665101639a9c67","false","null","<span style=""color: black; font-size: 48px"">M + N</span>","null","","","","resp_prompt","","","","","","","","","","","","","","","",""
"categorize-image","224","546115","0.0-4.0-1.0-1.34","8bxgsavwxaun3dr","prime","5ec6a189a077bc0ab10c2269","5f60e3c0a3b16e07647b2ff9","5f60ec6027665101639a9c67","true","938.8199999812059","./Stimuli/SelectedImages/SN/SN181.bmp","76","","","","test","true","M + N","76","repetition","SN","SN181.bmp","remember","","83","3","prime1","right","","","",""
"html-keyboard-response","225","548121","0.0-4.0-1.0-3.34","8bxgsavwxaun3dr","prime","5ec6a189a077bc0ab10c2269","5f60e3c0a3b16e07647b2ff9","5f60ec6027665101639a9c67","false","null","<div style=""align-items: center; display: flex; color: dodgerblue; font-size: 90px""><b>o</b></div>","null","","","","forget_cue","","","","","","","","","","","","","","","",""
"html-keyboard-response","226","548822","0.0-4.0-1.0-0.35","8bxgsavwxaun3dr","prime","5ec6a189a077bc0ab10c2269","5f60e3c0a3b16e07647b2ff9","5f60ec6027665101639a9c67","false","null","<span style=""color: black; font-size: 48px"">N + M</span>","null","","","","resp_prompt","","","","","","","","","","","","","","","",""
"categorize-image","227","549926","0.0-4.0-1.0-1.35","8bxgsavwxaun3dr","prime","5ec6a189a077bc0ab10c2269","5f60e3c0a3b16e07647b2ff9","5f60ec6027665101639a9c67","true","1100.2500000176951","./Stimuli/SelectedImages/LM/LM216.bmp","76","","","","test","true","N + M","76","repetition","LM","LM216.bmp","forget","","84","3","prime1","right","","","",""
"html-keyboard-response","228","551928","0.0-4.0-1.0-3.35","8bxgsavwxaun3dr","prime","5ec6a189a077bc0ab10c2269","5f60e3c0a3b16e07647b2ff9","5f60ec6027665101639a9c67","false","null","<div style=""align-items: center; display: flex; color: darkorange; font-size: 90px""><b>ø</b></div>","null","","","","forget_cue","","","","","","","","","","","","","","","",""
"html-keyboard-response","229","552634","0.0-4.0-1.0-0.36","8bxgsavwxaun3dr","prime","5ec6a189a077bc0ab10c2269","5f60e3c0a3b16e07647b2ff9","5f60ec6027665101639a9c67","false","null","<span style=""color: black; font-size: 48px"">N + M</span>","null","","","","resp_prompt","","","","","","","","","","","","","","","",""
"categorize-image","230","553736","0.0-4.0-1.0-1.36","8bxgsavwxaun3dr","prime","5ec6a189a077bc0ab10c2269","5f60e3c0a3b16e07647b2ff9","5f60ec6027665101639a9c67","true","1097.6999999838881","./Stimuli/SelectedImages/SM/SM24.bmp","76","","","","test","true","N + M","76","switch","SM","SM24.bmp","remember","","85","3","prime1","right","","","",""
"html-keyboard-response","231","555742","0.0-4.0-1.0-3.36","8bxgsavwxaun3dr","prime","5ec6a189a077bc0ab10c2269","5f60e3c0a3b16e07647b2ff9","5f60ec6027665101639a9c67","false","null","<div style=""align-items: center; display: flex; color: dodgerblue; font-size: 90px""><b>o</b></div>","null","","","","forget_cue","","","","","","","","","","","","","","","",""
"html-keyboard-response","232","556444","0.0-4.0-1.0-0.37","8bxgsavwxaun3dr","prime","5ec6a189a077bc0ab10c2269","5f60e3c0a3b16e07647b2ff9","5f60ec6027665101639a9c67","false","null","<span style=""color: black; font-size: 48px"">N + M</span>","null","","","","resp_prompt","","","","","","","","","","","","","","","",""
"categorize-image","233","557169","0.0-4.0-1.0-1.37","8bxgsavwxaun3dr","prime","5ec6a189a077bc0ab10c2269","5f60e3c0a3b16e07647b2ff9","5f60ec6027665101639a9c67","true","720.7850000122562","./Stimuli/SelectedImages/LM/LM51.bmp","76","","","","test","true","N + M","76","repetition","LM","LM51.bmp","remember","","86","3","prime1","right","","","",""
"html-keyboard-response","234","559171","0.0-4.0-1.0-3.37","8bxgsavwxaun3dr","prime","5ec6a189a077bc0ab10c2269","5f60e3c0a3b16e07647b2ff9","5f60ec6027665101639a9c67","false","null","<div style=""align-items: center; display: flex; color: dodgerblue; font-size: 90px""><b>o</b></div>","null","","","","forget_cue","","","","","","","","","","","","","","","",""
"html-keyboard-response","235","559877","0.0-4.0-1.0-0.38","8bxgsavwxaun3dr","prime","5ec6a189a077bc0ab10c2269","5f60e3c0a3b16e07647b2ff9","5f60ec6027665101639a9c67","false","null","<span style=""color: black; font-size: 48px"">M + N</span>","null","","","","resp_prompt","","","","","","","","","","","","","","","",""
"categorize-image","236","560639","0.0-4.0-1.0-1.38","8bxgsavwxaun3dr","prime","5ec6a189a077bc0ab10c2269","5f60e3c0a3b16e07647b2ff9","5f60ec6027665101639a9c67","true","757.0500000147149","./Stimuli/SelectedImages/LM/LM179.bmp","83","","","","test","true","M + N","83","repetition","LM","LM179.bmp","forget","","87","3","prime1","left","","","",""
"html-keyboard-response","237","562645","0.0-4.0-1.0-3.38","8bxgsavwxaun3dr","prime","5ec6a189a077bc0ab10c2269","5f60e3c0a3b16e07647b2ff9","5f60ec6027665101639a9c67","false","null","<div style=""align-items: center; display: flex; color: darkorange; font-size: 90px""><b>ø</b></div>","null","","","","forget_cue","","","","","","","","","","","","","","","",""
"html-keyboard-response","238","563352","0.0-4.0-1.0-0.39","8bxgsavwxaun3dr","prime","5ec6a189a077bc0ab10c2269","5f60e3c0a3b16e07647b2ff9","5f60ec6027665101639a9c67","false","null","<span style=""color: black; font-size: 48px"">M + N</span>","null","","","","resp_prompt","","","","","","","","","","","","","","","",""
"categorize-image","239","564217","0.0-4.0-1.0-1.39","8bxgsavwxaun3dr","prime","5ec6a189a077bc0ab10c2269","5f60e3c0a3b16e07647b2ff9","5f60ec6027665101639a9c67","true","860.5100000277162","./Stimuli/SelectedImages/SN/SN18.bmp","76","","","","test","true","M + N","76","switch","SN","SN18.bmp","forget","","88","3","prime1","right","","","",""
"html-keyboard-response","240","566218","0.0-4.0-1.0-3.39","8bxgsavwxaun3dr","prime","5ec6a189a077bc0ab10c2269","5f60e3c0a3b16e07647b2ff9","5f60ec6027665101639a9c67","false","null","<div style=""align-items: center; display: flex; color: darkorange; font-size: 90px""><b>ø</b></div>","null","","","","forget_cue","","","","","","","","","","","","","","","",""
"html-keyboard-response","241","566924","0.0-4.0-1.0-0.40","8bxgsavwxaun3dr","prime","5ec6a189a077bc0ab10c2269","5f60e3c0a3b16e07647b2ff9","5f60ec6027665101639a9c67","false","null","<span style=""color: black; font-size: 48px"">N + M</span>","null","","","","resp_prompt","","","","","","","","","","","","","","","",""
"categorize-image","242","567674","0.0-4.0-1.0-1.40","8bxgsavwxaun3dr","prime","5ec6a189a077bc0ab10c2269","5f60e3c0a3b16e07647b2ff9","5f60ec6027665101639a9c67","true","744.4850000320002","./Stimuli/SelectedImages/LN/LN149.bmp","83","","","","test","true","N + M","83","switch","LN","LN149.bmp","forget","","89","3","prime1","left","","","",""
"html-keyboard-response","243","569680","0.0-4.0-1.0-3.40","8bxgsavwxaun3dr","prime","5ec6a189a077bc0ab10c2269","5f60e3c0a3b16e07647b2ff9","5f60ec6027665101639a9c67","false","null","<div style=""align-items: center; display: flex; color: darkorange; font-size: 90px""><b>ø</b></div>","null","","","","forget_cue","","","","","","","","","","","","","","","",""
"html-keyboard-response","244","570384","0.0-4.0-1.0-0.41","8bxgsavwxaun3dr","prime","5ec6a189a077bc0ab10c2269","5f60e3c0a3b16e07647b2ff9","5f60ec6027665101639a9c67","false","null","<span style=""color: black; font-size: 48px"">N + M</span>","null","","","","resp_prompt","","","","","","","","","","","","","","","",""
"categorize-image","245","571118","0.0-4.0-1.0-1.41","8bxgsavwxaun3dr","prime","5ec6a189a077bc0ab10c2269","5f60e3c0a3b16e07647b2ff9","5f60ec6027665101639a9c67","true","730.2299999864772","./Stimuli/SelectedImages/LN/LN92.bmp","83","","","","test","true","N + M","83","switch","LN","LN92.bmp","remember","","90","3","prime1","left","","","",""
"html-keyboard-response","246","573120","0.0-4.0-1.0-3.41","8bxgsavwxaun3dr","prime","5ec6a189a077bc0ab10c2269","5f60e3c0a3b16e07647b2ff9","5f60ec6027665101639a9c67","false","null","<div style=""align-items: center; display: flex; color: dodgerblue; font-size: 90px""><b>o</b></div>","null","","","","forget_cue","","","","","","","","","","","","","","","",""
"html-keyboard-response","247","573823","0.0-4.0-1.0-0.42","8bxgsavwxaun3dr","prime","5ec6a189a077bc0ab10c2269","5f60e3c0a3b16e07647b2ff9","5f60ec6027665101639a9c67","false","null","<span style=""color: black; font-size: 48px"">N + M</span>","null","","","","resp_prompt","","","","","","","","","","","","","","","",""
"categorize-image","248","575179","0.0-4.0-1.0-1.42","8bxgsavwxaun3dr","prime","5ec6a189a077bc0ab10c2269","5f60e3c0a3b16e07647b2ff9","5f60ec6027665101639a9c67","true","1351.410000002943","./Stimuli/SelectedImages/SM/SM207.bmp","76","","","","test","true","N + M","76","switch","SM","SM207.bmp","remember","","91","3","prime1","right","","","",""
"html-keyboard-response","249","577184","0.0-4.0-1.0-3.42","8bxgsavwxaun3dr","prime","5ec6a189a077bc0ab10c2269","5f60e3c0a3b16e07647b2ff9","5f60ec6027665101639a9c67","false","null","<div style=""align-items: center; display: flex; color: dodgerblue; font-size: 90px""><b>o</b></div>","null","","","","forget_cue","","","","","","","","","","","","","","","",""
"html-keyboard-response","250","577890","0.0-4.0-1.0-0.43","8bxgsavwxaun3dr","prime","5ec6a189a077bc0ab10c2269","5f60e3c0a3b16e07647b2ff9","5f60ec6027665101639a9c67","false","null","<span style=""color: black; font-size: 48px"">N + M</span>","null","","","","resp_prompt","","","","","","","","","","","","","","","",""
"categorize-image","251","579235","0.0-4.0-1.0-1.43","8bxgsavwxaun3dr","prime","5ec6a189a077bc0ab10c2269","5f60e3c0a3b16e07647b2ff9","5f60ec6027665101639a9c67","true","1340.3950000065379","./Stimuli/SelectedImages/LN/LN177.bmp","83","","","","test","true","N + M","83","repetition","LN","LN177.bmp","forget","","92","3","prime1","left","","","",""
"html-keyboard-response","252","581240","0.0-4.0-1.0-3.43","8bxgsavwxaun3dr","prime","5ec6a189a077bc0ab10c2269","5f60e3c0a3b16e07647b2ff9","5f60ec6027665101639a9c67","false","null","<div style=""align-items: center; display: flex; color: darkorange; font-size: 90px""><b>ø</b></div>","null","","","","forget_cue","","","","","","","","","","","","","","","",""
