"trial_type","trial_index","time_elapsed","internal_node_id","subject","exp_part","prolific_PID","study_ID","session_ID","use","rt","stimulus","key_press","button_pressed","responses","question_order","trial_part","correct","resp_map","correct_resp","probe_condition","category","image","forget_condition","list","trial_num","block_num","block","response","test_part","n_span","sequence","num_spaces"
"pavlovia","0","11","0.0-0.0","y1t1pq1xm0rfy19","","5c5cb3bf6a946500015a3411","5f60e3c0a3b16e07647b2ff9","5f60e9a726c75a000b16a28d","false","","","","","","","","","","","","","","","","","","","","","","",""
"html-keyboard-response","1","7068","0.0-1.0-0.0-0.0","y1t1pq1xm0rfy19","welcome","5c5cb3bf6a946500015a3411","5f60e3c0a3b16e07647b2ff9","5f60e9a726c75a000b16a28d","false","7051.444999873638","<div align=left>Dear participant, <br> thank you for participating in an online study of the Cognition, Action, and Sustainability Unit of the University of Freiburg! <br> <br>The aim of this study is to examine our ability to remember previously learned information. <br>Our goal is to find out, whether our memory improves, when we only remember information that is relevant to us. <br>The experiment will take about 35 minutes to complete. <br> <br>Please, note that you can only participate in this study if you are using a device with a keyboard (PC, Laptop etc.) <br>and not if you are using a mobile device such as a tablet or smartphone.<br> <br>Press 'SPACE' to proceed to the experiment. </div>","32","","","","","","","","","","","","","","","","","","","",""
"html-keyboard-response","2","15541","0.0-1.0-0.0-1.0","y1t1pq1xm0rfy19","welcome","5c5cb3bf6a946500015a3411","5f60e3c0a3b16e07647b2ff9","5f60e9a726c75a000b16a28d","false","8468.850000295788","<div align=left><strong> Time Course of this experiment: </strong> <br><br> <strong> 1.</strong>  First, please fill in some information regarding your demographic data. <br><br> <strong> 2.</strong>  Next, your task will be to classify everyday objects. <br>In addition, you will be asked to remember certain objects and recall them later. <br>Working on these tasks requires your undivided attention and concentration.<br>It is therefore essential that you eliminate any sources of distraction in your  <br>environment and ensure that you will not be disturbed. <br><br><strong> 3.</strong>  At the end of the experiment, you will be asked to answer a few additional questions. <br> <br><strong> Important:</strong> After finishing the experiment, only close the browser window <br> by clicking on the 'end the experiment'-button when you are asked to do so. <br>Closing the browser window prematurely will make the allocation of your participation credit impossible. <br><br> Press 'SPACE' to start the experiment. </div>","32","","","","","","","","","","","","","","","","","","","",""
"html-button-response","3","22981","0.0-1.0-0.0-2.0","y1t1pq1xm0rfy19","welcome","5c5cb3bf6a946500015a3411","5f60e3c0a3b16e07647b2ff9","5f60e9a726c75a000b16a28d","true","7435.989999677986","<div align=left><strong> Informed consent </strong>  <br>The aim of our research is to better understand human behavior and mental processes. <br>In the following study your behavior (e.g. choices, reaction times) will be studied. <br> <br><strong> Voluntariness and Anonymity </strong> <br>Your participation in this study is  <strong> voluntary</strong>.<br>You may withdraw your consent to participate at any time without providing a reason for doing so and without fear of prejudice. <br><br>As no personal data will be collected, <strong>your data and your person cannot be connected after data collection</strong> – the data-set is anonymous. <br>Respectively, deletion of your data will not be possible after data collection has been completed, as we cannot retrace your data-set.<br>The results and anonymized data collected in this study will be published as a scientific publication. <br>This will happen in an <strong>anonymized format</strong>, so that no data can be traced back to a specific person. <br> <br>The anonymized data of this study will be made available to other researchers and/or in a data archive on the Internet as a means of transparency and to enable subsequent re-use. By doing so, this study follows the recommendations of the Deutsche Forschungsgemeinschaft (DFG, German Research Foundation) and Deutsche Gesellschaft für Psychologie (DGPS, German Psychological Society) regarding quality assurance in research.<br>If you have any questions now or after the experiment, please contact our team (experiments@cs.uni-freiburg.de).<br><br><br>I hereby declare, that I understand the above described conditions of participation and I agree to participate under these conditions. <br><br> </div>","","0","","","","","","","","","","","","","","","","","","",""
"html-keyboard-response","4","46478","0.0-1.0-0.0-3.0","y1t1pq1xm0rfy19","welcome","5c5cb3bf6a946500015a3411","5f60e3c0a3b16e07647b2ff9","5f60e9a726c75a000b16a28d","false","23493.169999681413","<div align=left><strong> General information concerning the experiment </strong>  <br> <br>Please follow the instructions:<ol> <li><strong> Do not leave this tab (your browser window) during the experiment and do not reload this tab! </strong>  <br>If you do switch tabs/windows during the experiment (to check your mail or visit another website, for example), <br>the experiment will end automatically and you will <strong>not receive credit</strong> for your participation. <br>Repeated participation or resumption of the experiment is impossible.</li> <br><li>Please close all other programs for the duration of your participation. </li> <br><li>Please mute or turn off your phone and put it out of your reach. </li> <br><li>Please also take off any disturbing accessories (such as wristwatches, bracelets, etc.). </li> <br><li>If you have music playing in the background, please turn it off now. </li> <br></ol>Thank you! <br>Press 'SPACE' to continue. </div>","32","","","","","","","","","","","","","","","","","","","",""
"survey-text","5","50973","0.0-1.0-1.0-0.0","y1t1pq1xm0rfy19","demographics","5c5cb3bf6a946500015a3411","5f60e3c0a3b16e07647b2ff9","5f60e9a726c75a000b16a28d","true","4483.384999912232","","","","{""age"":""35""}","","","","","","","","","","","","","","","","","",""
"survey-multi-choice","6","70108","0.0-1.0-1.0-1.0","y1t1pq1xm0rfy19","demographics","5c5cb3bf6a946500015a3411","5f60e3c0a3b16e07647b2ff9","5f60e9a726c75a000b16a28d","true","19129.88999998197","","","","{""gender"":""female"",""school"":""others"",""education"":""Completed university degree or equivalent""}","[0,1,2]","","","","","","","","","","","","","","","","",""
"html-keyboard-response","7","97211","0.0-1.0-2.0","y1t1pq1xm0rfy19","instructions","5c5cb3bf6a946500015a3411","5f60e3c0a3b16e07647b2ff9","5f60e9a726c75a000b16a28d","false","27092.425000388175","<div align=left> The experiment is now about to start: <br> <br>In the following part, you will be presented pictures of everyday objects. <br>Your first task is to <strong>classify these objects. </strong> <br> <br> You will classify them either as mechanical or non-mechanical objects. <br> <br>Objects that include any kind of technical mechanism (for example, wheels, switches, levers, <br> electronic components) fall under the category of <strong>mechanical</strong> objects. <br>Only objects without any kind of technical mechanism should be classified as <strong>non-mechanical</strong>. <br><br>Press 'SPACE' to continue. </div>","32","","","","","","","","","","","","","","","","","","","",""
"html-keyboard-response","8","135435","0.0-2.0-0.0","y1t1pq1xm0rfy19","instructions","5c5cb3bf6a946500015a3411","5f60e3c0a3b16e07647b2ff9","5f60e9a726c75a000b16a28d","false","38220.95500025898","<div align=justify>You will classify the objects using the <strong>'S'</strong> and the <strong>'L'</strong> keys on your keyboard.<br>For doing so, please place your <strong>left index finger</strong> on the <strong>'S'</strong> key and place your <strong>right index finger</strong> on the <strong>'L'</strong> key. <br><br> Each trial starts with an instruction, indicating which key ('S'/'L') you need to press to classify <br>the object as mechanical (letter M) or non-mechanical (letter N).<br>The instruction <strong>M + N</strong> indicates that, in the current trial, by pressing the left key ('S') you classify the displayed object as mechanical (M) <br> and by pressing the right key ('L') you classify the object as non-mechanical (N). <br>The instruction <strong>N + M</strong> on the other hand indicates that by pressing the left key ('S') you classify the displayed object as non-mechanical (N) <br> and by pressing the right key ('L') you classify the object as mechanical (M). <br><br>Please press the key corresponding to the correct classification as fast as possible as soon as the object is displayed and try to avoid making mistakes.<br>If you do not respond within a 2 second window, a corresponding feedback will be displayed and the next trial will start.<br> The experiment is divided into multiple blocks to give you the opportunity to take a break after each block. <br>First, you can now practice this task. <br><br>Please place your <strong>LEFT INDEX FINGER</strong> on the 'S' key and your <strong>RIGHT INDEX FINGER</strong> on the 'L' key now. <br><br>Press SPACE to continue.</div>","32","","","","","","","","","","","","","","","","","","","",""
"html-keyboard-response","9","138734","0.0-2.0-1.0","y1t1pq1xm0rfy19","instructions","5c5cb3bf6a946500015a3411","5f60e3c0a3b16e07647b2ff9","5f60e9a726c75a000b16a28d","false","3296.3800001889467","<div align=left> You will now have time to practice this task.<br><br>Remember: <br> <br><li>Please place your index fingers on the <strong>'S'</strong> and <strong>'L'</strong> keys <br>to respond as fast and accurately as possible.</li><li>Every picture can be classified as either mechanical or non-mechanical.</li><li>If you do not respond in time or commit an error, you will receive a corresponding feedback. </li><li> Please try to respond as <strong> fast </strong> and as <strong> accurately as possible </strong> .<br><li>To ensure optimal results, please minimize distractions and stay focused. </li><br><br>Press SPACE to continue.</div>","32","","","","","","","","","","","","","","","","","","","",""
"html-keyboard-response","10","139450","0.0-2.0-2.0-0.0","y1t1pq1xm0rfy19","practice_no_cue","5c5cb3bf6a946500015a3411","5f60e3c0a3b16e07647b2ff9","5f60e9a726c75a000b16a28d","false","null","<span style=""color: black; font-size: 48px"">M + N</span>","null","","","","resp_prompt","","","","","","","","","","","","","","","",""
"categorize-image","11","141912","0.0-2.0-2.0-1.0","y1t1pq1xm0rfy19","practice_no_cue","5c5cb3bf6a946500015a3411","5f60e3c0a3b16e07647b2ff9","5f60e9a726c75a000b16a28d","true","1951.365000102669","./Stimuli/ImagesPractice/LN2.jpg","76","","","","test","true","M + N","76","","LN","LN2.jpg","remember","old","1","1","start","right","","","",""
"html-keyboard-response","12","142628","0.0-2.0-2.0-0.1","y1t1pq1xm0rfy19","practice_no_cue","5c5cb3bf6a946500015a3411","5f60e3c0a3b16e07647b2ff9","5f60e9a726c75a000b16a28d","false","null","<span style=""color: black; font-size: 48px"">M + N</span>","null","","","","resp_prompt","","","","","","","","","","","","","","","",""
"categorize-image","13","145149","0.0-2.0-2.0-1.1","y1t1pq1xm0rfy19","practice_no_cue","5c5cb3bf6a946500015a3411","5f60e3c0a3b16e07647b2ff9","5f60e9a726c75a000b16a28d","true","null","./Stimuli/ImagesPractice/LM239.jpg","null","","","","test","false","M + N","83","","LM","LM239.jpg","forget","old","2","1","start","too_slow","","","",""
"html-keyboard-response","14","145865","0.0-2.0-2.0-0.2","y1t1pq1xm0rfy19","practice_no_cue","5c5cb3bf6a946500015a3411","5f60e3c0a3b16e07647b2ff9","5f60e9a726c75a000b16a28d","false","null","<span style=""color: black; font-size: 48px"">N + M</span>","null","","","","resp_prompt","","","","","","","","","","","","","","","",""
"categorize-image","15","148120","0.0-2.0-2.0-1.2","y1t1pq1xm0rfy19","practice_no_cue","5c5cb3bf6a946500015a3411","5f60e3c0a3b16e07647b2ff9","5f60e9a726c75a000b16a28d","true","1742.39999987185","./Stimuli/ImagesPractice/LM224.jpg","83","","","","test","false","N + M","76","","LM","LM224.jpg","remember","old","3","1","start","left","","","",""
"html-keyboard-response","16","148834","0.0-2.0-2.0-0.3","y1t1pq1xm0rfy19","practice_no_cue","5c5cb3bf6a946500015a3411","5f60e3c0a3b16e07647b2ff9","5f60e9a726c75a000b16a28d","false","null","<span style=""color: black; font-size: 48px"">M + N</span>","null","","","","resp_prompt","","","","","","","","","","","","","","","",""
"categorize-image","17","150449","0.0-2.0-2.0-1.3","y1t1pq1xm0rfy19","practice_no_cue","5c5cb3bf6a946500015a3411","5f60e3c0a3b16e07647b2ff9","5f60e9a726c75a000b16a28d","true","1109.6749999560416","./Stimuli/ImagesPractice/LM55.jpg","76","","","","test","false","M + N","83","","LM","LM55.jpg","forget","old","4","1","start","right","","","",""
"html-keyboard-response","18","151163","0.0-2.0-2.0-0.4","y1t1pq1xm0rfy19","practice_no_cue","5c5cb3bf6a946500015a3411","5f60e3c0a3b16e07647b2ff9","5f60e9a726c75a000b16a28d","false","null","<span style=""color: black; font-size: 48px"">N + M</span>","null","","","","resp_prompt","","","","","","","","","","","","","","","",""
"categorize-image","19","152907","0.0-2.0-2.0-1.4","y1t1pq1xm0rfy19","practice_no_cue","5c5cb3bf6a946500015a3411","5f60e3c0a3b16e07647b2ff9","5f60e9a726c75a000b16a28d","true","1226.0349998250604","./Stimuli/ImagesPractice/LN4.jpg","76","","","","test","false","N + M","83","","LN","LN4.jpg","remember","old","5","1","start","right","","","",""
"html-keyboard-response","20","153610","0.0-2.0-2.0-0.5","y1t1pq1xm0rfy19","practice_no_cue","5c5cb3bf6a946500015a3411","5f60e3c0a3b16e07647b2ff9","5f60e9a726c75a000b16a28d","false","null","<span style=""color: black; font-size: 48px"">M + N</span>","null","","","","resp_prompt","","","","","","","","","","","","","","","",""
"categorize-image","21","155025","0.0-2.0-2.0-1.5","y1t1pq1xm0rfy19","practice_no_cue","5c5cb3bf6a946500015a3411","5f60e3c0a3b16e07647b2ff9","5f60e9a726c75a000b16a28d","true","904.829999897629","./Stimuli/ImagesPractice/LN109.jpg","76","","","","test","true","M + N","76","","LN","LN109.jpg","remember","old","6","1","start","right","","","",""
"html-keyboard-response","22","155741","0.0-2.0-2.0-0.6","y1t1pq1xm0rfy19","practice_no_cue","5c5cb3bf6a946500015a3411","5f60e3c0a3b16e07647b2ff9","5f60e9a726c75a000b16a28d","false","null","<span style=""color: black; font-size: 48px"">M + N</span>","null","","","","resp_prompt","","","","","","","","","","","","","","","",""
"categorize-image","23","157078","0.0-2.0-2.0-1.6","y1t1pq1xm0rfy19","practice_no_cue","5c5cb3bf6a946500015a3411","5f60e3c0a3b16e07647b2ff9","5f60e9a726c75a000b16a28d","true","832.5800001621246","./Stimuli/ImagesPractice/SM97.jpg","83","","","","test","true","M + N","83","","SM","SM97.jpg","remember","old","7","1","start","left","","","",""
"html-keyboard-response","24","157795","0.0-2.0-2.0-0.7","y1t1pq1xm0rfy19","practice_no_cue","5c5cb3bf6a946500015a3411","5f60e3c0a3b16e07647b2ff9","5f60e9a726c75a000b16a28d","false","null","<span style=""color: black; font-size: 48px"">N + M</span>","null","","","","resp_prompt","","","","","","","","","","","","","","","",""
"categorize-image","25","159400","0.0-2.0-2.0-1.7","y1t1pq1xm0rfy19","practice_no_cue","5c5cb3bf6a946500015a3411","5f60e3c0a3b16e07647b2ff9","5f60e9a726c75a000b16a28d","true","1098.0450003407896","./Stimuli/ImagesPractice/SN220.jpg","83","","","","test","true","N + M","83","","SN","SN220.jpg","forget","old","8","1","start","left","","","",""
"html-keyboard-response","26","160118","0.0-2.0-2.0-0.8","y1t1pq1xm0rfy19","practice_no_cue","5c5cb3bf6a946500015a3411","5f60e3c0a3b16e07647b2ff9","5f60e9a726c75a000b16a28d","false","null","<span style=""color: black; font-size: 48px"">M + N</span>","null","","","","resp_prompt","","","","","","","","","","","","","","","",""
"categorize-image","27","161396","0.0-2.0-2.0-1.8","y1t1pq1xm0rfy19","practice_no_cue","5c5cb3bf6a946500015a3411","5f60e3c0a3b16e07647b2ff9","5f60e9a726c75a000b16a28d","true","765.3349996544421","./Stimuli/ImagesPractice/SM35.jpg","83","","","","test","true","M + N","83","","SM","SM35.jpg","forget","old","9","1","start","left","","","",""
"html-keyboard-response","28","162107","0.0-2.0-2.0-0.9","y1t1pq1xm0rfy19","practice_no_cue","5c5cb3bf6a946500015a3411","5f60e3c0a3b16e07647b2ff9","5f60e9a726c75a000b16a28d","false","null","<span style=""color: black; font-size: 48px"">N + M</span>","null","","","","resp_prompt","","","","","","","","","","","","","","","",""
"categorize-image","29","163706","0.0-2.0-2.0-1.9","y1t1pq1xm0rfy19","practice_no_cue","5c5cb3bf6a946500015a3411","5f60e3c0a3b16e07647b2ff9","5f60e9a726c75a000b16a28d","true","1087.7000000327826","./Stimuli/ImagesPractice/SM37.jpg","76","","","","test","true","N + M","76","","SM","SM37.jpg","remember","old","10","1","start","right","","","",""
"html-keyboard-response","30","164419","0.0-2.0-2.0-0.10","y1t1pq1xm0rfy19","practice_no_cue","5c5cb3bf6a946500015a3411","5f60e3c0a3b16e07647b2ff9","5f60e9a726c75a000b16a28d","false","null","<span style=""color: black; font-size: 48px"">M + N</span>","null","","","","resp_prompt","","","","","","","","","","","","","","","",""
"categorize-image","31","165603","0.0-2.0-2.0-1.10","y1t1pq1xm0rfy19","practice_no_cue","5c5cb3bf6a946500015a3411","5f60e3c0a3b16e07647b2ff9","5f60e9a726c75a000b16a28d","true","677.7800000272691","./Stimuli/ImagesPractice/SN221.jpg","76","","","","test","true","M + N","76","","SN","SN221.jpg","remember","old","11","1","start","right","","","",""
"html-keyboard-response","32","166316","0.0-2.0-2.0-0.11","y1t1pq1xm0rfy19","practice_no_cue","5c5cb3bf6a946500015a3411","5f60e3c0a3b16e07647b2ff9","5f60e9a726c75a000b16a28d","false","null","<span style=""color: black; font-size: 48px"">N + M</span>","null","","","","resp_prompt","","","","","","","","","","","","","","","",""
"categorize-image","33","167643","0.0-2.0-2.0-1.11","y1t1pq1xm0rfy19","practice_no_cue","5c5cb3bf6a946500015a3411","5f60e3c0a3b16e07647b2ff9","5f60e9a726c75a000b16a28d","true","820.5200000666082","./Stimuli/ImagesPractice/SM62.jpg","83","","","","test","false","N + M","76","","SM","SM62.jpg","remember","old","12","1","start","left","","","",""
"html-keyboard-response","34","168347","0.0-2.0-2.0-0.12","y1t1pq1xm0rfy19","practice_no_cue","5c5cb3bf6a946500015a3411","5f60e3c0a3b16e07647b2ff9","5f60e9a726c75a000b16a28d","false","null","<span style=""color: black; font-size: 48px"">N + M</span>","null","","","","resp_prompt","","","","","","","","","","","","","","","",""
"categorize-image","35","170066","0.0-2.0-2.0-1.12","y1t1pq1xm0rfy19","practice_no_cue","5c5cb3bf6a946500015a3411","5f60e3c0a3b16e07647b2ff9","5f60e9a726c75a000b16a28d","true","1208.5400000214577","./Stimuli/ImagesPractice/SN76.jpg","83","","","","test","true","N + M","83","","SN","SN76.jpg","forget","old","13","1","start","left","","","",""
"html-keyboard-response","36","170781","0.0-2.0-2.0-0.13","y1t1pq1xm0rfy19","practice_no_cue","5c5cb3bf6a946500015a3411","5f60e3c0a3b16e07647b2ff9","5f60e9a726c75a000b16a28d","false","null","<span style=""color: black; font-size: 48px"">N + M</span>","null","","","","resp_prompt","","","","","","","","","","","","","","","",""
"categorize-image","37","172150","0.0-2.0-2.0-1.13","y1t1pq1xm0rfy19","practice_no_cue","5c5cb3bf6a946500015a3411","5f60e3c0a3b16e07647b2ff9","5f60e9a726c75a000b16a28d","true","862.82500019297","./Stimuli/ImagesPractice/SM98.jpg","76","","","","test","true","N + M","76","","SM","SM98.jpg","forget","old","14","1","start","right","","","",""
"html-keyboard-response","38","172866","0.0-2.0-2.0-0.14","y1t1pq1xm0rfy19","practice_no_cue","5c5cb3bf6a946500015a3411","5f60e3c0a3b16e07647b2ff9","5f60e9a726c75a000b16a28d","false","null","<span style=""color: black; font-size: 48px"">N + M</span>","null","","","","resp_prompt","","","","","","","","","","","","","","","",""
"categorize-image","39","174217","0.0-2.0-2.0-1.14","y1t1pq1xm0rfy19","practice_no_cue","5c5cb3bf6a946500015a3411","5f60e3c0a3b16e07647b2ff9","5f60e9a726c75a000b16a28d","true","838.2549998350441","./Stimuli/ImagesPractice/LM230.jpg","76","","","","test","true","N + M","76","","LM","LM230.jpg","forget","old","15","1","start","right","","","",""
"html-keyboard-response","40","174924","0.0-2.0-2.0-0.15","y1t1pq1xm0rfy19","practice_no_cue","5c5cb3bf6a946500015a3411","5f60e3c0a3b16e07647b2ff9","5f60e9a726c75a000b16a28d","false","null","<span style=""color: black; font-size: 48px"">M + N</span>","null","","","","resp_prompt","","","","","","","","","","","","","","","",""
"categorize-image","41","176393","0.0-2.0-2.0-1.15","y1t1pq1xm0rfy19","practice_no_cue","5c5cb3bf6a946500015a3411","5f60e3c0a3b16e07647b2ff9","5f60e9a726c75a000b16a28d","true","956.389999948442","./Stimuli/ImagesPractice/SN222.jpg","83","","","","test","false","M + N","76","","SN","SN222.jpg","forget","old","16","1","start","left","","","",""
"html-keyboard-response","42","184522","0.0-2.0-3.0","y1t1pq1xm0rfy19","break","5c5cb3bf6a946500015a3411","5f60e3c0a3b16e07647b2ff9","5f60e9a726c75a000b16a28d","false","8123.399999924004","<p style='font-size: 32px;'>Break</><br><br><br><br><br><p style='font-size: 24px;'>In the last block, you committed 5 errors and did not respond in time on 1 trials.
</p><p style='font-size: 24px;'>Try to respond as fast and accurately as possible in the next block as well! </p><p style='font-size: 24px;'>Press SPACE to continue.</p>","32","","","","","","","","","","","","","","","","","","","",""
"html-keyboard-response","43","196157","0.0-2.0-4.0","y1t1pq1xm0rfy19","instructions","5c5cb3bf6a946500015a3411","5f60e3c0a3b16e07647b2ff9","5f60e9a726c75a000b16a28d","false","11632.28499982506","<div align=left> Great!<br><br>Are you ready to continue?<br><br>If you want to reread the instructions and redo the practice trials, <br>please press „Z“. <br><br>Press SPACE to CONTINUE with the experiment when you are ready. </div>","32","","","","","","","","","","","","","","","","","","","",""
"html-keyboard-response","44","222429","0.0-3.0-0.0","y1t1pq1xm0rfy19","instructions","5c5cb3bf6a946500015a3411","5f60e3c0a3b16e07647b2ff9","5f60e9a726c75a000b16a28d","false","26267.984999809414","<div align=left>Great!<br> <strong>Attention</strong>! You will now receive a second, additional task! <br><br>To this point it was you <strong>first task</strong> to correctly <strong>classify objects</strong>. <br><br>As mentioned in the beginning, we aim to examine how well humans can remember previously learned information.<br>We would like to find out whether our memory improves if we only remember information that is relevant to us. <br><br>Therefore, your <strong>second task</strong> will be to <strong>remember</strong> the pictures you are to categorize. <br> After the learning phase, there will be a memory test phase, in which you will be asked to indicate whether you have seen a picture before or not. <br>Some, but not all pictures shown in the learning phase will appear in the memory test phase.<br>After classifying a picture, you will be told whether you should remember it for the memory test phase or not. <br>Thus, some pictures can be forgotten, whereas others have to be remembered. <br><br>Note: From now on, feedback will only be displayed if you responded incorrectly or not in time.<br><br>Press SPACE to continue.</div>","32","","","","","","","","","","","","","","","","","","","",""
"html-keyboard-response","45","233186","0.0-3.0-1.0","y1t1pq1xm0rfy19","instructions","5c5cb3bf6a946500015a3411","5f60e3c0a3b16e07647b2ff9","5f60e9a726c75a000b16a28d","false","10754.420000128448","<div align=left>In the following part, you will thus have to remember only some pictures. <br>Immediately after seeing and classifying the picture, a symbol will be displayed, indicating whether you should remember or forget the previous picture. <br><br>A <span style='color: dodgerblue; font-size: 28px'>O</span> indicates REMEMBER. That means, you have to remember this picture, because it will be tested later. <br><br>A <span style='color: darkorange; font-size:28px'>Ø</span> indicates FORGET. You do not have to remember this picture. <br><br> As you will have to remember a lot of pictures, it will be hard for you to remember all of them. <br>It will put you at an advantage if you instantly forget the pictures you are not asked to remember. <br> This will make it easier for you to remember the pictures that will be tested afterwards. <br><br>Press SPACE to continue.</div>","32","","","","","","","","","","","","","","","","","","","",""
"html-keyboard-response","46","237217","0.0-3.0-2.0","y1t1pq1xm0rfy19","instructions","5c5cb3bf6a946500015a3411","5f60e3c0a3b16e07647b2ff9","5f60e9a726c75a000b16a28d","false","4028.1899999827147","<div align=left> Now you have the chance to practice both tasks together.<br><br>Remember: <br> <br><li>Please place your index fingers on the <strong>'S'</strong> and <strong>'L'</strong> keys <br>to respond as fast and accurately as possible.</li><li>Every picture can be classified as either mechanical or non-mechanical.</li><li>If you do not respond in time or commit an error, you will receive a corresponding feedback. <br>Please try to respond as <strong> fast </strong> and as <strong> accurately as possible </strong>.</li><li> Please remember only the to-be-remembered <span style='color: dodgerblue; font-size: 28px'>O</span> pictures. <br></li><li> Please minimize distractions and stay focused. </li><br><br>Press SPACE to START</div>","32","","","","","","","","","","","","","","","","","","","",""
"html-keyboard-response","47","237920","0.0-3.0-3.0-0.0","y1t1pq1xm0rfy19","practice_cue","5c5cb3bf6a946500015a3411","5f60e3c0a3b16e07647b2ff9","5f60e9a726c75a000b16a28d","false","null","<span style=""color: black; font-size: 48px"">M + N</span>","null","","","","resp_prompt","","","","","","","","","","","","","","","",""
"categorize-image","48","238664","0.0-3.0-3.0-1.0","y1t1pq1xm0rfy19","practice_cue","5c5cb3bf6a946500015a3411","5f60e3c0a3b16e07647b2ff9","5f60e9a726c75a000b16a28d","true","736.1999996937811","./Stimuli/ImagesPractice/SM35.jpg","83","","","","test","true","M + N","83","","SM","SM35.jpg","forget","old","17","2","practice_forget","left","","","",""
"html-keyboard-response","49","240679","0.0-3.0-3.0-3.0","y1t1pq1xm0rfy19","practice_cue","5c5cb3bf6a946500015a3411","5f60e3c0a3b16e07647b2ff9","5f60e9a726c75a000b16a28d","false","null","<div style=""align-items: center; display: flex; color: darkorange; font-size: 90px""><b>ø</b></div>","null","","","","forget_cue","","","","","","","","","","","","","","","",""
"html-keyboard-response","50","241382","0.0-3.0-3.0-0.1","y1t1pq1xm0rfy19","practice_cue","5c5cb3bf6a946500015a3411","5f60e3c0a3b16e07647b2ff9","5f60e9a726c75a000b16a28d","false","null","<span style=""color: black; font-size: 48px"">N + M</span>","null","","","","resp_prompt","","","","","","","","","","","","","","","",""
"categorize-image","51","242228","0.0-3.0-3.0-1.1","y1t1pq1xm0rfy19","practice_cue","5c5cb3bf6a946500015a3411","5f60e3c0a3b16e07647b2ff9","5f60e9a726c75a000b16a28d","true","837.8650001250207","./Stimuli/ImagesPractice/SM62.jpg","76","","","","test","true","N + M","76","","SM","SM62.jpg","remember","old","18","2","practice_forget","right","","","",""
"html-keyboard-response","52","244232","0.0-3.0-3.0-3.1","y1t1pq1xm0rfy19","practice_cue","5c5cb3bf6a946500015a3411","5f60e3c0a3b16e07647b2ff9","5f60e9a726c75a000b16a28d","false","null","<div style=""align-items: center; display: flex; color: dodgerblue; font-size: 90px""><b>o</b></div>","null","","","","forget_cue","","","","","","","","","","","","","","","",""
"html-keyboard-response","53","244935","0.0-3.0-3.0-0.2","y1t1pq1xm0rfy19","practice_cue","5c5cb3bf6a946500015a3411","5f60e3c0a3b16e07647b2ff9","5f60e9a726c75a000b16a28d","false","null","<span style=""color: black; font-size: 48px"">M + N</span>","null","","","","resp_prompt","","","","","","","","","","","","","","","",""
"categorize-image","54","245607","0.0-3.0-3.0-1.2","y1t1pq1xm0rfy19","practice_cue","5c5cb3bf6a946500015a3411","5f60e3c0a3b16e07647b2ff9","5f60e9a726c75a000b16a28d","true","663.6450001969934","./Stimuli/ImagesPractice/SM97.jpg","83","","","","test","true","M + N","83","","SM","SM97.jpg","remember","old","19","2","practice_forget","left","","","",""
"html-keyboard-response","55","247625","0.0-3.0-3.0-3.2","y1t1pq1xm0rfy19","practice_cue","5c5cb3bf6a946500015a3411","5f60e3c0a3b16e07647b2ff9","5f60e9a726c75a000b16a28d","false","null","<div style=""align-items: center; display: flex; color: dodgerblue; font-size: 90px""><b>o</b></div>","null","","","","forget_cue","","","","","","","","","","","","","","","",""
"html-keyboard-response","56","248327","0.0-3.0-3.0-0.3","y1t1pq1xm0rfy19","practice_cue","5c5cb3bf6a946500015a3411","5f60e3c0a3b16e07647b2ff9","5f60e9a726c75a000b16a28d","false","null","<span style=""color: black; font-size: 48px"">N + M</span>","null","","","","resp_prompt","","","","","","","","","","","","","","","",""
"categorize-image","57","249155","0.0-3.0-3.0-1.3","y1t1pq1xm0rfy19","practice_cue","5c5cb3bf6a946500015a3411","5f60e3c0a3b16e07647b2ff9","5f60e9a726c75a000b16a28d","true","822.5600002333522","./Stimuli/ImagesPractice/SM98.jpg","76","","","","test","true","N + M","76","","SM","SM98.jpg","forget","old","20","2","practice_forget","right","","","",""
"html-keyboard-response","58","251169","0.0-3.0-3.0-3.3","y1t1pq1xm0rfy19","practice_cue","5c5cb3bf6a946500015a3411","5f60e3c0a3b16e07647b2ff9","5f60e9a726c75a000b16a28d","false","null","<div style=""align-items: center; display: flex; color: darkorange; font-size: 90px""><b>ø</b></div>","null","","","","forget_cue","","","","","","","","","","","","","","","",""
"html-keyboard-response","59","251883","0.0-3.0-3.0-0.4","y1t1pq1xm0rfy19","practice_cue","5c5cb3bf6a946500015a3411","5f60e3c0a3b16e07647b2ff9","5f60e9a726c75a000b16a28d","false","null","<span style=""color: black; font-size: 48px"">M + N</span>","null","","","","resp_prompt","","","","","","","","","","","","","","","",""
"categorize-image","60","253381","0.0-3.0-3.0-1.4","y1t1pq1xm0rfy19","practice_cue","5c5cb3bf6a946500015a3411","5f60e3c0a3b16e07647b2ff9","5f60e9a726c75a000b16a28d","true","1491.3849998265505","./Stimuli/ImagesPractice/LN109.jpg","76","","","","test","true","M + N","76","","LN","LN109.jpg","remember","old","21","2","practice_forget","right","","","",""
"html-keyboard-response","61","255392","0.0-3.0-3.0-3.4","y1t1pq1xm0rfy19","practice_cue","5c5cb3bf6a946500015a3411","5f60e3c0a3b16e07647b2ff9","5f60e9a726c75a000b16a28d","false","null","<div style=""align-items: center; display: flex; color: dodgerblue; font-size: 90px""><b>o</b></div>","null","","","","forget_cue","","","","","","","","","","","","","","","",""
"html-keyboard-response","62","256095","0.0-3.0-3.0-0.5","y1t1pq1xm0rfy19","practice_cue","5c5cb3bf6a946500015a3411","5f60e3c0a3b16e07647b2ff9","5f60e9a726c75a000b16a28d","false","null","<span style=""color: black; font-size: 48px"">M + N</span>","null","","","","resp_prompt","","","","","","","","","","","","","","","",""
"categorize-image","63","256653","0.0-3.0-3.0-1.5","y1t1pq1xm0rfy19","practice_cue","5c5cb3bf6a946500015a3411","5f60e3c0a3b16e07647b2ff9","5f60e9a726c75a000b16a28d","true","551.3100000098348","./Stimuli/ImagesPractice/SN222.jpg","76","","","","test","true","M + N","76","","SN","SN222.jpg","forget","old","22","2","practice_forget","right","","","",""
"html-keyboard-response","64","258668","0.0-3.0-3.0-3.5","y1t1pq1xm0rfy19","practice_cue","5c5cb3bf6a946500015a3411","5f60e3c0a3b16e07647b2ff9","5f60e9a726c75a000b16a28d","false","null","<div style=""align-items: center; display: flex; color: darkorange; font-size: 90px""><b>ø</b></div>","null","","","","forget_cue","","","","","","","","","","","","","","","",""
"html-keyboard-response","65","259382","0.0-3.0-3.0-0.6","y1t1pq1xm0rfy19","practice_cue","5c5cb3bf6a946500015a3411","5f60e3c0a3b16e07647b2ff9","5f60e9a726c75a000b16a28d","false","null","<span style=""color: black; font-size: 48px"">N + M</span>","null","","","","resp_prompt","","","","","","","","","","","","","","","",""
"categorize-image","66","260061","0.0-3.0-3.0-1.6","y1t1pq1xm0rfy19","practice_cue","5c5cb3bf6a946500015a3411","5f60e3c0a3b16e07647b2ff9","5f60e9a726c75a000b16a28d","true","671.3000000454485","./Stimuli/ImagesPractice/SM37.jpg","76","","","","test","true","N + M","76","","SM","SM37.jpg","remember","old","23","2","practice_forget","right","","","",""
"html-keyboard-response","67","262066","0.0-3.0-3.0-3.6","y1t1pq1xm0rfy19","practice_cue","5c5cb3bf6a946500015a3411","5f60e3c0a3b16e07647b2ff9","5f60e9a726c75a000b16a28d","false","null","<div style=""align-items: center; display: flex; color: dodgerblue; font-size: 90px""><b>o</b></div>","null","","","","forget_cue","","","","","","","","","","","","","","","",""
"html-keyboard-response","68","262768","0.0-3.0-3.0-0.7","y1t1pq1xm0rfy19","practice_cue","5c5cb3bf6a946500015a3411","5f60e3c0a3b16e07647b2ff9","5f60e9a726c75a000b16a28d","false","null","<span style=""color: black; font-size: 48px"">N + M</span>","null","","","","resp_prompt","","","","","","","","","","","","","","","",""
"categorize-image","69","263535","0.0-3.0-3.0-1.7","y1t1pq1xm0rfy19","practice_cue","5c5cb3bf6a946500015a3411","5f60e3c0a3b16e07647b2ff9","5f60e9a726c75a000b16a28d","true","758.374999742955","./Stimuli/ImagesPractice/LM224.jpg","76","","","","test","true","N + M","76","","LM","LM224.jpg","remember","old","24","2","practice_forget","right","","","",""
"html-keyboard-response","70","265538","0.0-3.0-3.0-3.7","y1t1pq1xm0rfy19","practice_cue","5c5cb3bf6a946500015a3411","5f60e3c0a3b16e07647b2ff9","5f60e9a726c75a000b16a28d","false","null","<div style=""align-items: center; display: flex; color: dodgerblue; font-size: 90px""><b>o</b></div>","null","","","","forget_cue","","","","","","","","","","","","","","","",""
"html-keyboard-response","71","266248","0.0-3.0-3.0-0.8","y1t1pq1xm0rfy19","practice_cue","5c5cb3bf6a946500015a3411","5f60e3c0a3b16e07647b2ff9","5f60e9a726c75a000b16a28d","false","null","<span style=""color: black; font-size: 48px"">M + N</span>","null","","","","resp_prompt","","","","","","","","","","","","","","","",""
"categorize-image","72","266964","0.0-3.0-3.0-1.8","y1t1pq1xm0rfy19","practice_cue","5c5cb3bf6a946500015a3411","5f60e3c0a3b16e07647b2ff9","5f60e9a726c75a000b16a28d","true","704.1449998505414","./Stimuli/ImagesPractice/SN221.jpg","76","","","","test","true","M + N","76","","SN","SN221.jpg","remember","old","25","2","practice_forget","right","","","",""
"html-keyboard-response","73","268969","0.0-3.0-3.0-3.8","y1t1pq1xm0rfy19","practice_cue","5c5cb3bf6a946500015a3411","5f60e3c0a3b16e07647b2ff9","5f60e9a726c75a000b16a28d","false","null","<div style=""align-items: center; display: flex; color: dodgerblue; font-size: 90px""><b>o</b></div>","null","","","","forget_cue","","","","","","","","","","","","","","","",""
"html-keyboard-response","74","269684","0.0-3.0-3.0-0.9","y1t1pq1xm0rfy19","practice_cue","5c5cb3bf6a946500015a3411","5f60e3c0a3b16e07647b2ff9","5f60e9a726c75a000b16a28d","false","null","<span style=""color: black; font-size: 48px"">M + N</span>","null","","","","resp_prompt","","","","","","","","","","","","","","","",""
"categorize-image","75","270347","0.0-3.0-3.0-1.9","y1t1pq1xm0rfy19","practice_cue","5c5cb3bf6a946500015a3411","5f60e3c0a3b16e07647b2ff9","5f60e9a726c75a000b16a28d","true","654.0100001730025","./Stimuli/ImagesPractice/LM55.jpg","83","","","","test","true","M + N","83","","LM","LM55.jpg","forget","old","26","2","practice_forget","left","","","",""
"html-keyboard-response","76","272352","0.0-3.0-3.0-3.9","y1t1pq1xm0rfy19","practice_cue","5c5cb3bf6a946500015a3411","5f60e3c0a3b16e07647b2ff9","5f60e9a726c75a000b16a28d","false","null","<div style=""align-items: center; display: flex; color: darkorange; font-size: 90px""><b>ø</b></div>","null","","","","forget_cue","","","","","","","","","","","","","","","",""
"html-keyboard-response","77","273064","0.0-3.0-3.0-0.10","y1t1pq1xm0rfy19","practice_cue","5c5cb3bf6a946500015a3411","5f60e3c0a3b16e07647b2ff9","5f60e9a726c75a000b16a28d","false","null","<span style=""color: black; font-size: 48px"">N + M</span>","null","","","","resp_prompt","","","","","","","","","","","","","","","",""
"categorize-image","78","274084","0.0-3.0-3.0-1.10","y1t1pq1xm0rfy19","practice_cue","5c5cb3bf6a946500015a3411","5f60e3c0a3b16e07647b2ff9","5f60e9a726c75a000b16a28d","true","1012.3150004073977","./Stimuli/ImagesPractice/SN220.jpg","76","","","","test","false","N + M","83","","SN","SN220.jpg","forget","old","27","2","practice_forget","right","","","",""
"html-keyboard-response","79","274592","0.0-3.0-3.0-2.10-0.10","y1t1pq1xm0rfy19","practice_cue","5c5cb3bf6a946500015a3411","5f60e3c0a3b16e07647b2ff9","5f60e9a726c75a000b16a28d","false","null","<span style=""color: red; font-size: 48px"">Error!</span>","null","","","","feedback","","","","","","","","","","","","","","","",""
"html-keyboard-response","80","276598","0.0-3.0-3.0-3.10","y1t1pq1xm0rfy19","practice_cue","5c5cb3bf6a946500015a3411","5f60e3c0a3b16e07647b2ff9","5f60e9a726c75a000b16a28d","false","null","<div style=""align-items: center; display: flex; color: darkorange; font-size: 90px""><b>ø</b></div>","null","","","","forget_cue","","","","","","","","","","","","","","","",""
"html-keyboard-response","81","277313","0.0-3.0-3.0-0.11","y1t1pq1xm0rfy19","practice_cue","5c5cb3bf6a946500015a3411","5f60e3c0a3b16e07647b2ff9","5f60e9a726c75a000b16a28d","false","null","<span style=""color: black; font-size: 48px"">N + M</span>","null","","","","resp_prompt","","","","","","","","","","","","","","","",""
"categorize-image","82","278127","0.0-3.0-3.0-1.11","y1t1pq1xm0rfy19","practice_cue","5c5cb3bf6a946500015a3411","5f60e3c0a3b16e07647b2ff9","5f60e9a726c75a000b16a28d","true","805.9600000269711","./Stimuli/ImagesPractice/LM230.jpg","76","","","","test","true","N + M","76","","LM","LM230.jpg","forget","old","28","2","practice_forget","right","","","",""
"html-keyboard-response","83","280144","0.0-3.0-3.0-3.11","y1t1pq1xm0rfy19","practice_cue","5c5cb3bf6a946500015a3411","5f60e3c0a3b16e07647b2ff9","5f60e9a726c75a000b16a28d","false","null","<div style=""align-items: center; display: flex; color: darkorange; font-size: 90px""><b>ø</b></div>","null","","","","forget_cue","","","","","","","","","","","","","","","",""
"html-keyboard-response","84","280857","0.0-3.0-3.0-0.12","y1t1pq1xm0rfy19","practice_cue","5c5cb3bf6a946500015a3411","5f60e3c0a3b16e07647b2ff9","5f60e9a726c75a000b16a28d","false","null","<span style=""color: black; font-size: 48px"">M + N</span>","null","","","","resp_prompt","","","","","","","","","","","","","","","",""
"categorize-image","85","281802","0.0-3.0-3.0-1.12","y1t1pq1xm0rfy19","practice_cue","5c5cb3bf6a946500015a3411","5f60e3c0a3b16e07647b2ff9","5f60e9a726c75a000b16a28d","true","938.3199997246265","./Stimuli/ImagesPractice/LN2.jpg","76","","","","test","true","M + N","76","","LN","LN2.jpg","remember","old","29","2","practice_forget","right","","","",""
"html-keyboard-response","86","283815","0.0-3.0-3.0-3.12","y1t1pq1xm0rfy19","practice_cue","5c5cb3bf6a946500015a3411","5f60e3c0a3b16e07647b2ff9","5f60e9a726c75a000b16a28d","false","null","<div style=""align-items: center; display: flex; color: dodgerblue; font-size: 90px""><b>o</b></div>","null","","","","forget_cue","","","","","","","","","","","","","","","",""
"html-keyboard-response","87","284518","0.0-3.0-3.0-0.13","y1t1pq1xm0rfy19","practice_cue","5c5cb3bf6a946500015a3411","5f60e3c0a3b16e07647b2ff9","5f60e9a726c75a000b16a28d","false","null","<span style=""color: black; font-size: 48px"">M + N</span>","null","","","","resp_prompt","","","","","","","","","","","","","","","",""
"categorize-image","88","285410","0.0-3.0-3.0-1.13","y1t1pq1xm0rfy19","practice_cue","5c5cb3bf6a946500015a3411","5f60e3c0a3b16e07647b2ff9","5f60e9a726c75a000b16a28d","true","883.8300001807511","./Stimuli/ImagesPractice/LM239.jpg","83","","","","test","true","M + N","83","","LM","LM239.jpg","forget","old","30","2","practice_forget","left","","","",""
"html-keyboard-response","89","287416","0.0-3.0-3.0-3.13","y1t1pq1xm0rfy19","practice_cue","5c5cb3bf6a946500015a3411","5f60e3c0a3b16e07647b2ff9","5f60e9a726c75a000b16a28d","false","null","<div style=""align-items: center; display: flex; color: darkorange; font-size: 90px""><b>ø</b></div>","null","","","","forget_cue","","","","","","","","","","","","","","","",""
"html-keyboard-response","90","288132","0.0-3.0-3.0-0.14","y1t1pq1xm0rfy19","practice_cue","5c5cb3bf6a946500015a3411","5f60e3c0a3b16e07647b2ff9","5f60e9a726c75a000b16a28d","false","null","<span style=""color: black; font-size: 48px"">N + M</span>","null","","","","resp_prompt","","","","","","","","","","","","","","","",""
"categorize-image","91","289204","0.0-3.0-3.0-1.14","y1t1pq1xm0rfy19","practice_cue","5c5cb3bf6a946500015a3411","5f60e3c0a3b16e07647b2ff9","5f60e9a726c75a000b16a28d","true","1063.9249999076128","./Stimuli/ImagesPractice/SN76.jpg","83","","","","test","true","N + M","83","","SN","SN76.jpg","forget","old","31","2","practice_forget","left","","","",""
"html-keyboard-response","92","291216","0.0-3.0-3.0-3.14","y1t1pq1xm0rfy19","practice_cue","5c5cb3bf6a946500015a3411","5f60e3c0a3b16e07647b2ff9","5f60e9a726c75a000b16a28d","false","null","<div style=""align-items: center; display: flex; color: darkorange; font-size: 90px""><b>ø</b></div>","null","","","","forget_cue","","","","","","","","","","","","","","","",""
"html-keyboard-response","93","291927","0.0-3.0-3.0-0.15","y1t1pq1xm0rfy19","practice_cue","5c5cb3bf6a946500015a3411","5f60e3c0a3b16e07647b2ff9","5f60e9a726c75a000b16a28d","false","null","<span style=""color: black; font-size: 48px"">N + M</span>","null","","","","resp_prompt","","","","","","","","","","","","","","","",""
"categorize-image","94","293317","0.0-3.0-3.0-1.15","y1t1pq1xm0rfy19","practice_cue","5c5cb3bf6a946500015a3411","5f60e3c0a3b16e07647b2ff9","5f60e9a726c75a000b16a28d","true","1379.9999998882413","./Stimuli/ImagesPractice/LN4.jpg","83","","","","test","true","N + M","83","","LN","LN4.jpg","remember","old","32","2","practice_forget","left","","","",""
"html-keyboard-response","95","295329","0.0-3.0-3.0-3.15","y1t1pq1xm0rfy19","practice_cue","5c5cb3bf6a946500015a3411","5f60e3c0a3b16e07647b2ff9","5f60e9a726c75a000b16a28d","false","null","<div style=""align-items: center; display: flex; color: dodgerblue; font-size: 90px""><b>o</b></div>","null","","","","forget_cue","","","","","","","","","","","","","","","",""
"html-keyboard-response","96","303142","0.0-3.0-4.0","y1t1pq1xm0rfy19","break","5c5cb3bf6a946500015a3411","5f60e3c0a3b16e07647b2ff9","5f60e9a726c75a000b16a28d","false","7809.750000014901","<p style='font-size: 32px;'>Break</><br><br><br><br><br><p style='font-size: 24px;'>In the last block, you committed 1 errors and did not respond in time on 0 trials.
</p><p style='font-size: 24px;'>Try to respond as fast and accurately as possible in the next block as well! </p><p style='font-size: 24px;'>Press SPACE to continue.</p>","32","","","","","","","","","","","","","","","","","","","",""
"html-keyboard-response","97","327039","0.0-3.0-5.0","y1t1pq1xm0rfy19","instructions","5c5cb3bf6a946500015a3411","5f60e3c0a3b16e07647b2ff9","5f60e9a726c75a000b16a28d","false","23893.56500003487","<div align=left> Now, to practice, we kindly ask you to remember as many of the to-be-remembered pictures<br>of the previous learning phase as possible.<br><br>The pictures you were instructed to remember were the pictures followed by a <span style='color: dodgerblue; font-size: 28px'>O</span>.<br><br>In this memory test phase, you will also see some new pictures.<br>It is your task to remember whether you were presented with this specific picture in this study so far or not.<br>If you recognize an object (you have already seen it in this study), it is an OLD object. <br>If you do not recognize an object (you have NOT seen it in this study), it is a NEW object. <br><strong> Attention</strong>: As already mentioned, <span style='color: darkorange; font-size:28px'>Ø</span>-pictures will <strong>never</strong> appear in this memory test (neither as new objects). <br><br>Press SPACE to continue. </div>","32","","","","","","","","","","","","","","","","","","","",""
"html-keyboard-response","98","345332","0.0-3.0-6.0","y1t1pq1xm0rfy19","instructions","5c5cb3bf6a946500015a3411","5f60e3c0a3b16e07647b2ff9","5f60e9a726c75a000b16a28d","false","18290.27000023052","<div align=left> M and N no longer will appear on the left/right of the fixation cross. <br>Instead there will be a note at the bottom of the left or right side  <br>indicating which key you should press for an old or new object:  <br> <br>Press the <strong>right</strong> key to classify an object as <strong>old</strong> and press the <strong>left</strong>, to classify an object as <strong>new</strong>.<br>Please classify the objects as new/old by again placing your index finger on the 'S' and 'L' keys <br>and press them accordingly.<br><br><strong>Old:</strong> This object has been presented before. <br><strong>New:</strong> This object has <strong>not</strong> been presented.<br><br>Now please put your right and left index fingers on the 'S' and 'L' keys of your keyboard. <br>Please respond as fast and as accurately as possible!<br><br>Press SPACE to continue. </div>","32","","","","","","","","","","","","","","","","","","","",""
"categorize-image","99","347869","0.0-3.0-7.0-0.0","y1t1pq1xm0rfy19","practice_recog","5c5cb3bf6a946500015a3411","5f60e3c0a3b16e07647b2ff9","5f60e9a726c75a000b16a28d","true","2017.6949999295175","./Stimuli/ImagesPractice/LN72.jpg","83","","","","test","true","","83","","LN","LN72.jpg","","new","33","3","practice_recog","left","","","",""
"categorize-image","100","349831","0.0-3.0-7.0-0.1","y1t1pq1xm0rfy19","practice_recog","5c5cb3bf6a946500015a3411","5f60e3c0a3b16e07647b2ff9","5f60e9a726c75a000b16a28d","true","1446.155000012368","./Stimuli/ImagesPractice/SM62.jpg","76","","","","test","true","","76","","SM","SM62.jpg","","old","34","3","practice_recog","right","","","",""
"categorize-image","101","352479","0.0-3.0-7.0-0.2","y1t1pq1xm0rfy19","practice_recog","5c5cb3bf6a946500015a3411","5f60e3c0a3b16e07647b2ff9","5f60e9a726c75a000b16a28d","true","2126.4750002883375","./Stimuli/ImagesPractice/SN221.jpg","76","","","","test","true","","76","","SN","SN221.jpg","","old","35","3","practice_recog","right","","","",""
"categorize-image","102","353894","0.0-3.0-7.0-0.3","y1t1pq1xm0rfy19","practice_recog","5c5cb3bf6a946500015a3411","5f60e3c0a3b16e07647b2ff9","5f60e9a726c75a000b16a28d","true","904.6549997292459","./Stimuli/ImagesPractice/LN109.jpg","76","","","","test","true","","76","","LN","LN109.jpg","","old","36","3","practice_recog","right","","","",""
"categorize-image","103","355118","0.0-3.0-7.0-0.4","y1t1pq1xm0rfy19","practice_recog","5c5cb3bf6a946500015a3411","5f60e3c0a3b16e07647b2ff9","5f60e9a726c75a000b16a28d","true","717.8800003603101","./Stimuli/ImagesPractice/LN4.jpg","76","","","","test","true","","76","","LN","LN4.jpg","","old","37","3","practice_recog","right","","","",""
"categorize-image","104","356474","0.0-3.0-7.0-0.5","y1t1pq1xm0rfy19","practice_recog","5c5cb3bf6a946500015a3411","5f60e3c0a3b16e07647b2ff9","5f60e9a726c75a000b16a28d","true","837.7800001762807","./Stimuli/ImagesPractice/SM37.jpg","76","","","","test","true","","76","","SM","SM37.jpg","","old","38","3","practice_recog","right","","","",""
"categorize-image","105","358047","0.0-3.0-7.0-0.6","y1t1pq1xm0rfy19","practice_recog","5c5cb3bf6a946500015a3411","5f60e3c0a3b16e07647b2ff9","5f60e9a726c75a000b16a28d","true","1055.7899996638298","./Stimuli/ImagesPractice/LN2.jpg","76","","","","test","true","","76","","LN","LN2.jpg","","old","39","3","practice_recog","right","","","",""
"categorize-image","106","359243","0.0-3.0-7.0-0.7","y1t1pq1xm0rfy19","practice_recog","5c5cb3bf6a946500015a3411","5f60e3c0a3b16e07647b2ff9","5f60e9a726c75a000b16a28d","true","679.6549996361136","./Stimuli/ImagesPractice/LM224.jpg","76","","","","test","true","","76","","LM","LM224.jpg","","old","40","3","practice_recog","right","","","",""
"categorize-image","107","360844","0.0-3.0-7.0-0.8","y1t1pq1xm0rfy19","practice_recog","5c5cb3bf6a946500015a3411","5f60e3c0a3b16e07647b2ff9","5f60e9a726c75a000b16a28d","true","1093.39000005275","./Stimuli/ImagesPractice/LN17.jpg","83","","","","test","true","","83","","LN","LN17.jpg","","new","41","3","practice_recog","left","","","",""
"categorize-image","108","362165","0.0-3.0-7.0-0.9","y1t1pq1xm0rfy19","practice_recog","5c5cb3bf6a946500015a3411","5f60e3c0a3b16e07647b2ff9","5f60e9a726c75a000b16a28d","true","802.7300001122057","./Stimuli/ImagesPractice/SN205.jpg","83","","","","test","true","","83","","SN","SN205.jpg","","new","42","3","practice_recog","left","","","",""
"categorize-image","109","363345","0.0-3.0-7.0-0.10","y1t1pq1xm0rfy19","practice_recog","5c5cb3bf6a946500015a3411","5f60e3c0a3b16e07647b2ff9","5f60e9a726c75a000b16a28d","true","661.5900001488626","./Stimuli/ImagesPractice/SN75.jpg","83","","","","test","true","","83","","SN","SN75.jpg","","new","43","3","practice_recog","left","","","",""
"categorize-image","110","364517","0.0-3.0-7.0-0.11","y1t1pq1xm0rfy19","practice_recog","5c5cb3bf6a946500015a3411","5f60e3c0a3b16e07647b2ff9","5f60e9a726c75a000b16a28d","true","664.3949998542666","./Stimuli/ImagesPractice/LN15.jpg","83","","","","test","true","","83","","LN","LN15.jpg","","new","44","3","practice_recog","left","","","",""
"categorize-image","111","365859","0.0-3.0-7.0-0.12","y1t1pq1xm0rfy19","practice_recog","5c5cb3bf6a946500015a3411","5f60e3c0a3b16e07647b2ff9","5f60e9a726c75a000b16a28d","true","834.6349997445941","./Stimuli/ImagesPractice/SM97.jpg","76","","","","test","true","","76","","SM","SM97.jpg","","old","45","3","practice_recog","right","","","",""
"categorize-image","112","367106","0.0-3.0-7.0-0.13","y1t1pq1xm0rfy19","practice_recog","5c5cb3bf6a946500015a3411","5f60e3c0a3b16e07647b2ff9","5f60e9a726c75a000b16a28d","true","732.435000129044","./Stimuli/ImagesPractice/SM61.jpg","83","","","","test","true","","83","","SM","SM61.jpg","","new","46","3","practice_recog","left","","","",""
"categorize-image","113","368896","0.0-3.0-7.0-0.14","y1t1pq1xm0rfy19","practice_recog","5c5cb3bf6a946500015a3411","5f60e3c0a3b16e07647b2ff9","5f60e9a726c75a000b16a28d","true","1278.7800002843142","./Stimuli/ImagesPractice/LM147.jpg","83","","","","test","true","","83","","LM","LM147.jpg","","new","47","3","practice_recog","left","","","",""
"categorize-image","114","370124","0.0-3.0-7.0-0.15","y1t1pq1xm0rfy19","practice_recog","5c5cb3bf6a946500015a3411","5f60e3c0a3b16e07647b2ff9","5f60e9a726c75a000b16a28d","true","711.6400003433228","./Stimuli/ImagesPractice/LM143.jpg","83","","","","test","true","","83","","LM","LM143.jpg","","new","48","3","practice_recog","left","","","",""
"html-keyboard-response","115","376714","0.0-3.0-8.0","y1t1pq1xm0rfy19","instructions","5c5cb3bf6a946500015a3411","5f60e3c0a3b16e07647b2ff9","5f60e9a726c75a000b16a28d","false","6587.739999871701","<div align=left> Great!<br><br>Are you ready to continue?<br>If you want to reread the instructions and redo the practice trials, please <br>press „Z“.<br><br>You can proceed when you are ready.<br><br>After the presentation of each object, you will receive an instruction whether to <br>remember or to forget the object.<br>We will test your memory of the following pictures only at the very end of <br>the experiment after all learning blocks are completed. <br><br>Press SPACE to CONTINUE when you are ready. </div>","32","","","","","","","","","","","","","","","","","","","",""
"html-keyboard-response","116","387017","0.0-4.0-0.0","y1t1pq1xm0rfy19","instructions","5c5cb3bf6a946500015a3411","5f60e3c0a3b16e07647b2ff9","5f60e9a726c75a000b16a28d","false","10300.034999847412","<div align=left> The actual experiment is about to start.<br>The practice trials are over!<br><br>Please always respond both fast and accurately!<br><br>Remember: <br> <br><li> Please place your index fingers on the <strong>'S'</strong> and <strong>'L'</strong> keys <br>to respond as fast and accurately as possible.</li><li> Every picture can be classified as either mechanical or non-mechanical.</li><li> If you do not respond in time or commit an error, you will receive a corresponding feedback.<br> Please try to respond as <strong> fast </strong> and as <strong> accurately as possible </strong>.</li><li> Remember the <span style='color: dodgerblue; font-size: 28px'>O</span> pictures. <br></li><li> Please minimize distractions and stay focused. </li><br><br>Press SPACE to START.</div>","32","","","","","","","","","","","","","","","","","","","",""
"html-keyboard-response","117","387727","0.0-4.0-1.0-0.0","y1t1pq1xm0rfy19","prime","5c5cb3bf6a946500015a3411","5f60e3c0a3b16e07647b2ff9","5f60e9a726c75a000b16a28d","false","null","<span style=""color: black; font-size: 48px"">M + N</span>","null","","","","resp_prompt","","","","","","","","","","","","","","","",""
"categorize-image","118","388410","0.0-4.0-1.0-1.0","y1t1pq1xm0rfy19","prime","5c5cb3bf6a946500015a3411","5f60e3c0a3b16e07647b2ff9","5f60e9a726c75a000b16a28d","true","675.6199998781085","./Stimuli/SelectedImages/LN/LN12.bmp","76","","","","test","true","M + N","76","switch","LN","LN12.bmp","remember","","49","3","prime1","right","","","",""
"html-keyboard-response","119","390428","0.0-4.0-1.0-3.0","y1t1pq1xm0rfy19","prime","5c5cb3bf6a946500015a3411","5f60e3c0a3b16e07647b2ff9","5f60e9a726c75a000b16a28d","false","null","<div style=""align-items: center; display: flex; color: dodgerblue; font-size: 90px""><b>o</b></div>","null","","","","forget_cue","","","","","","","","","","","","","","","",""
"html-keyboard-response","120","391132","0.0-4.0-1.0-0.1","y1t1pq1xm0rfy19","prime","5c5cb3bf6a946500015a3411","5f60e3c0a3b16e07647b2ff9","5f60e9a726c75a000b16a28d","false","null","<span style=""color: black; font-size: 48px"">M + N</span>","null","","","","resp_prompt","","","","","","","","","","","","","","","",""
"categorize-image","121","391757","0.0-4.0-1.0-1.1","y1t1pq1xm0rfy19","prime","5c5cb3bf6a946500015a3411","5f60e3c0a3b16e07647b2ff9","5f60e9a726c75a000b16a28d","true","618.9799997955561","./Stimuli/SelectedImages/LM/LM150.bmp","83","","","","test","true","M + N","83","switch","LM","LM150.bmp","remember","","50","3","prime1","left","","","",""
"html-keyboard-response","122","393768","0.0-4.0-1.0-3.1","y1t1pq1xm0rfy19","prime","5c5cb3bf6a946500015a3411","5f60e3c0a3b16e07647b2ff9","5f60e9a726c75a000b16a28d","false","null","<div style=""align-items: center; display: flex; color: dodgerblue; font-size: 90px""><b>o</b></div>","null","","","","forget_cue","","","","","","","","","","","","","","","",""
"html-keyboard-response","123","394471","0.0-4.0-1.0-0.2","y1t1pq1xm0rfy19","prime","5c5cb3bf6a946500015a3411","5f60e3c0a3b16e07647b2ff9","5f60e9a726c75a000b16a28d","false","null","<span style=""color: black; font-size: 48px"">M + N</span>","null","","","","resp_prompt","","","","","","","","","","","","","","","",""
"categorize-image","124","395217","0.0-4.0-1.0-1.2","y1t1pq1xm0rfy19","prime","5c5cb3bf6a946500015a3411","5f60e3c0a3b16e07647b2ff9","5f60e9a726c75a000b16a28d","true","739.4449999555945","./Stimuli/SelectedImages/LM/LM129.bmp","83","","","","test","true","M + N","83","switch","LM","LM129.bmp","remember","","51","3","prime1","left","","","",""
"html-keyboard-response","125","397235","0.0-4.0-1.0-3.2","y1t1pq1xm0rfy19","prime","5c5cb3bf6a946500015a3411","5f60e3c0a3b16e07647b2ff9","5f60e9a726c75a000b16a28d","false","null","<div style=""align-items: center; display: flex; color: dodgerblue; font-size: 90px""><b>o</b></div>","null","","","","forget_cue","","","","","","","","","","","","","","","",""
"html-keyboard-response","126","397937","0.0-4.0-1.0-0.3","y1t1pq1xm0rfy19","prime","5c5cb3bf6a946500015a3411","5f60e3c0a3b16e07647b2ff9","5f60e9a726c75a000b16a28d","false","null","<span style=""color: black; font-size: 48px"">N + M</span>","null","","","","resp_prompt","","","","","","","","","","","","","","","",""
"categorize-image","127","398869","0.0-4.0-1.0-1.3","y1t1pq1xm0rfy19","prime","5c5cb3bf6a946500015a3411","5f60e3c0a3b16e07647b2ff9","5f60e9a726c75a000b16a28d","true","926.6699999570847","./Stimuli/SelectedImages/SM/SM108.bmp","76","","","","test","true","N + M","76","repetition","SM","SM108.bmp","forget","","52","3","prime1","right","","","",""
"html-keyboard-response","128","400875","0.0-4.0-1.0-3.3","y1t1pq1xm0rfy19","prime","5c5cb3bf6a946500015a3411","5f60e3c0a3b16e07647b2ff9","5f60e9a726c75a000b16a28d","false","null","<div style=""align-items: center; display: flex; color: darkorange; font-size: 90px""><b>ø</b></div>","null","","","","forget_cue","","","","","","","","","","","","","","","",""
"html-keyboard-response","129","401591","0.0-4.0-1.0-0.4","y1t1pq1xm0rfy19","prime","5c5cb3bf6a946500015a3411","5f60e3c0a3b16e07647b2ff9","5f60e9a726c75a000b16a28d","false","null","<span style=""color: black; font-size: 48px"">N + M</span>","null","","","","resp_prompt","","","","","","","","","","","","","","","",""
"categorize-image","130","402285","0.0-4.0-1.0-1.4","y1t1pq1xm0rfy19","prime","5c5cb3bf6a946500015a3411","5f60e3c0a3b16e07647b2ff9","5f60e9a726c75a000b16a28d","true","685.8549998141825","./Stimuli/SelectedImages/LN/LN111.bmp","83","","","","test","true","N + M","83","repetition","LN","LN111.bmp","forget","","53","3","prime1","left","","","",""
"html-keyboard-response","131","404294","0.0-4.0-1.0-3.4","y1t1pq1xm0rfy19","prime","5c5cb3bf6a946500015a3411","5f60e3c0a3b16e07647b2ff9","5f60e9a726c75a000b16a28d","false","null","<div style=""align-items: center; display: flex; color: darkorange; font-size: 90px""><b>ø</b></div>","null","","","","forget_cue","","","","","","","","","","","","","","","",""
"html-keyboard-response","132","405011","0.0-4.0-1.0-0.5","y1t1pq1xm0rfy19","prime","5c5cb3bf6a946500015a3411","5f60e3c0a3b16e07647b2ff9","5f60e9a726c75a000b16a28d","false","null","<span style=""color: black; font-size: 48px"">N + M</span>","null","","","","resp_prompt","","","","","","","","","","","","","","","",""
"categorize-image","133","406048","0.0-4.0-1.0-1.5","y1t1pq1xm0rfy19","prime","5c5cb3bf6a946500015a3411","5f60e3c0a3b16e07647b2ff9","5f60e9a726c75a000b16a28d","true","1031.8200001493096","./Stimuli/SelectedImages/LM/LM58.bmp","76","","","","test","true","N + M","76","switch","LM","LM58.bmp","forget","","54","3","prime1","right","","","",""
"html-keyboard-response","134","408055","0.0-4.0-1.0-3.5","y1t1pq1xm0rfy19","prime","5c5cb3bf6a946500015a3411","5f60e3c0a3b16e07647b2ff9","5f60e9a726c75a000b16a28d","false","null","<div style=""align-items: center; display: flex; color: darkorange; font-size: 90px""><b>ø</b></div>","null","","","","forget_cue","","","","","","","","","","","","","","","",""
"html-keyboard-response","135","408757","0.0-4.0-1.0-0.6","y1t1pq1xm0rfy19","prime","5c5cb3bf6a946500015a3411","5f60e3c0a3b16e07647b2ff9","5f60e9a726c75a000b16a28d","false","null","<span style=""color: black; font-size: 48px"">M + N</span>","null","","","","resp_prompt","","","","","","","","","","","","","","","",""
"categorize-image","136","409680","0.0-4.0-1.0-1.6","y1t1pq1xm0rfy19","prime","5c5cb3bf6a946500015a3411","5f60e3c0a3b16e07647b2ff9","5f60e9a726c75a000b16a28d","true","916.3049999624491","./Stimuli/SelectedImages/SN/SN181.bmp","76","","","","test","true","M + N","76","repetition","SN","SN181.bmp","forget","","55","3","prime1","right","","","",""
"html-keyboard-response","137","411685","0.0-4.0-1.0-3.6","y1t1pq1xm0rfy19","prime","5c5cb3bf6a946500015a3411","5f60e3c0a3b16e07647b2ff9","5f60e9a726c75a000b16a28d","false","null","<div style=""align-items: center; display: flex; color: darkorange; font-size: 90px""><b>ø</b></div>","null","","","","forget_cue","","","","","","","","","","","","","","","",""
"html-keyboard-response","138","412389","0.0-4.0-1.0-0.7","y1t1pq1xm0rfy19","prime","5c5cb3bf6a946500015a3411","5f60e3c0a3b16e07647b2ff9","5f60e9a726c75a000b16a28d","false","null","<span style=""color: black; font-size: 48px"">N + M</span>","null","","","","resp_prompt","","","","","","","","","","","","","","","",""
"categorize-image","139","413038","0.0-4.0-1.0-1.7","y1t1pq1xm0rfy19","prime","5c5cb3bf6a946500015a3411","5f60e3c0a3b16e07647b2ff9","5f60e9a726c75a000b16a28d","true","641.8099999427795","./Stimuli/SelectedImages/SN/SN140.bmp","83","","","","test","true","N + M","83","switch","SN","SN140.bmp","remember","","56","3","prime1","left","","","",""
"html-keyboard-response","140","415052","0.0-4.0-1.0-3.7","y1t1pq1xm0rfy19","prime","5c5cb3bf6a946500015a3411","5f60e3c0a3b16e07647b2ff9","5f60e9a726c75a000b16a28d","false","null","<div style=""align-items: center; display: flex; color: dodgerblue; font-size: 90px""><b>o</b></div>","null","","","","forget_cue","","","","","","","","","","","","","","","",""
"html-keyboard-response","141","415770","0.0-4.0-1.0-0.8","y1t1pq1xm0rfy19","prime","5c5cb3bf6a946500015a3411","5f60e3c0a3b16e07647b2ff9","5f60e9a726c75a000b16a28d","false","null","<span style=""color: black; font-size: 48px"">M + N</span>","null","","","","resp_prompt","","","","","","","","","","","","","","","",""
"categorize-image","142","416631","0.0-4.0-1.0-1.8","y1t1pq1xm0rfy19","prime","5c5cb3bf6a946500015a3411","5f60e3c0a3b16e07647b2ff9","5f60e9a726c75a000b16a28d","true","854.2450000531971","./Stimuli/SelectedImages/SM/SM184.bmp","83","","","","test","true","M + N","83","switch","SM","SM184.bmp","remember","","57","3","prime1","left","","","",""
"html-keyboard-response","143","418645","0.0-4.0-1.0-3.8","y1t1pq1xm0rfy19","prime","5c5cb3bf6a946500015a3411","5f60e3c0a3b16e07647b2ff9","5f60e9a726c75a000b16a28d","false","null","<div style=""align-items: center; display: flex; color: dodgerblue; font-size: 90px""><b>o</b></div>","null","","","","forget_cue","","","","","","","","","","","","","","","",""
"html-keyboard-response","144","419361","0.0-4.0-1.0-0.9","y1t1pq1xm0rfy19","prime","5c5cb3bf6a946500015a3411","5f60e3c0a3b16e07647b2ff9","5f60e9a726c75a000b16a28d","false","null","<span style=""color: black; font-size: 48px"">N + M</span>","null","","","","resp_prompt","","","","","","","","","","","","","","","",""
"categorize-image","145","421125","0.0-4.0-1.0-1.9","y1t1pq1xm0rfy19","prime","5c5cb3bf6a946500015a3411","5f60e3c0a3b16e07647b2ff9","5f60e9a726c75a000b16a28d","true","1756.8650003522635","./Stimuli/SelectedImages/LN/LN166.bmp","83","","","","test","true","N + M","83","repetition","LN","LN166.bmp","remember","","58","3","prime1","left","","","",""
"html-keyboard-response","146","423138","0.0-4.0-1.0-3.9","y1t1pq1xm0rfy19","prime","5c5cb3bf6a946500015a3411","5f60e3c0a3b16e07647b2ff9","5f60e9a726c75a000b16a28d","false","null","<div style=""align-items: center; display: flex; color: dodgerblue; font-size: 90px""><b>o</b></div>","null","","","","forget_cue","","","","","","","","","","","","","","","",""
"html-keyboard-response","147","423840","0.0-4.0-1.0-0.10","y1t1pq1xm0rfy19","prime","5c5cb3bf6a946500015a3411","5f60e3c0a3b16e07647b2ff9","5f60e9a726c75a000b16a28d","false","null","<span style=""color: black; font-size: 48px"">N + M</span>","null","","","","resp_prompt","","","","","","","","","","","","","","","",""
"categorize-image","148","424896","0.0-4.0-1.0-1.10","y1t1pq1xm0rfy19","prime","5c5cb3bf6a946500015a3411","5f60e3c0a3b16e07647b2ff9","5f60e9a726c75a000b16a28d","true","1048.279999755323","./Stimuli/SelectedImages/SM/SM76.bmp","76","","","","test","true","N + M","76","switch","SM","SM76.bmp","forget","","59","3","prime1","right","","","",""
"html-keyboard-response","149","426901","0.0-4.0-1.0-3.10","y1t1pq1xm0rfy19","prime","5c5cb3bf6a946500015a3411","5f60e3c0a3b16e07647b2ff9","5f60e9a726c75a000b16a28d","false","null","<div style=""align-items: center; display: flex; color: darkorange; font-size: 90px""><b>ø</b></div>","null","","","","forget_cue","","","","","","","","","","","","","","","",""
"html-keyboard-response","150","427618","0.0-4.0-1.0-0.11","y1t1pq1xm0rfy19","prime","5c5cb3bf6a946500015a3411","5f60e3c0a3b16e07647b2ff9","5f60e9a726c75a000b16a28d","false","null","<span style=""color: black; font-size: 48px"">M + N</span>","null","","","","resp_prompt","","","","","","","","","","","","","","","",""
"categorize-image","151","428431","0.0-4.0-1.0-1.11","y1t1pq1xm0rfy19","prime","5c5cb3bf6a946500015a3411","5f60e3c0a3b16e07647b2ff9","5f60e9a726c75a000b16a28d","true","806.4149999991059","./Stimuli/SelectedImages/LN/LN101.bmp","76","","","","test","true","M + N","76","repetition","LN","LN101.bmp","remember","","60","3","prime1","right","","","",""
"html-keyboard-response","152","430443","0.0-4.0-1.0-3.11","y1t1pq1xm0rfy19","prime","5c5cb3bf6a946500015a3411","5f60e3c0a3b16e07647b2ff9","5f60e9a726c75a000b16a28d","false","null","<div style=""align-items: center; display: flex; color: dodgerblue; font-size: 90px""><b>o</b></div>","null","","","","forget_cue","","","","","","","","","","","","","","","",""
"html-keyboard-response","153","431147","0.0-4.0-1.0-0.12","y1t1pq1xm0rfy19","prime","5c5cb3bf6a946500015a3411","5f60e3c0a3b16e07647b2ff9","5f60e9a726c75a000b16a28d","false","null","<span style=""color: black; font-size: 48px"">M + N</span>","null","","","","resp_prompt","","","","","","","","","","","","","","","",""
"categorize-image","154","431925","0.0-4.0-1.0-1.12","y1t1pq1xm0rfy19","prime","5c5cb3bf6a946500015a3411","5f60e3c0a3b16e07647b2ff9","5f60e9a726c75a000b16a28d","true","772.1649999730289","./Stimuli/SelectedImages/SM/SM73.bmp","83","","","","test","true","M + N","83","repetition","SM","SM73.bmp","remember","","61","3","prime1","left","","","",""
"html-keyboard-response","155","433942","0.0-4.0-1.0-3.12","y1t1pq1xm0rfy19","prime","5c5cb3bf6a946500015a3411","5f60e3c0a3b16e07647b2ff9","5f60e9a726c75a000b16a28d","false","null","<div style=""align-items: center; display: flex; color: dodgerblue; font-size: 90px""><b>o</b></div>","null","","","","forget_cue","","","","","","","","","","","","","","","",""
"html-keyboard-response","156","434645","0.0-4.0-1.0-0.13","y1t1pq1xm0rfy19","prime","5c5cb3bf6a946500015a3411","5f60e3c0a3b16e07647b2ff9","5f60e9a726c75a000b16a28d","false","null","<span style=""color: black; font-size: 48px"">N + M</span>","null","","","","resp_prompt","","","","","","","","","","","","","","","",""
"categorize-image","157","435949","0.0-4.0-1.0-1.13","y1t1pq1xm0rfy19","prime","5c5cb3bf6a946500015a3411","5f60e3c0a3b16e07647b2ff9","5f60e9a726c75a000b16a28d","true","1299.6700000949204","./Stimuli/SelectedImages/LM/LM103.bmp","83","","","","test","false","N + M","76","switch","LM","LM103.bmp","remember","","62","3","prime1","left","","","",""
"html-keyboard-response","158","436452","0.0-4.0-1.0-2.13-0.13","y1t1pq1xm0rfy19","prime","5c5cb3bf6a946500015a3411","5f60e3c0a3b16e07647b2ff9","5f60e9a726c75a000b16a28d","false","null","<span style=""color: red; font-size: 48px"">Error!</span>","null","","","","feedback","","","","","","","","","","","","","","","",""
"html-keyboard-response","159","438470","0.0-4.0-1.0-3.13","y1t1pq1xm0rfy19","prime","5c5cb3bf6a946500015a3411","5f60e3c0a3b16e07647b2ff9","5f60e9a726c75a000b16a28d","false","null","<div style=""align-items: center; display: flex; color: dodgerblue; font-size: 90px""><b>o</b></div>","null","","","","forget_cue","","","","","","","","","","","","","","","",""
"html-keyboard-response","160","439185","0.0-4.0-1.0-0.14","y1t1pq1xm0rfy19","prime","5c5cb3bf6a946500015a3411","5f60e3c0a3b16e07647b2ff9","5f60e9a726c75a000b16a28d","false","null","<span style=""color: black; font-size: 48px"">N + M</span>","null","","","","resp_prompt","","","","","","","","","","","","","","","",""
"categorize-image","161","440717","0.0-4.0-1.0-1.14","y1t1pq1xm0rfy19","prime","5c5cb3bf6a946500015a3411","5f60e3c0a3b16e07647b2ff9","5f60e9a726c75a000b16a28d","true","1521.2050001136959","./Stimuli/SelectedImages/SN/SN49.bmp","83","","","","test","true","N + M","83","switch","SN","SN49.bmp","remember","","63","3","prime1","left","","","",""
"html-keyboard-response","162","442729","0.0-4.0-1.0-3.14","y1t1pq1xm0rfy19","prime","5c5cb3bf6a946500015a3411","5f60e3c0a3b16e07647b2ff9","5f60e9a726c75a000b16a28d","false","null","<div style=""align-items: center; display: flex; color: dodgerblue; font-size: 90px""><b>o</b></div>","null","","","","forget_cue","","","","","","","","","","","","","","","",""
"html-keyboard-response","163","443445","0.0-4.0-1.0-0.15","y1t1pq1xm0rfy19","prime","5c5cb3bf6a946500015a3411","5f60e3c0a3b16e07647b2ff9","5f60e9a726c75a000b16a28d","false","null","<span style=""color: black; font-size: 48px"">M + N</span>","null","","","","resp_prompt","","","","","","","","","","","","","","","",""
"categorize-image","164","444313","0.0-4.0-1.0-1.15","y1t1pq1xm0rfy19","prime","5c5cb3bf6a946500015a3411","5f60e3c0a3b16e07647b2ff9","5f60e9a726c75a000b16a28d","true","861.4299995824695","./Stimuli/SelectedImages/SN/SN179.bmp","76","","","","test","true","M + N","76","repetition","SN","SN179.bmp","remember","","64","3","prime1","right","","","",""
"html-keyboard-response","165","446321","0.0-4.0-1.0-3.15","y1t1pq1xm0rfy19","prime","5c5cb3bf6a946500015a3411","5f60e3c0a3b16e07647b2ff9","5f60e9a726c75a000b16a28d","false","null","<div style=""align-items: center; display: flex; color: dodgerblue; font-size: 90px""><b>o</b></div>","null","","","","forget_cue","","","","","","","","","","","","","","","",""
"html-keyboard-response","166","447039","0.0-4.0-1.0-0.16","y1t1pq1xm0rfy19","prime","5c5cb3bf6a946500015a3411","5f60e3c0a3b16e07647b2ff9","5f60e9a726c75a000b16a28d","false","null","<span style=""color: black; font-size: 48px"">N + M</span>","null","","","","resp_prompt","","","","","","","","","","","","","","","",""
"categorize-image","167","448750","0.0-4.0-1.0-1.16","y1t1pq1xm0rfy19","prime","5c5cb3bf6a946500015a3411","5f60e3c0a3b16e07647b2ff9","5f60e9a726c75a000b16a28d","true","1706.650000065565","./Stimuli/SelectedImages/SM/SM148.bmp","76","","","","test","true","N + M","76","repetition","SM","SM148.bmp","remember","","65","3","prime1","right","","","",""
"html-keyboard-response","168","450754","0.0-4.0-1.0-3.16","y1t1pq1xm0rfy19","prime","5c5cb3bf6a946500015a3411","5f60e3c0a3b16e07647b2ff9","5f60e9a726c75a000b16a28d","false","null","<div style=""align-items: center; display: flex; color: dodgerblue; font-size: 90px""><b>o</b></div>","null","","","","forget_cue","","","","","","","","","","","","","","","",""
"html-keyboard-response","169","451456","0.0-4.0-1.0-0.17","y1t1pq1xm0rfy19","prime","5c5cb3bf6a946500015a3411","5f60e3c0a3b16e07647b2ff9","5f60e9a726c75a000b16a28d","false","null","<span style=""color: black; font-size: 48px"">N + M</span>","null","","","","resp_prompt","","","","","","","","","","","","","","","",""
"categorize-image","170","452195","0.0-4.0-1.0-1.17","y1t1pq1xm0rfy19","prime","5c5cb3bf6a946500015a3411","5f60e3c0a3b16e07647b2ff9","5f60e9a726c75a000b16a28d","true","734.7099999897182","./Stimuli/SelectedImages/SN/SN240.bmp","83","","","","test","true","N + M","83","switch","SN","SN240.bmp","forget","","66","3","prime1","left","","","",""
"html-keyboard-response","171","454199","0.0-4.0-1.0-3.17","y1t1pq1xm0rfy19","prime","5c5cb3bf6a946500015a3411","5f60e3c0a3b16e07647b2ff9","5f60e9a726c75a000b16a28d","false","null","<div style=""align-items: center; display: flex; color: darkorange; font-size: 90px""><b>ø</b></div>","null","","","","forget_cue","","","","","","","","","","","","","","","",""
"html-keyboard-response","172","454902","0.0-4.0-1.0-0.18","y1t1pq1xm0rfy19","prime","5c5cb3bf6a946500015a3411","5f60e3c0a3b16e07647b2ff9","5f60e9a726c75a000b16a28d","false","null","<span style=""color: black; font-size: 48px"">M + N</span>","null","","","","resp_prompt","","","","","","","","","","","","","","","",""
"categorize-image","173","455921","0.0-4.0-1.0-1.18","y1t1pq1xm0rfy19","prime","5c5cb3bf6a946500015a3411","5f60e3c0a3b16e07647b2ff9","5f60e9a726c75a000b16a28d","true","1013.7200001627207","./Stimuli/SelectedImages/SN/SN64.bmp","76","","","","test","true","M + N","76","repetition","SN","SN64.bmp","remember","","67","3","prime1","right","","","",""
"html-keyboard-response","174","457925","0.0-4.0-1.0-3.18","y1t1pq1xm0rfy19","prime","5c5cb3bf6a946500015a3411","5f60e3c0a3b16e07647b2ff9","5f60e9a726c75a000b16a28d","false","null","<div style=""align-items: center; display: flex; color: dodgerblue; font-size: 90px""><b>o</b></div>","null","","","","forget_cue","","","","","","","","","","","","","","","",""
"html-keyboard-response","175","458627","0.0-4.0-1.0-0.19","y1t1pq1xm0rfy19","prime","5c5cb3bf6a946500015a3411","5f60e3c0a3b16e07647b2ff9","5f60e9a726c75a000b16a28d","false","null","<span style=""color: black; font-size: 48px"">N + M</span>","null","","","","resp_prompt","","","","","","","","","","","","","","","",""
"categorize-image","176","459713","0.0-4.0-1.0-1.19","y1t1pq1xm0rfy19","prime","5c5cb3bf6a946500015a3411","5f60e3c0a3b16e07647b2ff9","5f60e9a726c75a000b16a28d","true","1077.5250000879169","./Stimuli/SelectedImages/LN/LN59.bmp","83","","","","test","true","N + M","83","repetition","LN","LN59.bmp","remember","","68","3","prime1","left","","","",""
"html-keyboard-response","177","461727","0.0-4.0-1.0-3.19","y1t1pq1xm0rfy19","prime","5c5cb3bf6a946500015a3411","5f60e3c0a3b16e07647b2ff9","5f60e9a726c75a000b16a28d","false","null","<div style=""align-items: center; display: flex; color: dodgerblue; font-size: 90px""><b>o</b></div>","null","","","","forget_cue","","","","","","","","","","","","","","","",""
"html-keyboard-response","178","462443","0.0-4.0-1.0-0.20","y1t1pq1xm0rfy19","prime","5c5cb3bf6a946500015a3411","5f60e3c0a3b16e07647b2ff9","5f60e9a726c75a000b16a28d","false","null","<span style=""color: black; font-size: 48px"">M + N</span>","null","","","","resp_prompt","","","","","","","","","","","","","","","",""
"categorize-image","179","463116","0.0-4.0-1.0-1.20","y1t1pq1xm0rfy19","prime","5c5cb3bf6a946500015a3411","5f60e3c0a3b16e07647b2ff9","5f60e9a726c75a000b16a28d","true","666.214999742806","./Stimuli/SelectedImages/SN/SN155.bmp","76","","","","test","true","M + N","76","switch","SN","SN155.bmp","remember","","69","3","prime1","right","","","",""
"html-keyboard-response","180","465125","0.0-4.0-1.0-3.20","y1t1pq1xm0rfy19","prime","5c5cb3bf6a946500015a3411","5f60e3c0a3b16e07647b2ff9","5f60e9a726c75a000b16a28d","false","null","<div style=""align-items: center; display: flex; color: dodgerblue; font-size: 90px""><b>o</b></div>","null","","","","forget_cue","","","","","","","","","","","","","","","",""
"html-keyboard-response","181","465835","0.0-4.0-1.0-0.21","y1t1pq1xm0rfy19","prime","5c5cb3bf6a946500015a3411","5f60e3c0a3b16e07647b2ff9","5f60e9a726c75a000b16a28d","false","null","<span style=""color: black; font-size: 48px"">N + M</span>","null","","","","resp_prompt","","","","","","","","","","","","","","","",""
"categorize-image","182","466932","0.0-4.0-1.0-1.21","y1t1pq1xm0rfy19","prime","5c5cb3bf6a946500015a3411","5f60e3c0a3b16e07647b2ff9","5f60e9a726c75a000b16a28d","true","1086.250000167638","./Stimuli/SelectedImages/SM/SM17.bmp","83","","","","test","false","N + M","76","repetition","SM","SM17.bmp","forget","","70","3","prime1","left","","","",""
"html-keyboard-response","183","467443","0.0-4.0-1.0-2.21-0.21","y1t1pq1xm0rfy19","prime","5c5cb3bf6a946500015a3411","5f60e3c0a3b16e07647b2ff9","5f60e9a726c75a000b16a28d","false","null","<span style=""color: red; font-size: 48px"">Error!</span>","null","","","","feedback","","","","","","","","","","","","","","","",""
"html-keyboard-response","184","469448","0.0-4.0-1.0-3.21","y1t1pq1xm0rfy19","prime","5c5cb3bf6a946500015a3411","5f60e3c0a3b16e07647b2ff9","5f60e9a726c75a000b16a28d","false","null","<div style=""align-items: center; display: flex; color: darkorange; font-size: 90px""><b>ø</b></div>","null","","","","forget_cue","","","","","","","","","","","","","","","",""
"html-keyboard-response","185","470150","0.0-4.0-1.0-0.22","y1t1pq1xm0rfy19","prime","5c5cb3bf6a946500015a3411","5f60e3c0a3b16e07647b2ff9","5f60e9a726c75a000b16a28d","false","null","<span style=""color: black; font-size: 48px"">N + M</span>","null","","","","resp_prompt","","","","","","","","","","","","","","","",""
"categorize-image","186","471542","0.0-4.0-1.0-1.22","y1t1pq1xm0rfy19","prime","5c5cb3bf6a946500015a3411","5f60e3c0a3b16e07647b2ff9","5f60e9a726c75a000b16a28d","true","1386.1399996094406","./Stimuli/SelectedImages/SN/SN187.bmp","83","","","","test","true","N + M","83","switch","SN","SN187.bmp","forget","","71","3","prime1","left","","","",""
"html-keyboard-response","187","473561","0.0-4.0-1.0-3.22","y1t1pq1xm0rfy19","prime","5c5cb3bf6a946500015a3411","5f60e3c0a3b16e07647b2ff9","5f60e9a726c75a000b16a28d","false","null","<div style=""align-items: center; display: flex; color: darkorange; font-size: 90px""><b>ø</b></div>","null","","","","forget_cue","","","","","","","","","","","","","","","",""
"html-keyboard-response","188","474275","0.0-4.0-1.0-0.23","y1t1pq1xm0rfy19","prime","5c5cb3bf6a946500015a3411","5f60e3c0a3b16e07647b2ff9","5f60e9a726c75a000b16a28d","false","null","<span style=""color: black; font-size: 48px"">N + M</span>","null","","","","resp_prompt","","","","","","","","","","","","","","","",""
"categorize-image","189","475464","0.0-4.0-1.0-1.23","y1t1pq1xm0rfy19","prime","5c5cb3bf6a946500015a3411","5f60e3c0a3b16e07647b2ff9","5f60e9a726c75a000b16a28d","true","1180.9950000606477","./Stimuli/SelectedImages/SN/SN60.bmp","83","","","","test","true","N + M","83","repetition","SN","SN60.bmp","forget","","72","3","prime1","left","","","",""
"html-keyboard-response","190","477483","0.0-4.0-1.0-3.23","y1t1pq1xm0rfy19","prime","5c5cb3bf6a946500015a3411","5f60e3c0a3b16e07647b2ff9","5f60e9a726c75a000b16a28d","false","null","<div style=""align-items: center; display: flex; color: darkorange; font-size: 90px""><b>ø</b></div>","null","","","","forget_cue","","","","","","","","","","","","","","","",""
"html-keyboard-response","191","478187","0.0-4.0-1.0-0.24","y1t1pq1xm0rfy19","prime","5c5cb3bf6a946500015a3411","5f60e3c0a3b16e07647b2ff9","5f60e9a726c75a000b16a28d","false","null","<span style=""color: black; font-size: 48px"">N + M</span>","null","","","","resp_prompt","","","","","","","","","","","","","","","",""
"categorize-image","192","478925","0.0-4.0-1.0-1.24","y1t1pq1xm0rfy19","prime","5c5cb3bf6a946500015a3411","5f60e3c0a3b16e07647b2ff9","5f60e9a726c75a000b16a28d","true","730.829999782145","./Stimuli/SelectedImages/LN/LN149.bmp","83","","","","test","true","N + M","83","repetition","LN","LN149.bmp","forget","","73","3","prime1","left","","","",""
"html-keyboard-response","193","480937","0.0-4.0-1.0-3.24","y1t1pq1xm0rfy19","prime","5c5cb3bf6a946500015a3411","5f60e3c0a3b16e07647b2ff9","5f60e9a726c75a000b16a28d","false","null","<div style=""align-items: center; display: flex; color: darkorange; font-size: 90px""><b>ø</b></div>","null","","","","forget_cue","","","","","","","","","","","","","","","",""
"html-keyboard-response","194","481651","0.0-4.0-1.0-0.25","y1t1pq1xm0rfy19","prime","5c5cb3bf6a946500015a3411","5f60e3c0a3b16e07647b2ff9","5f60e9a726c75a000b16a28d","false","null","<span style=""color: black; font-size: 48px"">N + M</span>","null","","","","resp_prompt","","","","","","","","","","","","","","","",""
"categorize-image","195","482352","0.0-4.0-1.0-1.25","y1t1pq1xm0rfy19","prime","5c5cb3bf6a946500015a3411","5f60e3c0a3b16e07647b2ff9","5f60e9a726c75a000b16a28d","true","693.5749999247491","./Stimuli/SelectedImages/LN/LN131.bmp","83","","","","test","true","N + M","83","switch","LN","LN131.bmp","forget","","74","3","prime1","left","","","",""
"html-keyboard-response","196","484365","0.0-4.0-1.0-3.25","y1t1pq1xm0rfy19","prime","5c5cb3bf6a946500015a3411","5f60e3c0a3b16e07647b2ff9","5f60e9a726c75a000b16a28d","false","null","<div style=""align-items: center; display: flex; color: darkorange; font-size: 90px""><b>ø</b></div>","null","","","","forget_cue","","","","","","","","","","","","","","","",""
"html-keyboard-response","197","485067","0.0-4.0-1.0-0.26","y1t1pq1xm0rfy19","prime","5c5cb3bf6a946500015a3411","5f60e3c0a3b16e07647b2ff9","5f60e9a726c75a000b16a28d","false","null","<span style=""color: black; font-size: 48px"">M + N</span>","null","","","","resp_prompt","","","","","","","","","","","","","","","",""
"categorize-image","198","485709","0.0-4.0-1.0-1.26","y1t1pq1xm0rfy19","prime","5c5cb3bf6a946500015a3411","5f60e3c0a3b16e07647b2ff9","5f60e9a726c75a000b16a28d","true","636.909999884665","./Stimuli/SelectedImages/LN/LN28.bmp","76","","","","test","true","M + N","76","repetition","LN","LN28.bmp","forget","","75","3","prime1","right","","","",""
"html-keyboard-response","199","487725","0.0-4.0-1.0-3.26","y1t1pq1xm0rfy19","prime","5c5cb3bf6a946500015a3411","5f60e3c0a3b16e07647b2ff9","5f60e9a726c75a000b16a28d","false","null","<div style=""align-items: center; display: flex; color: darkorange; font-size: 90px""><b>ø</b></div>","null","","","","forget_cue","","","","","","","","","","","","","","","",""
"html-keyboard-response","200","488443","0.0-4.0-1.0-0.27","y1t1pq1xm0rfy19","prime","5c5cb3bf6a946500015a3411","5f60e3c0a3b16e07647b2ff9","5f60e9a726c75a000b16a28d","false","null","<span style=""color: black; font-size: 48px"">M + N</span>","null","","","","resp_prompt","","","","","","","","","","","","","","","",""
"categorize-image","201","489045","0.0-4.0-1.0-1.27","y1t1pq1xm0rfy19","prime","5c5cb3bf6a946500015a3411","5f60e3c0a3b16e07647b2ff9","5f60e9a726c75a000b16a28d","true","598.0199999175966","./Stimuli/SelectedImages/LN/LN13.bmp","76","","","","test","true","M + N","76","switch","LN","LN13.bmp","forget","","76","3","prime1","right","","","",""
"html-keyboard-response","202","491056","0.0-4.0-1.0-3.27","y1t1pq1xm0rfy19","prime","5c5cb3bf6a946500015a3411","5f60e3c0a3b16e07647b2ff9","5f60e9a726c75a000b16a28d","false","null","<div style=""align-items: center; display: flex; color: darkorange; font-size: 90px""><b>ø</b></div>","null","","","","forget_cue","","","","","","","","","","","","","","","",""
"html-keyboard-response","203","491769","0.0-4.0-1.0-0.28","y1t1pq1xm0rfy19","prime","5c5cb3bf6a946500015a3411","5f60e3c0a3b16e07647b2ff9","5f60e9a726c75a000b16a28d","false","null","<span style=""color: black; font-size: 48px"">M + N</span>","null","","","","resp_prompt","","","","","","","","","","","","","","","",""
"categorize-image","204","492286","0.0-4.0-1.0-1.28","y1t1pq1xm0rfy19","prime","5c5cb3bf6a946500015a3411","5f60e3c0a3b16e07647b2ff9","5f60e9a726c75a000b16a28d","true","509.98999970033765","./Stimuli/SelectedImages/SN/SN93.bmp","76","","","","test","true","M + N","76","switch","SN","SN93.bmp","forget","","77","3","prime1","right","","","",""
"html-keyboard-response","205","494295","0.0-4.0-1.0-3.28","y1t1pq1xm0rfy19","prime","5c5cb3bf6a946500015a3411","5f60e3c0a3b16e07647b2ff9","5f60e9a726c75a000b16a28d","false","null","<div style=""align-items: center; display: flex; color: darkorange; font-size: 90px""><b>ø</b></div>","null","","","","forget_cue","","","","","","","","","","","","","","","",""
"html-keyboard-response","206","494997","0.0-4.0-1.0-0.29","y1t1pq1xm0rfy19","prime","5c5cb3bf6a946500015a3411","5f60e3c0a3b16e07647b2ff9","5f60e9a726c75a000b16a28d","false","null","<span style=""color: black; font-size: 48px"">M + N</span>","null","","","","resp_prompt","","","","","","","","","","","","","","","",""
"categorize-image","207","495675","0.0-4.0-1.0-1.29","y1t1pq1xm0rfy19","prime","5c5cb3bf6a946500015a3411","5f60e3c0a3b16e07647b2ff9","5f60e9a726c75a000b16a28d","true","671.2400000542402","./Stimuli/SelectedImages/LN/LN128.bmp","76","","","","test","true","M + N","76","repetition","LN","LN128.bmp","remember","","78","3","prime1","right","","","",""
"html-keyboard-response","208","497686","0.0-4.0-1.0-3.29","y1t1pq1xm0rfy19","prime","5c5cb3bf6a946500015a3411","5f60e3c0a3b16e07647b2ff9","5f60e9a726c75a000b16a28d","false","null","<div style=""align-items: center; display: flex; color: dodgerblue; font-size: 90px""><b>o</b></div>","null","","","","forget_cue","","","","","","","","","","","","","","","",""
"html-keyboard-response","209","498389","0.0-4.0-1.0-0.30","y1t1pq1xm0rfy19","prime","5c5cb3bf6a946500015a3411","5f60e3c0a3b16e07647b2ff9","5f60e9a726c75a000b16a28d","false","null","<span style=""color: black; font-size: 48px"">M + N</span>","null","","","","resp_prompt","","","","","","","","","","","","","","","",""
"categorize-image","210","499010","0.0-4.0-1.0-1.30","y1t1pq1xm0rfy19","prime","5c5cb3bf6a946500015a3411","5f60e3c0a3b16e07647b2ff9","5f60e9a726c75a000b16a28d","true","612.3449997976422","./Stimuli/SelectedImages/LM/LM100.bmp","83","","","","test","true","M + N","83","switch","LM","LM100.bmp","forget","","79","3","prime1","left","","","",""
"html-keyboard-response","211","501023","0.0-4.0-1.0-3.30","y1t1pq1xm0rfy19","prime","5c5cb3bf6a946500015a3411","5f60e3c0a3b16e07647b2ff9","5f60e9a726c75a000b16a28d","false","null","<div style=""align-items: center; display: flex; color: darkorange; font-size: 90px""><b>ø</b></div>","null","","","","forget_cue","","","","","","","","","","","","","","","",""
"html-keyboard-response","212","501744","0.0-4.0-1.0-0.31","y1t1pq1xm0rfy19","prime","5c5cb3bf6a946500015a3411","5f60e3c0a3b16e07647b2ff9","5f60e9a726c75a000b16a28d","false","null","<span style=""color: black; font-size: 48px"">M + N</span>","null","","","","resp_prompt","","","","","","","","","","","","","","","",""
"categorize-image","213","502301","0.0-4.0-1.0-1.31","y1t1pq1xm0rfy19","prime","5c5cb3bf6a946500015a3411","5f60e3c0a3b16e07647b2ff9","5f60e9a726c75a000b16a28d","true","550.1900003291667","./Stimuli/SelectedImages/SN/SN27.bmp","76","","","","test","true","M + N","76","switch","SN","SN27.bmp","remember","","80","3","prime1","right","","","",""
"html-keyboard-response","214","504309","0.0-4.0-1.0-3.31","y1t1pq1xm0rfy19","prime","5c5cb3bf6a946500015a3411","5f60e3c0a3b16e07647b2ff9","5f60e9a726c75a000b16a28d","false","null","<div style=""align-items: center; display: flex; color: dodgerblue; font-size: 90px""><b>o</b></div>","null","","","","forget_cue","","","","","","","","","","","","","","","",""
"html-keyboard-response","215","505023","0.0-4.0-1.0-0.32","y1t1pq1xm0rfy19","prime","5c5cb3bf6a946500015a3411","5f60e3c0a3b16e07647b2ff9","5f60e9a726c75a000b16a28d","false","null","<span style=""color: black; font-size: 48px"">N + M</span>","null","","","","resp_prompt","","","","","","","","","","","","","","","",""
"categorize-image","216","506645","0.0-4.0-1.0-1.32","y1t1pq1xm0rfy19","prime","5c5cb3bf6a946500015a3411","5f60e3c0a3b16e07647b2ff9","5f60e9a726c75a000b16a28d","true","1615.2699999511242","./Stimuli/SelectedImages/LM/LM75.bmp","76","","","","test","true","N + M","76","repetition","LM","LM75.bmp","remember","","81","3","prime1","right","","","",""
"html-keyboard-response","217","508650","0.0-4.0-1.0-3.32","y1t1pq1xm0rfy19","prime","5c5cb3bf6a946500015a3411","5f60e3c0a3b16e07647b2ff9","5f60e9a726c75a000b16a28d","false","null","<div style=""align-items: center; display: flex; color: dodgerblue; font-size: 90px""><b>o</b></div>","null","","","","forget_cue","","","","","","","","","","","","","","","",""
"html-keyboard-response","218","509351","0.0-4.0-1.0-0.33","y1t1pq1xm0rfy19","prime","5c5cb3bf6a946500015a3411","5f60e3c0a3b16e07647b2ff9","5f60e9a726c75a000b16a28d","false","null","<span style=""color: black; font-size: 48px"">N + M</span>","null","","","","resp_prompt","","","","","","","","","","","","","","","",""
"categorize-image","219","510103","0.0-4.0-1.0-1.33","y1t1pq1xm0rfy19","prime","5c5cb3bf6a946500015a3411","5f60e3c0a3b16e07647b2ff9","5f60e9a726c75a000b16a28d","true","744.6900000795722","./Stimuli/SelectedImages/LN/LN177.bmp","83","","","","test","true","N + M","83","switch","LN","LN177.bmp","remember","","82","3","prime1","left","","","",""
"html-keyboard-response","220","512117","0.0-4.0-1.0-3.33","y1t1pq1xm0rfy19","prime","5c5cb3bf6a946500015a3411","5f60e3c0a3b16e07647b2ff9","5f60e9a726c75a000b16a28d","false","null","<div style=""align-items: center; display: flex; color: dodgerblue; font-size: 90px""><b>o</b></div>","null","","","","forget_cue","","","","","","","","","","","","","","","",""
"html-keyboard-response","221","512823","0.0-4.0-1.0-0.34","y1t1pq1xm0rfy19","prime","5c5cb3bf6a946500015a3411","5f60e3c0a3b16e07647b2ff9","5f60e9a726c75a000b16a28d","false","null","<span style=""color: black; font-size: 48px"">M + N</span>","null","","","","resp_prompt","","","","","","","","","","","","","","","",""
"categorize-image","222","513554","0.0-4.0-1.0-1.34","y1t1pq1xm0rfy19","prime","5c5cb3bf6a946500015a3411","5f60e3c0a3b16e07647b2ff9","5f60e9a726c75a000b16a28d","true","723.9850000478327","./Stimuli/SelectedImages/SM/SM205.bmp","83","","","","test","true","M + N","83","switch","SM","SM205.bmp","forget","","83","3","prime1","left","","","",""
"html-keyboard-response","223","515564","0.0-4.0-1.0-3.34","y1t1pq1xm0rfy19","prime","5c5cb3bf6a946500015a3411","5f60e3c0a3b16e07647b2ff9","5f60e9a726c75a000b16a28d","false","null","<div style=""align-items: center; display: flex; color: darkorange; font-size: 90px""><b>ø</b></div>","null","","","","forget_cue","","","","","","","","","","","","","","","",""
"html-keyboard-response","224","516266","0.0-4.0-1.0-0.35","y1t1pq1xm0rfy19","prime","5c5cb3bf6a946500015a3411","5f60e3c0a3b16e07647b2ff9","5f60e9a726c75a000b16a28d","false","null","<span style=""color: black; font-size: 48px"">N + M</span>","null","","","","resp_prompt","","","","","","","","","","","","","","","",""
"categorize-image","225","516969","0.0-4.0-1.0-1.35","y1t1pq1xm0rfy19","prime","5c5cb3bf6a946500015a3411","5f60e3c0a3b16e07647b2ff9","5f60e9a726c75a000b16a28d","true","696.1249997839332","./Stimuli/SelectedImages/SN/SN128.bmp","83","","","","test","true","N + M","83","repetition","SN","SN128.bmp","forget","","84","3","prime1","left","","","",""
"html-keyboard-response","226","518974","0.0-4.0-1.0-3.35","y1t1pq1xm0rfy19","prime","5c5cb3bf6a946500015a3411","5f60e3c0a3b16e07647b2ff9","5f60e9a726c75a000b16a28d","false","null","<div style=""align-items: center; display: flex; color: darkorange; font-size: 90px""><b>ø</b></div>","null","","","","forget_cue","","","","","","","","","","","","","","","",""
"html-keyboard-response","227","519692","0.0-4.0-1.0-0.36","y1t1pq1xm0rfy19","prime","5c5cb3bf6a946500015a3411","5f60e3c0a3b16e07647b2ff9","5f60e9a726c75a000b16a28d","false","null","<span style=""color: black; font-size: 48px"">N + M</span>","null","","","","resp_prompt","","","","","","","","","","","","","","","",""
"categorize-image","228","521071","0.0-4.0-1.0-1.36","y1t1pq1xm0rfy19","prime","5c5cb3bf6a946500015a3411","5f60e3c0a3b16e07647b2ff9","5f60e9a726c75a000b16a28d","true","1372.5999998860061","./Stimuli/SelectedImages/SM/SM24.bmp","76","","","","test","true","N + M","76","switch","SM","SM24.bmp","remember","","85","3","prime1","right","","","",""
"html-keyboard-response","229","523090","0.0-4.0-1.0-3.36","y1t1pq1xm0rfy19","prime","5c5cb3bf6a946500015a3411","5f60e3c0a3b16e07647b2ff9","5f60e9a726c75a000b16a28d","false","null","<div style=""align-items: center; display: flex; color: dodgerblue; font-size: 90px""><b>o</b></div>","null","","","","forget_cue","","","","","","","","","","","","","","","",""
"html-keyboard-response","230","523808","0.0-4.0-1.0-0.37","y1t1pq1xm0rfy19","prime","5c5cb3bf6a946500015a3411","5f60e3c0a3b16e07647b2ff9","5f60e9a726c75a000b16a28d","false","null","<span style=""color: black; font-size: 48px"">N + M</span>","null","","","","resp_prompt","","","","","","","","","","","","","","","",""
"categorize-image","231","524580","0.0-4.0-1.0-1.37","y1t1pq1xm0rfy19","prime","5c5cb3bf6a946500015a3411","5f60e3c0a3b16e07647b2ff9","5f60e9a726c75a000b16a28d","true","765.5700002796948","./Stimuli/SelectedImages/LM/LM179.bmp","76","","","","test","true","N + M","76","switch","LM","LM179.bmp","remember","","86","3","prime1","right","","","",""
"html-keyboard-response","232","526594","0.0-4.0-1.0-3.37","y1t1pq1xm0rfy19","prime","5c5cb3bf6a946500015a3411","5f60e3c0a3b16e07647b2ff9","5f60e9a726c75a000b16a28d","false","null","<div style=""align-items: center; display: flex; color: dodgerblue; font-size: 90px""><b>o</b></div>","null","","","","forget_cue","","","","","","","","","","","","","","","",""
"html-keyboard-response","233","527297","0.0-4.0-1.0-0.38","y1t1pq1xm0rfy19","prime","5c5cb3bf6a946500015a3411","5f60e3c0a3b16e07647b2ff9","5f60e9a726c75a000b16a28d","false","null","<span style=""color: black; font-size: 48px"">M + N</span>","null","","","","resp_prompt","","","","","","","","","","","","","","","",""
"categorize-image","234","528359","0.0-4.0-1.0-1.38","y1t1pq1xm0rfy19","prime","5c5cb3bf6a946500015a3411","5f60e3c0a3b16e07647b2ff9","5f60e9a726c75a000b16a28d","true","1052.2400001063943","./Stimuli/SelectedImages/LM/LM59.bmp","83","","","","test","true","M + N","83","repetition","LM","LM59.bmp","forget","","87","3","prime1","left","","","",""
"html-keyboard-response","235","530362","0.0-4.0-1.0-3.38","y1t1pq1xm0rfy19","prime","5c5cb3bf6a946500015a3411","5f60e3c0a3b16e07647b2ff9","5f60e9a726c75a000b16a28d","false","null","<div style=""align-items: center; display: flex; color: darkorange; font-size: 90px""><b>ø</b></div>","null","","","","forget_cue","","","","","","","","","","","","","","","",""
"html-keyboard-response","236","531078","0.0-4.0-1.0-0.39","y1t1pq1xm0rfy19","prime","5c5cb3bf6a946500015a3411","5f60e3c0a3b16e07647b2ff9","5f60e9a726c75a000b16a28d","false","null","<span style=""color: black; font-size: 48px"">N + M</span>","null","","","","resp_prompt","","","","","","","","","","","","","","","",""
"categorize-image","237","531977","0.0-4.0-1.0-1.39","y1t1pq1xm0rfy19","prime","5c5cb3bf6a946500015a3411","5f60e3c0a3b16e07647b2ff9","5f60e9a726c75a000b16a28d","true","892.384999897331","./Stimuli/SelectedImages/SN/SN52.bmp","76","","","","test","false","N + M","83","repetition","SN","SN52.bmp","remember","","88","3","prime1","right","","","",""
"html-keyboard-response","238","532494","0.0-4.0-1.0-2.39-0.39","y1t1pq1xm0rfy19","prime","5c5cb3bf6a946500015a3411","5f60e3c0a3b16e07647b2ff9","5f60e9a726c75a000b16a28d","false","null","<span style=""color: red; font-size: 48px"">Error!</span>","null","","","","feedback","","","","","","","","","","","","","","","",""
"html-keyboard-response","239","534497","0.0-4.0-1.0-3.39","y1t1pq1xm0rfy19","prime","5c5cb3bf6a946500015a3411","5f60e3c0a3b16e07647b2ff9","5f60e9a726c75a000b16a28d","false","null","<div style=""align-items: center; display: flex; color: dodgerblue; font-size: 90px""><b>o</b></div>","null","","","","forget_cue","","","","","","","","","","","","","","","",""
"html-keyboard-response","240","535211","0.0-4.0-1.0-0.40","y1t1pq1xm0rfy19","prime","5c5cb3bf6a946500015a3411","5f60e3c0a3b16e07647b2ff9","5f60e9a726c75a000b16a28d","false","null","<span style=""color: black; font-size: 48px"">N + M</span>","null","","","","resp_prompt","","","","","","","","","","","","","","","",""
"categorize-image","241","535958","0.0-4.0-1.0-1.40","y1t1pq1xm0rfy19","prime","5c5cb3bf6a946500015a3411","5f60e3c0a3b16e07647b2ff9","5f60e9a726c75a000b16a28d","true","740.9100001677871","./Stimuli/SelectedImages/LN/LN92.bmp","83","","","","test","true","N + M","83","switch","LN","LN92.bmp","forget","","89","3","prime1","left","","","",""
"html-keyboard-response","242","537970","0.0-4.0-1.0-3.40","y1t1pq1xm0rfy19","prime","5c5cb3bf6a946500015a3411","5f60e3c0a3b16e07647b2ff9","5f60e9a726c75a000b16a28d","false","null","<div style=""align-items: center; display: flex; color: darkorange; font-size: 90px""><b>ø</b></div>","null","","","","forget_cue","","","","","","","","","","","","","","","",""
"html-keyboard-response","243","538687","0.0-4.0-1.0-0.41","y1t1pq1xm0rfy19","prime","5c5cb3bf6a946500015a3411","5f60e3c0a3b16e07647b2ff9","5f60e9a726c75a000b16a28d","false","null","<span style=""color: black; font-size: 48px"">M + N</span>","null","","","","resp_prompt","","","","","","","","","","","","","","","",""
"categorize-image","244","540628","0.0-4.0-1.0-1.41","y1t1pq1xm0rfy19","prime","5c5cb3bf6a946500015a3411","5f60e3c0a3b16e07647b2ff9","5f60e9a726c75a000b16a28d","true","1933.0400000326335","./Stimuli/SelectedImages/SM/SM195.bmp","83","","","","test","true","M + N","83","repetition","SM","SM195.bmp","remember","","90","3","prime1","left","","","",""
"html-keyboard-response","245","542641","0.0-4.0-1.0-3.41","y1t1pq1xm0rfy19","prime","5c5cb3bf6a946500015a3411","5f60e3c0a3b16e07647b2ff9","5f60e9a726c75a000b16a28d","false","null","<div style=""align-items: center; display: flex; color: dodgerblue; font-size: 90px""><b>o</b></div>","null","","","","forget_cue","","","","","","","","","","","","","","","",""
"html-keyboard-response","246","543343","0.0-4.0-1.0-0.42","y1t1pq1xm0rfy19","prime","5c5cb3bf6a946500015a3411","5f60e3c0a3b16e07647b2ff9","5f60e9a726c75a000b16a28d","false","null","<span style=""color: black; font-size: 48px"">M + N</span>","null","","","","resp_prompt","","","","","","","","","","","","","","","",""
"categorize-image","247","543984","0.0-4.0-1.0-1.42","y1t1pq1xm0rfy19","prime","5c5cb3bf6a946500015a3411","5f60e3c0a3b16e07647b2ff9","5f60e9a726c75a000b16a28d","true","633.2749999128282","./Stimuli/SelectedImages/SM/SM78.bmp","83","","","","test","true","M + N","83","switch","SM","SM78.bmp","remember","","91","3","prime1","left","","","",""
"html-keyboard-response","248","546001","0.0-4.0-1.0-3.42","y1t1pq1xm0rfy19","prime","5c5cb3bf6a946500015a3411","5f60e3c0a3b16e07647b2ff9","5f60e9a726c75a000b16a28d","false","null","<div style=""align-items: center; display: flex; color: dodgerblue; font-size: 90px""><b>o</b></div>","null","","","","forget_cue","","","","","","","","","","","","","","","",""
"html-keyboard-response","249","546704","0.0-4.0-1.0-0.43","y1t1pq1xm0rfy19","prime","5c5cb3bf6a946500015a3411","5f60e3c0a3b16e07647b2ff9","5f60e9a726c75a000b16a28d","false","null","<span style=""color: black; font-size: 48px"">N + M</span>","null","","","","resp_prompt","","","","","","","","","","","","","","","",""
"categorize-image","250","547875","0.0-4.0-1.0-1.43","y1t1pq1xm0rfy19","prime","5c5cb3bf6a946500015a3411","5f60e3c0a3b16e07647b2ff9","5f60e9a726c75a000b16a28d","true","1164.0349999070168","./Stimuli/SelectedImages/LN/LN82.bmp","83","","","","test","true","N + M","83","switch","LN","LN82.bmp","remember","","92","3","prime1","left","","","",""
"html-keyboard-response","251","549890","0.0-4.0-1.0-3.43","y1t1pq1xm0rfy19","prime","5c5cb3bf6a946500015a3411","5f60e3c0a3b16e07647b2ff9","5f60e9a726c75a000b16a28d","false","null","<div style=""align-items: center; display: flex; color: dodgerblue; font-size: 90px""><b>o</b></div>","null","","","","forget_cue","","","","","","","","","","","","","","","",""
"html-keyboard-response","252","550606","0.0-4.0-1.0-0.44","y1t1pq1xm0rfy19","prime","5c5cb3bf6a946500015a3411","5f60e3c0a3b16e07647b2ff9","5f60e9a726c75a000b16a28d","false","null","<span style=""color: black; font-size: 48px"">N + M</span>","null","","","","resp_prompt","","","","","","","","","","","","","","","",""
