"trial_type","trial_index","time_elapsed","internal_node_id","subject","exp_part","prolific_PID","study_ID","session_ID","use","rt","stimulus","key_press","button_pressed","responses","question_order","trial_part","correct","resp_map","correct_resp","probe_condition","category","image","forget_condition","list","trial_num","block_num","block","response","test_part","n_span","sequence","num_spaces"
"pavlovia","0","3","0.0-0.0","zpqd2k9cw1o9rnp","","5e282e43266894a3e79a6eaa","5f60e3c0a3b16e07647b2ff9","5f63803a1cb28306146179d6","false","","","","","","","","","","","","","","","","","","","","","","",""
"html-keyboard-response","1","2445","0.0-1.0-0.0-0.0","zpqd2k9cw1o9rnp","welcome","5e282e43266894a3e79a6eaa","5f60e3c0a3b16e07647b2ff9","5f63803a1cb28306146179d6","false","2438.49000002956","<div align=left>Dear participant, <br> thank you for participating in an online study of the Cognition, Action, and Sustainability Unit of the University of Freiburg! <br> <br>The aim of this study is to examine our ability to remember previously learned information. <br>Our goal is to find out, whether our memory improves, when we only remember information that is relevant to us. <br>The experiment will take about 35 minutes to complete. <br> <br>Please, note that you can only participate in this study if you are using a device with a keyboard (PC, Laptop etc.) <br>and not if you are using a mobile device such as a tablet or smartphone.<br> <br>Press 'SPACE' to proceed to the experiment. </div>","32","","","","","","","","","","","","","","","","","","","",""
"html-keyboard-response","2","15699","0.0-1.0-0.0-1.0","zpqd2k9cw1o9rnp","welcome","5e282e43266894a3e79a6eaa","5f60e3c0a3b16e07647b2ff9","5f63803a1cb28306146179d6","false","13252.994999988005","<div align=left><strong> Time Course of this experiment: </strong> <br><br> <strong> 1.</strong>  First, please fill in some information regarding your demographic data. <br><br> <strong> 2.</strong>  Next, your task will be to classify everyday objects. <br>In addition, you will be asked to remember certain objects and recall them later. <br>Working on these tasks requires your undivided attention and concentration.<br>It is therefore essential that you eliminate any sources of distraction in your  <br>environment and ensure that you will not be disturbed. <br><br><strong> 3.</strong>  At the end of the experiment, you will be asked to answer a few additional questions. <br> <br><strong> Important:</strong> After finishing the experiment, only close the browser window <br> by clicking on the 'end the experiment'-button when you are asked to do so. <br>Closing the browser window prematurely will make the allocation of your participation credit impossible. <br><br> Press 'SPACE' to start the experiment. </div>","32","","","","","","","","","","","","","","","","","","","",""
"html-button-response","3","18846","0.0-1.0-0.0-2.0","zpqd2k9cw1o9rnp","welcome","5e282e43266894a3e79a6eaa","5f60e3c0a3b16e07647b2ff9","5f63803a1cb28306146179d6","true","3144.7599999955855","<div align=left><strong> Informed consent </strong>  <br>The aim of our research is to better understand human behavior and mental processes. <br>In the following study your behavior (e.g. choices, reaction times) will be studied. <br> <br><strong> Voluntariness and Anonymity </strong> <br>Your participation in this study is  <strong> voluntary</strong>.<br>You may withdraw your consent to participate at any time without providing a reason for doing so and without fear of prejudice. <br><br>As no personal data will be collected, <strong>your data and your person cannot be connected after data collection</strong> – the data-set is anonymous. <br>Respectively, deletion of your data will not be possible after data collection has been completed, as we cannot retrace your data-set.<br>The results and anonymized data collected in this study will be published as a scientific publication. <br>This will happen in an <strong>anonymized format</strong>, so that no data can be traced back to a specific person. <br> <br>The anonymized data of this study will be made available to other researchers and/or in a data archive on the Internet as a means of transparency and to enable subsequent re-use. By doing so, this study follows the recommendations of the Deutsche Forschungsgemeinschaft (DFG, German Research Foundation) and Deutsche Gesellschaft für Psychologie (DGPS, German Psychological Society) regarding quality assurance in research.<br>If you have any questions now or after the experiment, please contact our team (experiments@cs.uni-freiburg.de).<br><br><br>I hereby declare, that I understand the above described conditions of participation and I agree to participate under these conditions. <br><br> </div>","","0","","","","","","","","","","","","","","","","","","",""
"html-keyboard-response","4","38293","0.0-1.0-0.0-3.0","zpqd2k9cw1o9rnp","welcome","5e282e43266894a3e79a6eaa","5f60e3c0a3b16e07647b2ff9","5f63803a1cb28306146179d6","false","19445.59499999741","<div align=left><strong> General information concerning the experiment </strong>  <br> <br>Please follow the instructions:<ol> <li><strong> Do not leave this tab (your browser window) during the experiment and do not reload this tab! </strong>  <br>If you do switch tabs/windows during the experiment (to check your mail or visit another website, for example), <br>the experiment will end automatically and you will <strong>not receive credit</strong> for your participation. <br>Repeated participation or resumption of the experiment is impossible.</li> <br><li>Please close all other programs for the duration of your participation. </li> <br><li>Please mute or turn off your phone and put it out of your reach. </li> <br><li>Please also take off any disturbing accessories (such as wristwatches, bracelets, etc.). </li> <br><li>If you have music playing in the background, please turn it off now. </li> <br></ol>Thank you! <br>Press 'SPACE' to continue. </div>","32","","","","","","","","","","","","","","","","","","","",""
"survey-text","5","42192","0.0-1.0-1.0-0.0","zpqd2k9cw1o9rnp","demographics","5e282e43266894a3e79a6eaa","5f60e3c0a3b16e07647b2ff9","5f63803a1cb28306146179d6","true","3893.8799999887124","","","","{""age"":""21""}","","","","","","","","","","","","","","","","","",""
"survey-multi-choice","6","58950","0.0-1.0-1.0-1.0","zpqd2k9cw1o9rnp","demographics","5e282e43266894a3e79a6eaa","5f60e3c0a3b16e07647b2ff9","5f63803a1cb28306146179d6","true","16754.64500003727","","","","{""gender"":""female"",""school"":""others"",""education"":""High school graduate, diploma or equivalent""}","[0,1,2]","","","","","","","","","","","","","","","","",""
"html-keyboard-response","7","79812","0.0-1.0-2.0","zpqd2k9cw1o9rnp","instructions","5e282e43266894a3e79a6eaa","5f60e3c0a3b16e07647b2ff9","5f63803a1cb28306146179d6","false","20857.870000007097","<div align=left> The experiment is now about to start: <br> <br>In the following part, you will be presented pictures of everyday objects. <br>Your first task is to <strong>classify these objects. </strong> <br> <br> You will classify them either as mechanical or non-mechanical objects. <br> <br>Objects that include any kind of technical mechanism (for example, wheels, switches, levers, <br> electronic components) fall under the category of <strong>mechanical</strong> objects. <br>Only objects without any kind of technical mechanism should be classified as <strong>non-mechanical</strong>. <br><br>Press 'SPACE' to continue. </div>","32","","","","","","","","","","","","","","","","","","","",""
"html-keyboard-response","8","143968","0.0-2.0-0.0","zpqd2k9cw1o9rnp","instructions","5e282e43266894a3e79a6eaa","5f60e3c0a3b16e07647b2ff9","5f63803a1cb28306146179d6","false","64154.879999987315","<div align=justify>You will classify the objects using the <strong>'S'</strong> and the <strong>'L'</strong> keys on your keyboard.<br>For doing so, please place your <strong>left index finger</strong> on the <strong>'S'</strong> key and place your <strong>right index finger</strong> on the <strong>'L'</strong> key. <br><br> Each trial starts with an instruction, indicating which key ('S'/'L') you need to press to classify <br>the object as mechanical (letter M) or non-mechanical (letter N).<br>The instruction <strong>M + N</strong> indicates that, in the current trial, by pressing the left key ('S') you classify the displayed object as mechanical (M) <br> and by pressing the right key ('L') you classify the object as non-mechanical (N). <br>The instruction <strong>N + M</strong> on the other hand indicates that by pressing the left key ('S') you classify the displayed object as non-mechanical (N) <br> and by pressing the right key ('L') you classify the object as mechanical (M). <br><br>Please press the key corresponding to the correct classification as fast as possible as soon as the object is displayed and try to avoid making mistakes.<br>If you do not respond within a 2 second window, a corresponding feedback will be displayed and the next trial will start.<br> The experiment is divided into multiple blocks to give you the opportunity to take a break after each block. <br>First, you can now practice this task. <br><br>Please place your <strong>LEFT INDEX FINGER</strong> on the 'S' key and your <strong>RIGHT INDEX FINGER</strong> on the 'L' key now. <br><br>Press SPACE to continue.</div>","32","","","","","","","","","","","","","","","","","","","",""
"html-keyboard-response","9","146404","0.0-2.0-1.0","zpqd2k9cw1o9rnp","instructions","5e282e43266894a3e79a6eaa","5f60e3c0a3b16e07647b2ff9","5f63803a1cb28306146179d6","false","2434.7800000105053","<div align=left> You will now have time to practice this task.<br><br>Remember: <br> <br><li>Please place your index fingers on the <strong>'S'</strong> and <strong>'L'</strong> keys <br>to respond as fast and accurately as possible.</li><li>Every picture can be classified as either mechanical or non-mechanical.</li><li>If you do not respond in time or commit an error, you will receive a corresponding feedback. </li><li> Please try to respond as <strong> fast </strong> and as <strong> accurately as possible </strong> .<br><li>To ensure optimal results, please minimize distractions and stay focused. </li><br><br>Press SPACE to continue.</div>","32","","","","","","","","","","","","","","","","","","","",""
"html-keyboard-response","10","147106","0.0-2.0-2.0-0.0","zpqd2k9cw1o9rnp","practice_no_cue","5e282e43266894a3e79a6eaa","5f60e3c0a3b16e07647b2ff9","5f63803a1cb28306146179d6","false","null","<span style=""color: black; font-size: 48px"">M + N</span>","null","","","","resp_prompt","","","","","","","","","","","","","","","",""
"categorize-image","11","148481","0.0-2.0-2.0-1.0","zpqd2k9cw1o9rnp","practice_no_cue","5e282e43266894a3e79a6eaa","5f60e3c0a3b16e07647b2ff9","5f63803a1cb28306146179d6","true","864.4300000160001","./Stimuli/ImagesPractice/SN220.jpg","76","","","","test","true","M + N","76","","SN","SN220.jpg","forget","old","1","1","start","right","","","",""
"html-keyboard-response","12","149185","0.0-2.0-2.0-0.1","zpqd2k9cw1o9rnp","practice_no_cue","5e282e43266894a3e79a6eaa","5f60e3c0a3b16e07647b2ff9","5f63803a1cb28306146179d6","false","null","<span style=""color: black; font-size: 48px"">N + M</span>","null","","","","resp_prompt","","","","","","","","","","","","","","","",""
"categorize-image","13","151201","0.0-2.0-2.0-1.1","zpqd2k9cw1o9rnp","practice_no_cue","5e282e43266894a3e79a6eaa","5f60e3c0a3b16e07647b2ff9","5f63803a1cb28306146179d6","true","1502.9699999722652","./Stimuli/ImagesPractice/SM98.jpg","76","","","","test","true","N + M","76","","SM","SM98.jpg","remember","old","2","1","start","right","","","",""
"html-keyboard-response","14","151915","0.0-2.0-2.0-0.2","zpqd2k9cw1o9rnp","practice_no_cue","5e282e43266894a3e79a6eaa","5f60e3c0a3b16e07647b2ff9","5f63803a1cb28306146179d6","false","null","<span style=""color: black; font-size: 48px"">N + M</span>","null","","","","resp_prompt","","","","","","","","","","","","","","","",""
"categorize-image","15","153417","0.0-2.0-2.0-1.2","zpqd2k9cw1o9rnp","practice_no_cue","5e282e43266894a3e79a6eaa","5f60e3c0a3b16e07647b2ff9","5f63803a1cb28306146179d6","true","998.6899999785237","./Stimuli/ImagesPractice/LN109.jpg","76","","","","test","false","N + M","83","","LN","LN109.jpg","forget","old","3","1","start","right","","","",""
"html-keyboard-response","16","154128","0.0-2.0-2.0-0.3","zpqd2k9cw1o9rnp","practice_no_cue","5e282e43266894a3e79a6eaa","5f60e3c0a3b16e07647b2ff9","5f63803a1cb28306146179d6","false","null","<span style=""color: black; font-size: 48px"">M + N</span>","null","","","","resp_prompt","","","","","","","","","","","","","","","",""
"categorize-image","17","156014","0.0-2.0-2.0-1.3","zpqd2k9cw1o9rnp","practice_no_cue","5e282e43266894a3e79a6eaa","5f60e3c0a3b16e07647b2ff9","5f63803a1cb28306146179d6","true","1381.9800000055693","./Stimuli/ImagesPractice/LN2.jpg","76","","","","test","true","M + N","76","","LN","LN2.jpg","remember","old","4","1","start","right","","","",""
"html-keyboard-response","18","156728","0.0-2.0-2.0-0.4","zpqd2k9cw1o9rnp","practice_no_cue","5e282e43266894a3e79a6eaa","5f60e3c0a3b16e07647b2ff9","5f63803a1cb28306146179d6","false","null","<span style=""color: black; font-size: 48px"">M + N</span>","null","","","","resp_prompt","","","","","","","","","","","","","","","",""
"categorize-image","19","157996","0.0-2.0-2.0-1.4","zpqd2k9cw1o9rnp","practice_no_cue","5e282e43266894a3e79a6eaa","5f60e3c0a3b16e07647b2ff9","5f63803a1cb28306146179d6","true","764.1150000272319","./Stimuli/ImagesPractice/LM230.jpg","83","","","","test","true","M + N","83","","LM","LM230.jpg","forget","old","5","1","start","left","","","",""
"html-keyboard-response","20","158698","0.0-2.0-2.0-0.5","zpqd2k9cw1o9rnp","practice_no_cue","5e282e43266894a3e79a6eaa","5f60e3c0a3b16e07647b2ff9","5f63803a1cb28306146179d6","false","null","<span style=""color: black; font-size: 48px"">N + M</span>","null","","","","resp_prompt","","","","","","","","","","","","","","","",""
"categorize-image","21","160370","0.0-2.0-2.0-1.5","zpqd2k9cw1o9rnp","practice_no_cue","5e282e43266894a3e79a6eaa","5f60e3c0a3b16e07647b2ff9","5f63803a1cb28306146179d6","true","1156.4399999915622","./Stimuli/ImagesPractice/LM143.jpg","76","","","","test","true","N + M","76","","LM","LM143.jpg","forget","old","6","1","start","right","","","",""
"html-keyboard-response","22","161071","0.0-2.0-2.0-0.6","zpqd2k9cw1o9rnp","practice_no_cue","5e282e43266894a3e79a6eaa","5f60e3c0a3b16e07647b2ff9","5f63803a1cb28306146179d6","false","null","<span style=""color: black; font-size: 48px"">N + M</span>","null","","","","resp_prompt","","","","","","","","","","","","","","","",""
"categorize-image","23","162660","0.0-2.0-2.0-1.6","zpqd2k9cw1o9rnp","practice_no_cue","5e282e43266894a3e79a6eaa","5f60e3c0a3b16e07647b2ff9","5f63803a1cb28306146179d6","true","1078.9699999731965","./Stimuli/ImagesPractice/SN221.jpg","83","","","","test","true","N + M","83","","SN","SN221.jpg","remember","old","7","1","start","left","","","",""
"html-keyboard-response","24","163367","0.0-2.0-2.0-0.7","zpqd2k9cw1o9rnp","practice_no_cue","5e282e43266894a3e79a6eaa","5f60e3c0a3b16e07647b2ff9","5f63803a1cb28306146179d6","false","null","<span style=""color: black; font-size: 48px"">M + N</span>","null","","","","resp_prompt","","","","","","","","","","","","","","","",""
"categorize-image","25","164711","0.0-2.0-2.0-1.7","zpqd2k9cw1o9rnp","practice_no_cue","5e282e43266894a3e79a6eaa","5f60e3c0a3b16e07647b2ff9","5f63803a1cb28306146179d6","true","840.7600000500679","./Stimuli/ImagesPractice/LN4.jpg","76","","","","test","true","M + N","76","","LN","LN4.jpg","remember","old","8","1","start","right","","","",""
"html-keyboard-response","26","165413","0.0-2.0-2.0-0.8","zpqd2k9cw1o9rnp","practice_no_cue","5e282e43266894a3e79a6eaa","5f60e3c0a3b16e07647b2ff9","5f63803a1cb28306146179d6","false","null","<span style=""color: black; font-size: 48px"">M + N</span>","null","","","","resp_prompt","","","","","","","","","","","","","","","",""
"categorize-image","27","166617","0.0-2.0-2.0-1.8","zpqd2k9cw1o9rnp","practice_no_cue","5e282e43266894a3e79a6eaa","5f60e3c0a3b16e07647b2ff9","5f63803a1cb28306146179d6","true","700.8400000049733","./Stimuli/ImagesPractice/LM239.jpg","83","","","","test","true","M + N","83","","LM","LM239.jpg","forget","old","9","1","start","left","","","",""
"html-keyboard-response","28","167331","0.0-2.0-2.0-0.9","zpqd2k9cw1o9rnp","practice_no_cue","5e282e43266894a3e79a6eaa","5f60e3c0a3b16e07647b2ff9","5f63803a1cb28306146179d6","false","null","<span style=""color: black; font-size: 48px"">M + N</span>","null","","","","resp_prompt","","","","","","","","","","","","","","","",""
"categorize-image","29","168641","0.0-2.0-2.0-1.9","zpqd2k9cw1o9rnp","practice_no_cue","5e282e43266894a3e79a6eaa","5f60e3c0a3b16e07647b2ff9","5f63803a1cb28306146179d6","true","804.2600000044331","./Stimuli/ImagesPractice/LN72.jpg","76","","","","test","true","M + N","76","","LN","LN72.jpg","remember","old","10","1","start","right","","","",""
"html-keyboard-response","30","169343","0.0-2.0-2.0-0.10","zpqd2k9cw1o9rnp","practice_no_cue","5e282e43266894a3e79a6eaa","5f60e3c0a3b16e07647b2ff9","5f63803a1cb28306146179d6","false","null","<span style=""color: black; font-size: 48px"">M + N</span>","null","","","","resp_prompt","","","","","","","","","","","","","","","",""
"categorize-image","31","170612","0.0-2.0-2.0-1.10","zpqd2k9cw1o9rnp","practice_no_cue","5e282e43266894a3e79a6eaa","5f60e3c0a3b16e07647b2ff9","5f63803a1cb28306146179d6","true","761.5200000000186","./Stimuli/ImagesPractice/SM37.jpg","76","","","","test","false","M + N","83","","SM","SM37.jpg","remember","old","11","1","start","right","","","",""
"html-keyboard-response","32","171323","0.0-2.0-2.0-0.11","zpqd2k9cw1o9rnp","practice_no_cue","5e282e43266894a3e79a6eaa","5f60e3c0a3b16e07647b2ff9","5f63803a1cb28306146179d6","false","null","<span style=""color: black; font-size: 48px"">N + M</span>","null","","","","resp_prompt","","","","","","","","","","","","","","","",""
"categorize-image","33","172935","0.0-2.0-2.0-1.11","zpqd2k9cw1o9rnp","practice_no_cue","5e282e43266894a3e79a6eaa","5f60e3c0a3b16e07647b2ff9","5f63803a1cb28306146179d6","true","1096.7100000125356","./Stimuli/ImagesPractice/LM147.jpg","83","","","","test","false","N + M","76","","LM","LM147.jpg","remember","old","12","1","start","left","","","",""
"html-keyboard-response","34","173647","0.0-2.0-2.0-0.12","zpqd2k9cw1o9rnp","practice_no_cue","5e282e43266894a3e79a6eaa","5f60e3c0a3b16e07647b2ff9","5f63803a1cb28306146179d6","false","null","<span style=""color: black; font-size: 48px"">M + N</span>","null","","","","resp_prompt","","","","","","","","","","","","","","","",""
"categorize-image","35","175138","0.0-2.0-2.0-1.12","zpqd2k9cw1o9rnp","practice_no_cue","5e282e43266894a3e79a6eaa","5f60e3c0a3b16e07647b2ff9","5f63803a1cb28306146179d6","true","978.2750000013039","./Stimuli/ImagesPractice/SM61.jpg","83","","","","test","true","M + N","83","","SM","SM61.jpg","forget","old","13","1","start","left","","","",""
"html-keyboard-response","36","175839","0.0-2.0-2.0-0.13","zpqd2k9cw1o9rnp","practice_no_cue","5e282e43266894a3e79a6eaa","5f60e3c0a3b16e07647b2ff9","5f63803a1cb28306146179d6","false","null","<span style=""color: black; font-size: 48px"">N + M</span>","null","","","","resp_prompt","","","","","","","","","","","","","","","",""
"categorize-image","37","177331","0.0-2.0-2.0-1.13","zpqd2k9cw1o9rnp","practice_no_cue","5e282e43266894a3e79a6eaa","5f60e3c0a3b16e07647b2ff9","5f63803a1cb28306146179d6","true","984.9750000284985","./Stimuli/ImagesPractice/LM55.jpg","76","","","","test","true","N + M","76","","LM","LM55.jpg","forget","old","14","1","start","right","","","",""
"html-keyboard-response","38","178043","0.0-2.0-2.0-0.14","zpqd2k9cw1o9rnp","practice_no_cue","5e282e43266894a3e79a6eaa","5f60e3c0a3b16e07647b2ff9","5f63803a1cb28306146179d6","false","null","<span style=""color: black; font-size: 48px"">N + M</span>","null","","","","resp_prompt","","","","","","","","","","","","","","","",""
"categorize-image","39","179658","0.0-2.0-2.0-1.14","zpqd2k9cw1o9rnp","practice_no_cue","5e282e43266894a3e79a6eaa","5f60e3c0a3b16e07647b2ff9","5f63803a1cb28306146179d6","true","1109.0949999634176","./Stimuli/ImagesPractice/SN222.jpg","83","","","","test","true","N + M","83","","SN","SN222.jpg","remember","old","15","1","start","left","","","",""
"html-keyboard-response","40","180373","0.0-2.0-2.0-0.15","zpqd2k9cw1o9rnp","practice_no_cue","5e282e43266894a3e79a6eaa","5f60e3c0a3b16e07647b2ff9","5f63803a1cb28306146179d6","false","null","<span style=""color: black; font-size: 48px"">N + M</span>","null","","","","resp_prompt","","","","","","","","","","","","","","","",""
"categorize-image","41","181492","0.0-2.0-2.0-1.15","zpqd2k9cw1o9rnp","practice_no_cue","5e282e43266894a3e79a6eaa","5f60e3c0a3b16e07647b2ff9","5f63803a1cb28306146179d6","true","613.0499999853782","./Stimuli/ImagesPractice/SN76.jpg","83","","","","test","true","N + M","83","","SN","SN76.jpg","forget","old","16","1","start","left","","","",""
"html-keyboard-response","42","188194","0.0-2.0-3.0","zpqd2k9cw1o9rnp","break","5e282e43266894a3e79a6eaa","5f60e3c0a3b16e07647b2ff9","5f63803a1cb28306146179d6","false","6700.364999996964","<p style='font-size: 32px;'>Break</><br><br><br><br><br><p style='font-size: 24px;'>In the last block, you committed 3 errors and did not respond in time on 0 trials.
</p><p style='font-size: 24px;'>Try to respond as fast and accurately as possible in the next block as well! </p><p style='font-size: 24px;'>Press SPACE to continue.</p>","32","","","","","","","","","","","","","","","","","","","",""
"html-keyboard-response","43","191427","0.0-2.0-4.0","zpqd2k9cw1o9rnp","instructions","5e282e43266894a3e79a6eaa","5f60e3c0a3b16e07647b2ff9","5f63803a1cb28306146179d6","false","3231.984999962151","<div align=left> Great!<br><br>Are you ready to continue?<br><br>If you want to reread the instructions and redo the practice trials, <br>please press „Z“. <br><br>Press SPACE to CONTINUE with the experiment when you are ready. </div>","32","","","","","","","","","","","","","","","","","","","",""
"html-keyboard-response","44","232513","0.0-3.0-0.0","zpqd2k9cw1o9rnp","instructions","5e282e43266894a3e79a6eaa","5f60e3c0a3b16e07647b2ff9","5f63803a1cb28306146179d6","false","41085.51000000443","<div align=left>Great!<br> <strong>Attention</strong>! You will now receive a second, additional task! <br><br>To this point it was you <strong>first task</strong> to correctly <strong>classify objects</strong>. <br><br>As mentioned in the beginning, we aim to examine how well humans can remember previously learned information.<br>We would like to find out whether our memory improves if we only remember information that is relevant to us. <br><br>Therefore, your <strong>second task</strong> will be to <strong>remember</strong> the pictures you are to categorize. <br> After the learning phase, there will be a memory test phase, in which you will be asked to indicate whether you have seen a picture before or not. <br>Some, but not all pictures shown in the learning phase will appear in the memory test phase.<br>After classifying a picture, you will be told whether you should remember it for the memory test phase or not. <br>Thus, some pictures can be forgotten, whereas others have to be remembered. <br><br>Note: From now on, feedback will only be displayed if you responded incorrectly or not in time.<br><br>Press SPACE to continue.</div>","32","","","","","","","","","","","","","","","","","","","",""
"html-keyboard-response","45","250497","0.0-3.0-1.0","zpqd2k9cw1o9rnp","instructions","5e282e43266894a3e79a6eaa","5f60e3c0a3b16e07647b2ff9","5f63803a1cb28306146179d6","false","17982.654999999795","<div align=left>In the following part, you will thus have to remember only some pictures. <br>Immediately after seeing and classifying the picture, a symbol will be displayed, indicating whether you should remember or forget the previous picture. <br><br>A <span style='color: dodgerblue; font-size: 28px'>O</span> indicates REMEMBER. That means, you have to remember this picture, because it will be tested later. <br><br>A <span style='color: darkorange; font-size:28px'>Ø</span> indicates FORGET. You do not have to remember this picture. <br><br> As you will have to remember a lot of pictures, it will be hard for you to remember all of them. <br>It will put you at an advantage if you instantly forget the pictures you are not asked to remember. <br> This will make it easier for you to remember the pictures that will be tested afterwards. <br><br>Press SPACE to continue.</div>","32","","","","","","","","","","","","","","","","","","","",""
"html-keyboard-response","46","253687","0.0-3.0-2.0","zpqd2k9cw1o9rnp","instructions","5e282e43266894a3e79a6eaa","5f60e3c0a3b16e07647b2ff9","5f63803a1cb28306146179d6","false","3188.819999981206","<div align=left> Now you have the chance to practice both tasks together.<br><br>Remember: <br> <br><li>Please place your index fingers on the <strong>'S'</strong> and <strong>'L'</strong> keys <br>to respond as fast and accurately as possible.</li><li>Every picture can be classified as either mechanical or non-mechanical.</li><li>If you do not respond in time or commit an error, you will receive a corresponding feedback. <br>Please try to respond as <strong> fast </strong> and as <strong> accurately as possible </strong>.</li><li> Please remember only the to-be-remembered <span style='color: dodgerblue; font-size: 28px'>O</span> pictures. <br></li><li> Please minimize distractions and stay focused. </li><br><br>Press SPACE to START</div>","32","","","","","","","","","","","","","","","","","","","",""
"html-keyboard-response","47","254391","0.0-3.0-3.0-0.0","zpqd2k9cw1o9rnp","practice_cue","5e282e43266894a3e79a6eaa","5f60e3c0a3b16e07647b2ff9","5f63803a1cb28306146179d6","false","null","<span style=""color: black; font-size: 48px"">M + N</span>","null","","","","resp_prompt","","","","","","","","","","","","","","","",""
"categorize-image","48","255068","0.0-3.0-3.0-1.0","zpqd2k9cw1o9rnp","practice_cue","5e282e43266894a3e79a6eaa","5f60e3c0a3b16e07647b2ff9","5f63803a1cb28306146179d6","true","673.9850000012666","./Stimuli/ImagesPractice/SN220.jpg","76","","","","test","true","M + N","76","","SN","SN220.jpg","forget","old","17","2","practice_forget","right","","","",""
"html-keyboard-response","49","257072","0.0-3.0-3.0-3.0","zpqd2k9cw1o9rnp","practice_cue","5e282e43266894a3e79a6eaa","5f60e3c0a3b16e07647b2ff9","5f63803a1cb28306146179d6","false","null","<div style=""align-items: center; display: flex; color: darkorange; font-size: 90px""><b>ø</b></div>","null","","","","forget_cue","","","","","","","","","","","","","","","",""
"html-keyboard-response","50","257774","0.0-3.0-3.0-0.1","zpqd2k9cw1o9rnp","practice_cue","5e282e43266894a3e79a6eaa","5f60e3c0a3b16e07647b2ff9","5f63803a1cb28306146179d6","false","null","<span style=""color: black; font-size: 48px"">N + M</span>","null","","","","resp_prompt","","","","","","","","","","","","","","","",""
"categorize-image","51","258765","0.0-3.0-3.0-1.1","zpqd2k9cw1o9rnp","practice_cue","5e282e43266894a3e79a6eaa","5f60e3c0a3b16e07647b2ff9","5f63803a1cb28306146179d6","true","987.9800000344403","./Stimuli/ImagesPractice/LM143.jpg","76","","","","test","true","N + M","76","","LM","LM143.jpg","forget","old","18","2","practice_forget","right","","","",""
"html-keyboard-response","52","260773","0.0-3.0-3.0-3.1","zpqd2k9cw1o9rnp","practice_cue","5e282e43266894a3e79a6eaa","5f60e3c0a3b16e07647b2ff9","5f63803a1cb28306146179d6","false","null","<div style=""align-items: center; display: flex; color: darkorange; font-size: 90px""><b>ø</b></div>","null","","","","forget_cue","","","","","","","","","","","","","","","",""
"html-keyboard-response","53","261474","0.0-3.0-3.0-0.2","zpqd2k9cw1o9rnp","practice_cue","5e282e43266894a3e79a6eaa","5f60e3c0a3b16e07647b2ff9","5f63803a1cb28306146179d6","false","null","<span style=""color: black; font-size: 48px"">M + N</span>","null","","","","resp_prompt","","","","","","","","","","","","","","","",""
"categorize-image","54","262185","0.0-3.0-3.0-1.2","zpqd2k9cw1o9rnp","practice_cue","5e282e43266894a3e79a6eaa","5f60e3c0a3b16e07647b2ff9","5f63803a1cb28306146179d6","true","708.2550000050105","./Stimuli/ImagesPractice/LM230.jpg","83","","","","test","true","M + N","83","","LM","LM230.jpg","forget","old","19","2","practice_forget","left","","","",""
"html-keyboard-response","55","264196","0.0-3.0-3.0-3.2","zpqd2k9cw1o9rnp","practice_cue","5e282e43266894a3e79a6eaa","5f60e3c0a3b16e07647b2ff9","5f63803a1cb28306146179d6","false","null","<div style=""align-items: center; display: flex; color: darkorange; font-size: 90px""><b>ø</b></div>","null","","","","forget_cue","","","","","","","","","","","","","","","",""
"html-keyboard-response","56","264908","0.0-3.0-3.0-0.3","zpqd2k9cw1o9rnp","practice_cue","5e282e43266894a3e79a6eaa","5f60e3c0a3b16e07647b2ff9","5f63803a1cb28306146179d6","false","null","<span style=""color: black; font-size: 48px"">N + M</span>","null","","","","resp_prompt","","","","","","","","","","","","","","","",""
"categorize-image","57","266088","0.0-3.0-3.0-1.3","zpqd2k9cw1o9rnp","practice_cue","5e282e43266894a3e79a6eaa","5f60e3c0a3b16e07647b2ff9","5f63803a1cb28306146179d6","true","1177.8749999939464","./Stimuli/ImagesPractice/LN109.jpg","83","","","","test","true","N + M","83","","LN","LN109.jpg","forget","old","20","2","practice_forget","left","","","",""
"html-keyboard-response","58","268101","0.0-3.0-3.0-3.3","zpqd2k9cw1o9rnp","practice_cue","5e282e43266894a3e79a6eaa","5f60e3c0a3b16e07647b2ff9","5f63803a1cb28306146179d6","false","null","<div style=""align-items: center; display: flex; color: darkorange; font-size: 90px""><b>ø</b></div>","null","","","","forget_cue","","","","","","","","","","","","","","","",""
"html-keyboard-response","59","268811","0.0-3.0-3.0-0.4","zpqd2k9cw1o9rnp","practice_cue","5e282e43266894a3e79a6eaa","5f60e3c0a3b16e07647b2ff9","5f63803a1cb28306146179d6","false","null","<span style=""color: black; font-size: 48px"">N + M</span>","null","","","","resp_prompt","","","","","","","","","","","","","","","",""
"categorize-image","60","269378","0.0-3.0-3.0-1.4","zpqd2k9cw1o9rnp","practice_cue","5e282e43266894a3e79a6eaa","5f60e3c0a3b16e07647b2ff9","5f63803a1cb28306146179d6","true","563.9099999680184","./Stimuli/ImagesPractice/LM147.jpg","76","","","","test","true","N + M","76","","LM","LM147.jpg","remember","old","21","2","practice_forget","right","","","",""
"html-keyboard-response","61","271379","0.0-3.0-3.0-3.4","zpqd2k9cw1o9rnp","practice_cue","5e282e43266894a3e79a6eaa","5f60e3c0a3b16e07647b2ff9","5f63803a1cb28306146179d6","false","null","<div style=""align-items: center; display: flex; color: dodgerblue; font-size: 90px""><b>o</b></div>","null","","","","forget_cue","","","","","","","","","","","","","","","",""
"html-keyboard-response","62","272080","0.0-3.0-3.0-0.5","zpqd2k9cw1o9rnp","practice_cue","5e282e43266894a3e79a6eaa","5f60e3c0a3b16e07647b2ff9","5f63803a1cb28306146179d6","false","null","<span style=""color: black; font-size: 48px"">M + N</span>","null","","","","resp_prompt","","","","","","","","","","","","","","","",""
"categorize-image","63","273033","0.0-3.0-3.0-1.5","zpqd2k9cw1o9rnp","practice_cue","5e282e43266894a3e79a6eaa","5f60e3c0a3b16e07647b2ff9","5f63803a1cb28306146179d6","true","949.8850000090897","./Stimuli/ImagesPractice/SM37.jpg","83","","","","test","true","M + N","83","","SM","SM37.jpg","remember","old","22","2","practice_forget","left","","","",""
"html-keyboard-response","64","275039","0.0-3.0-3.0-3.5","zpqd2k9cw1o9rnp","practice_cue","5e282e43266894a3e79a6eaa","5f60e3c0a3b16e07647b2ff9","5f63803a1cb28306146179d6","false","null","<div style=""align-items: center; display: flex; color: dodgerblue; font-size: 90px""><b>o</b></div>","null","","","","forget_cue","","","","","","","","","","","","","","","",""
"html-keyboard-response","65","275750","0.0-3.0-3.0-0.6","zpqd2k9cw1o9rnp","practice_cue","5e282e43266894a3e79a6eaa","5f60e3c0a3b16e07647b2ff9","5f63803a1cb28306146179d6","false","null","<span style=""color: black; font-size: 48px"">M + N</span>","null","","","","resp_prompt","","","","","","","","","","","","","","","",""
"categorize-image","66","276246","0.0-3.0-3.0-1.6","zpqd2k9cw1o9rnp","practice_cue","5e282e43266894a3e79a6eaa","5f60e3c0a3b16e07647b2ff9","5f63803a1cb28306146179d6","true","493.8599999877624","./Stimuli/ImagesPractice/LN2.jpg","76","","","","test","true","M + N","76","","LN","LN2.jpg","remember","old","23","2","practice_forget","right","","","",""
"html-keyboard-response","67","278250","0.0-3.0-3.0-3.6","zpqd2k9cw1o9rnp","practice_cue","5e282e43266894a3e79a6eaa","5f60e3c0a3b16e07647b2ff9","5f63803a1cb28306146179d6","false","null","<div style=""align-items: center; display: flex; color: dodgerblue; font-size: 90px""><b>o</b></div>","null","","","","forget_cue","","","","","","","","","","","","","","","",""
"html-keyboard-response","68","278960","0.0-3.0-3.0-0.7","zpqd2k9cw1o9rnp","practice_cue","5e282e43266894a3e79a6eaa","5f60e3c0a3b16e07647b2ff9","5f63803a1cb28306146179d6","false","null","<span style=""color: black; font-size: 48px"">N + M</span>","null","","","","resp_prompt","","","","","","","","","","","","","","","",""
"categorize-image","69","279952","0.0-3.0-3.0-1.7","zpqd2k9cw1o9rnp","practice_cue","5e282e43266894a3e79a6eaa","5f60e3c0a3b16e07647b2ff9","5f63803a1cb28306146179d6","true","990.0550000020303","./Stimuli/ImagesPractice/SN76.jpg","76","","","","test","false","N + M","83","","SN","SN76.jpg","forget","old","24","2","practice_forget","right","","","",""
"html-keyboard-response","70","280468","0.0-3.0-3.0-2.7-0.7","zpqd2k9cw1o9rnp","practice_cue","5e282e43266894a3e79a6eaa","5f60e3c0a3b16e07647b2ff9","5f63803a1cb28306146179d6","false","null","<span style=""color: red; font-size: 48px"">Error!</span>","null","","","","feedback","","","","","","","","","","","","","","","",""
"html-keyboard-response","71","282479","0.0-3.0-3.0-3.7","zpqd2k9cw1o9rnp","practice_cue","5e282e43266894a3e79a6eaa","5f60e3c0a3b16e07647b2ff9","5f63803a1cb28306146179d6","false","null","<div style=""align-items: center; display: flex; color: darkorange; font-size: 90px""><b>ø</b></div>","null","","","","forget_cue","","","","","","","","","","","","","","","",""
"html-keyboard-response","72","283192","0.0-3.0-3.0-0.8","zpqd2k9cw1o9rnp","practice_cue","5e282e43266894a3e79a6eaa","5f60e3c0a3b16e07647b2ff9","5f63803a1cb28306146179d6","false","null","<span style=""color: black; font-size: 48px"">M + N</span>","null","","","","resp_prompt","","","","","","","","","","","","","","","",""
"categorize-image","73","283742","0.0-3.0-3.0-1.8","zpqd2k9cw1o9rnp","practice_cue","5e282e43266894a3e79a6eaa","5f60e3c0a3b16e07647b2ff9","5f63803a1cb28306146179d6","true","547.275000018999","./Stimuli/ImagesPractice/SM61.jpg","83","","","","test","true","M + N","83","","SM","SM61.jpg","forget","old","25","2","practice_forget","left","","","",""
"html-keyboard-response","74","285750","0.0-3.0-3.0-3.8","zpqd2k9cw1o9rnp","practice_cue","5e282e43266894a3e79a6eaa","5f60e3c0a3b16e07647b2ff9","5f63803a1cb28306146179d6","false","null","<div style=""align-items: center; display: flex; color: darkorange; font-size: 90px""><b>ø</b></div>","null","","","","forget_cue","","","","","","","","","","","","","","","",""
"html-keyboard-response","75","286451","0.0-3.0-3.0-0.9","zpqd2k9cw1o9rnp","practice_cue","5e282e43266894a3e79a6eaa","5f60e3c0a3b16e07647b2ff9","5f63803a1cb28306146179d6","false","null","<span style=""color: black; font-size: 48px"">N + M</span>","null","","","","resp_prompt","","","","","","","","","","","","","","","",""
"categorize-image","76","287320","0.0-3.0-3.0-1.9","zpqd2k9cw1o9rnp","practice_cue","5e282e43266894a3e79a6eaa","5f60e3c0a3b16e07647b2ff9","5f63803a1cb28306146179d6","true","864.2250000266358","./Stimuli/ImagesPractice/LM55.jpg","76","","","","test","true","N + M","76","","LM","LM55.jpg","forget","old","26","2","practice_forget","right","","","",""
"html-keyboard-response","77","289330","0.0-3.0-3.0-3.9","zpqd2k9cw1o9rnp","practice_cue","5e282e43266894a3e79a6eaa","5f60e3c0a3b16e07647b2ff9","5f63803a1cb28306146179d6","false","null","<div style=""align-items: center; display: flex; color: darkorange; font-size: 90px""><b>ø</b></div>","null","","","","forget_cue","","","","","","","","","","","","","","","",""
"html-keyboard-response","78","290039","0.0-3.0-3.0-0.10","zpqd2k9cw1o9rnp","practice_cue","5e282e43266894a3e79a6eaa","5f60e3c0a3b16e07647b2ff9","5f63803a1cb28306146179d6","false","null","<span style=""color: black; font-size: 48px"">M + N</span>","null","","","","resp_prompt","","","","","","","","","","","","","","","",""
"categorize-image","79","290956","0.0-3.0-3.0-1.10","zpqd2k9cw1o9rnp","practice_cue","5e282e43266894a3e79a6eaa","5f60e3c0a3b16e07647b2ff9","5f63803a1cb28306146179d6","true","914.2399999545887","./Stimuli/ImagesPractice/LN72.jpg","76","","","","test","true","M + N","76","","LN","LN72.jpg","remember","old","27","2","practice_forget","right","","","",""
"html-keyboard-response","80","292965","0.0-3.0-3.0-3.10","zpqd2k9cw1o9rnp","practice_cue","5e282e43266894a3e79a6eaa","5f60e3c0a3b16e07647b2ff9","5f63803a1cb28306146179d6","false","null","<div style=""align-items: center; display: flex; color: dodgerblue; font-size: 90px""><b>o</b></div>","null","","","","forget_cue","","","","","","","","","","","","","","","",""
"html-keyboard-response","81","293685","0.0-3.0-3.0-0.11","zpqd2k9cw1o9rnp","practice_cue","5e282e43266894a3e79a6eaa","5f60e3c0a3b16e07647b2ff9","5f63803a1cb28306146179d6","false","null","<span style=""color: black; font-size: 48px"">N + M</span>","null","","","","resp_prompt","","","","","","","","","","","","","","","",""
"categorize-image","82","294225","0.0-3.0-3.0-1.11","zpqd2k9cw1o9rnp","practice_cue","5e282e43266894a3e79a6eaa","5f60e3c0a3b16e07647b2ff9","5f63803a1cb28306146179d6","true","537.0500000426546","./Stimuli/ImagesPractice/SN221.jpg","83","","","","test","true","N + M","83","","SN","SN221.jpg","remember","old","28","2","practice_forget","left","","","",""
"html-keyboard-response","83","296241","0.0-3.0-3.0-3.11","zpqd2k9cw1o9rnp","practice_cue","5e282e43266894a3e79a6eaa","5f60e3c0a3b16e07647b2ff9","5f63803a1cb28306146179d6","false","null","<div style=""align-items: center; display: flex; color: dodgerblue; font-size: 90px""><b>o</b></div>","null","","","","forget_cue","","","","","","","","","","","","","","","",""
"html-keyboard-response","84","296957","0.0-3.0-3.0-0.12","zpqd2k9cw1o9rnp","practice_cue","5e282e43266894a3e79a6eaa","5f60e3c0a3b16e07647b2ff9","5f63803a1cb28306146179d6","false","null","<span style=""color: black; font-size: 48px"">M + N</span>","null","","","","resp_prompt","","","","","","","","","","","","","","","",""
"categorize-image","85","297626","0.0-3.0-3.0-1.12","zpqd2k9cw1o9rnp","practice_cue","5e282e43266894a3e79a6eaa","5f60e3c0a3b16e07647b2ff9","5f63803a1cb28306146179d6","true","666.0050000064075","./Stimuli/ImagesPractice/LM239.jpg","83","","","","test","true","M + N","83","","LM","LM239.jpg","forget","old","29","2","practice_forget","left","","","",""
"html-keyboard-response","86","299630","0.0-3.0-3.0-3.12","zpqd2k9cw1o9rnp","practice_cue","5e282e43266894a3e79a6eaa","5f60e3c0a3b16e07647b2ff9","5f63803a1cb28306146179d6","false","null","<div style=""align-items: center; display: flex; color: darkorange; font-size: 90px""><b>ø</b></div>","null","","","","forget_cue","","","","","","","","","","","","","","","",""
"html-keyboard-response","87","300331","0.0-3.0-3.0-0.13","zpqd2k9cw1o9rnp","practice_cue","5e282e43266894a3e79a6eaa","5f60e3c0a3b16e07647b2ff9","5f63803a1cb28306146179d6","false","null","<span style=""color: black; font-size: 48px"">N + M</span>","null","","","","resp_prompt","","","","","","","","","","","","","","","",""
"categorize-image","88","300962","0.0-3.0-3.0-1.13","zpqd2k9cw1o9rnp","practice_cue","5e282e43266894a3e79a6eaa","5f60e3c0a3b16e07647b2ff9","5f63803a1cb28306146179d6","true","628.6349999718368","./Stimuli/ImagesPractice/SM98.jpg","76","","","","test","true","N + M","76","","SM","SM98.jpg","remember","old","30","2","practice_forget","right","","","",""
"html-keyboard-response","89","302964","0.0-3.0-3.0-3.13","zpqd2k9cw1o9rnp","practice_cue","5e282e43266894a3e79a6eaa","5f60e3c0a3b16e07647b2ff9","5f63803a1cb28306146179d6","false","null","<div style=""align-items: center; display: flex; color: dodgerblue; font-size: 90px""><b>o</b></div>","null","","","","forget_cue","","","","","","","","","","","","","","","",""
"html-keyboard-response","90","303680","0.0-3.0-3.0-0.14","zpqd2k9cw1o9rnp","practice_cue","5e282e43266894a3e79a6eaa","5f60e3c0a3b16e07647b2ff9","5f63803a1cb28306146179d6","false","null","<span style=""color: black; font-size: 48px"">N + M</span>","null","","","","resp_prompt","","","","","","","","","","","","","","","",""
"categorize-image","91","304468","0.0-3.0-3.0-1.14","zpqd2k9cw1o9rnp","practice_cue","5e282e43266894a3e79a6eaa","5f60e3c0a3b16e07647b2ff9","5f63803a1cb28306146179d6","true","785.0900000194088","./Stimuli/ImagesPractice/SN222.jpg","83","","","","test","true","N + M","83","","SN","SN222.jpg","remember","old","31","2","practice_forget","left","","","",""
"html-keyboard-response","92","306474","0.0-3.0-3.0-3.14","zpqd2k9cw1o9rnp","practice_cue","5e282e43266894a3e79a6eaa","5f60e3c0a3b16e07647b2ff9","5f63803a1cb28306146179d6","false","null","<div style=""align-items: center; display: flex; color: dodgerblue; font-size: 90px""><b>o</b></div>","null","","","","forget_cue","","","","","","","","","","","","","","","",""
"html-keyboard-response","93","307190","0.0-3.0-3.0-0.15","zpqd2k9cw1o9rnp","practice_cue","5e282e43266894a3e79a6eaa","5f60e3c0a3b16e07647b2ff9","5f63803a1cb28306146179d6","false","null","<span style=""color: black; font-size: 48px"">M + N</span>","null","","","","resp_prompt","","","","","","","","","","","","","","","",""
"categorize-image","94","307808","0.0-3.0-3.0-1.15","zpqd2k9cw1o9rnp","practice_cue","5e282e43266894a3e79a6eaa","5f60e3c0a3b16e07647b2ff9","5f63803a1cb28306146179d6","true","615.4150000074878","./Stimuli/ImagesPractice/LN4.jpg","76","","","","test","true","M + N","76","","LN","LN4.jpg","remember","old","32","2","practice_forget","right","","","",""
"html-keyboard-response","95","309812","0.0-3.0-3.0-3.15","zpqd2k9cw1o9rnp","practice_cue","5e282e43266894a3e79a6eaa","5f60e3c0a3b16e07647b2ff9","5f63803a1cb28306146179d6","false","null","<div style=""align-items: center; display: flex; color: dodgerblue; font-size: 90px""><b>o</b></div>","null","","","","forget_cue","","","","","","","","","","","","","","","",""
"html-keyboard-response","96","337247","0.0-3.0-4.0","zpqd2k9cw1o9rnp","break","5e282e43266894a3e79a6eaa","5f60e3c0a3b16e07647b2ff9","5f63803a1cb28306146179d6","false","27434.079999977257","<p style='font-size: 32px;'>Break</><br><br><br><br><br><p style='font-size: 24px;'>In the last block, you committed 1 errors and did not respond in time on 0 trials.
</p><p style='font-size: 24px;'>Try to respond as fast and accurately as possible in the next block as well! </p><p style='font-size: 24px;'>Press SPACE to continue.</p>","32","","","","","","","","","","","","","","","","","","","",""
"html-keyboard-response","97","340094","0.0-3.0-5.0","zpqd2k9cw1o9rnp","instructions","5e282e43266894a3e79a6eaa","5f60e3c0a3b16e07647b2ff9","5f63803a1cb28306146179d6","false","2845.8499999833293","<div align=left> Now, to practice, we kindly ask you to remember as many of the to-be-remembered pictures<br>of the previous learning phase as possible.<br><br>The pictures you were instructed to remember were the pictures followed by a <span style='color: dodgerblue; font-size: 28px'>O</span>.<br><br>In this memory test phase, you will also see some new pictures.<br>It is your task to remember whether you were presented with this specific picture in this study so far or not.<br>If you recognize an object (you have already seen it in this study), it is an OLD object. <br>If you do not recognize an object (you have NOT seen it in this study), it is a NEW object. <br><strong> Attention</strong>: As already mentioned, <span style='color: darkorange; font-size:28px'>Ø</span>-pictures will <strong>never</strong> appear in this memory test (neither as new objects). <br><br>Press SPACE to continue. </div>","32","","","","","","","","","","","","","","","","","","","",""
"html-keyboard-response","98","372421","0.0-3.0-6.0","zpqd2k9cw1o9rnp","instructions","5e282e43266894a3e79a6eaa","5f60e3c0a3b16e07647b2ff9","5f63803a1cb28306146179d6","false","32326.135000039358","<div align=left> M and N no longer will appear on the left/right of the fixation cross. <br>Instead there will be a note at the bottom of the left or right side  <br>indicating which key you should press for an old or new object:  <br> <br>Press the <strong>right</strong> key to classify an object as <strong>old</strong> and press the <strong>left</strong>, to classify an object as <strong>new</strong>.<br>Please classify the objects as new/old by again placing your index finger on the 'S' and 'L' keys <br>and press them accordingly.<br><br><strong>Old:</strong> This object has been presented before. <br><strong>New:</strong> This object has <strong>not</strong> been presented.<br><br>Now please put your right and left index fingers on the 'S' and 'L' keys of your keyboard. <br>Please respond as fast and as accurately as possible!<br><br>Press SPACE to continue. </div>","32","","","","","","","","","","","","","","","","","","","",""
"categorize-image","99","374971","0.0-3.0-7.0-0.0","zpqd2k9cw1o9rnp","practice_recog","5e282e43266894a3e79a6eaa","5f60e3c0a3b16e07647b2ff9","5f63803a1cb28306146179d6","true","2041.8250000220723","./Stimuli/ImagesPractice/SM98.jpg","76","","","","test","false","","83","","SM","SM98.jpg","","old","33","3","practice_recog","right","","","",""
"categorize-image","100","376929","0.0-3.0-7.0-0.1","zpqd2k9cw1o9rnp","practice_recog","5e282e43266894a3e79a6eaa","5f60e3c0a3b16e07647b2ff9","5f63803a1cb28306146179d6","true","1443.9600000041537","./Stimuli/ImagesPractice/LN72.jpg","83","","","","test","true","","83","","LN","LN72.jpg","","old","34","3","practice_recog","left","","","",""
"categorize-image","101","379402","0.0-3.0-7.0-0.2","zpqd2k9cw1o9rnp","practice_recog","5e282e43266894a3e79a6eaa","5f60e3c0a3b16e07647b2ff9","5f63803a1cb28306146179d6","true","1959.8949999781325","./Stimuli/ImagesPractice/SN221.jpg","76","","","","test","false","","83","","SN","SN221.jpg","","old","35","3","practice_recog","right","","","",""
"categorize-image","102","381280","0.0-3.0-7.0-0.3","zpqd2k9cw1o9rnp","practice_recog","5e282e43266894a3e79a6eaa","5f60e3c0a3b16e07647b2ff9","5f63803a1cb28306146179d6","true","1361.1500000115484","./Stimuli/ImagesPractice/LM147.jpg","76","","","","test","false","","83","","LM","LM147.jpg","","old","36","3","practice_recog","right","","","",""
"categorize-image","103","383112","0.0-3.0-7.0-0.4","zpqd2k9cw1o9rnp","practice_recog","5e282e43266894a3e79a6eaa","5f60e3c0a3b16e07647b2ff9","5f63803a1cb28306146179d6","true","1330.2300000214018","./Stimuli/ImagesPractice/SM37.jpg","83","","","","test","true","","83","","SM","SM37.jpg","","old","37","3","practice_recog","left","","","",""
"categorize-image","104","384638","0.0-3.0-7.0-0.5","zpqd2k9cw1o9rnp","practice_recog","5e282e43266894a3e79a6eaa","5f60e3c0a3b16e07647b2ff9","5f63803a1cb28306146179d6","true","1016.910000005737","./Stimuli/ImagesPractice/LN4.jpg","83","","","","test","true","","83","","LN","LN4.jpg","","old","38","3","practice_recog","left","","","",""
"categorize-image","105","386001","0.0-3.0-7.0-0.6","zpqd2k9cw1o9rnp","practice_recog","5e282e43266894a3e79a6eaa","5f60e3c0a3b16e07647b2ff9","5f63803a1cb28306146179d6","true","846.9549999572337","./Stimuli/ImagesPractice/LM224.jpg","76","","","","test","true","","76","","LM","LM224.jpg","","new","39","3","practice_recog","right","","","",""
"categorize-image","106","387635","0.0-3.0-7.0-0.7","zpqd2k9cw1o9rnp","practice_recog","5e282e43266894a3e79a6eaa","5f60e3c0a3b16e07647b2ff9","5f63803a1cb28306146179d6","true","1118.1000000215136","./Stimuli/ImagesPractice/SM62.jpg","83","","","","test","false","","76","","SM","SM62.jpg","","new","40","3","practice_recog","left","","","",""
"categorize-image","107","388993","0.0-3.0-7.0-0.8","zpqd2k9cw1o9rnp","practice_recog","5e282e43266894a3e79a6eaa","5f60e3c0a3b16e07647b2ff9","5f63803a1cb28306146179d6","true","849.5549999643117","./Stimuli/ImagesPractice/LN17.jpg","83","","","","test","false","","76","","LN","LN17.jpg","","new","41","3","practice_recog","left","","","",""
"categorize-image","108","391706","0.0-3.0-7.0-0.9","zpqd2k9cw1o9rnp","practice_recog","5e282e43266894a3e79a6eaa","5f60e3c0a3b16e07647b2ff9","5f63803a1cb28306146179d6","true","2202.5500000454485","./Stimuli/ImagesPractice/SM97.jpg","76","","","","test","true","","76","","SM","SM97.jpg","","new","42","3","practice_recog","right","","","",""
"categorize-image","109","393022","0.0-3.0-7.0-0.10","zpqd2k9cw1o9rnp","practice_recog","5e282e43266894a3e79a6eaa","5f60e3c0a3b16e07647b2ff9","5f63803a1cb28306146179d6","true","808.0300000146963","./Stimuli/ImagesPractice/SN205.jpg","83","","","","test","false","","76","","SN","SN205.jpg","","new","43","3","practice_recog","left","","","",""
"categorize-image","110","395016","0.0-3.0-7.0-0.11","zpqd2k9cw1o9rnp","practice_recog","5e282e43266894a3e79a6eaa","5f60e3c0a3b16e07647b2ff9","5f63803a1cb28306146179d6","true","1491.6799999773502","./Stimuli/ImagesPractice/SM35.jpg","76","","","","test","true","","76","","SM","SM35.jpg","","new","44","3","practice_recog","right","","","",""
"categorize-image","111","396664","0.0-3.0-7.0-0.12","zpqd2k9cw1o9rnp","practice_recog","5e282e43266894a3e79a6eaa","5f60e3c0a3b16e07647b2ff9","5f63803a1cb28306146179d6","true","1143.5500000370666","./Stimuli/ImagesPractice/SN75.jpg","83","","","","test","false","","76","","SN","SN75.jpg","","new","45","3","practice_recog","left","","","",""
"categorize-image","112","398171","0.0-3.0-7.0-0.13","zpqd2k9cw1o9rnp","practice_recog","5e282e43266894a3e79a6eaa","5f60e3c0a3b16e07647b2ff9","5f63803a1cb28306146179d6","true","995.1749999891035","./Stimuli/ImagesPractice/SN222.jpg","83","","","","test","true","","83","","SN","SN222.jpg","","old","46","3","practice_recog","left","","","",""
"categorize-image","113","399547","0.0-3.0-7.0-0.14","zpqd2k9cw1o9rnp","practice_recog","5e282e43266894a3e79a6eaa","5f60e3c0a3b16e07647b2ff9","5f63803a1cb28306146179d6","true","870.3949999762699","./Stimuli/ImagesPractice/LN15.jpg","83","","","","test","false","","76","","LN","LN15.jpg","","new","47","3","practice_recog","left","","","",""
"categorize-image","114","402495","0.0-3.0-7.0-0.15","zpqd2k9cw1o9rnp","practice_recog","5e282e43266894a3e79a6eaa","5f60e3c0a3b16e07647b2ff9","5f63803a1cb28306146179d6","true","2440.4900000081398","./Stimuli/ImagesPractice/LN2.jpg","83","","","","test","true","","83","","LN","LN2.jpg","","old","48","3","practice_recog","left","","","",""
"html-keyboard-response","115","405393","0.0-3.0-8.0","zpqd2k9cw1o9rnp","instructions","5e282e43266894a3e79a6eaa","5f60e3c0a3b16e07647b2ff9","5f63803a1cb28306146179d6","false","2897.6849999744445","<div align=left> Great!<br><br>Are you ready to continue?<br>If you want to reread the instructions and redo the practice trials, please <br>press „Z“.<br><br>You can proceed when you are ready.<br><br>After the presentation of each object, you will receive an instruction whether to <br>remember or to forget the object.<br>We will test your memory of the following pictures only at the very end of <br>the experiment after all learning blocks are completed. <br><br>Press SPACE to CONTINUE when you are ready. </div>","32","","","","","","","","","","","","","","","","","","","",""
"html-keyboard-response","116","409106","0.0-4.0-0.0","zpqd2k9cw1o9rnp","instructions","5e282e43266894a3e79a6eaa","5f60e3c0a3b16e07647b2ff9","5f63803a1cb28306146179d6","false","3712.0149999973364","<div align=left> The actual experiment is about to start.<br>The practice trials are over!<br><br>Please always respond both fast and accurately!<br><br>Remember: <br> <br><li> Please place your index fingers on the <strong>'S'</strong> and <strong>'L'</strong> keys <br>to respond as fast and accurately as possible.</li><li> Every picture can be classified as either mechanical or non-mechanical.</li><li> If you do not respond in time or commit an error, you will receive a corresponding feedback.<br> Please try to respond as <strong> fast </strong> and as <strong> accurately as possible </strong>.</li><li> Remember the <span style='color: dodgerblue; font-size: 28px'>O</span> pictures. <br></li><li> Please minimize distractions and stay focused. </li><br><br>Press SPACE to START.</div>","32","","","","","","","","","","","","","","","","","","","",""
"html-keyboard-response","117","409819","0.0-4.0-1.0-0.0","zpqd2k9cw1o9rnp","prime","5e282e43266894a3e79a6eaa","5f60e3c0a3b16e07647b2ff9","5f63803a1cb28306146179d6","false","null","<span style=""color: black; font-size: 48px"">N + M</span>","null","","","","resp_prompt","","","","","","","","","","","","","","","",""
"categorize-image","118","411236","0.0-4.0-1.0-1.0","zpqd2k9cw1o9rnp","prime","5e282e43266894a3e79a6eaa","5f60e3c0a3b16e07647b2ff9","5f63803a1cb28306146179d6","true","1414.6600000094622","./Stimuli/SelectedImages/SM/SM24.bmp","76","","","","test","true","N + M","76","repetition","SM","SM24.bmp","remember","","49","3","prime1","right","","","",""
"html-keyboard-response","119","413249","0.0-4.0-1.0-3.0","zpqd2k9cw1o9rnp","prime","5e282e43266894a3e79a6eaa","5f60e3c0a3b16e07647b2ff9","5f63803a1cb28306146179d6","false","null","<div style=""align-items: center; display: flex; color: dodgerblue; font-size: 90px""><b>o</b></div>","null","","","","forget_cue","","","","","","","","","","","","","","","",""
"html-keyboard-response","120","413959","0.0-4.0-1.0-0.1","zpqd2k9cw1o9rnp","prime","5e282e43266894a3e79a6eaa","5f60e3c0a3b16e07647b2ff9","5f63803a1cb28306146179d6","false","null","<span style=""color: black; font-size: 48px"">N + M</span>","null","","","","resp_prompt","","","","","","","","","","","","","","","",""
"categorize-image","121","415222","0.0-4.0-1.0-1.1","zpqd2k9cw1o9rnp","prime","5e282e43266894a3e79a6eaa","5f60e3c0a3b16e07647b2ff9","5f63803a1cb28306146179d6","true","1260.275000007823","./Stimuli/SelectedImages/LN/LN131.bmp","83","","","","test","true","N + M","83","switch","LN","LN131.bmp","remember","","50","3","prime1","left","","","",""
"html-keyboard-response","122","417230","0.0-4.0-1.0-3.1","zpqd2k9cw1o9rnp","prime","5e282e43266894a3e79a6eaa","5f60e3c0a3b16e07647b2ff9","5f63803a1cb28306146179d6","false","null","<div style=""align-items: center; display: flex; color: dodgerblue; font-size: 90px""><b>o</b></div>","null","","","","forget_cue","","","","","","","","","","","","","","","",""
"html-keyboard-response","123","417932","0.0-4.0-1.0-0.2","zpqd2k9cw1o9rnp","prime","5e282e43266894a3e79a6eaa","5f60e3c0a3b16e07647b2ff9","5f63803a1cb28306146179d6","false","null","<span style=""color: black; font-size: 48px"">N + M</span>","null","","","","resp_prompt","","","","","","","","","","","","","","","",""
"categorize-image","124","418853","0.0-4.0-1.0-1.2","zpqd2k9cw1o9rnp","prime","5e282e43266894a3e79a6eaa","5f60e3c0a3b16e07647b2ff9","5f63803a1cb28306146179d6","true","917.9599999915808","./Stimuli/SelectedImages/LM/LM209.bmp","76","","","","test","true","N + M","76","switch","LM","LM209.bmp","remember","","51","3","prime1","right","","","",""
"html-keyboard-response","125","420866","0.0-4.0-1.0-3.2","zpqd2k9cw1o9rnp","prime","5e282e43266894a3e79a6eaa","5f60e3c0a3b16e07647b2ff9","5f63803a1cb28306146179d6","false","null","<div style=""align-items: center; display: flex; color: dodgerblue; font-size: 90px""><b>o</b></div>","null","","","","forget_cue","","","","","","","","","","","","","","","",""
"html-keyboard-response","126","421582","0.0-4.0-1.0-0.3","zpqd2k9cw1o9rnp","prime","5e282e43266894a3e79a6eaa","5f60e3c0a3b16e07647b2ff9","5f63803a1cb28306146179d6","false","null","<span style=""color: black; font-size: 48px"">N + M</span>","null","","","","resp_prompt","","","","","","","","","","","","","","","",""
"categorize-image","127","422388","0.0-4.0-1.0-1.3","zpqd2k9cw1o9rnp","prime","5e282e43266894a3e79a6eaa","5f60e3c0a3b16e07647b2ff9","5f63803a1cb28306146179d6","true","802.9650000389665","./Stimuli/SelectedImages/SM/SM108.bmp","76","","","","test","true","N + M","76","repetition","SM","SM108.bmp","forget","","52","3","prime1","right","","","",""
"html-keyboard-response","128","424396","0.0-4.0-1.0-3.3","zpqd2k9cw1o9rnp","prime","5e282e43266894a3e79a6eaa","5f60e3c0a3b16e07647b2ff9","5f63803a1cb28306146179d6","false","null","<div style=""align-items: center; display: flex; color: darkorange; font-size: 90px""><b>ø</b></div>","null","","","","forget_cue","","","","","","","","","","","","","","","",""
"html-keyboard-response","129","425111","0.0-4.0-1.0-0.4","zpqd2k9cw1o9rnp","prime","5e282e43266894a3e79a6eaa","5f60e3c0a3b16e07647b2ff9","5f63803a1cb28306146179d6","false","null","<span style=""color: black; font-size: 48px"">M + N</span>","null","","","","resp_prompt","","","","","","","","","","","","","","","",""
"categorize-image","130","425732","0.0-4.0-1.0-1.4","zpqd2k9cw1o9rnp","prime","5e282e43266894a3e79a6eaa","5f60e3c0a3b16e07647b2ff9","5f63803a1cb28306146179d6","true","618.2700000354089","./Stimuli/SelectedImages/LN/LN82.bmp","76","","","","test","true","M + N","76","repetition","LN","LN82.bmp","remember","","53","3","prime1","right","","","",""
"html-keyboard-response","131","427734","0.0-4.0-1.0-3.4","zpqd2k9cw1o9rnp","prime","5e282e43266894a3e79a6eaa","5f60e3c0a3b16e07647b2ff9","5f63803a1cb28306146179d6","false","null","<div style=""align-items: center; display: flex; color: dodgerblue; font-size: 90px""><b>o</b></div>","null","","","","forget_cue","","","","","","","","","","","","","","","",""
"html-keyboard-response","132","428436","0.0-4.0-1.0-0.5","zpqd2k9cw1o9rnp","prime","5e282e43266894a3e79a6eaa","5f60e3c0a3b16e07647b2ff9","5f63803a1cb28306146179d6","false","null","<span style=""color: black; font-size: 48px"">M + N</span>","null","","","","resp_prompt","","","","","","","","","","","","","","","",""
"categorize-image","133","428987","0.0-4.0-1.0-1.5","zpqd2k9cw1o9rnp","prime","5e282e43266894a3e79a6eaa","5f60e3c0a3b16e07647b2ff9","5f63803a1cb28306146179d6","true","548.1100000324659","./Stimuli/SelectedImages/LM/LM129.bmp","83","","","","test","true","M + N","83","repetition","LM","LM129.bmp","forget","","54","3","prime1","left","","","",""
"html-keyboard-response","134","430991","0.0-4.0-1.0-3.5","zpqd2k9cw1o9rnp","prime","5e282e43266894a3e79a6eaa","5f60e3c0a3b16e07647b2ff9","5f63803a1cb28306146179d6","false","null","<div style=""align-items: center; display: flex; color: darkorange; font-size: 90px""><b>ø</b></div>","null","","","","forget_cue","","","","","","","","","","","","","","","",""
"html-keyboard-response","135","431693","0.0-4.0-1.0-0.6","zpqd2k9cw1o9rnp","prime","5e282e43266894a3e79a6eaa","5f60e3c0a3b16e07647b2ff9","5f63803a1cb28306146179d6","false","null","<span style=""color: black; font-size: 48px"">M + N</span>","null","","","","resp_prompt","","","","","","","","","","","","","","","",""
"categorize-image","136","432376","0.0-4.0-1.0-1.6","zpqd2k9cw1o9rnp","prime","5e282e43266894a3e79a6eaa","5f60e3c0a3b16e07647b2ff9","5f63803a1cb28306146179d6","true","680.5649999878369","./Stimuli/SelectedImages/SM/SM205.bmp","83","","","","test","true","M + N","83","repetition","SM","SM205.bmp","remember","","55","3","prime1","left","","","",""
"html-keyboard-response","137","434386","0.0-4.0-1.0-3.6","zpqd2k9cw1o9rnp","prime","5e282e43266894a3e79a6eaa","5f60e3c0a3b16e07647b2ff9","5f63803a1cb28306146179d6","false","null","<div style=""align-items: center; display: flex; color: dodgerblue; font-size: 90px""><b>o</b></div>","null","","","","forget_cue","","","","","","","","","","","","","","","",""
"html-keyboard-response","138","435096","0.0-4.0-1.0-0.7","zpqd2k9cw1o9rnp","prime","5e282e43266894a3e79a6eaa","5f60e3c0a3b16e07647b2ff9","5f63803a1cb28306146179d6","false","null","<span style=""color: black; font-size: 48px"">M + N</span>","null","","","","resp_prompt","","","","","","","","","","","","","","","",""
"categorize-image","139","435714","0.0-4.0-1.0-1.7","zpqd2k9cw1o9rnp","prime","5e282e43266894a3e79a6eaa","5f60e3c0a3b16e07647b2ff9","5f63803a1cb28306146179d6","true","615.5750000034459","./Stimuli/SelectedImages/SN/SN18.bmp","76","","","","test","true","M + N","76","repetition","SN","SN18.bmp","forget","","56","3","prime1","right","","","",""
"html-keyboard-response","140","437723","0.0-4.0-1.0-3.7","zpqd2k9cw1o9rnp","prime","5e282e43266894a3e79a6eaa","5f60e3c0a3b16e07647b2ff9","5f63803a1cb28306146179d6","false","null","<div style=""align-items: center; display: flex; color: darkorange; font-size: 90px""><b>ø</b></div>","null","","","","forget_cue","","","","","","","","","","","","","","","",""
"html-keyboard-response","141","438424","0.0-4.0-1.0-0.8","zpqd2k9cw1o9rnp","prime","5e282e43266894a3e79a6eaa","5f60e3c0a3b16e07647b2ff9","5f63803a1cb28306146179d6","false","null","<span style=""color: black; font-size: 48px"">N + M</span>","null","","","","resp_prompt","","","","","","","","","","","","","","","",""
"categorize-image","142","439992","0.0-4.0-1.0-1.8","zpqd2k9cw1o9rnp","prime","5e282e43266894a3e79a6eaa","5f60e3c0a3b16e07647b2ff9","5f63803a1cb28306146179d6","true","1566.129999991972","./Stimuli/SelectedImages/LN/LN13.bmp","83","","","","test","true","N + M","83","switch","LN","LN13.bmp","forget","","57","3","prime1","left","","","",""
"html-keyboard-response","143","442003","0.0-4.0-1.0-3.8","zpqd2k9cw1o9rnp","prime","5e282e43266894a3e79a6eaa","5f60e3c0a3b16e07647b2ff9","5f63803a1cb28306146179d6","false","null","<div style=""align-items: center; display: flex; color: darkorange; font-size: 90px""><b>ø</b></div>","null","","","","forget_cue","","","","","","","","","","","","","","","",""
"html-keyboard-response","144","442704","0.0-4.0-1.0-0.9","zpqd2k9cw1o9rnp","prime","5e282e43266894a3e79a6eaa","5f60e3c0a3b16e07647b2ff9","5f63803a1cb28306146179d6","false","null","<span style=""color: black; font-size: 48px"">M + N</span>","null","","","","resp_prompt","","","","","","","","","","","","","","","",""
"categorize-image","145","443244","0.0-4.0-1.0-1.9","zpqd2k9cw1o9rnp","prime","5e282e43266894a3e79a6eaa","5f60e3c0a3b16e07647b2ff9","5f63803a1cb28306146179d6","true","537.6650000107475","./Stimuli/SelectedImages/LN/LN42.bmp","76","","","","test","true","M + N","76","repetition","LN","LN42.bmp","forget","","58","3","prime1","right","","","",""
"html-keyboard-response","146","445257","0.0-4.0-1.0-3.9","zpqd2k9cw1o9rnp","prime","5e282e43266894a3e79a6eaa","5f60e3c0a3b16e07647b2ff9","5f63803a1cb28306146179d6","false","null","<div style=""align-items: center; display: flex; color: darkorange; font-size: 90px""><b>ø</b></div>","null","","","","forget_cue","","","","","","","","","","","","","","","",""
"html-keyboard-response","147","445958","0.0-4.0-1.0-0.10","zpqd2k9cw1o9rnp","prime","5e282e43266894a3e79a6eaa","5f60e3c0a3b16e07647b2ff9","5f63803a1cb28306146179d6","false","null","<span style=""color: black; font-size: 48px"">N + M</span>","null","","","","resp_prompt","","","","","","","","","","","","","","","",""
"categorize-image","148","446762","0.0-4.0-1.0-1.10","zpqd2k9cw1o9rnp","prime","5e282e43266894a3e79a6eaa","5f60e3c0a3b16e07647b2ff9","5f63803a1cb28306146179d6","true","801.2400000006892","./Stimuli/SelectedImages/SM/SM74.bmp","76","","","","test","true","N + M","76","switch","SM","SM74.bmp","forget","","59","3","prime1","right","","","",""
"html-keyboard-response","149","448770","0.0-4.0-1.0-3.10","zpqd2k9cw1o9rnp","prime","5e282e43266894a3e79a6eaa","5f60e3c0a3b16e07647b2ff9","5f63803a1cb28306146179d6","false","null","<div style=""align-items: center; display: flex; color: darkorange; font-size: 90px""><b>ø</b></div>","null","","","","forget_cue","","","","","","","","","","","","","","","",""
"html-keyboard-response","150","449471","0.0-4.0-1.0-0.11","zpqd2k9cw1o9rnp","prime","5e282e43266894a3e79a6eaa","5f60e3c0a3b16e07647b2ff9","5f63803a1cb28306146179d6","false","null","<span style=""color: black; font-size: 48px"">N + M</span>","null","","","","resp_prompt","","","","","","","","","","","","","","","",""
"categorize-image","151","450678","0.0-4.0-1.0-1.11","zpqd2k9cw1o9rnp","prime","5e282e43266894a3e79a6eaa","5f60e3c0a3b16e07647b2ff9","5f63803a1cb28306146179d6","true","1204.8099999665283","./Stimuli/SelectedImages/SM/SM106.bmp","76","","","","test","true","N + M","76","switch","SM","SM106.bmp","forget","","60","3","prime1","right","","","",""
"html-keyboard-response","152","452684","0.0-4.0-1.0-3.11","zpqd2k9cw1o9rnp","prime","5e282e43266894a3e79a6eaa","5f60e3c0a3b16e07647b2ff9","5f63803a1cb28306146179d6","false","null","<div style=""align-items: center; display: flex; color: darkorange; font-size: 90px""><b>ø</b></div>","null","","","","forget_cue","","","","","","","","","","","","","","","",""
"html-keyboard-response","153","453385","0.0-4.0-1.0-0.12","zpqd2k9cw1o9rnp","prime","5e282e43266894a3e79a6eaa","5f60e3c0a3b16e07647b2ff9","5f63803a1cb28306146179d6","false","null","<span style=""color: black; font-size: 48px"">M + N</span>","null","","","","resp_prompt","","","","","","","","","","","","","","","",""
"categorize-image","154","454096","0.0-4.0-1.0-1.12","zpqd2k9cw1o9rnp","prime","5e282e43266894a3e79a6eaa","5f60e3c0a3b16e07647b2ff9","5f63803a1cb28306146179d6","true","708.2550000050105","./Stimuli/SelectedImages/LM/LM75.bmp","83","","","","test","true","M + N","83","repetition","LM","LM75.bmp","remember","","61","3","prime1","left","","","",""
"html-keyboard-response","155","456103","0.0-4.0-1.0-3.12","zpqd2k9cw1o9rnp","prime","5e282e43266894a3e79a6eaa","5f60e3c0a3b16e07647b2ff9","5f63803a1cb28306146179d6","false","null","<div style=""align-items: center; display: flex; color: dodgerblue; font-size: 90px""><b>o</b></div>","null","","","","forget_cue","","","","","","","","","","","","","","","",""
"html-keyboard-response","156","456812","0.0-4.0-1.0-0.13","zpqd2k9cw1o9rnp","prime","5e282e43266894a3e79a6eaa","5f60e3c0a3b16e07647b2ff9","5f63803a1cb28306146179d6","false","null","<span style=""color: black; font-size: 48px"">N + M</span>","null","","","","resp_prompt","","","","","","","","","","","","","","","",""
"categorize-image","157","458138","0.0-4.0-1.0-1.13","zpqd2k9cw1o9rnp","prime","5e282e43266894a3e79a6eaa","5f60e3c0a3b16e07647b2ff9","5f63803a1cb28306146179d6","true","1322.8750000125729","./Stimuli/SelectedImages/LN/LN101.bmp","83","","","","test","true","N + M","83","repetition","LN","LN101.bmp","remember","","62","3","prime1","left","","","",""
"html-keyboard-response","158","460150","0.0-4.0-1.0-3.13","zpqd2k9cw1o9rnp","prime","5e282e43266894a3e79a6eaa","5f60e3c0a3b16e07647b2ff9","5f63803a1cb28306146179d6","false","null","<div style=""align-items: center; display: flex; color: dodgerblue; font-size: 90px""><b>o</b></div>","null","","","","forget_cue","","","","","","","","","","","","","","","",""
"html-keyboard-response","159","460863","0.0-4.0-1.0-0.14","zpqd2k9cw1o9rnp","prime","5e282e43266894a3e79a6eaa","5f60e3c0a3b16e07647b2ff9","5f63803a1cb28306146179d6","false","null","<span style=""color: black; font-size: 48px"">N + M</span>","null","","","","resp_prompt","","","","","","","","","","","","","","","",""
"categorize-image","160","461691","0.0-4.0-1.0-1.14","zpqd2k9cw1o9rnp","prime","5e282e43266894a3e79a6eaa","5f60e3c0a3b16e07647b2ff9","5f63803a1cb28306146179d6","true","824.7599999886006","./Stimuli/SelectedImages/SM/SM128.bmp","76","","","","test","true","N + M","76","switch","SM","SM128.bmp","remember","","63","3","prime1","right","","","",""
"html-keyboard-response","161","463701","0.0-4.0-1.0-3.14","zpqd2k9cw1o9rnp","prime","5e282e43266894a3e79a6eaa","5f60e3c0a3b16e07647b2ff9","5f63803a1cb28306146179d6","false","null","<div style=""align-items: center; display: flex; color: dodgerblue; font-size: 90px""><b>o</b></div>","null","","","","forget_cue","","","","","","","","","","","","","","","",""
"html-keyboard-response","162","464403","0.0-4.0-1.0-0.15","zpqd2k9cw1o9rnp","prime","5e282e43266894a3e79a6eaa","5f60e3c0a3b16e07647b2ff9","5f63803a1cb28306146179d6","false","null","<span style=""color: black; font-size: 48px"">M + N</span>","null","","","","resp_prompt","","","","","","","","","","","","","","","",""
"categorize-image","163","465262","0.0-4.0-1.0-1.15","zpqd2k9cw1o9rnp","prime","5e282e43266894a3e79a6eaa","5f60e3c0a3b16e07647b2ff9","5f63803a1cb28306146179d6","true","856.774999992922","./Stimuli/SelectedImages/LN/LN111.bmp","76","","","","test","true","M + N","76","switch","LN","LN111.bmp","forget","","64","3","prime1","right","","","",""
"html-keyboard-response","164","467266","0.0-4.0-1.0-3.15","zpqd2k9cw1o9rnp","prime","5e282e43266894a3e79a6eaa","5f60e3c0a3b16e07647b2ff9","5f63803a1cb28306146179d6","false","null","<div style=""align-items: center; display: flex; color: darkorange; font-size: 90px""><b>ø</b></div>","null","","","","forget_cue","","","","","","","","","","","","","","","",""
"html-keyboard-response","165","467968","0.0-4.0-1.0-0.16","zpqd2k9cw1o9rnp","prime","5e282e43266894a3e79a6eaa","5f60e3c0a3b16e07647b2ff9","5f63803a1cb28306146179d6","false","null","<span style=""color: black; font-size: 48px"">M + N</span>","null","","","","resp_prompt","","","","","","","","","","","","","","","",""
"categorize-image","166","468558","0.0-4.0-1.0-1.16","zpqd2k9cw1o9rnp","prime","5e282e43266894a3e79a6eaa","5f60e3c0a3b16e07647b2ff9","5f63803a1cb28306146179d6","true","587.375000002794","./Stimuli/SelectedImages/SM/SM148.bmp","83","","","","test","true","M + N","83","switch","SM","SM148.bmp","remember","","65","3","prime1","left","","","",""
"html-keyboard-response","167","470571","0.0-4.0-1.0-3.16","zpqd2k9cw1o9rnp","prime","5e282e43266894a3e79a6eaa","5f60e3c0a3b16e07647b2ff9","5f63803a1cb28306146179d6","false","null","<div style=""align-items: center; display: flex; color: dodgerblue; font-size: 90px""><b>o</b></div>","null","","","","forget_cue","","","","","","","","","","","","","","","",""
"html-keyboard-response","168","471279","0.0-4.0-1.0-0.17","zpqd2k9cw1o9rnp","prime","5e282e43266894a3e79a6eaa","5f60e3c0a3b16e07647b2ff9","5f63803a1cb28306146179d6","false","null","<span style=""color: black; font-size: 48px"">N + M</span>","null","","","","resp_prompt","","","","","","","","","","","","","","","",""
"categorize-image","169","472056","0.0-4.0-1.0-1.17","zpqd2k9cw1o9rnp","prime","5e282e43266894a3e79a6eaa","5f60e3c0a3b16e07647b2ff9","5f63803a1cb28306146179d6","true","774.8399999691173","./Stimuli/SelectedImages/SM/SM78.bmp","76","","","","test","true","N + M","76","repetition","SM","SM78.bmp","forget","","66","3","prime1","right","","","",""
"html-keyboard-response","170","474071","0.0-4.0-1.0-3.17","zpqd2k9cw1o9rnp","prime","5e282e43266894a3e79a6eaa","5f60e3c0a3b16e07647b2ff9","5f63803a1cb28306146179d6","false","null","<div style=""align-items: center; display: flex; color: darkorange; font-size: 90px""><b>ø</b></div>","null","","","","forget_cue","","","","","","","","","","","","","","","",""
"html-keyboard-response","171","474780","0.0-4.0-1.0-0.18","zpqd2k9cw1o9rnp","prime","5e282e43266894a3e79a6eaa","5f60e3c0a3b16e07647b2ff9","5f63803a1cb28306146179d6","false","null","<span style=""color: black; font-size: 48px"">M + N</span>","null","","","","resp_prompt","","","","","","","","","","","","","","","",""
"categorize-image","172","475328","0.0-4.0-1.0-1.18","zpqd2k9cw1o9rnp","prime","5e282e43266894a3e79a6eaa","5f60e3c0a3b16e07647b2ff9","5f63803a1cb28306146179d6","true","545.1100000063889","./Stimuli/SelectedImages/SN/SN181.bmp","76","","","","test","true","M + N","76","repetition","SN","SN181.bmp","remember","","67","3","prime1","right","","","",""
"html-keyboard-response","173","477334","0.0-4.0-1.0-3.18","zpqd2k9cw1o9rnp","prime","5e282e43266894a3e79a6eaa","5f60e3c0a3b16e07647b2ff9","5f63803a1cb28306146179d6","false","null","<div style=""align-items: center; display: flex; color: dodgerblue; font-size: 90px""><b>o</b></div>","null","","","","forget_cue","","","","","","","","","","","","","","","",""
"html-keyboard-response","174","478036","0.0-4.0-1.0-0.19","zpqd2k9cw1o9rnp","prime","5e282e43266894a3e79a6eaa","5f60e3c0a3b16e07647b2ff9","5f63803a1cb28306146179d6","false","null","<span style=""color: black; font-size: 48px"">N + M</span>","null","","","","resp_prompt","","","","","","","","","","","","","","","",""
"categorize-image","175","478760","0.0-4.0-1.0-1.19","zpqd2k9cw1o9rnp","prime","5e282e43266894a3e79a6eaa","5f60e3c0a3b16e07647b2ff9","5f63803a1cb28306146179d6","true","721.7450000462122","./Stimuli/SelectedImages/LM/LM103.bmp","76","","","","test","true","N + M","76","switch","LM","LM103.bmp","remember","","68","3","prime1","right","","","",""
"html-keyboard-response","176","480775","0.0-4.0-1.0-3.19","zpqd2k9cw1o9rnp","prime","5e282e43266894a3e79a6eaa","5f60e3c0a3b16e07647b2ff9","5f63803a1cb28306146179d6","false","null","<div style=""align-items: center; display: flex; color: dodgerblue; font-size: 90px""><b>o</b></div>","null","","","","forget_cue","","","","","","","","","","","","","","","",""
"html-keyboard-response","177","481477","0.0-4.0-1.0-0.20","zpqd2k9cw1o9rnp","prime","5e282e43266894a3e79a6eaa","5f60e3c0a3b16e07647b2ff9","5f63803a1cb28306146179d6","false","null","<span style=""color: black; font-size: 48px"">N + M</span>","null","","","","resp_prompt","","","","","","","","","","","","","","","",""
"categorize-image","178","482183","0.0-4.0-1.0-1.20","zpqd2k9cw1o9rnp","prime","5e282e43266894a3e79a6eaa","5f60e3c0a3b16e07647b2ff9","5f63803a1cb28306146179d6","true","703.1449999776669","./Stimuli/SelectedImages/SN/SN49.bmp","83","","","","test","true","N + M","83","switch","SN","SN49.bmp","forget","","69","3","prime1","left","","","",""
"html-keyboard-response","179","484194","0.0-4.0-1.0-3.20","zpqd2k9cw1o9rnp","prime","5e282e43266894a3e79a6eaa","5f60e3c0a3b16e07647b2ff9","5f63803a1cb28306146179d6","false","null","<div style=""align-items: center; display: flex; color: darkorange; font-size: 90px""><b>ø</b></div>","null","","","","forget_cue","","","","","","","","","","","","","","","",""
"html-keyboard-response","180","484910","0.0-4.0-1.0-0.21","zpqd2k9cw1o9rnp","prime","5e282e43266894a3e79a6eaa","5f60e3c0a3b16e07647b2ff9","5f63803a1cb28306146179d6","false","null","<span style=""color: black; font-size: 48px"">N + M</span>","null","","","","resp_prompt","","","","","","","","","","","","","","","",""
"categorize-image","181","485792","0.0-4.0-1.0-1.21","zpqd2k9cw1o9rnp","prime","5e282e43266894a3e79a6eaa","5f60e3c0a3b16e07647b2ff9","5f63803a1cb28306146179d6","true","880.0199999823235","./Stimuli/SelectedImages/SM/SM76.bmp","76","","","","test","true","N + M","76","switch","SM","SM76.bmp","remember","","70","3","prime1","right","","","",""
"html-keyboard-response","182","487805","0.0-4.0-1.0-3.21","zpqd2k9cw1o9rnp","prime","5e282e43266894a3e79a6eaa","5f60e3c0a3b16e07647b2ff9","5f63803a1cb28306146179d6","false","null","<div style=""align-items: center; display: flex; color: dodgerblue; font-size: 90px""><b>o</b></div>","null","","","","forget_cue","","","","","","","","","","","","","","","",""
"html-keyboard-response","183","488506","0.0-4.0-1.0-0.22","zpqd2k9cw1o9rnp","prime","5e282e43266894a3e79a6eaa","5f60e3c0a3b16e07647b2ff9","5f63803a1cb28306146179d6","false","null","<span style=""color: black; font-size: 48px"">N + M</span>","null","","","","resp_prompt","","","","","","","","","","","","","","","",""
"categorize-image","184","489260","0.0-4.0-1.0-1.22","zpqd2k9cw1o9rnp","prime","5e282e43266894a3e79a6eaa","5f60e3c0a3b16e07647b2ff9","5f63803a1cb28306146179d6","true","751.7600000137463","./Stimuli/SelectedImages/SN/SN52.bmp","83","","","","test","true","N + M","83","repetition","SN","SN52.bmp","remember","","71","3","prime1","left","","","",""
"html-keyboard-response","185","491268","0.0-4.0-1.0-3.22","zpqd2k9cw1o9rnp","prime","5e282e43266894a3e79a6eaa","5f60e3c0a3b16e07647b2ff9","5f63803a1cb28306146179d6","false","null","<div style=""align-items: center; display: flex; color: dodgerblue; font-size: 90px""><b>o</b></div>","null","","","","forget_cue","","","","","","","","","","","","","","","",""
"html-keyboard-response","186","491969","0.0-4.0-1.0-0.23","zpqd2k9cw1o9rnp","prime","5e282e43266894a3e79a6eaa","5f60e3c0a3b16e07647b2ff9","5f63803a1cb28306146179d6","false","null","<span style=""color: black; font-size: 48px"">M + N</span>","null","","","","resp_prompt","","","","","","","","","","","","","","","",""
"categorize-image","187","492486","0.0-4.0-1.0-1.23","zpqd2k9cw1o9rnp","prime","5e282e43266894a3e79a6eaa","5f60e3c0a3b16e07647b2ff9","5f63803a1cb28306146179d6","true","514.7950000246055","./Stimuli/SelectedImages/LN/LN28.bmp","76","","","","test","true","M + N","76","switch","LN","LN28.bmp","forget","","72","3","prime1","right","","","",""
"html-keyboard-response","188","494489","0.0-4.0-1.0-3.23","zpqd2k9cw1o9rnp","prime","5e282e43266894a3e79a6eaa","5f60e3c0a3b16e07647b2ff9","5f63803a1cb28306146179d6","false","null","<div style=""align-items: center; display: flex; color: darkorange; font-size: 90px""><b>ø</b></div>","null","","","","forget_cue","","","","","","","","","","","","","","","",""
"html-keyboard-response","189","495200","0.0-4.0-1.0-0.24","zpqd2k9cw1o9rnp","prime","5e282e43266894a3e79a6eaa","5f60e3c0a3b16e07647b2ff9","5f63803a1cb28306146179d6","false","null","<span style=""color: black; font-size: 48px"">N + M</span>","null","","","","resp_prompt","","","","","","","","","","","","","","","",""
"categorize-image","190","496120","0.0-4.0-1.0-1.24","zpqd2k9cw1o9rnp","prime","5e282e43266894a3e79a6eaa","5f60e3c0a3b16e07647b2ff9","5f63803a1cb28306146179d6","true","917.9950000252575","./Stimuli/SelectedImages/LM/LM235.bmp","76","","","","test","true","N + M","76","repetition","LM","LM235.bmp","remember","","73","3","prime1","right","","","",""
"html-keyboard-response","191","498131","0.0-4.0-1.0-3.24","zpqd2k9cw1o9rnp","prime","5e282e43266894a3e79a6eaa","5f60e3c0a3b16e07647b2ff9","5f63803a1cb28306146179d6","false","null","<div style=""align-items: center; display: flex; color: dodgerblue; font-size: 90px""><b>o</b></div>","null","","","","forget_cue","","","","","","","","","","","","","","","",""
"html-keyboard-response","192","498833","0.0-4.0-1.0-0.25","zpqd2k9cw1o9rnp","prime","5e282e43266894a3e79a6eaa","5f60e3c0a3b16e07647b2ff9","5f63803a1cb28306146179d6","false","null","<span style=""color: black; font-size: 48px"">M + N</span>","null","","","","resp_prompt","","","","","","","","","","","","","","","",""
"categorize-image","193","499470","0.0-4.0-1.0-1.25","zpqd2k9cw1o9rnp","prime","5e282e43266894a3e79a6eaa","5f60e3c0a3b16e07647b2ff9","5f63803a1cb28306146179d6","true","634.9599999957718","./Stimuli/SelectedImages/LM/LM167.bmp","83","","","","test","true","M + N","83","repetition","LM","LM167.bmp","forget","","74","3","prime1","left","","","",""
"html-keyboard-response","194","501486","0.0-4.0-1.0-3.25","zpqd2k9cw1o9rnp","prime","5e282e43266894a3e79a6eaa","5f60e3c0a3b16e07647b2ff9","5f63803a1cb28306146179d6","false","null","<div style=""align-items: center; display: flex; color: darkorange; font-size: 90px""><b>ø</b></div>","null","","","","forget_cue","","","","","","","","","","","","","","","",""
"html-keyboard-response","195","502187","0.0-4.0-1.0-0.26","zpqd2k9cw1o9rnp","prime","5e282e43266894a3e79a6eaa","5f60e3c0a3b16e07647b2ff9","5f63803a1cb28306146179d6","false","null","<span style=""color: black; font-size: 48px"">M + N</span>","null","","","","resp_prompt","","","","","","","","","","","","","","","",""
"categorize-image","196","502701","0.0-4.0-1.0-1.26","zpqd2k9cw1o9rnp","prime","5e282e43266894a3e79a6eaa","5f60e3c0a3b16e07647b2ff9","5f63803a1cb28306146179d6","true","510.76999999349937","./Stimuli/SelectedImages/SN/SN187.bmp","76","","","","test","true","M + N","76","switch","SN","SN187.bmp","forget","","75","3","prime1","right","","","",""
"html-keyboard-response","197","504710","0.0-4.0-1.0-3.26","zpqd2k9cw1o9rnp","prime","5e282e43266894a3e79a6eaa","5f60e3c0a3b16e07647b2ff9","5f63803a1cb28306146179d6","false","null","<div style=""align-items: center; display: flex; color: darkorange; font-size: 90px""><b>ø</b></div>","null","","","","forget_cue","","","","","","","","","","","","","","","",""
"html-keyboard-response","198","505423","0.0-4.0-1.0-0.27","zpqd2k9cw1o9rnp","prime","5e282e43266894a3e79a6eaa","5f60e3c0a3b16e07647b2ff9","5f63803a1cb28306146179d6","false","null","<span style=""color: black; font-size: 48px"">M + N</span>","null","","","","resp_prompt","","","","","","","","","","","","","","","",""
"categorize-image","199","506142","0.0-4.0-1.0-1.27","zpqd2k9cw1o9rnp","prime","5e282e43266894a3e79a6eaa","5f60e3c0a3b16e07647b2ff9","5f63803a1cb28306146179d6","true","717.1300000045449","./Stimuli/SelectedImages/SM/SM195.bmp","83","","","","test","true","M + N","83","switch","SM","SM195.bmp","forget","","76","3","prime1","left","","","",""
"html-keyboard-response","200","508150","0.0-4.0-1.0-3.27","zpqd2k9cw1o9rnp","prime","5e282e43266894a3e79a6eaa","5f60e3c0a3b16e07647b2ff9","5f63803a1cb28306146179d6","false","null","<div style=""align-items: center; display: flex; color: darkorange; font-size: 90px""><b>ø</b></div>","null","","","","forget_cue","","","","","","","","","","","","","","","",""
"html-keyboard-response","201","508852","0.0-4.0-1.0-0.28","zpqd2k9cw1o9rnp","prime","5e282e43266894a3e79a6eaa","5f60e3c0a3b16e07647b2ff9","5f63803a1cb28306146179d6","false","null","<span style=""color: black; font-size: 48px"">N + M</span>","null","","","","resp_prompt","","","","","","","","","","","","","","","",""
"categorize-image","202","510198","0.0-4.0-1.0-1.28","zpqd2k9cw1o9rnp","prime","5e282e43266894a3e79a6eaa","5f60e3c0a3b16e07647b2ff9","5f63803a1cb28306146179d6","true","1343.9149999758229","./Stimuli/SelectedImages/LM/LM48.bmp","76","","","","test","true","N + M","76","repetition","LM","LM48.bmp","remember","","77","3","prime1","right","","","",""
"html-keyboard-response","203","512212","0.0-4.0-1.0-3.28","zpqd2k9cw1o9rnp","prime","5e282e43266894a3e79a6eaa","5f60e3c0a3b16e07647b2ff9","5f63803a1cb28306146179d6","false","null","<div style=""align-items: center; display: flex; color: dodgerblue; font-size: 90px""><b>o</b></div>","null","","","","forget_cue","","","","","","","","","","","","","","","",""
"html-keyboard-response","204","512925","0.0-4.0-1.0-0.29","zpqd2k9cw1o9rnp","prime","5e282e43266894a3e79a6eaa","5f60e3c0a3b16e07647b2ff9","5f63803a1cb28306146179d6","false","null","<span style=""color: black; font-size: 48px"">M + N</span>","null","","","","resp_prompt","","","","","","","","","","","","","","","",""
"categorize-image","205","513778","0.0-4.0-1.0-1.29","zpqd2k9cw1o9rnp","prime","5e282e43266894a3e79a6eaa","5f60e3c0a3b16e07647b2ff9","5f63803a1cb28306146179d6","true","850.8550000260584","./Stimuli/SelectedImages/LM/LM57.bmp","83","","","","test","true","M + N","83","switch","LM","LM57.bmp","remember","","78","3","prime1","left","","","",""
"html-keyboard-response","206","515782","0.0-4.0-1.0-3.29","zpqd2k9cw1o9rnp","prime","5e282e43266894a3e79a6eaa","5f60e3c0a3b16e07647b2ff9","5f63803a1cb28306146179d6","false","null","<div style=""align-items: center; display: flex; color: dodgerblue; font-size: 90px""><b>o</b></div>","null","","","","forget_cue","","","","","","","","","","","","","","","",""
"html-keyboard-response","207","516483","0.0-4.0-1.0-0.30","zpqd2k9cw1o9rnp","prime","5e282e43266894a3e79a6eaa","5f60e3c0a3b16e07647b2ff9","5f63803a1cb28306146179d6","false","null","<span style=""color: black; font-size: 48px"">N + M</span>","null","","","","resp_prompt","","","","","","","","","","","","","","","",""
"categorize-image","208","517088","0.0-4.0-1.0-1.30","zpqd2k9cw1o9rnp","prime","5e282e43266894a3e79a6eaa","5f60e3c0a3b16e07647b2ff9","5f63803a1cb28306146179d6","true","602.4600000237115","./Stimuli/SelectedImages/LN/LN177.bmp","83","","","","test","true","N + M","83","repetition","LN","LN177.bmp","forget","","79","3","prime1","left","","","",""
"html-keyboard-response","209","519099","0.0-4.0-1.0-3.30","zpqd2k9cw1o9rnp","prime","5e282e43266894a3e79a6eaa","5f60e3c0a3b16e07647b2ff9","5f63803a1cb28306146179d6","false","null","<div style=""align-items: center; display: flex; color: darkorange; font-size: 90px""><b>ø</b></div>","null","","","","forget_cue","","","","","","","","","","","","","","","",""
"html-keyboard-response","210","519801","0.0-4.0-1.0-0.31","zpqd2k9cw1o9rnp","prime","5e282e43266894a3e79a6eaa","5f60e3c0a3b16e07647b2ff9","5f63803a1cb28306146179d6","false","null","<span style=""color: black; font-size: 48px"">N + M</span>","null","","","","resp_prompt","","","","","","","","","","","","","","","",""
"categorize-image","211","520458","0.0-4.0-1.0-1.31","zpqd2k9cw1o9rnp","prime","5e282e43266894a3e79a6eaa","5f60e3c0a3b16e07647b2ff9","5f63803a1cb28306146179d6","true","654.9900000100024","./Stimuli/SelectedImages/SN/SN240.bmp","83","","","","test","true","N + M","83","switch","SN","SN240.bmp","forget","","80","3","prime1","left","","","",""
"html-keyboard-response","212","522467","0.0-4.0-1.0-3.31","zpqd2k9cw1o9rnp","prime","5e282e43266894a3e79a6eaa","5f60e3c0a3b16e07647b2ff9","5f63803a1cb28306146179d6","false","null","<div style=""align-items: center; display: flex; color: darkorange; font-size: 90px""><b>ø</b></div>","null","","","","forget_cue","","","","","","","","","","","","","","","",""
"html-keyboard-response","213","523179","0.0-4.0-1.0-0.32","zpqd2k9cw1o9rnp","prime","5e282e43266894a3e79a6eaa","5f60e3c0a3b16e07647b2ff9","5f63803a1cb28306146179d6","false","null","<span style=""color: black; font-size: 48px"">M + N</span>","null","","","","resp_prompt","","","","","","","","","","","","","","","",""
"categorize-image","214","523815","0.0-4.0-1.0-1.32","zpqd2k9cw1o9rnp","prime","5e282e43266894a3e79a6eaa","5f60e3c0a3b16e07647b2ff9","5f63803a1cb28306146179d6","true","632.2649999638088","./Stimuli/SelectedImages/LN/LN9.bmp","76","","","","test","true","M + N","76","switch","LN","LN9.bmp","remember","","81","3","prime1","right","","","",""
"html-keyboard-response","215","525827","0.0-4.0-1.0-3.32","zpqd2k9cw1o9rnp","prime","5e282e43266894a3e79a6eaa","5f60e3c0a3b16e07647b2ff9","5f63803a1cb28306146179d6","false","null","<div style=""align-items: center; display: flex; color: dodgerblue; font-size: 90px""><b>o</b></div>","null","","","","forget_cue","","","","","","","","","","","","","","","",""
"html-keyboard-response","216","526529","0.0-4.0-1.0-0.33","zpqd2k9cw1o9rnp","prime","5e282e43266894a3e79a6eaa","5f60e3c0a3b16e07647b2ff9","5f63803a1cb28306146179d6","false","null","<span style=""color: black; font-size: 48px"">N + M</span>","null","","","","resp_prompt","","","","","","","","","","","","","","","",""
"categorize-image","217","527138","0.0-4.0-1.0-1.33","zpqd2k9cw1o9rnp","prime","5e282e43266894a3e79a6eaa","5f60e3c0a3b16e07647b2ff9","5f63803a1cb28306146179d6","true","606.4049999695271","./Stimuli/SelectedImages/SN/SN140.bmp","83","","","","test","true","N + M","83","repetition","SN","SN140.bmp","forget","","82","3","prime1","left","","","",""
"html-keyboard-response","218","529152","0.0-4.0-1.0-3.33","zpqd2k9cw1o9rnp","prime","5e282e43266894a3e79a6eaa","5f60e3c0a3b16e07647b2ff9","5f63803a1cb28306146179d6","false","null","<div style=""align-items: center; display: flex; color: darkorange; font-size: 90px""><b>ø</b></div>","null","","","","forget_cue","","","","","","","","","","","","","","","",""
"html-keyboard-response","219","529854","0.0-4.0-1.0-0.34","zpqd2k9cw1o9rnp","prime","5e282e43266894a3e79a6eaa","5f60e3c0a3b16e07647b2ff9","5f63803a1cb28306146179d6","false","null","<span style=""color: black; font-size: 48px"">M + N</span>","null","","","","resp_prompt","","","","","","","","","","","","","","","",""
"categorize-image","220","530368","0.0-4.0-1.0-1.34","zpqd2k9cw1o9rnp","prime","5e282e43266894a3e79a6eaa","5f60e3c0a3b16e07647b2ff9","5f63803a1cb28306146179d6","true","511.61000004503876","./Stimuli/SelectedImages/LM/LM216.bmp","83","","","","test","true","M + N","83","switch","LM","LM216.bmp","remember","","83","3","prime1","left","","","",""
"html-keyboard-response","221","532372","0.0-4.0-1.0-3.34","zpqd2k9cw1o9rnp","prime","5e282e43266894a3e79a6eaa","5f60e3c0a3b16e07647b2ff9","5f63803a1cb28306146179d6","false","null","<div style=""align-items: center; display: flex; color: dodgerblue; font-size: 90px""><b>o</b></div>","null","","","","forget_cue","","","","","","","","","","","","","","","",""
"html-keyboard-response","222","533084","0.0-4.0-1.0-0.35","zpqd2k9cw1o9rnp","prime","5e282e43266894a3e79a6eaa","5f60e3c0a3b16e07647b2ff9","5f63803a1cb28306146179d6","false","null","<span style=""color: black; font-size: 48px"">M + N</span>","null","","","","resp_prompt","","","","","","","","","","","","","","","",""
"categorize-image","223","533706","0.0-4.0-1.0-1.35","zpqd2k9cw1o9rnp","prime","5e282e43266894a3e79a6eaa","5f60e3c0a3b16e07647b2ff9","5f63803a1cb28306146179d6","true","620.1449999934994","./Stimuli/SelectedImages/LN/LN59.bmp","76","","","","test","true","M + N","76","switch","LN","LN59.bmp","remember","","84","3","prime1","right","","","",""
"html-keyboard-response","224","535711","0.0-4.0-1.0-3.35","zpqd2k9cw1o9rnp","prime","5e282e43266894a3e79a6eaa","5f60e3c0a3b16e07647b2ff9","5f63803a1cb28306146179d6","false","null","<div style=""align-items: center; display: flex; color: dodgerblue; font-size: 90px""><b>o</b></div>","null","","","","forget_cue","","","","","","","","","","","","","","","",""
"html-keyboard-response","225","536412","0.0-4.0-1.0-0.36","zpqd2k9cw1o9rnp","prime","5e282e43266894a3e79a6eaa","5f60e3c0a3b16e07647b2ff9","5f63803a1cb28306146179d6","false","null","<span style=""color: black; font-size: 48px"">N + M</span>","null","","","","resp_prompt","","","","","","","","","","","","","","","",""
"categorize-image","226","537181","0.0-4.0-1.0-1.36","zpqd2k9cw1o9rnp","prime","5e282e43266894a3e79a6eaa","5f60e3c0a3b16e07647b2ff9","5f63803a1cb28306146179d6","true","766.0799999721348","./Stimuli/SelectedImages/LN/LN92.bmp","83","","","","test","true","N + M","83","switch","LN","LN92.bmp","remember","","85","3","prime1","left","","","",""
"html-keyboard-response","227","539185","0.0-4.0-1.0-3.36","zpqd2k9cw1o9rnp","prime","5e282e43266894a3e79a6eaa","5f60e3c0a3b16e07647b2ff9","5f63803a1cb28306146179d6","false","null","<div style=""align-items: center; display: flex; color: dodgerblue; font-size: 90px""><b>o</b></div>","null","","","","forget_cue","","","","","","","","","","","","","","","",""
"html-keyboard-response","228","539886","0.0-4.0-1.0-0.37","zpqd2k9cw1o9rnp","prime","5e282e43266894a3e79a6eaa","5f60e3c0a3b16e07647b2ff9","5f63803a1cb28306146179d6","false","null","<span style=""color: black; font-size: 48px"">M + N</span>","null","","","","resp_prompt","","","","","","","","","","","","","","","",""
"categorize-image","229","540516","0.0-4.0-1.0-1.37","zpqd2k9cw1o9rnp","prime","5e282e43266894a3e79a6eaa","5f60e3c0a3b16e07647b2ff9","5f63803a1cb28306146179d6","true","627.2150000440888","./Stimuli/SelectedImages/LM/LM100.bmp","83","","","","test","true","M + N","83","switch","LM","LM100.bmp","forget","","86","3","prime1","left","","","",""
"html-keyboard-response","230","542527","0.0-4.0-1.0-3.37","zpqd2k9cw1o9rnp","prime","5e282e43266894a3e79a6eaa","5f60e3c0a3b16e07647b2ff9","5f63803a1cb28306146179d6","false","null","<div style=""align-items: center; display: flex; color: darkorange; font-size: 90px""><b>ø</b></div>","null","","","","forget_cue","","","","","","","","","","","","","","","",""
"html-keyboard-response","231","543239","0.0-4.0-1.0-0.38","zpqd2k9cw1o9rnp","prime","5e282e43266894a3e79a6eaa","5f60e3c0a3b16e07647b2ff9","5f63803a1cb28306146179d6","false","null","<span style=""color: black; font-size: 48px"">N + M</span>","null","","","","resp_prompt","","","","","","","","","","","","","","","",""
"categorize-image","232","543889","0.0-4.0-1.0-1.38","zpqd2k9cw1o9rnp","prime","5e282e43266894a3e79a6eaa","5f60e3c0a3b16e07647b2ff9","5f63803a1cb28306146179d6","true","646.260000008624","./Stimuli/SelectedImages/SN/SN93.bmp","83","","","","test","true","N + M","83","switch","SN","SN93.bmp","remember","","87","3","prime1","left","","","",""
"html-keyboard-response","233","545897","0.0-4.0-1.0-3.38","zpqd2k9cw1o9rnp","prime","5e282e43266894a3e79a6eaa","5f60e3c0a3b16e07647b2ff9","5f63803a1cb28306146179d6","false","null","<div style=""align-items: center; display: flex; color: dodgerblue; font-size: 90px""><b>o</b></div>","null","","","","forget_cue","","","","","","","","","","","","","","","",""
"html-keyboard-response","234","546599","0.0-4.0-1.0-0.39","zpqd2k9cw1o9rnp","prime","5e282e43266894a3e79a6eaa","5f60e3c0a3b16e07647b2ff9","5f63803a1cb28306146179d6","false","null","<span style=""color: black; font-size: 48px"">N + M</span>","null","","","","resp_prompt","","","","","","","","","","","","","","","",""
"categorize-image","235","547090","0.0-4.0-1.0-1.39","zpqd2k9cw1o9rnp","prime","5e282e43266894a3e79a6eaa","5f60e3c0a3b16e07647b2ff9","5f63803a1cb28306146179d6","true","488.1949999835342","./Stimuli/SelectedImages/SN/SN182.bmp","83","","","","test","true","N + M","83","switch","SN","SN182.bmp","remember","","88","3","prime1","left","","","",""
"html-keyboard-response","236","549095","0.0-4.0-1.0-3.39","zpqd2k9cw1o9rnp","prime","5e282e43266894a3e79a6eaa","5f60e3c0a3b16e07647b2ff9","5f63803a1cb28306146179d6","false","null","<div style=""align-items: center; display: flex; color: dodgerblue; font-size: 90px""><b>o</b></div>","null","","","","forget_cue","","","","","","","","","","","","","","","",""
"html-keyboard-response","237","549797","0.0-4.0-1.0-0.40","zpqd2k9cw1o9rnp","prime","5e282e43266894a3e79a6eaa","5f60e3c0a3b16e07647b2ff9","5f63803a1cb28306146179d6","false","null","<span style=""color: black; font-size: 48px"">N + M</span>","null","","","","resp_prompt","","","","","","","","","","","","","","","",""
"categorize-image","238","550455","0.0-4.0-1.0-1.40","zpqd2k9cw1o9rnp","prime","5e282e43266894a3e79a6eaa","5f60e3c0a3b16e07647b2ff9","5f63803a1cb28306146179d6","true","655.1150000304915","./Stimuli/SelectedImages/LN/LN166.bmp","83","","","","test","true","N + M","83","repetition","LN","LN166.bmp","remember","","89","3","prime1","left","","","",""
"html-keyboard-response","239","552460","0.0-4.0-1.0-3.40","zpqd2k9cw1o9rnp","prime","5e282e43266894a3e79a6eaa","5f60e3c0a3b16e07647b2ff9","5f63803a1cb28306146179d6","false","null","<div style=""align-items: center; display: flex; color: dodgerblue; font-size: 90px""><b>o</b></div>","null","","","","forget_cue","","","","","","","","","","","","","","","",""
"html-keyboard-response","240","553172","0.0-4.0-1.0-0.41","zpqd2k9cw1o9rnp","prime","5e282e43266894a3e79a6eaa","5f60e3c0a3b16e07647b2ff9","5f63803a1cb28306146179d6","false","null","<span style=""color: black; font-size: 48px"">M + N</span>","null","","","","resp_prompt","","","","","","","","","","","","","","","",""
"categorize-image","241","553862","0.0-4.0-1.0-1.41","zpqd2k9cw1o9rnp","prime","5e282e43266894a3e79a6eaa","5f60e3c0a3b16e07647b2ff9","5f63803a1cb28306146179d6","true","686.6699999663979","./Stimuli/SelectedImages/SM/SM200.bmp","83","","","","test","true","M + N","83","repetition","SM","SM200.bmp","forget","","90","3","prime1","left","","","",""
"html-keyboard-response","242","555877","0.0-4.0-1.0-3.41","zpqd2k9cw1o9rnp","prime","5e282e43266894a3e79a6eaa","5f60e3c0a3b16e07647b2ff9","5f63803a1cb28306146179d6","false","null","<div style=""align-items: center; display: flex; color: darkorange; font-size: 90px""><b>ø</b></div>","null","","","","forget_cue","","","","","","","","","","","","","","","",""
"html-keyboard-response","243","556579","0.0-4.0-1.0-0.42","zpqd2k9cw1o9rnp","prime","5e282e43266894a3e79a6eaa","5f60e3c0a3b16e07647b2ff9","5f63803a1cb28306146179d6","false","null","<span style=""color: black; font-size: 48px"">N + M</span>","null","","","","resp_prompt","","","","","","","","","","","","","","","",""
"categorize-image","244","557638","0.0-4.0-1.0-1.42","zpqd2k9cw1o9rnp","prime","5e282e43266894a3e79a6eaa","5f60e3c0a3b16e07647b2ff9","5f63803a1cb28306146179d6","true","1056.9000000250526","./Stimuli/SelectedImages/SN/SN155.bmp","83","","","","test","true","N + M","83","repetition","SN","SN155.bmp","forget","","91","3","prime1","left","","","",""
"html-keyboard-response","245","559649","0.0-4.0-1.0-3.42","zpqd2k9cw1o9rnp","prime","5e282e43266894a3e79a6eaa","5f60e3c0a3b16e07647b2ff9","5f63803a1cb28306146179d6","false","null","<div style=""align-items: center; display: flex; color: darkorange; font-size: 90px""><b>ø</b></div>","null","","","","forget_cue","","","","","","","","","","","","","","","",""
"html-keyboard-response","246","560350","0.0-4.0-1.0-0.43","zpqd2k9cw1o9rnp","prime","5e282e43266894a3e79a6eaa","5f60e3c0a3b16e07647b2ff9","5f63803a1cb28306146179d6","false","null","<span style=""color: black; font-size: 48px"">M + N</span>","null","","","","resp_prompt","","","","","","","","","","","","","","","",""
"categorize-image","247","560863","0.0-4.0-1.0-1.43","zpqd2k9cw1o9rnp","prime","5e282e43266894a3e79a6eaa","5f60e3c0a3b16e07647b2ff9","5f63803a1cb28306146179d6","true","510.18500002101064","./Stimuli/SelectedImages/SN/SN179.bmp","76","","","","test","true","M + N","76","switch","SN","SN179.bmp","remember","","92","3","prime1","right","","","",""
"html-keyboard-response","248","562868","0.0-4.0-1.0-3.43","zpqd2k9cw1o9rnp","prime","5e282e43266894a3e79a6eaa","5f60e3c0a3b16e07647b2ff9","5f63803a1cb28306146179d6","false","null","<div style=""align-items: center; display: flex; color: dodgerblue; font-size: 90px""><b>o</b></div>","null","","","","forget_cue","","","","","","","","","","","","","","","",""
"html-keyboard-response","249","563579","0.0-4.0-1.0-0.44","zpqd2k9cw1o9rnp","prime","5e282e43266894a3e79a6eaa","5f60e3c0a3b16e07647b2ff9","5f63803a1cb28306146179d6","false","null","<span style=""color: black; font-size: 48px"">N + M</span>","null","","","","resp_prompt","","","","","","","","","","","","","","","",""
"categorize-image","250","564156","0.0-4.0-1.0-1.44","zpqd2k9cw1o9rnp","prime","5e282e43266894a3e79a6eaa","5f60e3c0a3b16e07647b2ff9","5f63803a1cb28306146179d6","true","574.834999977611","./Stimuli/SelectedImages/SN/SN60.bmp","83","","","","test","true","N + M","83","repetition","SN","SN60.bmp","remember","","93","3","prime1","left","","","",""
"html-keyboard-response","251","566164","0.0-4.0-1.0-3.44","zpqd2k9cw1o9rnp","prime","5e282e43266894a3e79a6eaa","5f60e3c0a3b16e07647b2ff9","5f63803a1cb28306146179d6","false","null","<div style=""align-items: center; display: flex; color: dodgerblue; font-size: 90px""><b>o</b></div>","null","","","","forget_cue","","","","","","","","","","","","","","","",""
"html-keyboard-response","252","566865","0.0-4.0-1.0-0.45","zpqd2k9cw1o9rnp","prime","5e282e43266894a3e79a6eaa","5f60e3c0a3b16e07647b2ff9","5f63803a1cb28306146179d6","false","null","<span style=""color: black; font-size: 48px"">M + N</span>","null","","","","resp_prompt","","","","","","","","","","","","","","","",""
