"trial_type","trial_index","time_elapsed","internal_node_id","subject","exp_part","prolific_PID","study_ID","session_ID","use","rt","stimulus","key_press","button_pressed","responses","question_order","trial_part","correct","resp_map","correct_resp","probe_condition","category","image","forget_condition","list","trial_num","block_num","block","response","test_part","n_span","sequence","num_spaces"
"pavlovia","0","10","0.0-0.0","m3gyqeypbphx16z","","5ef3bb265311db14418a71f7","5f60e3c0a3b16e07647b2ff9","5f63802c11eebe06e95a550d","false","","","","","","","","","","","","","","","","","","","","","","",""
"html-keyboard-response","1","6064","0.0-1.0-0.0-0.0","m3gyqeypbphx16z","welcome","5ef3bb265311db14418a71f7","5f60e3c0a3b16e07647b2ff9","5f63802c11eebe06e95a550d","false","6046.9900000607595","<div align=left>Dear participant, <br> thank you for participating in an online study of the Cognition, Action, and Sustainability Unit of the University of Freiburg! <br> <br>The aim of this study is to examine our ability to remember previously learned information. <br>Our goal is to find out, whether our memory improves, when we only remember information that is relevant to us. <br>The experiment will take about 35 minutes to complete. <br> <br>Please, note that you can only participate in this study if you are using a device with a keyboard (PC, Laptop etc.) <br>and not if you are using a mobile device such as a tablet or smartphone.<br> <br>Press 'SPACE' to proceed to the experiment. </div>","32","","","","","","","","","","","","","","","","","","","",""
"html-keyboard-response","2","12850","0.0-1.0-0.0-1.0","m3gyqeypbphx16z","welcome","5ef3bb265311db14418a71f7","5f60e3c0a3b16e07647b2ff9","5f63802c11eebe06e95a550d","false","6781.740000005811","<div align=left><strong> Time Course of this experiment: </strong> <br><br> <strong> 1.</strong>  First, please fill in some information regarding your demographic data. <br><br> <strong> 2.</strong>  Next, your task will be to classify everyday objects. <br>In addition, you will be asked to remember certain objects and recall them later. <br>Working on these tasks requires your undivided attention and concentration.<br>It is therefore essential that you eliminate any sources of distraction in your  <br>environment and ensure that you will not be disturbed. <br><br><strong> 3.</strong>  At the end of the experiment, you will be asked to answer a few additional questions. <br> <br><strong> Important:</strong> After finishing the experiment, only close the browser window <br> by clicking on the 'end the experiment'-button when you are asked to do so. <br>Closing the browser window prematurely will make the allocation of your participation credit impossible. <br><br> Press 'SPACE' to start the experiment. </div>","32","","","","","","","","","","","","","","","","","","","",""
"html-button-response","3","15793","0.0-1.0-0.0-2.0","m3gyqeypbphx16z","welcome","5ef3bb265311db14418a71f7","5f60e3c0a3b16e07647b2ff9","5f63802c11eebe06e95a550d","true","2938.285000040196","<div align=left><strong> Informed consent </strong>  <br>The aim of our research is to better understand human behavior and mental processes. <br>In the following study your behavior (e.g. choices, reaction times) will be studied. <br> <br><strong> Voluntariness and Anonymity </strong> <br>Your participation in this study is  <strong> voluntary</strong>.<br>You may withdraw your consent to participate at any time without providing a reason for doing so and without fear of prejudice. <br><br>As no personal data will be collected, <strong>your data and your person cannot be connected after data collection</strong> – the data-set is anonymous. <br>Respectively, deletion of your data will not be possible after data collection has been completed, as we cannot retrace your data-set.<br>The results and anonymized data collected in this study will be published as a scientific publication. <br>This will happen in an <strong>anonymized format</strong>, so that no data can be traced back to a specific person. <br> <br>The anonymized data of this study will be made available to other researchers and/or in a data archive on the Internet as a means of transparency and to enable subsequent re-use. By doing so, this study follows the recommendations of the Deutsche Forschungsgemeinschaft (DFG, German Research Foundation) and Deutsche Gesellschaft für Psychologie (DGPS, German Psychological Society) regarding quality assurance in research.<br>If you have any questions now or after the experiment, please contact our team (experiments@cs.uni-freiburg.de).<br><br><br>I hereby declare, that I understand the above described conditions of participation and I agree to participate under these conditions. <br><br> </div>","","0","","","","","","","","","","","","","","","","","","",""
"html-keyboard-response","4","53325","0.0-1.0-0.0-3.0","m3gyqeypbphx16z","welcome","5ef3bb265311db14418a71f7","5f60e3c0a3b16e07647b2ff9","5f63802c11eebe06e95a550d","false","37527.63500006404","<div align=left><strong> General information concerning the experiment </strong>  <br> <br>Please follow the instructions:<ol> <li><strong> Do not leave this tab (your browser window) during the experiment and do not reload this tab! </strong>  <br>If you do switch tabs/windows during the experiment (to check your mail or visit another website, for example), <br>the experiment will end automatically and you will <strong>not receive credit</strong> for your participation. <br>Repeated participation or resumption of the experiment is impossible.</li> <br><li>Please close all other programs for the duration of your participation. </li> <br><li>Please mute or turn off your phone and put it out of your reach. </li> <br><li>Please also take off any disturbing accessories (such as wristwatches, bracelets, etc.). </li> <br><li>If you have music playing in the background, please turn it off now. </li> <br></ol>Thank you! <br>Press 'SPACE' to continue. </div>","32","","","","","","","","","","","","","","","","","","","",""
"survey-text","5","56773","0.0-1.0-1.0-0.0","m3gyqeypbphx16z","demographics","5ef3bb265311db14418a71f7","5f60e3c0a3b16e07647b2ff9","5f63802c11eebe06e95a550d","true","3435.5000000214204","","","","{""age"":""34""}","","","","","","","","","","","","","","","","","",""
"survey-multi-choice","6","75970","0.0-1.0-1.0-1.0","m3gyqeypbphx16z","demographics","5ef3bb265311db14418a71f7","5f60e3c0a3b16e07647b2ff9","5f63802c11eebe06e95a550d","true","19189.484999980778","","","","{""gender"":""male"",""school"":""others"",""education"":""Completed university degree or equivalent""}","[0,1,2]","","","","","","","","","","","","","","","","",""
"html-keyboard-response","7","84547","0.0-1.0-2.0","m3gyqeypbphx16z","instructions","5ef3bb265311db14418a71f7","5f60e3c0a3b16e07647b2ff9","5f63802c11eebe06e95a550d","false","8571.5949999867","<div align=left> The experiment is now about to start: <br> <br>In the following part, you will be presented pictures of everyday objects. <br>Your first task is to <strong>classify these objects. </strong> <br> <br> You will classify them either as mechanical or non-mechanical objects. <br> <br>Objects that include any kind of technical mechanism (for example, wheels, switches, levers, <br> electronic components) fall under the category of <strong>mechanical</strong> objects. <br>Only objects without any kind of technical mechanism should be classified as <strong>non-mechanical</strong>. <br><br>Press 'SPACE' to continue. </div>","32","","","","","","","","","","","","","","","","","","","",""
"html-keyboard-response","8","115937","0.0-2.0-0.0","m3gyqeypbphx16z","instructions","5ef3bb265311db14418a71f7","5f60e3c0a3b16e07647b2ff9","5f63802c11eebe06e95a550d","false","31386.040000012144","<div align=justify>You will classify the objects using the <strong>'S'</strong> and the <strong>'L'</strong> keys on your keyboard.<br>For doing so, please place your <strong>left index finger</strong> on the <strong>'S'</strong> key and place your <strong>right index finger</strong> on the <strong>'L'</strong> key. <br><br> Each trial starts with an instruction, indicating which key ('S'/'L') you need to press to classify <br>the object as mechanical (letter M) or non-mechanical (letter N).<br>The instruction <strong>M + N</strong> indicates that, in the current trial, by pressing the left key ('S') you classify the displayed object as mechanical (M) <br> and by pressing the right key ('L') you classify the object as non-mechanical (N). <br>The instruction <strong>N + M</strong> on the other hand indicates that by pressing the left key ('S') you classify the displayed object as non-mechanical (N) <br> and by pressing the right key ('L') you classify the object as mechanical (M). <br><br>Please press the key corresponding to the correct classification as fast as possible as soon as the object is displayed and try to avoid making mistakes.<br>If you do not respond within a 2 second window, a corresponding feedback will be displayed and the next trial will start.<br> The experiment is divided into multiple blocks to give you the opportunity to take a break after each block. <br>First, you can now practice this task. <br><br>Please place your <strong>LEFT INDEX FINGER</strong> on the 'S' key and your <strong>RIGHT INDEX FINGER</strong> on the 'L' key now. <br><br>Press SPACE to continue.</div>","32","","","","","","","","","","","","","","","","","","","",""
"html-keyboard-response","9","122630","0.0-2.0-1.0","m3gyqeypbphx16z","instructions","5ef3bb265311db14418a71f7","5f60e3c0a3b16e07647b2ff9","5f63802c11eebe06e95a550d","false","6690.145000000484","<div align=left> You will now have time to practice this task.<br><br>Remember: <br> <br><li>Please place your index fingers on the <strong>'S'</strong> and <strong>'L'</strong> keys <br>to respond as fast and accurately as possible.</li><li>Every picture can be classified as either mechanical or non-mechanical.</li><li>If you do not respond in time or commit an error, you will receive a corresponding feedback. </li><li> Please try to respond as <strong> fast </strong> and as <strong> accurately as possible </strong> .<br><li>To ensure optimal results, please minimize distractions and stay focused. </li><br><br>Press SPACE to continue.</div>","32","","","","","","","","","","","","","","","","","","","",""
"html-keyboard-response","10","123338","0.0-2.0-2.0-0.0","m3gyqeypbphx16z","practice_no_cue","5ef3bb265311db14418a71f7","5f60e3c0a3b16e07647b2ff9","5f63802c11eebe06e95a550d","false","null","<span style=""color: black; font-size: 48px"">N + M</span>","null","","","","resp_prompt","","","","","","","","","","","","","","","",""
"categorize-image","11","124567","0.0-2.0-2.0-1.0","m3gyqeypbphx16z","practice_no_cue","5ef3bb265311db14418a71f7","5f60e3c0a3b16e07647b2ff9","5f63802c11eebe06e95a550d","true","722.0349999843165","./Stimuli/ImagesPractice/SN75.jpg","83","","","","test","true","N + M","83","","SN","SN75.jpg","remember","old","1","1","start","left","","","",""
"html-keyboard-response","12","125271","0.0-2.0-2.0-0.1","m3gyqeypbphx16z","practice_no_cue","5ef3bb265311db14418a71f7","5f60e3c0a3b16e07647b2ff9","5f63802c11eebe06e95a550d","false","null","<span style=""color: black; font-size: 48px"">M + N</span>","null","","","","resp_prompt","","","","","","","","","","","","","","","",""
"categorize-image","13","127079","0.0-2.0-2.0-1.1","m3gyqeypbphx16z","practice_no_cue","5ef3bb265311db14418a71f7","5f60e3c0a3b16e07647b2ff9","5f63802c11eebe06e95a550d","true","1302.0249999826774","./Stimuli/ImagesPractice/LM55.jpg","83","","","","test","true","M + N","83","","LM","LM55.jpg","forget","old","2","1","start","left","","","",""
"html-keyboard-response","14","127783","0.0-2.0-2.0-0.2","m3gyqeypbphx16z","practice_no_cue","5ef3bb265311db14418a71f7","5f60e3c0a3b16e07647b2ff9","5f63802c11eebe06e95a550d","false","null","<span style=""color: black; font-size: 48px"">M + N</span>","null","","","","resp_prompt","","","","","","","","","","","","","","","",""
"categorize-image","15","129222","0.0-2.0-2.0-1.2","m3gyqeypbphx16z","practice_no_cue","5ef3bb265311db14418a71f7","5f60e3c0a3b16e07647b2ff9","5f63802c11eebe06e95a550d","true","933.8699999498203","./Stimuli/ImagesPractice/SM35.jpg","83","","","","test","true","M + N","83","","SM","SM35.jpg","remember","old","3","1","start","left","","","",""
"html-keyboard-response","16","129927","0.0-2.0-2.0-0.3","m3gyqeypbphx16z","practice_no_cue","5ef3bb265311db14418a71f7","5f60e3c0a3b16e07647b2ff9","5f63802c11eebe06e95a550d","false","null","<span style=""color: black; font-size: 48px"">N + M</span>","null","","","","resp_prompt","","","","","","","","","","","","","","","",""
"categorize-image","17","131225","0.0-2.0-2.0-1.3","m3gyqeypbphx16z","practice_no_cue","5ef3bb265311db14418a71f7","5f60e3c0a3b16e07647b2ff9","5f63802c11eebe06e95a550d","true","794.2249999614432","./Stimuli/ImagesPractice/LN2.jpg","83","","","","test","true","N + M","83","","LN","LN2.jpg","forget","old","4","1","start","left","","","",""
"html-keyboard-response","18","131933","0.0-2.0-2.0-0.4","m3gyqeypbphx16z","practice_no_cue","5ef3bb265311db14418a71f7","5f60e3c0a3b16e07647b2ff9","5f63802c11eebe06e95a550d","false","null","<span style=""color: black; font-size: 48px"">N + M</span>","null","","","","resp_prompt","","","","","","","","","","","","","","","",""
"categorize-image","19","133249","0.0-2.0-2.0-1.4","m3gyqeypbphx16z","practice_no_cue","5ef3bb265311db14418a71f7","5f60e3c0a3b16e07647b2ff9","5f63802c11eebe06e95a550d","true","809.7749999724329","./Stimuli/ImagesPractice/SM37.jpg","76","","","","test","true","N + M","76","","SM","SM37.jpg","remember","old","5","1","start","right","","","",""
"html-keyboard-response","20","133951","0.0-2.0-2.0-0.5","m3gyqeypbphx16z","practice_no_cue","5ef3bb265311db14418a71f7","5f60e3c0a3b16e07647b2ff9","5f63802c11eebe06e95a550d","false","null","<span style=""color: black; font-size: 48px"">N + M</span>","null","","","","resp_prompt","","","","","","","","","","","","","","","",""
"categorize-image","21","135093","0.0-2.0-2.0-1.5","m3gyqeypbphx16z","practice_no_cue","5ef3bb265311db14418a71f7","5f60e3c0a3b16e07647b2ff9","5f63802c11eebe06e95a550d","true","639.519999967888","./Stimuli/ImagesPractice/SN220.jpg","83","","","","test","true","N + M","83","","SN","SN220.jpg","forget","old","6","1","start","left","","","",""
"html-keyboard-response","22","135798","0.0-2.0-2.0-0.6","m3gyqeypbphx16z","practice_no_cue","5ef3bb265311db14418a71f7","5f60e3c0a3b16e07647b2ff9","5f63802c11eebe06e95a550d","false","null","<span style=""color: black; font-size: 48px"">M + N</span>","null","","","","resp_prompt","","","","","","","","","","","","","","","",""
"categorize-image","23","136987","0.0-2.0-2.0-1.6","m3gyqeypbphx16z","practice_no_cue","5ef3bb265311db14418a71f7","5f60e3c0a3b16e07647b2ff9","5f63802c11eebe06e95a550d","true","682.109999936074","./Stimuli/ImagesPractice/LN4.jpg","76","","","","test","true","M + N","76","","LN","LN4.jpg","remember","old","7","1","start","right","","","",""
"html-keyboard-response","24","137690","0.0-2.0-2.0-0.7","m3gyqeypbphx16z","practice_no_cue","5ef3bb265311db14418a71f7","5f60e3c0a3b16e07647b2ff9","5f63802c11eebe06e95a550d","false","null","<span style=""color: black; font-size: 48px"">M + N</span>","null","","","","resp_prompt","","","","","","","","","","","","","","","",""
"categorize-image","25","138769","0.0-2.0-2.0-1.7","m3gyqeypbphx16z","practice_no_cue","5ef3bb265311db14418a71f7","5f60e3c0a3b16e07647b2ff9","5f63802c11eebe06e95a550d","true","575.3950000507757","./Stimuli/ImagesPractice/SN221.jpg","76","","","","test","true","M + N","76","","SN","SN221.jpg","remember","old","8","1","start","right","","","",""
"html-keyboard-response","26","139474","0.0-2.0-2.0-0.8","m3gyqeypbphx16z","practice_no_cue","5ef3bb265311db14418a71f7","5f60e3c0a3b16e07647b2ff9","5f63802c11eebe06e95a550d","false","null","<span style=""color: black; font-size: 48px"">N + M</span>","null","","","","resp_prompt","","","","","","","","","","","","","","","",""
"categorize-image","27","140533","0.0-2.0-2.0-1.8","m3gyqeypbphx16z","practice_no_cue","5ef3bb265311db14418a71f7","5f60e3c0a3b16e07647b2ff9","5f63802c11eebe06e95a550d","true","554.6150000300258","./Stimuli/ImagesPractice/SN76.jpg","83","","","","test","true","N + M","83","","SN","SN76.jpg","remember","old","9","1","start","left","","","",""
"html-keyboard-response","28","141235","0.0-2.0-2.0-0.9","m3gyqeypbphx16z","practice_no_cue","5ef3bb265311db14418a71f7","5f60e3c0a3b16e07647b2ff9","5f63802c11eebe06e95a550d","false","null","<span style=""color: black; font-size: 48px"">M + N</span>","null","","","","resp_prompt","","","","","","","","","","","","","","","",""
"categorize-image","29","142561","0.0-2.0-2.0-1.9","m3gyqeypbphx16z","practice_no_cue","5ef3bb265311db14418a71f7","5f60e3c0a3b16e07647b2ff9","5f63802c11eebe06e95a550d","true","822.9450000217184","./Stimuli/ImagesPractice/SM97.jpg","83","","","","test","true","M + N","83","","SM","SM97.jpg","forget","old","10","1","start","left","","","",""
"html-keyboard-response","30","143265","0.0-2.0-2.0-0.10","m3gyqeypbphx16z","practice_no_cue","5ef3bb265311db14418a71f7","5f60e3c0a3b16e07647b2ff9","5f63802c11eebe06e95a550d","false","null","<span style=""color: black; font-size: 48px"">M + N</span>","null","","","","resp_prompt","","","","","","","","","","","","","","","",""
"categorize-image","31","145014","0.0-2.0-2.0-1.10","m3gyqeypbphx16z","practice_no_cue","5ef3bb265311db14418a71f7","5f60e3c0a3b16e07647b2ff9","5f63802c11eebe06e95a550d","true","1242.670000065118","./Stimuli/ImagesPractice/SM62.jpg","83","","","","test","true","M + N","83","","SM","SM62.jpg","forget","old","11","1","start","left","","","",""
"html-keyboard-response","32","145718","0.0-2.0-2.0-0.11","m3gyqeypbphx16z","practice_no_cue","5ef3bb265311db14418a71f7","5f60e3c0a3b16e07647b2ff9","5f63802c11eebe06e95a550d","false","null","<span style=""color: black; font-size: 48px"">N + M</span>","null","","","","resp_prompt","","","","","","","","","","","","","","","",""
"categorize-image","33","147158","0.0-2.0-2.0-1.11","m3gyqeypbphx16z","practice_no_cue","5ef3bb265311db14418a71f7","5f60e3c0a3b16e07647b2ff9","5f63802c11eebe06e95a550d","true","933.4599999710917","./Stimuli/ImagesPractice/LM239.jpg","76","","","","test","true","N + M","76","","LM","LM239.jpg","forget","old","12","1","start","right","","","",""
"html-keyboard-response","34","147862","0.0-2.0-2.0-0.12","m3gyqeypbphx16z","practice_no_cue","5ef3bb265311db14418a71f7","5f60e3c0a3b16e07647b2ff9","5f63802c11eebe06e95a550d","false","null","<span style=""color: black; font-size: 48px"">M + N</span>","null","","","","resp_prompt","","","","","","","","","","","","","","","",""
"categorize-image","35","149104","0.0-2.0-2.0-1.12","m3gyqeypbphx16z","practice_no_cue","5ef3bb265311db14418a71f7","5f60e3c0a3b16e07647b2ff9","5f63802c11eebe06e95a550d","true","737.8299999982119","./Stimuli/ImagesPractice/SN222.jpg","76","","","","test","true","M + N","76","","SN","SN222.jpg","forget","old","13","1","start","right","","","",""
"html-keyboard-response","36","149807","0.0-2.0-2.0-0.13","m3gyqeypbphx16z","practice_no_cue","5ef3bb265311db14418a71f7","5f60e3c0a3b16e07647b2ff9","5f63802c11eebe06e95a550d","false","null","<span style=""color: black; font-size: 48px"">M + N</span>","null","","","","resp_prompt","","","","","","","","","","","","","","","",""
"categorize-image","37","151518","0.0-2.0-2.0-1.13","m3gyqeypbphx16z","practice_no_cue","5ef3bb265311db14418a71f7","5f60e3c0a3b16e07647b2ff9","5f63802c11eebe06e95a550d","true","1207.4899999424815","./Stimuli/ImagesPractice/SM98.jpg","83","","","","test","true","M + N","83","","SM","SM98.jpg","remember","old","14","1","start","left","","","",""
"html-keyboard-response","38","152222","0.0-2.0-2.0-0.14","m3gyqeypbphx16z","practice_no_cue","5ef3bb265311db14418a71f7","5f60e3c0a3b16e07647b2ff9","5f63802c11eebe06e95a550d","false","null","<span style=""color: black; font-size: 48px"">N + M</span>","null","","","","resp_prompt","","","","","","","","","","","","","","","",""
"categorize-image","39","154290","0.0-2.0-2.0-1.14","m3gyqeypbphx16z","practice_no_cue","5ef3bb265311db14418a71f7","5f60e3c0a3b16e07647b2ff9","5f63802c11eebe06e95a550d","true","1562.7849999582395","./Stimuli/ImagesPractice/LN72.jpg","83","","","","test","true","N + M","83","","LN","LN72.jpg","forget","old","15","1","start","left","","","",""
"html-keyboard-response","40","154994","0.0-2.0-2.0-0.15","m3gyqeypbphx16z","practice_no_cue","5ef3bb265311db14418a71f7","5f60e3c0a3b16e07647b2ff9","5f63802c11eebe06e95a550d","false","null","<span style=""color: black; font-size: 48px"">N + M</span>","null","","","","resp_prompt","","","","","","","","","","","","","","","",""
"categorize-image","41","156567","0.0-2.0-2.0-1.15","m3gyqeypbphx16z","practice_no_cue","5ef3bb265311db14418a71f7","5f60e3c0a3b16e07647b2ff9","5f63802c11eebe06e95a550d","true","1067.284999997355","./Stimuli/ImagesPractice/SM61.jpg","76","","","","test","true","N + M","76","","SM","SM61.jpg","remember","old","16","1","start","right","","","",""
"html-keyboard-response","42","161627","0.0-2.0-3.0","m3gyqeypbphx16z","break","5ef3bb265311db14418a71f7","5f60e3c0a3b16e07647b2ff9","5f63802c11eebe06e95a550d","false","5053.064999985509","<p style='font-size: 32px;'>Break</><br><br><br><br><br><p style='font-size: 24px;'>In the last block, you committed 0 errors and did not respond in time on 0 trials.
</p><p style='font-size: 24px;'>Try to respond as fast and accurately as possible in the next block as well! </p><p style='font-size: 24px;'>Press SPACE to continue.</p>","32","","","","","","","","","","","","","","","","","","","",""
"html-keyboard-response","43","164573","0.0-2.0-4.0","m3gyqeypbphx16z","instructions","5ef3bb265311db14418a71f7","5f60e3c0a3b16e07647b2ff9","5f63802c11eebe06e95a550d","false","2942.8400000324473","<div align=left> Great!<br><br>Are you ready to continue?<br><br>If you want to reread the instructions and redo the practice trials, <br>please press „Z“. <br><br>Press SPACE to CONTINUE with the experiment when you are ready. </div>","32","","","","","","","","","","","","","","","","","","","",""
"html-keyboard-response","44","189907","0.0-3.0-0.0","m3gyqeypbphx16z","instructions","5ef3bb265311db14418a71f7","5f60e3c0a3b16e07647b2ff9","5f63802c11eebe06e95a550d","false","25328.320000087842","<div align=left>Great!<br> <strong>Attention</strong>! You will now receive a second, additional task! <br><br>To this point it was you <strong>first task</strong> to correctly <strong>classify objects</strong>. <br><br>As mentioned in the beginning, we aim to examine how well humans can remember previously learned information.<br>We would like to find out whether our memory improves if we only remember information that is relevant to us. <br><br>Therefore, your <strong>second task</strong> will be to <strong>remember</strong> the pictures you are to categorize. <br> After the learning phase, there will be a memory test phase, in which you will be asked to indicate whether you have seen a picture before or not. <br>Some, but not all pictures shown in the learning phase will appear in the memory test phase.<br>After classifying a picture, you will be told whether you should remember it for the memory test phase or not. <br>Thus, some pictures can be forgotten, whereas others have to be remembered. <br><br>Note: From now on, feedback will only be displayed if you responded incorrectly or not in time.<br><br>Press SPACE to continue.</div>","32","","","","","","","","","","","","","","","","","","","",""
"html-keyboard-response","45","206520","0.0-3.0-1.0","m3gyqeypbphx16z","instructions","5ef3bb265311db14418a71f7","5f60e3c0a3b16e07647b2ff9","5f63802c11eebe06e95a550d","false","16612.904999987222","<div align=left>In the following part, you will thus have to remember only some pictures. <br>Immediately after seeing and classifying the picture, a symbol will be displayed, indicating whether you should remember or forget the previous picture. <br><br>A <span style='color: dodgerblue; font-size: 28px'>O</span> indicates REMEMBER. That means, you have to remember this picture, because it will be tested later. <br><br>A <span style='color: darkorange; font-size:28px'>Ø</span> indicates FORGET. You do not have to remember this picture. <br><br> As you will have to remember a lot of pictures, it will be hard for you to remember all of them. <br>It will put you at an advantage if you instantly forget the pictures you are not asked to remember. <br> This will make it easier for you to remember the pictures that will be tested afterwards. <br><br>Press SPACE to continue.</div>","32","","","","","","","","","","","","","","","","","","","",""
"html-keyboard-response","46","211141","0.0-3.0-2.0","m3gyqeypbphx16z","instructions","5ef3bb265311db14418a71f7","5f60e3c0a3b16e07647b2ff9","5f63802c11eebe06e95a550d","false","4618.580000009388","<div align=left> Now you have the chance to practice both tasks together.<br><br>Remember: <br> <br><li>Please place your index fingers on the <strong>'S'</strong> and <strong>'L'</strong> keys <br>to respond as fast and accurately as possible.</li><li>Every picture can be classified as either mechanical or non-mechanical.</li><li>If you do not respond in time or commit an error, you will receive a corresponding feedback. <br>Please try to respond as <strong> fast </strong> and as <strong> accurately as possible </strong>.</li><li> Please remember only the to-be-remembered <span style='color: dodgerblue; font-size: 28px'>O</span> pictures. <br></li><li> Please minimize distractions and stay focused. </li><br><br>Press SPACE to START</div>","32","","","","","","","","","","","","","","","","","","","",""
"html-keyboard-response","47","211844","0.0-3.0-3.0-0.0","m3gyqeypbphx16z","practice_cue","5ef3bb265311db14418a71f7","5f60e3c0a3b16e07647b2ff9","5f63802c11eebe06e95a550d","false","null","<span style=""color: black; font-size: 48px"">N + M</span>","null","","","","resp_prompt","","","","","","","","","","","","","","","",""
"categorize-image","48","212667","0.0-3.0-3.0-1.0","m3gyqeypbphx16z","practice_cue","5ef3bb265311db14418a71f7","5f60e3c0a3b16e07647b2ff9","5f63802c11eebe06e95a550d","true","817.2999999951571","./Stimuli/ImagesPractice/SN76.jpg","83","","","","test","true","N + M","83","","SN","SN76.jpg","remember","old","17","2","practice_forget","left","","","",""
"html-keyboard-response","49","214675","0.0-3.0-3.0-3.0","m3gyqeypbphx16z","practice_cue","5ef3bb265311db14418a71f7","5f60e3c0a3b16e07647b2ff9","5f63802c11eebe06e95a550d","false","null","<div style=""align-items: center; display: flex; color: dodgerblue; font-size: 90px""><b>o</b></div>","null","","","","forget_cue","","","","","","","","","","","","","","","",""
"html-keyboard-response","50","215377","0.0-3.0-3.0-0.1","m3gyqeypbphx16z","practice_cue","5ef3bb265311db14418a71f7","5f60e3c0a3b16e07647b2ff9","5f63802c11eebe06e95a550d","false","null","<span style=""color: black; font-size: 48px"">N + M</span>","null","","","","resp_prompt","","","","","","","","","","","","","","","",""
"categorize-image","51","216292","0.0-3.0-3.0-1.1","m3gyqeypbphx16z","practice_cue","5ef3bb265311db14418a71f7","5f60e3c0a3b16e07647b2ff9","5f63802c11eebe06e95a550d","true","907.7100000577047","./Stimuli/ImagesPractice/LN72.jpg","83","","","","test","true","N + M","83","","LN","LN72.jpg","forget","old","18","2","practice_forget","left","","","",""
"html-keyboard-response","52","218297","0.0-3.0-3.0-3.1","m3gyqeypbphx16z","practice_cue","5ef3bb265311db14418a71f7","5f60e3c0a3b16e07647b2ff9","5f63802c11eebe06e95a550d","false","null","<div style=""align-items: center; display: flex; color: darkorange; font-size: 90px""><b>ø</b></div>","null","","","","forget_cue","","","","","","","","","","","","","","","",""
"html-keyboard-response","53","219001","0.0-3.0-3.0-0.2","m3gyqeypbphx16z","practice_cue","5ef3bb265311db14418a71f7","5f60e3c0a3b16e07647b2ff9","5f63802c11eebe06e95a550d","false","null","<span style=""color: black; font-size: 48px"">N + M</span>","null","","","","resp_prompt","","","","","","","","","","","","","","","",""
"categorize-image","54","219960","0.0-3.0-3.0-1.2","m3gyqeypbphx16z","practice_cue","5ef3bb265311db14418a71f7","5f60e3c0a3b16e07647b2ff9","5f63802c11eebe06e95a550d","true","954.5400000642985","./Stimuli/ImagesPractice/LM239.jpg","76","","","","test","true","N + M","76","","LM","LM239.jpg","forget","old","19","2","practice_forget","right","","","",""
"html-keyboard-response","55","221965","0.0-3.0-3.0-3.2","m3gyqeypbphx16z","practice_cue","5ef3bb265311db14418a71f7","5f60e3c0a3b16e07647b2ff9","5f63802c11eebe06e95a550d","false","null","<div style=""align-items: center; display: flex; color: darkorange; font-size: 90px""><b>ø</b></div>","null","","","","forget_cue","","","","","","","","","","","","","","","",""
"html-keyboard-response","56","222668","0.0-3.0-3.0-0.3","m3gyqeypbphx16z","practice_cue","5ef3bb265311db14418a71f7","5f60e3c0a3b16e07647b2ff9","5f63802c11eebe06e95a550d","false","null","<span style=""color: black; font-size: 48px"">N + M</span>","null","","","","resp_prompt","","","","","","","","","","","","","","","",""
"categorize-image","57","223314","0.0-3.0-3.0-1.3","m3gyqeypbphx16z","practice_cue","5ef3bb265311db14418a71f7","5f60e3c0a3b16e07647b2ff9","5f63802c11eebe06e95a550d","true","639.3300000345334","./Stimuli/ImagesPractice/SM61.jpg","76","","","","test","true","N + M","76","","SM","SM61.jpg","remember","old","20","2","practice_forget","right","","","",""
"html-keyboard-response","58","225320","0.0-3.0-3.0-3.3","m3gyqeypbphx16z","practice_cue","5ef3bb265311db14418a71f7","5f60e3c0a3b16e07647b2ff9","5f63802c11eebe06e95a550d","false","null","<div style=""align-items: center; display: flex; color: dodgerblue; font-size: 90px""><b>o</b></div>","null","","","","forget_cue","","","","","","","","","","","","","","","",""
"html-keyboard-response","59","226024","0.0-3.0-3.0-0.4","m3gyqeypbphx16z","practice_cue","5ef3bb265311db14418a71f7","5f60e3c0a3b16e07647b2ff9","5f63802c11eebe06e95a550d","false","null","<span style=""color: black; font-size: 48px"">M + N</span>","null","","","","resp_prompt","","","","","","","","","","","","","","","",""
"categorize-image","60","227142","0.0-3.0-3.0-1.4","m3gyqeypbphx16z","practice_cue","5ef3bb265311db14418a71f7","5f60e3c0a3b16e07647b2ff9","5f63802c11eebe06e95a550d","true","1112.7599999308586","./Stimuli/ImagesPractice/SM97.jpg","83","","","","test","true","M + N","83","","SM","SM97.jpg","forget","old","21","2","practice_forget","left","","","",""
"html-keyboard-response","61","229148","0.0-3.0-3.0-3.4","m3gyqeypbphx16z","practice_cue","5ef3bb265311db14418a71f7","5f60e3c0a3b16e07647b2ff9","5f63802c11eebe06e95a550d","false","null","<div style=""align-items: center; display: flex; color: darkorange; font-size: 90px""><b>ø</b></div>","null","","","","forget_cue","","","","","","","","","","","","","","","",""
"html-keyboard-response","62","229852","0.0-3.0-3.0-0.5","m3gyqeypbphx16z","practice_cue","5ef3bb265311db14418a71f7","5f60e3c0a3b16e07647b2ff9","5f63802c11eebe06e95a550d","false","null","<span style=""color: black; font-size: 48px"">M + N</span>","null","","","","resp_prompt","","","","","","","","","","","","","","","",""
"categorize-image","63","230459","0.0-3.0-3.0-1.5","m3gyqeypbphx16z","practice_cue","5ef3bb265311db14418a71f7","5f60e3c0a3b16e07647b2ff9","5f63802c11eebe06e95a550d","true","601.6250000102445","./Stimuli/ImagesPractice/SN221.jpg","76","","","","test","true","M + N","76","","SN","SN221.jpg","remember","old","22","2","practice_forget","right","","","",""
"html-keyboard-response","64","232463","0.0-3.0-3.0-3.5","m3gyqeypbphx16z","practice_cue","5ef3bb265311db14418a71f7","5f60e3c0a3b16e07647b2ff9","5f63802c11eebe06e95a550d","false","null","<div style=""align-items: center; display: flex; color: dodgerblue; font-size: 90px""><b>o</b></div>","null","","","","forget_cue","","","","","","","","","","","","","","","",""
"html-keyboard-response","65","233167","0.0-3.0-3.0-0.6","m3gyqeypbphx16z","practice_cue","5ef3bb265311db14418a71f7","5f60e3c0a3b16e07647b2ff9","5f63802c11eebe06e95a550d","false","null","<span style=""color: black; font-size: 48px"">M + N</span>","null","","","","resp_prompt","","","","","","","","","","","","","","","",""
"categorize-image","66","234031","0.0-3.0-3.0-1.6","m3gyqeypbphx16z","practice_cue","5ef3bb265311db14418a71f7","5f60e3c0a3b16e07647b2ff9","5f63802c11eebe06e95a550d","true","858.9050000300631","./Stimuli/ImagesPractice/SM62.jpg","83","","","","test","true","M + N","83","","SM","SM62.jpg","forget","old","23","2","practice_forget","left","","","",""
"html-keyboard-response","67","236037","0.0-3.0-3.0-3.6","m3gyqeypbphx16z","practice_cue","5ef3bb265311db14418a71f7","5f60e3c0a3b16e07647b2ff9","5f63802c11eebe06e95a550d","false","null","<div style=""align-items: center; display: flex; color: darkorange; font-size: 90px""><b>ø</b></div>","null","","","","forget_cue","","","","","","","","","","","","","","","",""
"html-keyboard-response","68","236739","0.0-3.0-3.0-0.7","m3gyqeypbphx16z","practice_cue","5ef3bb265311db14418a71f7","5f60e3c0a3b16e07647b2ff9","5f63802c11eebe06e95a550d","false","null","<span style=""color: black; font-size: 48px"">N + M</span>","null","","","","resp_prompt","","","","","","","","","","","","","","","",""
"categorize-image","69","237636","0.0-3.0-3.0-1.7","m3gyqeypbphx16z","practice_cue","5ef3bb265311db14418a71f7","5f60e3c0a3b16e07647b2ff9","5f63802c11eebe06e95a550d","true","889.5999999949709","./Stimuli/ImagesPractice/SN75.jpg","83","","","","test","true","N + M","83","","SN","SN75.jpg","remember","old","24","2","practice_forget","left","","","",""
"html-keyboard-response","70","239639","0.0-3.0-3.0-3.7","m3gyqeypbphx16z","practice_cue","5ef3bb265311db14418a71f7","5f60e3c0a3b16e07647b2ff9","5f63802c11eebe06e95a550d","false","null","<div style=""align-items: center; display: flex; color: dodgerblue; font-size: 90px""><b>o</b></div>","null","","","","forget_cue","","","","","","","","","","","","","","","",""
"html-keyboard-response","71","240343","0.0-3.0-3.0-0.8","m3gyqeypbphx16z","practice_cue","5ef3bb265311db14418a71f7","5f60e3c0a3b16e07647b2ff9","5f63802c11eebe06e95a550d","false","null","<span style=""color: black; font-size: 48px"">M + N</span>","null","","","","resp_prompt","","","","","","","","","","","","","","","",""
"categorize-image","72","241589","0.0-3.0-3.0-1.8","m3gyqeypbphx16z","practice_cue","5ef3bb265311db14418a71f7","5f60e3c0a3b16e07647b2ff9","5f63802c11eebe06e95a550d","true","1241.649999981746","./Stimuli/ImagesPractice/LM55.jpg","83","","","","test","true","M + N","83","","LM","LM55.jpg","forget","old","25","2","practice_forget","left","","","",""
"html-keyboard-response","73","243595","0.0-3.0-3.0-3.8","m3gyqeypbphx16z","practice_cue","5ef3bb265311db14418a71f7","5f60e3c0a3b16e07647b2ff9","5f63802c11eebe06e95a550d","false","null","<div style=""align-items: center; display: flex; color: darkorange; font-size: 90px""><b>ø</b></div>","null","","","","forget_cue","","","","","","","","","","","","","","","",""
"html-keyboard-response","74","244299","0.0-3.0-3.0-0.9","m3gyqeypbphx16z","practice_cue","5ef3bb265311db14418a71f7","5f60e3c0a3b16e07647b2ff9","5f63802c11eebe06e95a550d","false","null","<span style=""color: black; font-size: 48px"">N + M</span>","null","","","","resp_prompt","","","","","","","","","","","","","","","",""
"categorize-image","75","244925","0.0-3.0-3.0-1.9","m3gyqeypbphx16z","practice_cue","5ef3bb265311db14418a71f7","5f60e3c0a3b16e07647b2ff9","5f63802c11eebe06e95a550d","true","620.4800000414252","./Stimuli/ImagesPractice/SM37.jpg","76","","","","test","true","N + M","76","","SM","SM37.jpg","remember","old","26","2","practice_forget","right","","","",""
"html-keyboard-response","76","246931","0.0-3.0-3.0-3.9","m3gyqeypbphx16z","practice_cue","5ef3bb265311db14418a71f7","5f60e3c0a3b16e07647b2ff9","5f63802c11eebe06e95a550d","false","null","<div style=""align-items: center; display: flex; color: dodgerblue; font-size: 90px""><b>o</b></div>","null","","","","forget_cue","","","","","","","","","","","","","","","",""
"html-keyboard-response","77","247637","0.0-3.0-3.0-0.10","m3gyqeypbphx16z","practice_cue","5ef3bb265311db14418a71f7","5f60e3c0a3b16e07647b2ff9","5f63802c11eebe06e95a550d","false","null","<span style=""color: black; font-size: 48px"">M + N</span>","null","","","","resp_prompt","","","","","","","","","","","","","","","",""
"categorize-image","78","248501","0.0-3.0-3.0-1.10","m3gyqeypbphx16z","practice_cue","5ef3bb265311db14418a71f7","5f60e3c0a3b16e07647b2ff9","5f63802c11eebe06e95a550d","true","840.3249999973923","./Stimuli/ImagesPractice/SN222.jpg","76","","","","test","true","M + N","76","","SN","SN222.jpg","forget","old","27","2","practice_forget","right","","","",""
"html-keyboard-response","79","250506","0.0-3.0-3.0-3.10","m3gyqeypbphx16z","practice_cue","5ef3bb265311db14418a71f7","5f60e3c0a3b16e07647b2ff9","5f63802c11eebe06e95a550d","false","null","<div style=""align-items: center; display: flex; color: darkorange; font-size: 90px""><b>ø</b></div>","null","","","","forget_cue","","","","","","","","","","","","","","","",""
"html-keyboard-response","80","251209","0.0-3.0-3.0-0.11","m3gyqeypbphx16z","practice_cue","5ef3bb265311db14418a71f7","5f60e3c0a3b16e07647b2ff9","5f63802c11eebe06e95a550d","false","null","<span style=""color: black; font-size: 48px"">M + N</span>","null","","","","resp_prompt","","","","","","","","","","","","","","","",""
"categorize-image","81","252268","0.0-3.0-3.0-1.11","m3gyqeypbphx16z","practice_cue","5ef3bb265311db14418a71f7","5f60e3c0a3b16e07647b2ff9","5f63802c11eebe06e95a550d","true","1053.8500000257045","./Stimuli/ImagesPractice/SM98.jpg","83","","","","test","true","M + N","83","","SM","SM98.jpg","remember","old","28","2","practice_forget","left","","","",""
"html-keyboard-response","82","254271","0.0-3.0-3.0-3.11","m3gyqeypbphx16z","practice_cue","5ef3bb265311db14418a71f7","5f60e3c0a3b16e07647b2ff9","5f63802c11eebe06e95a550d","false","null","<div style=""align-items: center; display: flex; color: dodgerblue; font-size: 90px""><b>o</b></div>","null","","","","forget_cue","","","","","","","","","","","","","","","",""
"html-keyboard-response","83","254974","0.0-3.0-3.0-0.12","m3gyqeypbphx16z","practice_cue","5ef3bb265311db14418a71f7","5f60e3c0a3b16e07647b2ff9","5f63802c11eebe06e95a550d","false","null","<span style=""color: black; font-size: 48px"">N + M</span>","null","","","","resp_prompt","","","","","","","","","","","","","","","",""
"categorize-image","84","255701","0.0-3.0-3.0-1.12","m3gyqeypbphx16z","practice_cue","5ef3bb265311db14418a71f7","5f60e3c0a3b16e07647b2ff9","5f63802c11eebe06e95a550d","true","720.7399999024346","./Stimuli/ImagesPractice/SN220.jpg","83","","","","test","true","N + M","83","","SN","SN220.jpg","forget","old","29","2","practice_forget","left","","","",""
"html-keyboard-response","85","257704","0.0-3.0-3.0-3.12","m3gyqeypbphx16z","practice_cue","5ef3bb265311db14418a71f7","5f60e3c0a3b16e07647b2ff9","5f63802c11eebe06e95a550d","false","null","<div style=""align-items: center; display: flex; color: darkorange; font-size: 90px""><b>ø</b></div>","null","","","","forget_cue","","","","","","","","","","","","","","","",""
"html-keyboard-response","86","258407","0.0-3.0-3.0-0.13","m3gyqeypbphx16z","practice_cue","5ef3bb265311db14418a71f7","5f60e3c0a3b16e07647b2ff9","5f63802c11eebe06e95a550d","false","null","<span style=""color: black; font-size: 48px"">M + N</span>","null","","","","resp_prompt","","","","","","","","","","","","","","","",""
"categorize-image","87","259480","0.0-3.0-3.0-1.13","m3gyqeypbphx16z","practice_cue","5ef3bb265311db14418a71f7","5f60e3c0a3b16e07647b2ff9","5f63802c11eebe06e95a550d","true","1066.8149999110028","./Stimuli/ImagesPractice/SM35.jpg","83","","","","test","true","M + N","83","","SM","SM35.jpg","remember","old","30","2","practice_forget","left","","","",""
"html-keyboard-response","88","261485","0.0-3.0-3.0-3.13","m3gyqeypbphx16z","practice_cue","5ef3bb265311db14418a71f7","5f60e3c0a3b16e07647b2ff9","5f63802c11eebe06e95a550d","false","null","<div style=""align-items: center; display: flex; color: dodgerblue; font-size: 90px""><b>o</b></div>","null","","","","forget_cue","","","","","","","","","","","","","","","",""
"html-keyboard-response","89","262187","0.0-3.0-3.0-0.14","m3gyqeypbphx16z","practice_cue","5ef3bb265311db14418a71f7","5f60e3c0a3b16e07647b2ff9","5f63802c11eebe06e95a550d","false","null","<span style=""color: black; font-size: 48px"">N + M</span>","null","","","","resp_prompt","","","","","","","","","","","","","","","",""
"categorize-image","90","262984","0.0-3.0-3.0-1.14","m3gyqeypbphx16z","practice_cue","5ef3bb265311db14418a71f7","5f60e3c0a3b16e07647b2ff9","5f63802c11eebe06e95a550d","true","791.425000061281","./Stimuli/ImagesPractice/LN2.jpg","83","","","","test","true","N + M","83","","LN","LN2.jpg","forget","old","31","2","practice_forget","left","","","",""
"html-keyboard-response","91","264989","0.0-3.0-3.0-3.14","m3gyqeypbphx16z","practice_cue","5ef3bb265311db14418a71f7","5f60e3c0a3b16e07647b2ff9","5f63802c11eebe06e95a550d","false","null","<div style=""align-items: center; display: flex; color: darkorange; font-size: 90px""><b>ø</b></div>","null","","","","forget_cue","","","","","","","","","","","","","","","",""
"html-keyboard-response","92","265693","0.0-3.0-3.0-0.15","m3gyqeypbphx16z","practice_cue","5ef3bb265311db14418a71f7","5f60e3c0a3b16e07647b2ff9","5f63802c11eebe06e95a550d","false","null","<span style=""color: black; font-size: 48px"">M + N</span>","null","","","","resp_prompt","","","","","","","","","","","","","","","",""
"categorize-image","93","266385","0.0-3.0-3.0-1.15","m3gyqeypbphx16z","practice_cue","5ef3bb265311db14418a71f7","5f60e3c0a3b16e07647b2ff9","5f63802c11eebe06e95a550d","true","686.5400000242516","./Stimuli/ImagesPractice/LN4.jpg","76","","","","test","true","M + N","76","","LN","LN4.jpg","remember","old","32","2","practice_forget","right","","","",""
"html-keyboard-response","94","268392","0.0-3.0-3.0-3.15","m3gyqeypbphx16z","practice_cue","5ef3bb265311db14418a71f7","5f60e3c0a3b16e07647b2ff9","5f63802c11eebe06e95a550d","false","null","<div style=""align-items: center; display: flex; color: dodgerblue; font-size: 90px""><b>o</b></div>","null","","","","forget_cue","","","","","","","","","","","","","","","",""
"html-keyboard-response","95","271257","0.0-3.0-4.0","m3gyqeypbphx16z","break","5ef3bb265311db14418a71f7","5f60e3c0a3b16e07647b2ff9","5f63802c11eebe06e95a550d","false","2859.319999930449","<p style='font-size: 32px;'>Break</><br><br><br><br><br><p style='font-size: 24px;'>In the last block, you committed 0 errors and did not respond in time on 0 trials.
</p><p style='font-size: 24px;'>Try to respond as fast and accurately as possible in the next block as well! </p><p style='font-size: 24px;'>Press SPACE to continue.</p>","32","","","","","","","","","","","","","","","","","","","",""
"html-keyboard-response","96","287940","0.0-3.0-5.0","m3gyqeypbphx16z","instructions","5ef3bb265311db14418a71f7","5f60e3c0a3b16e07647b2ff9","5f63802c11eebe06e95a550d","false","16680.674999952316","<div align=left> Now, to practice, we kindly ask you to remember as many of the to-be-remembered pictures<br>of the previous learning phase as possible.<br><br>The pictures you were instructed to remember were the pictures followed by a <span style='color: dodgerblue; font-size: 28px'>O</span>.<br><br>In this memory test phase, you will also see some new pictures.<br>It is your task to remember whether you were presented with this specific picture in this study so far or not.<br>If you recognize an object (you have already seen it in this study), it is an OLD object. <br>If you do not recognize an object (you have NOT seen it in this study), it is a NEW object. <br><strong> Attention</strong>: As already mentioned, <span style='color: darkorange; font-size:28px'>Ø</span>-pictures will <strong>never</strong> appear in this memory test (neither as new objects). <br><br>Press SPACE to continue. </div>","32","","","","","","","","","","","","","","","","","","","",""
"html-keyboard-response","97","305701","0.0-3.0-6.0","m3gyqeypbphx16z","instructions","5ef3bb265311db14418a71f7","5f60e3c0a3b16e07647b2ff9","5f63802c11eebe06e95a550d","false","17757.119999965653","<div align=left> M and N no longer will appear on the left/right of the fixation cross. <br>Instead there will be a note at the bottom of the left or right side  <br>indicating which key you should press for an old or new object:  <br> <br>Press the <strong>right</strong> key to classify an object as <strong>old</strong> and press the <strong>left</strong>, to classify an object as <strong>new</strong>.<br>Please classify the objects as new/old by again placing your index finger on the 'S' and 'L' keys <br>and press them accordingly.<br><br><strong>Old:</strong> This object has been presented before. <br><strong>New:</strong> This object has <strong>not</strong> been presented.<br><br>Now please put your right and left index fingers on the 'S' and 'L' keys of your keyboard. <br>Please respond as fast and as accurately as possible!<br><br>Press SPACE to continue. </div>","32","","","","","","","","","","","","","","","","","","","",""
"categorize-image","98","307255","0.0-3.0-7.0-0.0","m3gyqeypbphx16z","practice_recog","5ef3bb265311db14418a71f7","5f60e3c0a3b16e07647b2ff9","5f63802c11eebe06e95a550d","true","1042.5849999301136","./Stimuli/ImagesPractice/SM35.jpg","76","","","","test","false","","83","","SM","SM35.jpg","","old","33","3","practice_recog","right","","","",""
"categorize-image","99","309615","0.0-3.0-7.0-0.1","m3gyqeypbphx16z","practice_recog","5ef3bb265311db14418a71f7","5f60e3c0a3b16e07647b2ff9","5f63802c11eebe06e95a550d","true","1850.715000065975","./Stimuli/ImagesPractice/LM147.jpg","83","","","","test","false","","76","","LM","LM147.jpg","","new","34","3","practice_recog","left","","","",""
"categorize-image","100","311778","0.0-3.0-7.0-0.2","m3gyqeypbphx16z","practice_recog","5ef3bb265311db14418a71f7","5f60e3c0a3b16e07647b2ff9","5f63802c11eebe06e95a550d","true","1657.344999955967","./Stimuli/ImagesPractice/LN109.jpg","76","","","","test","true","","76","","LN","LN109.jpg","","new","35","3","practice_recog","right","","","",""
"categorize-image","101","313341","0.0-3.0-7.0-0.3","m3gyqeypbphx16z","practice_recog","5ef3bb265311db14418a71f7","5f60e3c0a3b16e07647b2ff9","5f63802c11eebe06e95a550d","true","1058.3150000311434","./Stimuli/ImagesPractice/LM224.jpg","76","","","","test","true","","76","","LM","LM224.jpg","","new","36","3","practice_recog","right","","","",""
"categorize-image","102","314631","0.0-3.0-7.0-0.4","m3gyqeypbphx16z","practice_recog","5ef3bb265311db14418a71f7","5f60e3c0a3b16e07647b2ff9","5f63802c11eebe06e95a550d","true","783.7000000290573","./Stimuli/ImagesPractice/SN205.jpg","76","","","","test","true","","76","","SN","SN205.jpg","","new","37","3","practice_recog","right","","","",""
"categorize-image","103","315951","0.0-3.0-7.0-0.5","m3gyqeypbphx16z","practice_recog","5ef3bb265311db14418a71f7","5f60e3c0a3b16e07647b2ff9","5f63802c11eebe06e95a550d","true","816.1149999359623","./Stimuli/ImagesPractice/LN4.jpg","83","","","","test","true","","83","","LN","LN4.jpg","","old","38","3","practice_recog","left","","","",""
"categorize-image","104","317227","0.0-3.0-7.0-0.6","m3gyqeypbphx16z","practice_recog","5ef3bb265311db14418a71f7","5f60e3c0a3b16e07647b2ff9","5f63802c11eebe06e95a550d","true","771.7650000704452","./Stimuli/ImagesPractice/SM37.jpg","83","","","","test","true","","83","","SM","SM37.jpg","","old","39","3","practice_recog","left","","","",""
"categorize-image","105","318374","0.0-3.0-7.0-0.7","m3gyqeypbphx16z","practice_recog","5ef3bb265311db14418a71f7","5f60e3c0a3b16e07647b2ff9","5f63802c11eebe06e95a550d","true","641.9849999947473","./Stimuli/ImagesPractice/LM230.jpg","76","","","","test","true","","76","","LM","LM230.jpg","","new","40","3","practice_recog","right","","","",""
"categorize-image","106","319727","0.0-3.0-7.0-0.8","m3gyqeypbphx16z","practice_recog","5ef3bb265311db14418a71f7","5f60e3c0a3b16e07647b2ff9","5f63802c11eebe06e95a550d","true","846.4249999960884","./Stimuli/ImagesPractice/SM61.jpg","83","","","","test","true","","83","","SM","SM61.jpg","","old","41","3","practice_recog","left","","","",""
"categorize-image","107","321321","0.0-3.0-7.0-0.9","m3gyqeypbphx16z","practice_recog","5ef3bb265311db14418a71f7","5f60e3c0a3b16e07647b2ff9","5f63802c11eebe06e95a550d","true","1086.9999999413267","./Stimuli/ImagesPractice/LM143.jpg","76","","","","test","true","","76","","LM","LM143.jpg","","new","42","3","practice_recog","right","","","",""
"categorize-image","108","322647","0.0-3.0-7.0-0.10","m3gyqeypbphx16z","practice_recog","5ef3bb265311db14418a71f7","5f60e3c0a3b16e07647b2ff9","5f63802c11eebe06e95a550d","true","822.455000015907","./Stimuli/ImagesPractice/SN75.jpg","83","","","","test","true","","83","","SN","SN75.jpg","","old","43","3","practice_recog","left","","","",""
"categorize-image","109","323846","0.0-3.0-7.0-0.11","m3gyqeypbphx16z","practice_recog","5ef3bb265311db14418a71f7","5f60e3c0a3b16e07647b2ff9","5f63802c11eebe06e95a550d","true","691.675000009127","./Stimuli/ImagesPractice/SN221.jpg","83","","","","test","true","","83","","SN","SN221.jpg","","old","44","3","practice_recog","left","","","",""
"categorize-image","110","324982","0.0-3.0-7.0-0.12","m3gyqeypbphx16z","practice_recog","5ef3bb265311db14418a71f7","5f60e3c0a3b16e07647b2ff9","5f63802c11eebe06e95a550d","true","631.0249998932704","./Stimuli/ImagesPractice/LN15.jpg","76","","","","test","true","","76","","LN","LN15.jpg","","new","45","3","practice_recog","right","","","",""
"categorize-image","111","326581","0.0-3.0-7.0-0.13","m3gyqeypbphx16z","practice_recog","5ef3bb265311db14418a71f7","5f60e3c0a3b16e07647b2ff9","5f63802c11eebe06e95a550d","true","1093.2550000725314","./Stimuli/ImagesPractice/LN17.jpg","76","","","","test","true","","76","","LN","LN17.jpg","","new","46","3","practice_recog","right","","","",""
"categorize-image","112","328044","0.0-3.0-7.0-0.14","m3gyqeypbphx16z","practice_recog","5ef3bb265311db14418a71f7","5f60e3c0a3b16e07647b2ff9","5f63802c11eebe06e95a550d","true","953.7599999457598","./Stimuli/ImagesPractice/SM98.jpg","83","","","","test","true","","83","","SM","SM98.jpg","","old","47","3","practice_recog","left","","","",""
"categorize-image","113","329248","0.0-3.0-7.0-0.15","m3gyqeypbphx16z","practice_recog","5ef3bb265311db14418a71f7","5f60e3c0a3b16e07647b2ff9","5f63802c11eebe06e95a550d","true","698.960000067018","./Stimuli/ImagesPractice/SN76.jpg","83","","","","test","true","","83","","SN","SN76.jpg","","old","48","3","practice_recog","left","","","",""
"html-keyboard-response","114","335225","0.0-3.0-8.0","m3gyqeypbphx16z","instructions","5ef3bb265311db14418a71f7","5f60e3c0a3b16e07647b2ff9","5f63802c11eebe06e95a550d","false","5975.039999932051","<div align=left> Great!<br><br>Are you ready to continue?<br>If you want to reread the instructions and redo the practice trials, please <br>press „Z“.<br><br>You can proceed when you are ready.<br><br>After the presentation of each object, you will receive an instruction whether to <br>remember or to forget the object.<br>We will test your memory of the following pictures only at the very end of <br>the experiment after all learning blocks are completed. <br><br>Press SPACE to CONTINUE when you are ready. </div>","32","","","","","","","","","","","","","","","","","","","",""
"html-keyboard-response","115","338283","0.0-4.0-0.0","m3gyqeypbphx16z","instructions","5ef3bb265311db14418a71f7","5f60e3c0a3b16e07647b2ff9","5f63802c11eebe06e95a550d","false","3055.2150000585243","<div align=left> The actual experiment is about to start.<br>The practice trials are over!<br><br>Please always respond both fast and accurately!<br><br>Remember: <br> <br><li> Please place your index fingers on the <strong>'S'</strong> and <strong>'L'</strong> keys <br>to respond as fast and accurately as possible.</li><li> Every picture can be classified as either mechanical or non-mechanical.</li><li> If you do not respond in time or commit an error, you will receive a corresponding feedback.<br> Please try to respond as <strong> fast </strong> and as <strong> accurately as possible </strong>.</li><li> Remember the <span style='color: dodgerblue; font-size: 28px'>O</span> pictures. <br></li><li> Please minimize distractions and stay focused. </li><br><br>Press SPACE to START.</div>","32","","","","","","","","","","","","","","","","","","","",""
"html-keyboard-response","116","338988","0.0-4.0-1.0-0.0","m3gyqeypbphx16z","prime","5ef3bb265311db14418a71f7","5f60e3c0a3b16e07647b2ff9","5f63802c11eebe06e95a550d","false","null","<span style=""color: black; font-size: 48px"">M + N</span>","null","","","","resp_prompt","","","","","","","","","","","","","","","",""
"categorize-image","117","339847","0.0-4.0-1.0-1.0","m3gyqeypbphx16z","prime","5ef3bb265311db14418a71f7","5f60e3c0a3b16e07647b2ff9","5f63802c11eebe06e95a550d","true","852.9450000496581","./Stimuli/SelectedImages/LN/LN166.bmp","76","","","","test","true","M + N","76","switch","LN","LN166.bmp","remember","","49","3","prime1","right","","","",""
"html-keyboard-response","118","341852","0.0-4.0-1.0-3.0","m3gyqeypbphx16z","prime","5ef3bb265311db14418a71f7","5f60e3c0a3b16e07647b2ff9","5f63802c11eebe06e95a550d","false","null","<div style=""align-items: center; display: flex; color: dodgerblue; font-size: 90px""><b>o</b></div>","null","","","","forget_cue","","","","","","","","","","","","","","","",""
"html-keyboard-response","119","342556","0.0-4.0-1.0-0.1","m3gyqeypbphx16z","prime","5ef3bb265311db14418a71f7","5f60e3c0a3b16e07647b2ff9","5f63802c11eebe06e95a550d","false","null","<span style=""color: black; font-size: 48px"">M + N</span>","null","","","","resp_prompt","","","","","","","","","","","","","","","",""
"categorize-image","120","343593","0.0-4.0-1.0-1.1","m3gyqeypbphx16z","prime","5ef3bb265311db14418a71f7","5f60e3c0a3b16e07647b2ff9","5f63802c11eebe06e95a550d","true","1029.0899999672547","./Stimuli/SelectedImages/LN/LN13.bmp","76","","","","test","true","M + N","76","repetition","LN","LN13.bmp","remember","","50","3","prime1","right","","","",""
"html-keyboard-response","121","345598","0.0-4.0-1.0-3.1","m3gyqeypbphx16z","prime","5ef3bb265311db14418a71f7","5f60e3c0a3b16e07647b2ff9","5f63802c11eebe06e95a550d","false","null","<div style=""align-items: center; display: flex; color: dodgerblue; font-size: 90px""><b>o</b></div>","null","","","","forget_cue","","","","","","","","","","","","","","","",""
"html-keyboard-response","122","346303","0.0-4.0-1.0-0.2","m3gyqeypbphx16z","prime","5ef3bb265311db14418a71f7","5f60e3c0a3b16e07647b2ff9","5f63802c11eebe06e95a550d","false","null","<span style=""color: black; font-size: 48px"">N + M</span>","null","","","","resp_prompt","","","","","","","","","","","","","","","",""
"categorize-image","123","347273","0.0-4.0-1.0-1.2","m3gyqeypbphx16z","prime","5ef3bb265311db14418a71f7","5f60e3c0a3b16e07647b2ff9","5f63802c11eebe06e95a550d","true","963.8350000604987","./Stimuli/SelectedImages/LM/LM129.bmp","76","","","","test","true","N + M","76","repetition","LM","LM129.bmp","forget","","51","3","prime1","right","","","",""
"html-keyboard-response","124","349279","0.0-4.0-1.0-3.2","m3gyqeypbphx16z","prime","5ef3bb265311db14418a71f7","5f60e3c0a3b16e07647b2ff9","5f63802c11eebe06e95a550d","false","null","<div style=""align-items: center; display: flex; color: darkorange; font-size: 90px""><b>ø</b></div>","null","","","","forget_cue","","","","","","","","","","","","","","","",""
"html-keyboard-response","125","349982","0.0-4.0-1.0-0.3","m3gyqeypbphx16z","prime","5ef3bb265311db14418a71f7","5f60e3c0a3b16e07647b2ff9","5f63802c11eebe06e95a550d","false","null","<span style=""color: black; font-size: 48px"">M + N</span>","null","","","","resp_prompt","","","","","","","","","","","","","","","",""
"categorize-image","126","350641","0.0-4.0-1.0-1.3","m3gyqeypbphx16z","prime","5ef3bb265311db14418a71f7","5f60e3c0a3b16e07647b2ff9","5f63802c11eebe06e95a550d","true","652.5450000772253","./Stimuli/SelectedImages/SM/SM76.bmp","83","","","","test","true","M + N","83","repetition","SM","SM76.bmp","forget","","52","3","prime1","left","","","",""
"html-keyboard-response","127","352644","0.0-4.0-1.0-3.3","m3gyqeypbphx16z","prime","5ef3bb265311db14418a71f7","5f60e3c0a3b16e07647b2ff9","5f63802c11eebe06e95a550d","false","null","<div style=""align-items: center; display: flex; color: darkorange; font-size: 90px""><b>ø</b></div>","null","","","","forget_cue","","","","","","","","","","","","","","","",""
"html-keyboard-response","128","353347","0.0-4.0-1.0-0.4","m3gyqeypbphx16z","prime","5ef3bb265311db14418a71f7","5f60e3c0a3b16e07647b2ff9","5f63802c11eebe06e95a550d","false","null","<span style=""color: black; font-size: 48px"">N + M</span>","null","","","","resp_prompt","","","","","","","","","","","","","","","",""
"categorize-image","129","354130","0.0-4.0-1.0-1.4","m3gyqeypbphx16z","prime","5ef3bb265311db14418a71f7","5f60e3c0a3b16e07647b2ff9","5f63802c11eebe06e95a550d","true","776.5549999894574","./Stimuli/SelectedImages/LN/LN92.bmp","83","","","","test","true","N + M","83","repetition","LN","LN92.bmp","forget","","53","3","prime1","left","","","",""
"html-keyboard-response","130","356134","0.0-4.0-1.0-3.4","m3gyqeypbphx16z","prime","5ef3bb265311db14418a71f7","5f60e3c0a3b16e07647b2ff9","5f63802c11eebe06e95a550d","false","null","<div style=""align-items: center; display: flex; color: darkorange; font-size: 90px""><b>ø</b></div>","null","","","","forget_cue","","","","","","","","","","","","","","","",""
"html-keyboard-response","131","356837","0.0-4.0-1.0-0.5","m3gyqeypbphx16z","prime","5ef3bb265311db14418a71f7","5f60e3c0a3b16e07647b2ff9","5f63802c11eebe06e95a550d","false","null","<span style=""color: black; font-size: 48px"">M + N</span>","null","","","","resp_prompt","","","","","","","","","","","","","","","",""
"categorize-image","132","358021","0.0-4.0-1.0-1.5","m3gyqeypbphx16z","prime","5ef3bb265311db14418a71f7","5f60e3c0a3b16e07647b2ff9","5f63802c11eebe06e95a550d","true","1178.5200000740588","./Stimuli/SelectedImages/SM/SM74.bmp","83","","","","test","true","M + N","83","repetition","SM","SM74.bmp","remember","","54","3","prime1","left","","","",""
"html-keyboard-response","133","360025","0.0-4.0-1.0-3.5","m3gyqeypbphx16z","prime","5ef3bb265311db14418a71f7","5f60e3c0a3b16e07647b2ff9","5f63802c11eebe06e95a550d","false","null","<div style=""align-items: center; display: flex; color: dodgerblue; font-size: 90px""><b>o</b></div>","null","","","","forget_cue","","","","","","","","","","","","","","","",""
"html-keyboard-response","134","360729","0.0-4.0-1.0-0.6","m3gyqeypbphx16z","prime","5ef3bb265311db14418a71f7","5f60e3c0a3b16e07647b2ff9","5f63802c11eebe06e95a550d","false","null","<span style=""color: black; font-size: 48px"">M + N</span>","null","","","","resp_prompt","","","","","","","","","","","","","","","",""
"categorize-image","135","361750","0.0-4.0-1.0-1.6","m3gyqeypbphx16z","prime","5ef3bb265311db14418a71f7","5f60e3c0a3b16e07647b2ff9","5f63802c11eebe06e95a550d","true","1015.0950000388548","./Stimuli/SelectedImages/LM/LM57.bmp","83","","","","test","true","M + N","83","repetition","LM","LM57.bmp","remember","","55","3","prime1","left","","","",""
"html-keyboard-response","136","363754","0.0-4.0-1.0-3.6","m3gyqeypbphx16z","prime","5ef3bb265311db14418a71f7","5f60e3c0a3b16e07647b2ff9","5f63802c11eebe06e95a550d","false","null","<div style=""align-items: center; display: flex; color: dodgerblue; font-size: 90px""><b>o</b></div>","null","","","","forget_cue","","","","","","","","","","","","","","","",""
"html-keyboard-response","137","364456","0.0-4.0-1.0-0.7","m3gyqeypbphx16z","prime","5ef3bb265311db14418a71f7","5f60e3c0a3b16e07647b2ff9","5f63802c11eebe06e95a550d","false","null","<span style=""color: black; font-size: 48px"">N + M</span>","null","","","","resp_prompt","","","","","","","","","","","","","","","",""
"categorize-image","138","365235","0.0-4.0-1.0-1.7","m3gyqeypbphx16z","prime","5ef3bb265311db14418a71f7","5f60e3c0a3b16e07647b2ff9","5f63802c11eebe06e95a550d","true","771.3849999709055","./Stimuli/SelectedImages/SM/SM207.bmp","76","","","","test","true","N + M","76","repetition","SM","SM207.bmp","forget","","56","3","prime1","right","","","",""
"html-keyboard-response","139","367240","0.0-4.0-1.0-3.7","m3gyqeypbphx16z","prime","5ef3bb265311db14418a71f7","5f60e3c0a3b16e07647b2ff9","5f63802c11eebe06e95a550d","false","null","<div style=""align-items: center; display: flex; color: darkorange; font-size: 90px""><b>ø</b></div>","null","","","","forget_cue","","","","","","","","","","","","","","","",""
"html-keyboard-response","140","367943","0.0-4.0-1.0-0.8","m3gyqeypbphx16z","prime","5ef3bb265311db14418a71f7","5f60e3c0a3b16e07647b2ff9","5f63802c11eebe06e95a550d","false","null","<span style=""color: black; font-size: 48px"">M + N</span>","null","","","","resp_prompt","","","","","","","","","","","","","","","",""
"categorize-image","141","368650","0.0-4.0-1.0-1.8","m3gyqeypbphx16z","prime","5ef3bb265311db14418a71f7","5f60e3c0a3b16e07647b2ff9","5f63802c11eebe06e95a550d","true","700.6750000873581","./Stimuli/SelectedImages/LM/LM157.bmp","83","","","","test","true","M + N","83","switch","LM","LM157.bmp","forget","","57","3","prime1","left","","","",""
"html-keyboard-response","142","370656","0.0-4.0-1.0-3.8","m3gyqeypbphx16z","prime","5ef3bb265311db14418a71f7","5f60e3c0a3b16e07647b2ff9","5f63802c11eebe06e95a550d","false","null","<div style=""align-items: center; display: flex; color: darkorange; font-size: 90px""><b>ø</b></div>","null","","","","forget_cue","","","","","","","","","","","","","","","",""
"html-keyboard-response","143","371360","0.0-4.0-1.0-0.9","m3gyqeypbphx16z","prime","5ef3bb265311db14418a71f7","5f60e3c0a3b16e07647b2ff9","5f63802c11eebe06e95a550d","false","null","<span style=""color: black; font-size: 48px"">N + M</span>","null","","","","resp_prompt","","","","","","","","","","","","","","","",""
"categorize-image","144","372138","0.0-4.0-1.0-1.9","m3gyqeypbphx16z","prime","5ef3bb265311db14418a71f7","5f60e3c0a3b16e07647b2ff9","5f63802c11eebe06e95a550d","true","774.2500000167638","./Stimuli/SelectedImages/LN/LN177.bmp","83","","","","test","true","N + M","83","switch","LN","LN177.bmp","forget","","58","3","prime1","left","","","",""
"html-keyboard-response","145","374141","0.0-4.0-1.0-3.9","m3gyqeypbphx16z","prime","5ef3bb265311db14418a71f7","5f60e3c0a3b16e07647b2ff9","5f63802c11eebe06e95a550d","false","null","<div style=""align-items: center; display: flex; color: darkorange; font-size: 90px""><b>ø</b></div>","null","","","","forget_cue","","","","","","","","","","","","","","","",""
"html-keyboard-response","146","374842","0.0-4.0-1.0-0.10","m3gyqeypbphx16z","prime","5ef3bb265311db14418a71f7","5f60e3c0a3b16e07647b2ff9","5f63802c11eebe06e95a550d","false","null","<span style=""color: black; font-size: 48px"">M + N</span>","null","","","","resp_prompt","","","","","","","","","","","","","","","",""
"categorize-image","147","375944","0.0-4.0-1.0-1.10","m3gyqeypbphx16z","prime","5ef3bb265311db14418a71f7","5f60e3c0a3b16e07647b2ff9","5f63802c11eebe06e95a550d","true","1093.2349999202415","./Stimuli/SelectedImages/SM/SM17.bmp","83","","","","test","true","M + N","83","switch","SM","SM17.bmp","forget","","59","3","prime1","left","","","",""
"html-keyboard-response","148","377951","0.0-4.0-1.0-3.10","m3gyqeypbphx16z","prime","5ef3bb265311db14418a71f7","5f60e3c0a3b16e07647b2ff9","5f63802c11eebe06e95a550d","false","null","<div style=""align-items: center; display: flex; color: darkorange; font-size: 90px""><b>ø</b></div>","null","","","","forget_cue","","","","","","","","","","","","","","","",""
"html-keyboard-response","149","378655","0.0-4.0-1.0-0.11","m3gyqeypbphx16z","prime","5ef3bb265311db14418a71f7","5f60e3c0a3b16e07647b2ff9","5f63802c11eebe06e95a550d","false","null","<span style=""color: black; font-size: 48px"">N + M</span>","null","","","","resp_prompt","","","","","","","","","","","","","","","",""
"categorize-image","150","379385","0.0-4.0-1.0-1.11","m3gyqeypbphx16z","prime","5ef3bb265311db14418a71f7","5f60e3c0a3b16e07647b2ff9","5f63802c11eebe06e95a550d","true","725.1150000374764","./Stimuli/SelectedImages/SM/SM213.bmp","76","","","","test","true","N + M","76","switch","SM","SM213.bmp","forget","","60","3","prime1","right","","","",""
"html-keyboard-response","151","381389","0.0-4.0-1.0-3.11","m3gyqeypbphx16z","prime","5ef3bb265311db14418a71f7","5f60e3c0a3b16e07647b2ff9","5f63802c11eebe06e95a550d","false","null","<div style=""align-items: center; display: flex; color: darkorange; font-size: 90px""><b>ø</b></div>","null","","","","forget_cue","","","","","","","","","","","","","","","",""
"html-keyboard-response","152","382093","0.0-4.0-1.0-0.12","m3gyqeypbphx16z","prime","5ef3bb265311db14418a71f7","5f60e3c0a3b16e07647b2ff9","5f63802c11eebe06e95a550d","false","null","<span style=""color: black; font-size: 48px"">M + N</span>","null","","","","resp_prompt","","","","","","","","","","","","","","","",""
"categorize-image","153","382786","0.0-4.0-1.0-1.12","m3gyqeypbphx16z","prime","5ef3bb265311db14418a71f7","5f60e3c0a3b16e07647b2ff9","5f63802c11eebe06e95a550d","true","688.3950000628829","./Stimuli/SelectedImages/LM/LM209.bmp","83","","","","test","true","M + N","83","repetition","LM","LM209.bmp","forget","","61","3","prime1","left","","","",""
"html-keyboard-response","154","384791","0.0-4.0-1.0-3.12","m3gyqeypbphx16z","prime","5ef3bb265311db14418a71f7","5f60e3c0a3b16e07647b2ff9","5f63802c11eebe06e95a550d","false","null","<div style=""align-items: center; display: flex; color: darkorange; font-size: 90px""><b>ø</b></div>","null","","","","forget_cue","","","","","","","","","","","","","","","",""
"html-keyboard-response","155","385494","0.0-4.0-1.0-0.13","m3gyqeypbphx16z","prime","5ef3bb265311db14418a71f7","5f60e3c0a3b16e07647b2ff9","5f63802c11eebe06e95a550d","false","null","<span style=""color: black; font-size: 48px"">M + N</span>","null","","","","resp_prompt","","","","","","","","","","","","","","","",""
"categorize-image","156","386342","0.0-4.0-1.0-1.13","m3gyqeypbphx16z","prime","5ef3bb265311db14418a71f7","5f60e3c0a3b16e07647b2ff9","5f63802c11eebe06e95a550d","true","841.0000000149012","./Stimuli/SelectedImages/SM/SM195.bmp","83","","","","test","true","M + N","83","switch","SM","SM195.bmp","forget","","62","3","prime1","left","","","",""
"html-keyboard-response","157","388349","0.0-4.0-1.0-3.13","m3gyqeypbphx16z","prime","5ef3bb265311db14418a71f7","5f60e3c0a3b16e07647b2ff9","5f63802c11eebe06e95a550d","false","null","<div style=""align-items: center; display: flex; color: darkorange; font-size: 90px""><b>ø</b></div>","null","","","","forget_cue","","","","","","","","","","","","","","","",""
"html-keyboard-response","158","389056","0.0-4.0-1.0-0.14","m3gyqeypbphx16z","prime","5ef3bb265311db14418a71f7","5f60e3c0a3b16e07647b2ff9","5f63802c11eebe06e95a550d","false","null","<span style=""color: black; font-size: 48px"">M + N</span>","null","","","","resp_prompt","","","","","","","","","","","","","","","",""
"categorize-image","159","389865","0.0-4.0-1.0-1.14","m3gyqeypbphx16z","prime","5ef3bb265311db14418a71f7","5f60e3c0a3b16e07647b2ff9","5f63802c11eebe06e95a550d","true","801.644999999553","./Stimuli/SelectedImages/SN/SN18.bmp","76","","","","test","true","M + N","76","switch","SN","SN18.bmp","remember","","63","3","prime1","right","","","",""
"html-keyboard-response","160","391867","0.0-4.0-1.0-3.14","m3gyqeypbphx16z","prime","5ef3bb265311db14418a71f7","5f60e3c0a3b16e07647b2ff9","5f63802c11eebe06e95a550d","false","null","<div style=""align-items: center; display: flex; color: dodgerblue; font-size: 90px""><b>o</b></div>","null","","","","forget_cue","","","","","","","","","","","","","","","",""
"html-keyboard-response","161","392571","0.0-4.0-1.0-0.15","m3gyqeypbphx16z","prime","5ef3bb265311db14418a71f7","5f60e3c0a3b16e07647b2ff9","5f63802c11eebe06e95a550d","false","null","<span style=""color: black; font-size: 48px"">M + N</span>","null","","","","resp_prompt","","","","","","","","","","","","","","","",""
"categorize-image","162","393686","0.0-4.0-1.0-1.15","m3gyqeypbphx16z","prime","5ef3bb265311db14418a71f7","5f60e3c0a3b16e07647b2ff9","5f63802c11eebe06e95a550d","true","1109.675000072457","./Stimuli/SelectedImages/LM/LM59.bmp","83","","","","test","true","M + N","83","switch","LM","LM59.bmp","forget","","64","3","prime1","left","","","",""
"html-keyboard-response","163","395690","0.0-4.0-1.0-3.15","m3gyqeypbphx16z","prime","5ef3bb265311db14418a71f7","5f60e3c0a3b16e07647b2ff9","5f63802c11eebe06e95a550d","false","null","<div style=""align-items: center; display: flex; color: darkorange; font-size: 90px""><b>ø</b></div>","null","","","","forget_cue","","","","","","","","","","","","","","","",""
"html-keyboard-response","164","396396","0.0-4.0-1.0-0.16","m3gyqeypbphx16z","prime","5ef3bb265311db14418a71f7","5f60e3c0a3b16e07647b2ff9","5f63802c11eebe06e95a550d","false","null","<span style=""color: black; font-size: 48px"">N + M</span>","null","","","","resp_prompt","","","","","","","","","","","","","","","",""
"categorize-image","165","397185","0.0-4.0-1.0-1.16","m3gyqeypbphx16z","prime","5ef3bb265311db14418a71f7","5f60e3c0a3b16e07647b2ff9","5f63802c11eebe06e95a550d","true","779.8100000945851","./Stimuli/SelectedImages/SM/SM73.bmp","76","","","","test","true","N + M","76","repetition","SM","SM73.bmp","remember","","65","3","prime1","right","","","",""
"html-keyboard-response","166","399189","0.0-4.0-1.0-3.16","m3gyqeypbphx16z","prime","5ef3bb265311db14418a71f7","5f60e3c0a3b16e07647b2ff9","5f63802c11eebe06e95a550d","false","null","<div style=""align-items: center; display: flex; color: dodgerblue; font-size: 90px""><b>o</b></div>","null","","","","forget_cue","","","","","","","","","","","","","","","",""
"html-keyboard-response","167","399893","0.0-4.0-1.0-0.17","m3gyqeypbphx16z","prime","5ef3bb265311db14418a71f7","5f60e3c0a3b16e07647b2ff9","5f63802c11eebe06e95a550d","false","null","<span style=""color: black; font-size: 48px"">M + N</span>","null","","","","resp_prompt","","","","","","","","","","","","","","","",""
"categorize-image","168","400714","0.0-4.0-1.0-1.17","m3gyqeypbphx16z","prime","5ef3bb265311db14418a71f7","5f60e3c0a3b16e07647b2ff9","5f63802c11eebe06e95a550d","true","816.6099999798462","./Stimuli/SelectedImages/LN/LN131.bmp","76","","","","test","true","M + N","76","repetition","LN","LN131.bmp","forget","","66","3","prime1","right","","","",""
"html-keyboard-response","169","402720","0.0-4.0-1.0-3.17","m3gyqeypbphx16z","prime","5ef3bb265311db14418a71f7","5f60e3c0a3b16e07647b2ff9","5f63802c11eebe06e95a550d","false","null","<div style=""align-items: center; display: flex; color: darkorange; font-size: 90px""><b>ø</b></div>","null","","","","forget_cue","","","","","","","","","","","","","","","",""
"html-keyboard-response","170","403424","0.0-4.0-1.0-0.18","m3gyqeypbphx16z","prime","5ef3bb265311db14418a71f7","5f60e3c0a3b16e07647b2ff9","5f63802c11eebe06e95a550d","false","null","<span style=""color: black; font-size: 48px"">N + M</span>","null","","","","resp_prompt","","","","","","","","","","","","","","","",""
"categorize-image","171","404162","0.0-4.0-1.0-1.18","m3gyqeypbphx16z","prime","5ef3bb265311db14418a71f7","5f60e3c0a3b16e07647b2ff9","5f63802c11eebe06e95a550d","true","733.5099999327213","./Stimuli/SelectedImages/LN/LN12.bmp","83","","","","test","true","N + M","83","repetition","LN","LN12.bmp","remember","","67","3","prime1","left","","","",""
"html-keyboard-response","172","406168","0.0-4.0-1.0-3.18","m3gyqeypbphx16z","prime","5ef3bb265311db14418a71f7","5f60e3c0a3b16e07647b2ff9","5f63802c11eebe06e95a550d","false","null","<div style=""align-items: center; display: flex; color: dodgerblue; font-size: 90px""><b>o</b></div>","null","","","","forget_cue","","","","","","","","","","","","","","","",""
"html-keyboard-response","173","406872","0.0-4.0-1.0-0.19","m3gyqeypbphx16z","prime","5ef3bb265311db14418a71f7","5f60e3c0a3b16e07647b2ff9","5f63802c11eebe06e95a550d","false","null","<span style=""color: black; font-size: 48px"">M + N</span>","null","","","","resp_prompt","","","","","","","","","","","","","","","",""
"categorize-image","174","407804","0.0-4.0-1.0-1.19","m3gyqeypbphx16z","prime","5ef3bb265311db14418a71f7","5f60e3c0a3b16e07647b2ff9","5f63802c11eebe06e95a550d","true","923.3650000533089","./Stimuli/SelectedImages/LN/LN101.bmp","76","","","","test","true","M + N","76","repetition","LN","LN101.bmp","forget","","68","3","prime1","right","","","",""
"html-keyboard-response","175","409808","0.0-4.0-1.0-3.19","m3gyqeypbphx16z","prime","5ef3bb265311db14418a71f7","5f60e3c0a3b16e07647b2ff9","5f63802c11eebe06e95a550d","false","null","<div style=""align-items: center; display: flex; color: darkorange; font-size: 90px""><b>ø</b></div>","null","","","","forget_cue","","","","","","","","","","","","","","","",""
"html-keyboard-response","176","410511","0.0-4.0-1.0-0.20","m3gyqeypbphx16z","prime","5ef3bb265311db14418a71f7","5f60e3c0a3b16e07647b2ff9","5f63802c11eebe06e95a550d","false","null","<span style=""color: black; font-size: 48px"">N + M</span>","null","","","","resp_prompt","","","","","","","","","","","","","","","",""
"categorize-image","177","411243","0.0-4.0-1.0-1.20","m3gyqeypbphx16z","prime","5ef3bb265311db14418a71f7","5f60e3c0a3b16e07647b2ff9","5f63802c11eebe06e95a550d","true","725.3299999283627","./Stimuli/SelectedImages/LN/LN28.bmp","83","","","","test","true","N + M","83","switch","LN","LN28.bmp","remember","","69","3","prime1","left","","","",""
"html-keyboard-response","178","413248","0.0-4.0-1.0-3.20","m3gyqeypbphx16z","prime","5ef3bb265311db14418a71f7","5f60e3c0a3b16e07647b2ff9","5f63802c11eebe06e95a550d","false","null","<div style=""align-items: center; display: flex; color: dodgerblue; font-size: 90px""><b>o</b></div>","null","","","","forget_cue","","","","","","","","","","","","","","","",""
"html-keyboard-response","179","413951","0.0-4.0-1.0-0.21","m3gyqeypbphx16z","prime","5ef3bb265311db14418a71f7","5f60e3c0a3b16e07647b2ff9","5f63802c11eebe06e95a550d","false","null","<span style=""color: black; font-size: 48px"">N + M</span>","null","","","","resp_prompt","","","","","","","","","","","","","","","",""
"categorize-image","180","414833","0.0-4.0-1.0-1.21","m3gyqeypbphx16z","prime","5ef3bb265311db14418a71f7","5f60e3c0a3b16e07647b2ff9","5f63802c11eebe06e95a550d","true","876.7150000203401","./Stimuli/SelectedImages/SN/SN64.bmp","83","","","","test","true","N + M","83","repetition","SN","SN64.bmp","forget","","70","3","prime1","left","","","",""
"html-keyboard-response","181","416836","0.0-4.0-1.0-3.21","m3gyqeypbphx16z","prime","5ef3bb265311db14418a71f7","5f60e3c0a3b16e07647b2ff9","5f63802c11eebe06e95a550d","false","null","<div style=""align-items: center; display: flex; color: darkorange; font-size: 90px""><b>ø</b></div>","null","","","","forget_cue","","","","","","","","","","","","","","","",""
"html-keyboard-response","182","417540","0.0-4.0-1.0-0.22","m3gyqeypbphx16z","prime","5ef3bb265311db14418a71f7","5f60e3c0a3b16e07647b2ff9","5f63802c11eebe06e95a550d","false","null","<span style=""color: black; font-size: 48px"">M + N</span>","null","","","","resp_prompt","","","","","","","","","","","","","","","",""
"categorize-image","183","418250","0.0-4.0-1.0-1.22","m3gyqeypbphx16z","prime","5ef3bb265311db14418a71f7","5f60e3c0a3b16e07647b2ff9","5f63802c11eebe06e95a550d","true","703.8000000175089","./Stimuli/SelectedImages/SN/SN179.bmp","76","","","","test","true","M + N","76","repetition","SN","SN179.bmp","forget","","71","3","prime1","right","","","",""
"html-keyboard-response","184","420258","0.0-4.0-1.0-3.22","m3gyqeypbphx16z","prime","5ef3bb265311db14418a71f7","5f60e3c0a3b16e07647b2ff9","5f63802c11eebe06e95a550d","false","null","<div style=""align-items: center; display: flex; color: darkorange; font-size: 90px""><b>ø</b></div>","null","","","","forget_cue","","","","","","","","","","","","","","","",""
"html-keyboard-response","185","420961","0.0-4.0-1.0-0.23","m3gyqeypbphx16z","prime","5ef3bb265311db14418a71f7","5f60e3c0a3b16e07647b2ff9","5f63802c11eebe06e95a550d","false","null","<span style=""color: black; font-size: 48px"">M + N</span>","null","","","","resp_prompt","","","","","","","","","","","","","","","",""
"categorize-image","186","421688","0.0-4.0-1.0-1.23","m3gyqeypbphx16z","prime","5ef3bb265311db14418a71f7","5f60e3c0a3b16e07647b2ff9","5f63802c11eebe06e95a550d","true","719.7249999735504","./Stimuli/SelectedImages/SN/SN240.bmp","76","","","","test","true","M + N","76","repetition","SN","SN240.bmp","forget","","72","3","prime1","right","","","",""
"html-keyboard-response","187","423692","0.0-4.0-1.0-3.23","m3gyqeypbphx16z","prime","5ef3bb265311db14418a71f7","5f60e3c0a3b16e07647b2ff9","5f63802c11eebe06e95a550d","false","null","<div style=""align-items: center; display: flex; color: darkorange; font-size: 90px""><b>ø</b></div>","null","","","","forget_cue","","","","","","","","","","","","","","","",""
"html-keyboard-response","188","424396","0.0-4.0-1.0-0.24","m3gyqeypbphx16z","prime","5ef3bb265311db14418a71f7","5f60e3c0a3b16e07647b2ff9","5f63802c11eebe06e95a550d","false","null","<span style=""color: black; font-size: 48px"">M + N</span>","null","","","","resp_prompt","","","","","","","","","","","","","","","",""
"categorize-image","189","425036","0.0-4.0-1.0-1.24","m3gyqeypbphx16z","prime","5ef3bb265311db14418a71f7","5f60e3c0a3b16e07647b2ff9","5f63802c11eebe06e95a550d","true","633.3350000204518","./Stimuli/SelectedImages/SN/SN49.bmp","76","","","","test","true","M + N","76","repetition","SN","SN49.bmp","remember","","73","3","prime1","right","","","",""
"html-keyboard-response","190","427042","0.0-4.0-1.0-3.24","m3gyqeypbphx16z","prime","5ef3bb265311db14418a71f7","5f60e3c0a3b16e07647b2ff9","5f63802c11eebe06e95a550d","false","null","<div style=""align-items: center; display: flex; color: dodgerblue; font-size: 90px""><b>o</b></div>","null","","","","forget_cue","","","","","","","","","","","","","","","",""
"html-keyboard-response","191","427744","0.0-4.0-1.0-0.25","m3gyqeypbphx16z","prime","5ef3bb265311db14418a71f7","5f60e3c0a3b16e07647b2ff9","5f63802c11eebe06e95a550d","false","null","<span style=""color: black; font-size: 48px"">N + M</span>","null","","","","resp_prompt","","","","","","","","","","","","","","","",""
"categorize-image","192","429050","0.0-4.0-1.0-1.25","m3gyqeypbphx16z","prime","5ef3bb265311db14418a71f7","5f60e3c0a3b16e07647b2ff9","5f63802c11eebe06e95a550d","true","1299.1300000576302","./Stimuli/SelectedImages/SM/SM200.bmp","76","","","","test","true","N + M","76","repetition","SM","SM200.bmp","remember","","74","3","prime1","right","","","",""
"html-keyboard-response","193","431055","0.0-4.0-1.0-3.25","m3gyqeypbphx16z","prime","5ef3bb265311db14418a71f7","5f60e3c0a3b16e07647b2ff9","5f63802c11eebe06e95a550d","false","null","<div style=""align-items: center; display: flex; color: dodgerblue; font-size: 90px""><b>o</b></div>","null","","","","forget_cue","","","","","","","","","","","","","","","",""
"html-keyboard-response","194","431758","0.0-4.0-1.0-0.26","m3gyqeypbphx16z","prime","5ef3bb265311db14418a71f7","5f60e3c0a3b16e07647b2ff9","5f63802c11eebe06e95a550d","false","null","<span style=""color: black; font-size: 48px"">N + M</span>","null","","","","resp_prompt","","","","","","","","","","","","","","","",""
"categorize-image","195","432389","0.0-4.0-1.0-1.26","m3gyqeypbphx16z","prime","5ef3bb265311db14418a71f7","5f60e3c0a3b16e07647b2ff9","5f63802c11eebe06e95a550d","true","625.4200000548735","./Stimuli/SelectedImages/SN/SN182.bmp","83","","","","test","true","N + M","83","switch","SN","SN182.bmp","remember","","75","3","prime1","left","","","",""
"html-keyboard-response","196","434393","0.0-4.0-1.0-3.26","m3gyqeypbphx16z","prime","5ef3bb265311db14418a71f7","5f60e3c0a3b16e07647b2ff9","5f63802c11eebe06e95a550d","false","null","<div style=""align-items: center; display: flex; color: dodgerblue; font-size: 90px""><b>o</b></div>","null","","","","forget_cue","","","","","","","","","","","","","","","",""
"html-keyboard-response","197","435098","0.0-4.0-1.0-0.27","m3gyqeypbphx16z","prime","5ef3bb265311db14418a71f7","5f60e3c0a3b16e07647b2ff9","5f63802c11eebe06e95a550d","false","null","<span style=""color: black; font-size: 48px"">M + N</span>","null","","","","resp_prompt","","","","","","","","","","","","","","","",""
"categorize-image","198","435742","0.0-4.0-1.0-1.27","m3gyqeypbphx16z","prime","5ef3bb265311db14418a71f7","5f60e3c0a3b16e07647b2ff9","5f63802c11eebe06e95a550d","true","638.6400000192225","./Stimuli/SelectedImages/LN/LN128.bmp","76","","","","test","true","M + N","76","switch","LN","LN128.bmp","forget","","76","3","prime1","right","","","",""
"html-keyboard-response","199","437748","0.0-4.0-1.0-3.27","m3gyqeypbphx16z","prime","5ef3bb265311db14418a71f7","5f60e3c0a3b16e07647b2ff9","5f63802c11eebe06e95a550d","false","null","<div style=""align-items: center; display: flex; color: darkorange; font-size: 90px""><b>ø</b></div>","null","","","","forget_cue","","","","","","","","","","","","","","","",""
"html-keyboard-response","200","438453","0.0-4.0-1.0-0.28","m3gyqeypbphx16z","prime","5ef3bb265311db14418a71f7","5f60e3c0a3b16e07647b2ff9","5f63802c11eebe06e95a550d","false","null","<span style=""color: black; font-size: 48px"">N + M</span>","null","","","","resp_prompt","","","","","","","","","","","","","","","",""
"categorize-image","201","439176","0.0-4.0-1.0-1.28","m3gyqeypbphx16z","prime","5ef3bb265311db14418a71f7","5f60e3c0a3b16e07647b2ff9","5f63802c11eebe06e95a550d","true","716.4300000295043","./Stimuli/SelectedImages/LM/LM167.bmp","76","","","","test","true","N + M","76","repetition","LM","LM167.bmp","remember","","77","3","prime1","right","","","",""
"html-keyboard-response","202","441180","0.0-4.0-1.0-3.28","m3gyqeypbphx16z","prime","5ef3bb265311db14418a71f7","5f60e3c0a3b16e07647b2ff9","5f63802c11eebe06e95a550d","false","null","<div style=""align-items: center; display: flex; color: dodgerblue; font-size: 90px""><b>o</b></div>","null","","","","forget_cue","","","","","","","","","","","","","","","",""
"html-keyboard-response","203","441884","0.0-4.0-1.0-0.29","m3gyqeypbphx16z","prime","5ef3bb265311db14418a71f7","5f60e3c0a3b16e07647b2ff9","5f63802c11eebe06e95a550d","false","null","<span style=""color: black; font-size: 48px"">M + N</span>","null","","","","resp_prompt","","","","","","","","","","","","","","","",""
"categorize-image","204","443430","0.0-4.0-1.0-1.29","m3gyqeypbphx16z","prime","5ef3bb265311db14418a71f7","5f60e3c0a3b16e07647b2ff9","5f63802c11eebe06e95a550d","true","1538.715000031516","./Stimuli/SelectedImages/LM/LM216.bmp","76","","","","test","false","M + N","83","switch","LM","LM216.bmp","remember","","78","3","prime1","right","","","",""
"html-keyboard-response","205","443936","0.0-4.0-1.0-2.29-0.29","m3gyqeypbphx16z","prime","5ef3bb265311db14418a71f7","5f60e3c0a3b16e07647b2ff9","5f63802c11eebe06e95a550d","false","null","<span style=""color: red; font-size: 48px"">Error!</span>","null","","","","feedback","","","","","","","","","","","","","","","",""
"html-keyboard-response","206","445939","0.0-4.0-1.0-3.29","m3gyqeypbphx16z","prime","5ef3bb265311db14418a71f7","5f60e3c0a3b16e07647b2ff9","5f63802c11eebe06e95a550d","false","null","<div style=""align-items: center; display: flex; color: dodgerblue; font-size: 90px""><b>o</b></div>","null","","","","forget_cue","","","","","","","","","","","","","","","",""
"html-keyboard-response","207","446643","0.0-4.0-1.0-0.30","m3gyqeypbphx16z","prime","5ef3bb265311db14418a71f7","5f60e3c0a3b16e07647b2ff9","5f63802c11eebe06e95a550d","false","null","<span style=""color: black; font-size: 48px"">N + M</span>","null","","","","resp_prompt","","","","","","","","","","","","","","","",""
"categorize-image","208","447968","0.0-4.0-1.0-1.30","m3gyqeypbphx16z","prime","5ef3bb265311db14418a71f7","5f60e3c0a3b16e07647b2ff9","5f63802c11eebe06e95a550d","true","1318.9250000286847","./Stimuli/SelectedImages/LM/LM100.bmp","83","","","","test","false","N + M","76","switch","LM","LM100.bmp","remember","","79","3","prime1","left","","","",""
"html-keyboard-response","209","448475","0.0-4.0-1.0-2.30-0.30","m3gyqeypbphx16z","prime","5ef3bb265311db14418a71f7","5f60e3c0a3b16e07647b2ff9","5f63802c11eebe06e95a550d","false","null","<span style=""color: red; font-size: 48px"">Error!</span>","null","","","","feedback","","","","","","","","","","","","","","","",""
"html-keyboard-response","210","450481","0.0-4.0-1.0-3.30","m3gyqeypbphx16z","prime","5ef3bb265311db14418a71f7","5f60e3c0a3b16e07647b2ff9","5f63802c11eebe06e95a550d","false","null","<div style=""align-items: center; display: flex; color: dodgerblue; font-size: 90px""><b>o</b></div>","null","","","","forget_cue","","","","","","","","","","","","","","","",""
"html-keyboard-response","211","451184","0.0-4.0-1.0-0.31","m3gyqeypbphx16z","prime","5ef3bb265311db14418a71f7","5f60e3c0a3b16e07647b2ff9","5f63802c11eebe06e95a550d","false","null","<span style=""color: black; font-size: 48px"">M + N</span>","null","","","","resp_prompt","","","","","","","","","","","","","","","",""
"categorize-image","212","452035","0.0-4.0-1.0-1.31","m3gyqeypbphx16z","prime","5ef3bb265311db14418a71f7","5f60e3c0a3b16e07647b2ff9","5f63802c11eebe06e95a550d","true","844.6799999801442","./Stimuli/SelectedImages/SM/SM184.bmp","83","","","","test","true","M + N","83","repetition","SM","SM184.bmp","remember","","80","3","prime1","left","","","",""
"html-keyboard-response","213","454040","0.0-4.0-1.0-3.31","m3gyqeypbphx16z","prime","5ef3bb265311db14418a71f7","5f60e3c0a3b16e07647b2ff9","5f63802c11eebe06e95a550d","false","null","<div style=""align-items: center; display: flex; color: dodgerblue; font-size: 90px""><b>o</b></div>","null","","","","forget_cue","","","","","","","","","","","","","","","",""
"html-keyboard-response","214","454744","0.0-4.0-1.0-0.32","m3gyqeypbphx16z","prime","5ef3bb265311db14418a71f7","5f60e3c0a3b16e07647b2ff9","5f63802c11eebe06e95a550d","false","null","<span style=""color: black; font-size: 48px"">M + N</span>","null","","","","resp_prompt","","","","","","","","","","","","","","","",""
"categorize-image","215","455944","0.0-4.0-1.0-1.32","m3gyqeypbphx16z","prime","5ef3bb265311db14418a71f7","5f60e3c0a3b16e07647b2ff9","5f63802c11eebe06e95a550d","true","1195.344999898225","./Stimuli/SelectedImages/SN/SN181.bmp","76","","","","test","true","M + N","76","switch","SN","SN181.bmp","forget","","81","3","prime1","right","","","",""
"html-keyboard-response","216","457951","0.0-4.0-1.0-3.32","m3gyqeypbphx16z","prime","5ef3bb265311db14418a71f7","5f60e3c0a3b16e07647b2ff9","5f63802c11eebe06e95a550d","false","null","<div style=""align-items: center; display: flex; color: darkorange; font-size: 90px""><b>ø</b></div>","null","","","","forget_cue","","","","","","","","","","","","","","","",""
"html-keyboard-response","217","458654","0.0-4.0-1.0-0.33","m3gyqeypbphx16z","prime","5ef3bb265311db14418a71f7","5f60e3c0a3b16e07647b2ff9","5f63802c11eebe06e95a550d","false","null","<span style=""color: black; font-size: 48px"">N + M</span>","null","","","","resp_prompt","","","","","","","","","","","","","","","",""
"categorize-image","218","459464","0.0-4.0-1.0-1.33","m3gyqeypbphx16z","prime","5ef3bb265311db14418a71f7","5f60e3c0a3b16e07647b2ff9","5f63802c11eebe06e95a550d","true","800.7949999300763","./Stimuli/SelectedImages/LM/LM103.bmp","76","","","","test","true","N + M","76","switch","LM","LM103.bmp","remember","","82","3","prime1","right","","","",""
"html-keyboard-response","219","461471","0.0-4.0-1.0-3.33","m3gyqeypbphx16z","prime","5ef3bb265311db14418a71f7","5f60e3c0a3b16e07647b2ff9","5f63802c11eebe06e95a550d","false","null","<div style=""align-items: center; display: flex; color: dodgerblue; font-size: 90px""><b>o</b></div>","null","","","","forget_cue","","","","","","","","","","","","","","","",""
"html-keyboard-response","220","462173","0.0-4.0-1.0-0.34","m3gyqeypbphx16z","prime","5ef3bb265311db14418a71f7","5f60e3c0a3b16e07647b2ff9","5f63802c11eebe06e95a550d","false","null","<span style=""color: black; font-size: 48px"">N + M</span>","null","","","","resp_prompt","","","","","","","","","","","","","","","",""
"categorize-image","221","463035","0.0-4.0-1.0-1.34","m3gyqeypbphx16z","prime","5ef3bb265311db14418a71f7","5f60e3c0a3b16e07647b2ff9","5f63802c11eebe06e95a550d","true","854.6799999894574","./Stimuli/SelectedImages/LN/LN59.bmp","83","","","","test","true","N + M","83","repetition","LN","LN59.bmp","remember","","83","3","prime1","left","","","",""
"html-keyboard-response","222","465058","0.0-4.0-1.0-3.34","m3gyqeypbphx16z","prime","5ef3bb265311db14418a71f7","5f60e3c0a3b16e07647b2ff9","5f63802c11eebe06e95a550d","false","null","<div style=""align-items: center; display: flex; color: dodgerblue; font-size: 90px""><b>o</b></div>","null","","","","forget_cue","","","","","","","","","","","","","","","",""
"html-keyboard-response","223","465765","0.0-4.0-1.0-0.35","m3gyqeypbphx16z","prime","5ef3bb265311db14418a71f7","5f60e3c0a3b16e07647b2ff9","5f63802c11eebe06e95a550d","false","null","<span style=""color: black; font-size: 48px"">N + M</span>","null","","","","resp_prompt","","","","","","","","","","","","","","","",""
"categorize-image","224","466597","0.0-4.0-1.0-1.35","m3gyqeypbphx16z","prime","5ef3bb265311db14418a71f7","5f60e3c0a3b16e07647b2ff9","5f63802c11eebe06e95a550d","true","826.5400000382215","./Stimuli/SelectedImages/SN/SN52.bmp","83","","","","test","true","N + M","83","repetition","SN","SN52.bmp","remember","","84","3","prime1","left","","","",""
"html-keyboard-response","225","468600","0.0-4.0-1.0-3.35","m3gyqeypbphx16z","prime","5ef3bb265311db14418a71f7","5f60e3c0a3b16e07647b2ff9","5f63802c11eebe06e95a550d","false","null","<div style=""align-items: center; display: flex; color: dodgerblue; font-size: 90px""><b>o</b></div>","null","","","","forget_cue","","","","","","","","","","","","","","","",""
"html-keyboard-response","226","469307","0.0-4.0-1.0-0.36","m3gyqeypbphx16z","prime","5ef3bb265311db14418a71f7","5f60e3c0a3b16e07647b2ff9","5f63802c11eebe06e95a550d","false","null","<span style=""color: black; font-size: 48px"">M + N</span>","null","","","","resp_prompt","","","","","","","","","","","","","","","",""
"categorize-image","227","470344","0.0-4.0-1.0-1.36","m3gyqeypbphx16z","prime","5ef3bb265311db14418a71f7","5f60e3c0a3b16e07647b2ff9","5f63802c11eebe06e95a550d","true","1029.3100000126287","./Stimuli/SelectedImages/SM/SM148.bmp","83","","","","test","true","M + N","83","repetition","SM","SM148.bmp","forget","","85","3","prime1","left","","","",""
"html-keyboard-response","228","472352","0.0-4.0-1.0-3.36","m3gyqeypbphx16z","prime","5ef3bb265311db14418a71f7","5f60e3c0a3b16e07647b2ff9","5f63802c11eebe06e95a550d","false","null","<div style=""align-items: center; display: flex; color: darkorange; font-size: 90px""><b>ø</b></div>","null","","","","forget_cue","","","","","","","","","","","","","","","",""
"html-keyboard-response","229","473054","0.0-4.0-1.0-0.37","m3gyqeypbphx16z","prime","5ef3bb265311db14418a71f7","5f60e3c0a3b16e07647b2ff9","5f63802c11eebe06e95a550d","false","null","<span style=""color: black; font-size: 48px"">M + N</span>","null","","","","resp_prompt","","","","","","","","","","","","","","","",""
"categorize-image","230","474299","0.0-4.0-1.0-1.37","m3gyqeypbphx16z","prime","5ef3bb265311db14418a71f7","5f60e3c0a3b16e07647b2ff9","5f63802c11eebe06e95a550d","true","1239.4699999131262","./Stimuli/SelectedImages/LN/LN150.bmp","76","","","","test","true","M + N","76","switch","LN","LN150.bmp","forget","","86","3","prime1","right","","","",""
"html-keyboard-response","231","476304","0.0-4.0-1.0-3.37","m3gyqeypbphx16z","prime","5ef3bb265311db14418a71f7","5f60e3c0a3b16e07647b2ff9","5f63802c11eebe06e95a550d","false","null","<div style=""align-items: center; display: flex; color: darkorange; font-size: 90px""><b>ø</b></div>","null","","","","forget_cue","","","","","","","","","","","","","","","",""
"html-keyboard-response","232","477007","0.0-4.0-1.0-0.38","m3gyqeypbphx16z","prime","5ef3bb265311db14418a71f7","5f60e3c0a3b16e07647b2ff9","5f63802c11eebe06e95a550d","false","null","<span style=""color: black; font-size: 48px"">M + N</span>","null","","","","resp_prompt","","","","","","","","","","","","","","","",""
"categorize-image","233","477734","0.0-4.0-1.0-1.38","m3gyqeypbphx16z","prime","5ef3bb265311db14418a71f7","5f60e3c0a3b16e07647b2ff9","5f63802c11eebe06e95a550d","true","720.4350000247359","./Stimuli/SelectedImages/LM/LM58.bmp","83","","","","test","true","M + N","83","switch","LM","LM58.bmp","remember","","87","3","prime1","left","","","",""
"html-keyboard-response","234","479739","0.0-4.0-1.0-3.38","m3gyqeypbphx16z","prime","5ef3bb265311db14418a71f7","5f60e3c0a3b16e07647b2ff9","5f63802c11eebe06e95a550d","false","null","<div style=""align-items: center; display: flex; color: dodgerblue; font-size: 90px""><b>o</b></div>","null","","","","forget_cue","","","","","","","","","","","","","","","",""
"html-keyboard-response","235","480444","0.0-4.0-1.0-0.39","m3gyqeypbphx16z","prime","5ef3bb265311db14418a71f7","5f60e3c0a3b16e07647b2ff9","5f63802c11eebe06e95a550d","false","null","<span style=""color: black; font-size: 48px"">N + M</span>","null","","","","resp_prompt","","","","","","","","","","","","","","","",""
"categorize-image","236","481255","0.0-4.0-1.0-1.39","m3gyqeypbphx16z","prime","5ef3bb265311db14418a71f7","5f60e3c0a3b16e07647b2ff9","5f63802c11eebe06e95a550d","true","801.3400000054389","./Stimuli/SelectedImages/LM/LM51.bmp","76","","","","test","true","N + M","76","repetition","LM","LM51.bmp","forget","","88","3","prime1","right","","","",""
"html-keyboard-response","237","483261","0.0-4.0-1.0-3.39","m3gyqeypbphx16z","prime","5ef3bb265311db14418a71f7","5f60e3c0a3b16e07647b2ff9","5f63802c11eebe06e95a550d","false","null","<div style=""align-items: center; display: flex; color: darkorange; font-size: 90px""><b>ø</b></div>","null","","","","forget_cue","","","","","","","","","","","","","","","",""
"html-keyboard-response","238","483963","0.0-4.0-1.0-0.40","m3gyqeypbphx16z","prime","5ef3bb265311db14418a71f7","5f60e3c0a3b16e07647b2ff9","5f63802c11eebe06e95a550d","false","null","<span style=""color: black; font-size: 48px"">N + M</span>","null","","","","resp_prompt","","","","","","","","","","","","","","","",""
"categorize-image","239","484918","0.0-4.0-1.0-1.40","m3gyqeypbphx16z","prime","5ef3bb265311db14418a71f7","5f60e3c0a3b16e07647b2ff9","5f63802c11eebe06e95a550d","true","949.9200000427663","./Stimuli/SelectedImages/LN/LN42.bmp","83","","","","test","true","N + M","83","repetition","LN","LN42.bmp","forget","","89","3","prime1","left","","","",""
"html-keyboard-response","240","486923","0.0-4.0-1.0-3.40","m3gyqeypbphx16z","prime","5ef3bb265311db14418a71f7","5f60e3c0a3b16e07647b2ff9","5f63802c11eebe06e95a550d","false","null","<div style=""align-items: center; display: flex; color: darkorange; font-size: 90px""><b>ø</b></div>","null","","","","forget_cue","","","","","","","","","","","","","","","",""
"html-keyboard-response","241","487627","0.0-4.0-1.0-0.41","m3gyqeypbphx16z","prime","5ef3bb265311db14418a71f7","5f60e3c0a3b16e07647b2ff9","5f63802c11eebe06e95a550d","false","null","<span style=""color: black; font-size: 48px"">N + M</span>","null","","","","resp_prompt","","","","","","","","","","","","","","","",""
"categorize-image","242","488633","0.0-4.0-1.0-1.41","m3gyqeypbphx16z","prime","5ef3bb265311db14418a71f7","5f60e3c0a3b16e07647b2ff9","5f63802c11eebe06e95a550d","true","1000.4799999296665","./Stimuli/SelectedImages/SM/SM108.bmp","76","","","","test","true","N + M","76","switch","SM","SM108.bmp","remember","","90","3","prime1","right","","","",""
"html-keyboard-response","243","490638","0.0-4.0-1.0-3.41","m3gyqeypbphx16z","prime","5ef3bb265311db14418a71f7","5f60e3c0a3b16e07647b2ff9","5f63802c11eebe06e95a550d","false","null","<div style=""align-items: center; display: flex; color: dodgerblue; font-size: 90px""><b>o</b></div>","null","","","","forget_cue","","","","","","","","","","","","","","","",""
"html-keyboard-response","244","491342","0.0-4.0-1.0-0.42","m3gyqeypbphx16z","prime","5ef3bb265311db14418a71f7","5f60e3c0a3b16e07647b2ff9","5f63802c11eebe06e95a550d","false","null","<span style=""color: black; font-size: 48px"">M + N</span>","null","","","","resp_prompt","","","","","","","","","","","","","","","",""
"categorize-image","245","492222","0.0-4.0-1.0-1.42","m3gyqeypbphx16z","prime","5ef3bb265311db14418a71f7","5f60e3c0a3b16e07647b2ff9","5f63802c11eebe06e95a550d","true","873.0500000528991","./Stimuli/SelectedImages/LM/LM235.bmp","83","","","","test","true","M + N","83","repetition","LM","LM235.bmp","forget","","91","3","prime1","left","","","",""
"html-keyboard-response","246","494229","0.0-4.0-1.0-3.42","m3gyqeypbphx16z","prime","5ef3bb265311db14418a71f7","5f60e3c0a3b16e07647b2ff9","5f63802c11eebe06e95a550d","false","null","<div style=""align-items: center; display: flex; color: darkorange; font-size: 90px""><b>ø</b></div>","null","","","","forget_cue","","","","","","","","","","","","","","","",""
"html-keyboard-response","247","494933","0.0-4.0-1.0-0.43","m3gyqeypbphx16z","prime","5ef3bb265311db14418a71f7","5f60e3c0a3b16e07647b2ff9","5f63802c11eebe06e95a550d","false","null","<span style=""color: black; font-size: 48px"">M + N</span>","null","","","","resp_prompt","","","","","","","","","","","","","","","",""
"categorize-image","248","495722","0.0-4.0-1.0-1.43","m3gyqeypbphx16z","prime","5ef3bb265311db14418a71f7","5f60e3c0a3b16e07647b2ff9","5f63802c11eebe06e95a550d","true","782.1949999779463","./Stimuli/SelectedImages/LM/LM150.bmp","83","","","","test","true","M + N","83","repetition","LM","LM150.bmp","remember","","92","3","prime1","left","","","",""
"html-keyboard-response","249","497727","0.0-4.0-1.0-3.43","m3gyqeypbphx16z","prime","5ef3bb265311db14418a71f7","5f60e3c0a3b16e07647b2ff9","5f63802c11eebe06e95a550d","false","null","<div style=""align-items: center; display: flex; color: dodgerblue; font-size: 90px""><b>o</b></div>","null","","","","forget_cue","","","","","","","","","","","","","","","",""
"html-keyboard-response","250","498431","0.0-4.0-1.0-0.44","m3gyqeypbphx16z","prime","5ef3bb265311db14418a71f7","5f60e3c0a3b16e07647b2ff9","5f63802c11eebe06e95a550d","false","null","<span style=""color: black; font-size: 48px"">M + N</span>","null","","","","resp_prompt","","","","","","","","","","","","","","","",""
"categorize-image","251","499161","0.0-4.0-1.0-1.44","m3gyqeypbphx16z","prime","5ef3bb265311db14418a71f7","5f60e3c0a3b16e07647b2ff9","5f63802c11eebe06e95a550d","true","723.7200000090525","./Stimuli/SelectedImages/LN/LN149.bmp","76","","","","test","true","M + N","76","repetition","LN","LN149.bmp","remember","","93","3","prime1","right","","","",""
"html-keyboard-response","252","501167","0.0-4.0-1.0-3.44","m3gyqeypbphx16z","prime","5ef3bb265311db14418a71f7","5f60e3c0a3b16e07647b2ff9","5f63802c11eebe06e95a550d","false","null","<div style=""align-items: center; display: flex; color: dodgerblue; font-size: 90px""><b>o</b></div>","null","","","","forget_cue","","","","","","","","","","","","","","","",""
