"trial_type","trial_index","time_elapsed","internal_node_id","subject","exp_part","prolific_PID","study_ID","session_ID","use","rt","stimulus","key_press","button_pressed","responses","question_order","trial_part","correct","resp_map","correct_resp","probe_condition","category","image","forget_condition","list","trial_num","block_num","block","response","test_part","n_span","sequence","num_spaces"
"pavlovia","0","4","0.0-0.0","pm501jllkgjsz4p","","5f58f80199fe990bc281f681","5f60e3c0a3b16e07647b2ff9","5f61dbfaf858cc0401e33bf1","false","","","","","","","","","","","","","","","","","","","","","","",""
"html-keyboard-response","1","6305","0.0-1.0-0.0-0.0","pm501jllkgjsz4p","welcome","5f58f80199fe990bc281f681","5f60e3c0a3b16e07647b2ff9","5f61dbfaf858cc0401e33bf1","false","6302","<div align=left>Dear participant, <br> thank you for participating in an online study of the Cognition, Action, and Sustainability Unit of the University of Freiburg! <br> <br>The aim of this study is to examine our ability to remember previously learned information. <br>Our goal is to find out, whether our memory improves, when we only remember information that is relevant to us. <br>The experiment will take about 35 minutes to complete. <br> <br>Please, note that you can only participate in this study if you are using a device with a keyboard (PC, Laptop etc.) <br>and not if you are using a mobile device such as a tablet or smartphone.<br> <br>Press 'SPACE' to proceed to the experiment. </div>","32","","","","","","","","","","","","","","","","","","","",""
"html-keyboard-response","2","10628","0.0-1.0-0.0-1.0","pm501jllkgjsz4p","welcome","5f58f80199fe990bc281f681","5f60e3c0a3b16e07647b2ff9","5f61dbfaf858cc0401e33bf1","false","4323","<div align=left><strong> Time Course of this experiment: </strong> <br><br> <strong> 1.</strong>  First, please fill in some information regarding your demographic data. <br><br> <strong> 2.</strong>  Next, your task will be to classify everyday objects. <br>In addition, you will be asked to remember certain objects and recall them later. <br>Working on these tasks requires your undivided attention and concentration.<br>It is therefore essential that you eliminate any sources of distraction in your  <br>environment and ensure that you will not be disturbed. <br><br><strong> 3.</strong>  At the end of the experiment, you will be asked to answer a few additional questions. <br> <br><strong> Important:</strong> After finishing the experiment, only close the browser window <br> by clicking on the 'end the experiment'-button when you are asked to do so. <br>Closing the browser window prematurely will make the allocation of your participation credit impossible. <br><br> Press 'SPACE' to start the experiment. </div>","32","","","","","","","","","","","","","","","","","","","",""
"html-button-response","3","13172","0.0-1.0-0.0-2.0","pm501jllkgjsz4p","welcome","5f58f80199fe990bc281f681","5f60e3c0a3b16e07647b2ff9","5f61dbfaf858cc0401e33bf1","true","2542.999999999998","<div align=left><strong> Informed consent </strong>  <br>The aim of our research is to better understand human behavior and mental processes. <br>In the following study your behavior (e.g. choices, reaction times) will be studied. <br> <br><strong> Voluntariness and Anonymity </strong> <br>Your participation in this study is  <strong> voluntary</strong>.<br>You may withdraw your consent to participate at any time without providing a reason for doing so and without fear of prejudice. <br><br>As no personal data will be collected, <strong>your data and your person cannot be connected after data collection</strong> – the data-set is anonymous. <br>Respectively, deletion of your data will not be possible after data collection has been completed, as we cannot retrace your data-set.<br>The results and anonymized data collected in this study will be published as a scientific publication. <br>This will happen in an <strong>anonymized format</strong>, so that no data can be traced back to a specific person. <br> <br>The anonymized data of this study will be made available to other researchers and/or in a data archive on the Internet as a means of transparency and to enable subsequent re-use. By doing so, this study follows the recommendations of the Deutsche Forschungsgemeinschaft (DFG, German Research Foundation) and Deutsche Gesellschaft für Psychologie (DGPS, German Psychological Society) regarding quality assurance in research.<br>If you have any questions now or after the experiment, please contact our team (experiments@cs.uni-freiburg.de).<br><br><br>I hereby declare, that I understand the above described conditions of participation and I agree to participate under these conditions. <br><br> </div>","","0","","","","","","","","","","","","","","","","","","",""
"html-keyboard-response","4","22640","0.0-1.0-0.0-3.0","pm501jllkgjsz4p","welcome","5f58f80199fe990bc281f681","5f60e3c0a3b16e07647b2ff9","5f61dbfaf858cc0401e33bf1","false","9467.999999999998","<div align=left><strong> General information concerning the experiment </strong>  <br> <br>Please follow the instructions:<ol> <li><strong> Do not leave this tab (your browser window) during the experiment and do not reload this tab! </strong>  <br>If you do switch tabs/windows during the experiment (to check your mail or visit another website, for example), <br>the experiment will end automatically and you will <strong>not receive credit</strong> for your participation. <br>Repeated participation or resumption of the experiment is impossible.</li> <br><li>Please close all other programs for the duration of your participation. </li> <br><li>Please mute or turn off your phone and put it out of your reach. </li> <br><li>Please also take off any disturbing accessories (such as wristwatches, bracelets, etc.). </li> <br><li>If you have music playing in the background, please turn it off now. </li> <br></ol>Thank you! <br>Press 'SPACE' to continue. </div>","32","","","","","","","","","","","","","","","","","","","",""
"survey-text","5","29400","0.0-1.0-1.0-0.0","pm501jllkgjsz4p","demographics","5f58f80199fe990bc281f681","5f60e3c0a3b16e07647b2ff9","5f61dbfaf858cc0401e33bf1","true","6726","","","","{""age"":""18""}","","","","","","","","","","","","","","","","","",""
"survey-multi-choice","6","55396","0.0-1.0-1.0-1.0","pm501jllkgjsz4p","demographics","5f58f80199fe990bc281f681","5f60e3c0a3b16e07647b2ff9","5f61dbfaf858cc0401e33bf1","true","25995.999999999996","","","","{""gender"":""male"",""school"":""high school"",""education"":""Still in training/ university""}","[0,1,2]","","","","","","","","","","","","","","","","",""
"survey-text","7","87077","0.0-1.0-1.0-2.0-0.0","pm501jllkgjsz4p","demographics","5f58f80199fe990bc281f681","5f60e3c0a3b16e07647b2ff9","5f61dbfaf858cc0401e33bf1","true","31674","","","","{""education_text"":""Undergraduate Bsc Prosthetics and Orthotics""}","","","","","","","","","","","","","","","","","",""
"html-keyboard-response","8","98386","0.0-1.0-2.0","pm501jllkgjsz4p","instructions","5f58f80199fe990bc281f681","5f60e3c0a3b16e07647b2ff9","5f61dbfaf858cc0401e33bf1","false","11305.999999999985","<div align=left> The experiment is now about to start: <br> <br>In the following part, you will be presented pictures of everyday objects. <br>Your first task is to <strong>classify these objects. </strong> <br> <br> You will classify them either as mechanical or non-mechanical objects. <br> <br>Objects that include any kind of technical mechanism (for example, wheels, switches, levers, <br> electronic components) fall under the category of <strong>mechanical</strong> objects. <br>Only objects without any kind of technical mechanism should be classified as <strong>non-mechanical</strong>. <br><br>Press 'SPACE' to continue. </div>","32","","","","","","","","","","","","","","","","","","","",""
"html-keyboard-response","9","168930","0.0-2.0-0.0","pm501jllkgjsz4p","instructions","5f58f80199fe990bc281f681","5f60e3c0a3b16e07647b2ff9","5f61dbfaf858cc0401e33bf1","false","70546.00000000003","<div align=justify>You will classify the objects using the <strong>'S'</strong> and the <strong>'L'</strong> keys on your keyboard.<br>For doing so, please place your <strong>left index finger</strong> on the <strong>'S'</strong> key and place your <strong>right index finger</strong> on the <strong>'L'</strong> key. <br><br> Each trial starts with an instruction, indicating which key ('S'/'L') you need to press to classify <br>the object as mechanical (letter M) or non-mechanical (letter N).<br>The instruction <strong>M + N</strong> indicates that, in the current trial, by pressing the left key ('S') you classify the displayed object as mechanical (M) <br> and by pressing the right key ('L') you classify the object as non-mechanical (N). <br>The instruction <strong>N + M</strong> on the other hand indicates that by pressing the left key ('S') you classify the displayed object as non-mechanical (N) <br> and by pressing the right key ('L') you classify the object as mechanical (M). <br><br>Please press the key corresponding to the correct classification as fast as possible as soon as the object is displayed and try to avoid making mistakes.<br>If you do not respond within a 2 second window, a corresponding feedback will be displayed and the next trial will start.<br> The experiment is divided into multiple blocks to give you the opportunity to take a break after each block. <br>First, you can now practice this task. <br><br>Please place your <strong>LEFT INDEX FINGER</strong> on the 'S' key and your <strong>RIGHT INDEX FINGER</strong> on the 'L' key now. <br><br>Press SPACE to continue.</div>","32","","","","","","","","","","","","","","","","","","","",""
"html-keyboard-response","10","171239","0.0-2.0-1.0","pm501jllkgjsz4p","instructions","5f58f80199fe990bc281f681","5f60e3c0a3b16e07647b2ff9","5f61dbfaf858cc0401e33bf1","false","2308","<div align=left> You will now have time to practice this task.<br><br>Remember: <br> <br><li>Please place your index fingers on the <strong>'S'</strong> and <strong>'L'</strong> keys <br>to respond as fast and accurately as possible.</li><li>Every picture can be classified as either mechanical or non-mechanical.</li><li>If you do not respond in time or commit an error, you will receive a corresponding feedback. </li><li> Please try to respond as <strong> fast </strong> and as <strong> accurately as possible </strong> .<br><li>To ensure optimal results, please minimize distractions and stay focused. </li><br><br>Press SPACE to continue.</div>","32","","","","","","","","","","","","","","","","","","","",""
"html-keyboard-response","11","171943","0.0-2.0-2.0-0.0","pm501jllkgjsz4p","practice_no_cue","5f58f80199fe990bc281f681","5f60e3c0a3b16e07647b2ff9","5f61dbfaf858cc0401e33bf1","false","null","<span style=""color: black; font-size: 48px"">N + M</span>","null","","","","resp_prompt","","","","","","","","","","","","","","","",""
"categorize-image","12","174452","0.0-2.0-2.0-1.0","pm501jllkgjsz4p","practice_no_cue","5f58f80199fe990bc281f681","5f60e3c0a3b16e07647b2ff9","5f61dbfaf858cc0401e33bf1","true","null","./Stimuli/ImagesPractice/SN76.jpg","null","","","","test","false","N + M","83","","SN","SN76.jpg","forget","old","1","1","start","too_slow","","","",""
"html-keyboard-response","13","175158","0.0-2.0-2.0-0.1","pm501jllkgjsz4p","practice_no_cue","5f58f80199fe990bc281f681","5f60e3c0a3b16e07647b2ff9","5f61dbfaf858cc0401e33bf1","false","null","<span style=""color: black; font-size: 48px"">N + M</span>","null","","","","resp_prompt","","","","","","","","","","","","","","","",""
"categorize-image","14","177724","0.0-2.0-2.0-1.1","pm501jllkgjsz4p","practice_no_cue","5f58f80199fe990bc281f681","5f60e3c0a3b16e07647b2ff9","5f61dbfaf858cc0401e33bf1","true","null","./Stimuli/ImagesPractice/LN109.jpg","null","","","","test","false","N + M","83","","LN","LN109.jpg","remember","old","2","1","start","too_slow","","","",""
"html-keyboard-response","15","178722","0.0-2.0-2.0-0.2","pm501jllkgjsz4p","practice_no_cue","5f58f80199fe990bc281f681","5f60e3c0a3b16e07647b2ff9","5f61dbfaf858cc0401e33bf1","false","null","<span style=""color: black; font-size: 48px"">N + M</span>","null","","","","resp_prompt","","","","","","","","","","","","","","","",""
"categorize-image","16","181227","0.0-2.0-2.0-1.2","pm501jllkgjsz4p","practice_no_cue","5f58f80199fe990bc281f681","5f60e3c0a3b16e07647b2ff9","5f61dbfaf858cc0401e33bf1","true","null","./Stimuli/ImagesPractice/LM224.jpg","null","","","","test","false","N + M","76","","LM","LM224.jpg","forget","old","3","1","start","too_slow","","","",""
"html-keyboard-response","17","181930","0.0-2.0-2.0-0.3","pm501jllkgjsz4p","practice_no_cue","5f58f80199fe990bc281f681","5f60e3c0a3b16e07647b2ff9","5f61dbfaf858cc0401e33bf1","false","null","<span style=""color: black; font-size: 48px"">M + N</span>","null","","","","resp_prompt","","","","","","","","","","","","","","","",""
"categorize-image","18","183781","0.0-2.0-2.0-1.3","pm501jllkgjsz4p","practice_no_cue","5f58f80199fe990bc281f681","5f60e3c0a3b16e07647b2ff9","5f61dbfaf858cc0401e33bf1","true","1347","./Stimuli/ImagesPractice/SM62.jpg","83","","","","test","true","M + N","83","","SM","SM62.jpg","forget","old","4","1","start","left","","","",""
"html-keyboard-response","19","184486","0.0-2.0-2.0-0.4","pm501jllkgjsz4p","practice_no_cue","5f58f80199fe990bc281f681","5f60e3c0a3b16e07647b2ff9","5f61dbfaf858cc0401e33bf1","false","null","<span style=""color: black; font-size: 48px"">N + M</span>","null","","","","resp_prompt","","","","","","","","","","","","","","","",""
"categorize-image","20","185727","0.0-2.0-2.0-1.4","pm501jllkgjsz4p","practice_no_cue","5f58f80199fe990bc281f681","5f60e3c0a3b16e07647b2ff9","5f61dbfaf858cc0401e33bf1","true","736","./Stimuli/ImagesPractice/LN15.jpg","76","","","","test","false","N + M","83","","LN","LN15.jpg","forget","old","5","1","start","right","","","",""
"html-keyboard-response","21","186432","0.0-2.0-2.0-0.5","pm501jllkgjsz4p","practice_no_cue","5f58f80199fe990bc281f681","5f60e3c0a3b16e07647b2ff9","5f61dbfaf858cc0401e33bf1","false","null","<span style=""color: black; font-size: 48px"">N + M</span>","null","","","","resp_prompt","","","","","","","","","","","","","","","",""
"categorize-image","22","188097","0.0-2.0-2.0-1.5","pm501jllkgjsz4p","practice_no_cue","5f58f80199fe990bc281f681","5f60e3c0a3b16e07647b2ff9","5f61dbfaf858cc0401e33bf1","true","1161","./Stimuli/ImagesPractice/LN2.jpg","76","","","","test","false","N + M","83","","LN","LN2.jpg","remember","old","6","1","start","right","","","",""
"html-keyboard-response","23","188802","0.0-2.0-2.0-0.6","pm501jllkgjsz4p","practice_no_cue","5f58f80199fe990bc281f681","5f60e3c0a3b16e07647b2ff9","5f61dbfaf858cc0401e33bf1","false","null","<span style=""color: black; font-size: 48px"">N + M</span>","null","","","","resp_prompt","","","","","","","","","","","","","","","",""
"categorize-image","24","190109","0.0-2.0-2.0-1.6","pm501jllkgjsz4p","practice_no_cue","5f58f80199fe990bc281f681","5f60e3c0a3b16e07647b2ff9","5f61dbfaf858cc0401e33bf1","true","802.9999999999709","./Stimuli/ImagesPractice/LM147.jpg","83","","","","test","false","N + M","76","","LM","LM147.jpg","remember","old","7","1","start","left","","","",""
"html-keyboard-response","25","190812","0.0-2.0-2.0-0.7","pm501jllkgjsz4p","practice_no_cue","5f58f80199fe990bc281f681","5f60e3c0a3b16e07647b2ff9","5f61dbfaf858cc0401e33bf1","false","null","<span style=""color: black; font-size: 48px"">M + N</span>","null","","","","resp_prompt","","","","","","","","","","","","","","","",""
"categorize-image","26","192343","0.0-2.0-2.0-1.7","pm501jllkgjsz4p","practice_no_cue","5f58f80199fe990bc281f681","5f60e3c0a3b16e07647b2ff9","5f61dbfaf858cc0401e33bf1","true","1026","./Stimuli/ImagesPractice/SM35.jpg","76","","","","test","false","M + N","83","","SM","SM35.jpg","forget","old","8","1","start","right","","","",""
"html-keyboard-response","27","193048","0.0-2.0-2.0-0.8","pm501jllkgjsz4p","practice_no_cue","5f58f80199fe990bc281f681","5f60e3c0a3b16e07647b2ff9","5f61dbfaf858cc0401e33bf1","false","null","<span style=""color: black; font-size: 48px"">M + N</span>","null","","","","resp_prompt","","","","","","","","","","","","","","","",""
"categorize-image","28","194862","0.0-2.0-2.0-1.8","pm501jllkgjsz4p","practice_no_cue","5f58f80199fe990bc281f681","5f60e3c0a3b16e07647b2ff9","5f61dbfaf858cc0401e33bf1","true","1308.000000000029","./Stimuli/ImagesPractice/SN205.jpg","83","","","","test","false","M + N","76","","SN","SN205.jpg","remember","old","9","1","start","left","","","",""
"html-keyboard-response","29","195567","0.0-2.0-2.0-0.9","pm501jllkgjsz4p","practice_no_cue","5f58f80199fe990bc281f681","5f60e3c0a3b16e07647b2ff9","5f61dbfaf858cc0401e33bf1","false","null","<span style=""color: black; font-size: 48px"">M + N</span>","null","","","","resp_prompt","","","","","","","","","","","","","","","",""
"categorize-image","30","197550","0.0-2.0-2.0-1.9","pm501jllkgjsz4p","practice_no_cue","5f58f80199fe990bc281f681","5f60e3c0a3b16e07647b2ff9","5f61dbfaf858cc0401e33bf1","true","1477","./Stimuli/ImagesPractice/SN75.jpg","83","","","","test","false","M + N","76","","SN","SN75.jpg","forget","old","10","1","start","left","","","",""
"html-keyboard-response","31","198255","0.0-2.0-2.0-0.10","pm501jllkgjsz4p","practice_no_cue","5f58f80199fe990bc281f681","5f60e3c0a3b16e07647b2ff9","5f61dbfaf858cc0401e33bf1","false","null","<span style=""color: black; font-size: 48px"">M + N</span>","null","","","","resp_prompt","","","","","","","","","","","","","","","",""
"categorize-image","32","200760","0.0-2.0-2.0-1.10","pm501jllkgjsz4p","practice_no_cue","5f58f80199fe990bc281f681","5f60e3c0a3b16e07647b2ff9","5f61dbfaf858cc0401e33bf1","true","null","./Stimuli/ImagesPractice/LM55.jpg","null","","","","test","false","M + N","83","","LM","LM55.jpg","forget","old","11","1","start","too_slow","","","",""
"html-keyboard-response","33","201465","0.0-2.0-2.0-0.11","pm501jllkgjsz4p","practice_no_cue","5f58f80199fe990bc281f681","5f60e3c0a3b16e07647b2ff9","5f61dbfaf858cc0401e33bf1","false","null","<span style=""color: black; font-size: 48px"">N + M</span>","null","","","","resp_prompt","","","","","","","","","","","","","","","",""
"categorize-image","34","203974","0.0-2.0-2.0-1.11","pm501jllkgjsz4p","practice_no_cue","5f58f80199fe990bc281f681","5f60e3c0a3b16e07647b2ff9","5f61dbfaf858cc0401e33bf1","true","null","./Stimuli/ImagesPractice/LN4.jpg","null","","","","test","false","N + M","83","","LN","LN4.jpg","forget","old","12","1","start","too_slow","","","",""
"html-keyboard-response","35","204677","0.0-2.0-2.0-0.12","pm501jllkgjsz4p","practice_no_cue","5f58f80199fe990bc281f681","5f60e3c0a3b16e07647b2ff9","5f61dbfaf858cc0401e33bf1","false","null","<span style=""color: black; font-size: 48px"">M + N</span>","null","","","","resp_prompt","","","","","","","","","","","","","","","",""
"categorize-image","36","205719","0.0-2.0-2.0-1.12","pm501jllkgjsz4p","practice_no_cue","5f58f80199fe990bc281f681","5f60e3c0a3b16e07647b2ff9","5f61dbfaf858cc0401e33bf1","true","538","./Stimuli/ImagesPractice/LM239.jpg","83","","","","test","true","M + N","83","","LM","LM239.jpg","remember","old","13","1","start","left","","","",""
"html-keyboard-response","37","206424","0.0-2.0-2.0-0.13","pm501jllkgjsz4p","practice_no_cue","5f58f80199fe990bc281f681","5f60e3c0a3b16e07647b2ff9","5f61dbfaf858cc0401e33bf1","false","null","<span style=""color: black; font-size: 48px"">M + N</span>","null","","","","resp_prompt","","","","","","","","","","","","","","","",""
"categorize-image","38","208035","0.0-2.0-2.0-1.13","pm501jllkgjsz4p","practice_no_cue","5f58f80199fe990bc281f681","5f60e3c0a3b16e07647b2ff9","5f61dbfaf858cc0401e33bf1","true","1105","./Stimuli/ImagesPractice/LN72.jpg","83","","","","test","false","M + N","76","","LN","LN72.jpg","remember","old","14","1","start","left","","","",""
"html-keyboard-response","39","208739","0.0-2.0-2.0-0.14","pm501jllkgjsz4p","practice_no_cue","5f58f80199fe990bc281f681","5f60e3c0a3b16e07647b2ff9","5f61dbfaf858cc0401e33bf1","false","null","<span style=""color: black; font-size: 48px"">M + N</span>","null","","","","resp_prompt","","","","","","","","","","","","","","","",""
"categorize-image","40","210399","0.0-2.0-2.0-1.14","pm501jllkgjsz4p","practice_no_cue","5f58f80199fe990bc281f681","5f60e3c0a3b16e07647b2ff9","5f61dbfaf858cc0401e33bf1","true","1155","./Stimuli/ImagesPractice/SN221.jpg","76","","","","test","true","M + N","76","","SN","SN221.jpg","remember","old","15","1","start","right","","","",""
"html-keyboard-response","41","211104","0.0-2.0-2.0-0.15","pm501jllkgjsz4p","practice_no_cue","5f58f80199fe990bc281f681","5f60e3c0a3b16e07647b2ff9","5f61dbfaf858cc0401e33bf1","false","null","<span style=""color: black; font-size: 48px"">N + M</span>","null","","","","resp_prompt","","","","","","","","","","","","","","","",""
"categorize-image","42","212578","0.0-2.0-2.0-1.15","pm501jllkgjsz4p","practice_no_cue","5f58f80199fe990bc281f681","5f60e3c0a3b16e07647b2ff9","5f61dbfaf858cc0401e33bf1","true","970","./Stimuli/ImagesPractice/SN220.jpg","76","","","","test","false","N + M","83","","SN","SN220.jpg","remember","old","16","1","start","right","","","",""
"html-keyboard-response","43","230727","0.0-2.0-3.0","pm501jllkgjsz4p","break","5f58f80199fe990bc281f681","5f60e3c0a3b16e07647b2ff9","5f61dbfaf858cc0401e33bf1","false","18146","<p style='font-size: 32px;'>Break</><br><br><br><br><br><p style='font-size: 24px;'>In the last block, you committed 8 errors and did not respond in time on 5 trials.
</p><p style='font-size: 24px;'>Try to respond as fast and accurately as possible in the next block as well! </p><p style='font-size: 24px;'>Press SPACE to continue.</p>","32","","","","","","","","","","","","","","","","","","","",""
"html-keyboard-response","44","236593","0.0-2.0-4.0","pm501jllkgjsz4p","instructions","5f58f80199fe990bc281f681","5f60e3c0a3b16e07647b2ff9","5f61dbfaf858cc0401e33bf1","false","5865","<div align=left> Great!<br><br>Are you ready to continue?<br><br>If you want to reread the instructions and redo the practice trials, <br>please press „Z“. <br><br>Press SPACE to CONTINUE with the experiment when you are ready. </div>","90","","","","","","","","","","","","","","","","","","","",""
"html-keyboard-response","45","247340","0.0-2.1-0.1","pm501jllkgjsz4p","instructions","5f58f80199fe990bc281f681","5f60e3c0a3b16e07647b2ff9","5f61dbfaf858cc0401e33bf1","false","10744.99999999997","<div align=justify>You will classify the objects using the <strong>'S'</strong> and the <strong>'L'</strong> keys on your keyboard.<br>For doing so, please place your <strong>left index finger</strong> on the <strong>'S'</strong> key and place your <strong>right index finger</strong> on the <strong>'L'</strong> key. <br><br> Each trial starts with an instruction, indicating which key ('S'/'L') you need to press to classify <br>the object as mechanical (letter M) or non-mechanical (letter N).<br>The instruction <strong>M + N</strong> indicates that, in the current trial, by pressing the left key ('S') you classify the displayed object as mechanical (M) <br> and by pressing the right key ('L') you classify the object as non-mechanical (N). <br>The instruction <strong>N + M</strong> on the other hand indicates that by pressing the left key ('S') you classify the displayed object as non-mechanical (N) <br> and by pressing the right key ('L') you classify the object as mechanical (M). <br><br>Please press the key corresponding to the correct classification as fast as possible as soon as the object is displayed and try to avoid making mistakes.<br>If you do not respond within a 2 second window, a corresponding feedback will be displayed and the next trial will start.<br> The experiment is divided into multiple blocks to give you the opportunity to take a break after each block. <br>First, you can now practice this task. <br><br>Please place your <strong>LEFT INDEX FINGER</strong> on the 'S' key and your <strong>RIGHT INDEX FINGER</strong> on the 'L' key now. <br><br>Press SPACE to continue.</div>","32","","","","","","","","","","","","","","","","","","","",""
"html-keyboard-response","46","250964","0.0-2.1-1.1","pm501jllkgjsz4p","instructions","5f58f80199fe990bc281f681","5f60e3c0a3b16e07647b2ff9","5f61dbfaf858cc0401e33bf1","false","3622.000000000029","<div align=left> You will now have time to practice this task.<br><br>Remember: <br> <br><li>Please place your index fingers on the <strong>'S'</strong> and <strong>'L'</strong> keys <br>to respond as fast and accurately as possible.</li><li>Every picture can be classified as either mechanical or non-mechanical.</li><li>If you do not respond in time or commit an error, you will receive a corresponding feedback. </li><li> Please try to respond as <strong> fast </strong> and as <strong> accurately as possible </strong> .<br><li>To ensure optimal results, please minimize distractions and stay focused. </li><br><br>Press SPACE to continue.</div>","32","","","","","","","","","","","","","","","","","","","",""
"html-keyboard-response","47","251666","0.0-2.1-2.1-0.16","pm501jllkgjsz4p","practice_no_cue","5f58f80199fe990bc281f681","5f60e3c0a3b16e07647b2ff9","5f61dbfaf858cc0401e33bf1","false","null","<span style=""color: black; font-size: 48px"">N + M</span>","null","","","","resp_prompt","","","","","","","","","","","","","","","",""
"categorize-image","48","252815","0.0-2.1-2.1-1.16","pm501jllkgjsz4p","practice_no_cue","5f58f80199fe990bc281f681","5f60e3c0a3b16e07647b2ff9","5f61dbfaf858cc0401e33bf1","true","646.0000000000291","./Stimuli/ImagesPractice/SN220.jpg","76","","","","test","false","N + M","83","","SN","SN220.jpg","remember","old","17","2","practice_forget","right","","","",""
"html-keyboard-response","49","253518","0.0-2.1-2.1-0.17","pm501jllkgjsz4p","practice_no_cue","5f58f80199fe990bc281f681","5f60e3c0a3b16e07647b2ff9","5f61dbfaf858cc0401e33bf1","false","null","<span style=""color: black; font-size: 48px"">N + M</span>","null","","","","resp_prompt","","","","","","","","","","","","","","","",""
"categorize-image","50","254903","0.0-2.1-2.1-1.17","pm501jllkgjsz4p","practice_no_cue","5f58f80199fe990bc281f681","5f60e3c0a3b16e07647b2ff9","5f61dbfaf858cc0401e33bf1","true","880.9999999999709","./Stimuli/ImagesPractice/LM224.jpg","76","","","","test","true","N + M","76","","LM","LM224.jpg","forget","old","18","2","practice_forget","right","","","",""
"html-keyboard-response","51","255607","0.0-2.1-2.1-0.18","pm501jllkgjsz4p","practice_no_cue","5f58f80199fe990bc281f681","5f60e3c0a3b16e07647b2ff9","5f61dbfaf858cc0401e33bf1","false","null","<span style=""color: black; font-size: 48px"">N + M</span>","null","","","","resp_prompt","","","","","","","","","","","","","","","",""
"categorize-image","52","256855","0.0-2.1-2.1-1.18","pm501jllkgjsz4p","practice_no_cue","5f58f80199fe990bc281f681","5f60e3c0a3b16e07647b2ff9","5f61dbfaf858cc0401e33bf1","true","744.0000000000291","./Stimuli/ImagesPractice/LN4.jpg","76","","","","test","false","N + M","83","","LN","LN4.jpg","forget","old","19","2","practice_forget","right","","","",""
"html-keyboard-response","53","257558","0.0-2.1-2.1-0.19","pm501jllkgjsz4p","practice_no_cue","5f58f80199fe990bc281f681","5f60e3c0a3b16e07647b2ff9","5f61dbfaf858cc0401e33bf1","false","null","<span style=""color: black; font-size: 48px"">M + N</span>","null","","","","resp_prompt","","","","","","","","","","","","","","","",""
"categorize-image","54","258928","0.0-2.1-2.1-1.19","pm501jllkgjsz4p","practice_no_cue","5f58f80199fe990bc281f681","5f60e3c0a3b16e07647b2ff9","5f61dbfaf858cc0401e33bf1","true","868","./Stimuli/ImagesPractice/SN205.jpg","83","","","","test","false","M + N","76","","SN","SN205.jpg","remember","old","20","2","practice_forget","left","","","",""
"html-keyboard-response","55","259630","0.0-2.1-2.1-0.20","pm501jllkgjsz4p","practice_no_cue","5f58f80199fe990bc281f681","5f60e3c0a3b16e07647b2ff9","5f61dbfaf858cc0401e33bf1","false","null","<span style=""color: black; font-size: 48px"">M + N</span>","null","","","","resp_prompt","","","","","","","","","","","","","","","",""
"categorize-image","56","260653","0.0-2.1-2.1-1.20","pm501jllkgjsz4p","practice_no_cue","5f58f80199fe990bc281f681","5f60e3c0a3b16e07647b2ff9","5f61dbfaf858cc0401e33bf1","true","519","./Stimuli/ImagesPractice/LM55.jpg","76","","","","test","false","M + N","83","","LM","LM55.jpg","forget","old","21","2","practice_forget","right","","","",""
"html-keyboard-response","57","261358","0.0-2.1-2.1-0.21","pm501jllkgjsz4p","practice_no_cue","5f58f80199fe990bc281f681","5f60e3c0a3b16e07647b2ff9","5f61dbfaf858cc0401e33bf1","false","null","<span style=""color: black; font-size: 48px"">N + M</span>","null","","","","resp_prompt","","","","","","","","","","","","","","","",""
"categorize-image","58","263808","0.0-2.1-2.1-1.21","pm501jllkgjsz4p","practice_no_cue","5f58f80199fe990bc281f681","5f60e3c0a3b16e07647b2ff9","5f61dbfaf858cc0401e33bf1","true","1947","./Stimuli/ImagesPractice/LN15.jpg","76","","","","test","false","N + M","83","","LN","LN15.jpg","forget","old","22","2","practice_forget","right","","","",""
"html-keyboard-response","59","264511","0.0-2.1-2.1-0.22","pm501jllkgjsz4p","practice_no_cue","5f58f80199fe990bc281f681","5f60e3c0a3b16e07647b2ff9","5f61dbfaf858cc0401e33bf1","false","null","<span style=""color: black; font-size: 48px"">M + N</span>","null","","","","resp_prompt","","","","","","","","","","","","","","","",""
"categorize-image","60","266962","0.0-2.1-2.1-1.22","pm501jllkgjsz4p","practice_no_cue","5f58f80199fe990bc281f681","5f60e3c0a3b16e07647b2ff9","5f61dbfaf858cc0401e33bf1","true","1950","./Stimuli/ImagesPractice/SN75.jpg","32","","","","test","false","M + N","76","","SN","SN75.jpg","forget","old","23","2","practice_forget","too_slow","","","",""
"html-keyboard-response","61","267665","0.0-2.1-2.1-0.23","pm501jllkgjsz4p","practice_no_cue","5f58f80199fe990bc281f681","5f60e3c0a3b16e07647b2ff9","5f61dbfaf858cc0401e33bf1","false","null","<span style=""color: black; font-size: 48px"">M + N</span>","null","","","","resp_prompt","","","","","","","","","","","","","","","",""
"categorize-image","62","268633","0.0-2.1-2.1-1.23","pm501jllkgjsz4p","practice_no_cue","5f58f80199fe990bc281f681","5f60e3c0a3b16e07647b2ff9","5f61dbfaf858cc0401e33bf1","true","462","./Stimuli/ImagesPractice/SM62.jpg","32","","","","test","false","M + N","83","","SM","SM62.jpg","forget","old","24","2","practice_forget","too_slow","","","",""
"html-keyboard-response","63","269336","0.0-2.1-2.1-0.24","pm501jllkgjsz4p","practice_no_cue","5f58f80199fe990bc281f681","5f60e3c0a3b16e07647b2ff9","5f61dbfaf858cc0401e33bf1","false","null","<span style=""color: black; font-size: 48px"">N + M</span>","null","","","","resp_prompt","","","","","","","","","","","","","","","",""
"categorize-image","64","270481","0.0-2.1-2.1-1.24","pm501jllkgjsz4p","practice_no_cue","5f58f80199fe990bc281f681","5f60e3c0a3b16e07647b2ff9","5f61dbfaf858cc0401e33bf1","true","642","./Stimuli/ImagesPractice/LM147.jpg","83","","","","test","false","N + M","76","","LM","LM147.jpg","remember","old","25","2","practice_forget","left","","","",""
"html-keyboard-response","65","271182","0.0-2.1-2.1-0.25","pm501jllkgjsz4p","practice_no_cue","5f58f80199fe990bc281f681","5f60e3c0a3b16e07647b2ff9","5f61dbfaf858cc0401e33bf1","false","null","<span style=""color: black; font-size: 48px"">N + M</span>","null","","","","resp_prompt","","","","","","","","","","","","","","","",""
"categorize-image","66","271784","0.0-2.1-2.1-1.25","pm501jllkgjsz4p","practice_no_cue","5f58f80199fe990bc281f681","5f60e3c0a3b16e07647b2ff9","5f61dbfaf858cc0401e33bf1","true","97.00000000005821","./Stimuli/ImagesPractice/SN76.jpg","83","","","","test","true","N + M","83","","SN","SN76.jpg","forget","old","26","2","practice_forget","left","","","",""
"html-keyboard-response","67","272487","0.0-2.1-2.1-0.26","pm501jllkgjsz4p","practice_no_cue","5f58f80199fe990bc281f681","5f60e3c0a3b16e07647b2ff9","5f61dbfaf858cc0401e33bf1","false","null","<span style=""color: black; font-size: 48px"">N + M</span>","null","","","","resp_prompt","","","","","","","","","","","","","","","",""
"categorize-image","68","273195","0.0-2.1-2.1-1.26","pm501jllkgjsz4p","practice_no_cue","5f58f80199fe990bc281f681","5f60e3c0a3b16e07647b2ff9","5f61dbfaf858cc0401e33bf1","true","204","./Stimuli/ImagesPractice/LN2.jpg","83","","","","test","true","N + M","83","","LN","LN2.jpg","remember","old","27","2","practice_forget","left","","","",""
"html-keyboard-response","69","273897","0.0-2.1-2.1-0.27","pm501jllkgjsz4p","practice_no_cue","5f58f80199fe990bc281f681","5f60e3c0a3b16e07647b2ff9","5f61dbfaf858cc0401e33bf1","false","null","<span style=""color: black; font-size: 48px"">M + N</span>","null","","","","resp_prompt","","","","","","","","","","","","","","","",""
"categorize-image","70","274596","0.0-2.1-2.1-1.27","pm501jllkgjsz4p","practice_no_cue","5f58f80199fe990bc281f681","5f60e3c0a3b16e07647b2ff9","5f61dbfaf858cc0401e33bf1","true","197","./Stimuli/ImagesPractice/SM35.jpg","83","","","","test","true","M + N","83","","SM","SM35.jpg","forget","old","28","2","practice_forget","left","","","",""
"html-keyboard-response","71","275299","0.0-2.1-2.1-0.28","pm501jllkgjsz4p","practice_no_cue","5f58f80199fe990bc281f681","5f60e3c0a3b16e07647b2ff9","5f61dbfaf858cc0401e33bf1","false","null","<span style=""color: black; font-size: 48px"">M + N</span>","null","","","","resp_prompt","","","","","","","","","","","","","","","",""
"categorize-image","72","276424","0.0-2.1-2.1-1.28","pm501jllkgjsz4p","practice_no_cue","5f58f80199fe990bc281f681","5f60e3c0a3b16e07647b2ff9","5f61dbfaf858cc0401e33bf1","true","622","./Stimuli/ImagesPractice/LN72.jpg","83","","","","test","false","M + N","76","","LN","LN72.jpg","remember","old","29","2","practice_forget","left","","","",""
"html-keyboard-response","73","277125","0.0-2.1-2.1-0.29","pm501jllkgjsz4p","practice_no_cue","5f58f80199fe990bc281f681","5f60e3c0a3b16e07647b2ff9","5f61dbfaf858cc0401e33bf1","false","null","<span style=""color: black; font-size: 48px"">N + M</span>","null","","","","resp_prompt","","","","","","","","","","","","","","","",""
"categorize-image","74","278515","0.0-2.1-2.1-1.29","pm501jllkgjsz4p","practice_no_cue","5f58f80199fe990bc281f681","5f60e3c0a3b16e07647b2ff9","5f61dbfaf858cc0401e33bf1","true","884","./Stimuli/ImagesPractice/LN109.jpg","83","","","","test","true","N + M","83","","LN","LN109.jpg","remember","old","30","2","practice_forget","left","","","",""
"html-keyboard-response","75","279220","0.0-2.1-2.1-0.30","pm501jllkgjsz4p","practice_no_cue","5f58f80199fe990bc281f681","5f60e3c0a3b16e07647b2ff9","5f61dbfaf858cc0401e33bf1","false","null","<span style=""color: black; font-size: 48px"">M + N</span>","null","","","","resp_prompt","","","","","","","","","","","","","","","",""
"categorize-image","76","279974","0.0-2.1-2.1-1.30","pm501jllkgjsz4p","practice_no_cue","5f58f80199fe990bc281f681","5f60e3c0a3b16e07647b2ff9","5f61dbfaf858cc0401e33bf1","true","249","./Stimuli/ImagesPractice/SN221.jpg","83","","","","test","false","M + N","76","","SN","SN221.jpg","remember","old","31","2","practice_forget","left","","","",""
"html-keyboard-response","77","280680","0.0-2.1-2.1-0.31","pm501jllkgjsz4p","practice_no_cue","5f58f80199fe990bc281f681","5f60e3c0a3b16e07647b2ff9","5f61dbfaf858cc0401e33bf1","false","null","<span style=""color: black; font-size: 48px"">M + N</span>","null","","","","resp_prompt","","","","","","","","","","","","","","","",""
"categorize-image","78","281453","0.0-2.1-2.1-1.31","pm501jllkgjsz4p","practice_no_cue","5f58f80199fe990bc281f681","5f60e3c0a3b16e07647b2ff9","5f61dbfaf858cc0401e33bf1","true","268","./Stimuli/ImagesPractice/LM239.jpg","76","","","","test","false","M + N","83","","LM","LM239.jpg","remember","old","32","2","practice_forget","right","","","",""
"html-keyboard-response","79","284916","0.0-2.1-3.1","pm501jllkgjsz4p","break","5f58f80199fe990bc281f681","5f60e3c0a3b16e07647b2ff9","5f61dbfaf858cc0401e33bf1","false","3459","<p style='font-size: 32px;'>Break</><br><br><br><br><br><p style='font-size: 24px;'>In the last block, you committed 9 errors and did not respond in time on 0 trials.
</p><p style='font-size: 24px;'>Try to respond as fast and accurately as possible in the next block as well! </p><p style='font-size: 24px;'>Press SPACE to continue.</p>","32","","","","","","","","","","","","","","","","","","","",""
"html-keyboard-response","80","286367","0.0-2.1-4.1","pm501jllkgjsz4p","instructions","5f58f80199fe990bc281f681","5f60e3c0a3b16e07647b2ff9","5f61dbfaf858cc0401e33bf1","false","1451","<div align=left> Great!<br><br>Are you ready to continue?<br><br>If you want to reread the instructions and redo the practice trials, <br>please press „Z“. <br><br>Press SPACE to CONTINUE with the experiment when you are ready. </div>","90","","","","","","","","","","","","","","","","","","","",""
"html-keyboard-response","81","294209","0.0-2.2-0.2","pm501jllkgjsz4p","instructions","5f58f80199fe990bc281f681","5f60e3c0a3b16e07647b2ff9","5f61dbfaf858cc0401e33bf1","false","7841","<div align=justify>You will classify the objects using the <strong>'S'</strong> and the <strong>'L'</strong> keys on your keyboard.<br>For doing so, please place your <strong>left index finger</strong> on the <strong>'S'</strong> key and place your <strong>right index finger</strong> on the <strong>'L'</strong> key. <br><br> Each trial starts with an instruction, indicating which key ('S'/'L') you need to press to classify <br>the object as mechanical (letter M) or non-mechanical (letter N).<br>The instruction <strong>M + N</strong> indicates that, in the current trial, by pressing the left key ('S') you classify the displayed object as mechanical (M) <br> and by pressing the right key ('L') you classify the object as non-mechanical (N). <br>The instruction <strong>N + M</strong> on the other hand indicates that by pressing the left key ('S') you classify the displayed object as non-mechanical (N) <br> and by pressing the right key ('L') you classify the object as mechanical (M). <br><br>Please press the key corresponding to the correct classification as fast as possible as soon as the object is displayed and try to avoid making mistakes.<br>If you do not respond within a 2 second window, a corresponding feedback will be displayed and the next trial will start.<br> The experiment is divided into multiple blocks to give you the opportunity to take a break after each block. <br>First, you can now practice this task. <br><br>Please place your <strong>LEFT INDEX FINGER</strong> on the 'S' key and your <strong>RIGHT INDEX FINGER</strong> on the 'L' key now. <br><br>Press SPACE to continue.</div>","32","","","","","","","","","","","","","","","","","","","",""
"html-keyboard-response","82","294824","0.0-2.2-1.2","pm501jllkgjsz4p","instructions","5f58f80199fe990bc281f681","5f60e3c0a3b16e07647b2ff9","5f61dbfaf858cc0401e33bf1","false","614","<div align=left> You will now have time to practice this task.<br><br>Remember: <br> <br><li>Please place your index fingers on the <strong>'S'</strong> and <strong>'L'</strong> keys <br>to respond as fast and accurately as possible.</li><li>Every picture can be classified as either mechanical or non-mechanical.</li><li>If you do not respond in time or commit an error, you will receive a corresponding feedback. </li><li> Please try to respond as <strong> fast </strong> and as <strong> accurately as possible </strong> .<br><li>To ensure optimal results, please minimize distractions and stay focused. </li><br><br>Press SPACE to continue.</div>","32","","","","","","","","","","","","","","","","","","","",""
"html-keyboard-response","83","295527","0.0-2.2-2.2-0.32","pm501jllkgjsz4p","practice_no_cue","5f58f80199fe990bc281f681","5f60e3c0a3b16e07647b2ff9","5f61dbfaf858cc0401e33bf1","false","null","<span style=""color: black; font-size: 48px"">N + M</span>","null","","","","resp_prompt","","","","","","","","","","","","","","","",""
"categorize-image","84","296657","0.0-2.2-2.2-1.32","pm501jllkgjsz4p","practice_no_cue","5f58f80199fe990bc281f681","5f60e3c0a3b16e07647b2ff9","5f61dbfaf858cc0401e33bf1","true","624","./Stimuli/ImagesPractice/SN76.jpg","76","","","","test","false","N + M","83","","SN","SN76.jpg","forget","old","33","3","practice_forget","right","","","",""
"html-keyboard-response","85","297362","0.0-2.2-2.2-0.33","pm501jllkgjsz4p","practice_no_cue","5f58f80199fe990bc281f681","5f60e3c0a3b16e07647b2ff9","5f61dbfaf858cc0401e33bf1","false","null","<span style=""color: black; font-size: 48px"">M + N</span>","null","","","","resp_prompt","","","","","","","","","","","","","","","",""
"categorize-image","86","298627","0.0-2.2-2.2-1.33","pm501jllkgjsz4p","practice_no_cue","5f58f80199fe990bc281f681","5f60e3c0a3b16e07647b2ff9","5f61dbfaf858cc0401e33bf1","true","760","./Stimuli/ImagesPractice/SN205.jpg","76","","","","test","true","M + N","76","","SN","SN205.jpg","remember","old","34","3","practice_forget","right","","","",""
"html-keyboard-response","87","299331","0.0-2.2-2.2-0.34","pm501jllkgjsz4p","practice_no_cue","5f58f80199fe990bc281f681","5f60e3c0a3b16e07647b2ff9","5f61dbfaf858cc0401e33bf1","false","null","<span style=""color: black; font-size: 48px"">N + M</span>","null","","","","resp_prompt","","","","","","","","","","","","","","","",""
"categorize-image","88","300072","0.0-2.2-2.2-1.34","pm501jllkgjsz4p","practice_no_cue","5f58f80199fe990bc281f681","5f60e3c0a3b16e07647b2ff9","5f61dbfaf858cc0401e33bf1","true","237","./Stimuli/ImagesPractice/LM224.jpg","83","","","","test","false","N + M","76","","LM","LM224.jpg","forget","old","35","3","practice_forget","left","","","",""
"html-keyboard-response","89","300777","0.0-2.2-2.2-0.35","pm501jllkgjsz4p","practice_no_cue","5f58f80199fe990bc281f681","5f60e3c0a3b16e07647b2ff9","5f61dbfaf858cc0401e33bf1","false","null","<span style=""color: black; font-size: 48px"">M + N</span>","null","","","","resp_prompt","","","","","","","","","","","","","","","",""
"categorize-image","90","302032","0.0-2.2-2.2-1.35","pm501jllkgjsz4p","practice_no_cue","5f58f80199fe990bc281f681","5f60e3c0a3b16e07647b2ff9","5f61dbfaf858cc0401e33bf1","true","752","./Stimuli/ImagesPractice/LM239.jpg","76","","","","test","false","M + N","83","","LM","LM239.jpg","remember","old","36","3","practice_forget","right","","","",""
"html-keyboard-response","91","302737","0.0-2.2-2.2-0.36","pm501jllkgjsz4p","practice_no_cue","5f58f80199fe990bc281f681","5f60e3c0a3b16e07647b2ff9","5f61dbfaf858cc0401e33bf1","false","null","<span style=""color: black; font-size: 48px"">N + M</span>","null","","","","resp_prompt","","","","","","","","","","","","","","","",""
"categorize-image","92","304079","0.0-2.2-2.2-1.36","pm501jllkgjsz4p","practice_no_cue","5f58f80199fe990bc281f681","5f60e3c0a3b16e07647b2ff9","5f61dbfaf858cc0401e33bf1","true","837.9999999999418","./Stimuli/ImagesPractice/LN4.jpg","76","","","","test","false","N + M","83","","LN","LN4.jpg","forget","old","37","3","practice_forget","right","","","",""
"html-keyboard-response","93","304782","0.0-2.2-2.2-0.37","pm501jllkgjsz4p","practice_no_cue","5f58f80199fe990bc281f681","5f60e3c0a3b16e07647b2ff9","5f61dbfaf858cc0401e33bf1","false","null","<span style=""color: black; font-size: 48px"">N + M</span>","null","","","","resp_prompt","","","","","","","","","","","","","","","",""
"categorize-image","94","306036","0.0-2.2-2.2-1.37","pm501jllkgjsz4p","practice_no_cue","5f58f80199fe990bc281f681","5f60e3c0a3b16e07647b2ff9","5f61dbfaf858cc0401e33bf1","true","750","./Stimuli/ImagesPractice/LN109.jpg","83","","","","test","true","N + M","83","","LN","LN109.jpg","remember","old","38","3","practice_forget","left","","","",""
"html-keyboard-response","95","306741","0.0-2.2-2.2-0.38","pm501jllkgjsz4p","practice_no_cue","5f58f80199fe990bc281f681","5f60e3c0a3b16e07647b2ff9","5f61dbfaf858cc0401e33bf1","false","null","<span style=""color: black; font-size: 48px"">N + M</span>","null","","","","resp_prompt","","","","","","","","","","","","","","","",""
"categorize-image","96","308254","0.0-2.2-2.2-1.38","pm501jllkgjsz4p","practice_no_cue","5f58f80199fe990bc281f681","5f60e3c0a3b16e07647b2ff9","5f61dbfaf858cc0401e33bf1","true","1008.0000000000582","./Stimuli/ImagesPractice/LM147.jpg","76","","","","test","true","N + M","76","","LM","LM147.jpg","remember","old","39","3","practice_forget","right","","","",""
"html-keyboard-response","97","308959","0.0-2.2-2.2-0.39","pm501jllkgjsz4p","practice_no_cue","5f58f80199fe990bc281f681","5f60e3c0a3b16e07647b2ff9","5f61dbfaf858cc0401e33bf1","false","null","<span style=""color: black; font-size: 48px"">M + N</span>","null","","","","resp_prompt","","","","","","","","","","","","","","","",""
"categorize-image","98","310400","0.0-2.2-2.2-1.39","pm501jllkgjsz4p","practice_no_cue","5f58f80199fe990bc281f681","5f60e3c0a3b16e07647b2ff9","5f61dbfaf858cc0401e33bf1","true","936","./Stimuli/ImagesPractice/SN75.jpg","76","","","","test","true","M + N","76","","SN","SN75.jpg","forget","old","40","3","practice_forget","right","","","",""
"html-keyboard-response","99","311105","0.0-2.2-2.2-0.40","pm501jllkgjsz4p","practice_no_cue","5f58f80199fe990bc281f681","5f60e3c0a3b16e07647b2ff9","5f61dbfaf858cc0401e33bf1","false","null","<span style=""color: black; font-size: 48px"">N + M</span>","null","","","","resp_prompt","","","","","","","","","","","","","","","",""
"categorize-image","100","312570","0.0-2.2-2.2-1.40","pm501jllkgjsz4p","practice_no_cue","5f58f80199fe990bc281f681","5f60e3c0a3b16e07647b2ff9","5f61dbfaf858cc0401e33bf1","true","962","./Stimuli/ImagesPractice/SN220.jpg","76","","","","test","false","N + M","83","","SN","SN220.jpg","remember","old","41","3","practice_forget","right","","","",""
"html-keyboard-response","101","313272","0.0-2.2-2.2-0.41","pm501jllkgjsz4p","practice_no_cue","5f58f80199fe990bc281f681","5f60e3c0a3b16e07647b2ff9","5f61dbfaf858cc0401e33bf1","false","null","<span style=""color: black; font-size: 48px"">M + N</span>","null","","","","resp_prompt","","","","","","","","","","","","","","","",""
"categorize-image","102","314924","0.0-2.2-2.2-1.41","pm501jllkgjsz4p","practice_no_cue","5f58f80199fe990bc281f681","5f60e3c0a3b16e07647b2ff9","5f61dbfaf858cc0401e33bf1","true","1147","./Stimuli/ImagesPractice/LM55.jpg","76","","","","test","false","M + N","83","","LM","LM55.jpg","forget","old","42","3","practice_forget","right","","","",""
"html-keyboard-response","103","315627","0.0-2.2-2.2-0.42","pm501jllkgjsz4p","practice_no_cue","5f58f80199fe990bc281f681","5f60e3c0a3b16e07647b2ff9","5f61dbfaf858cc0401e33bf1","false","null","<span style=""color: black; font-size: 48px"">M + N</span>","null","","","","resp_prompt","","","","","","","","","","","","","","","",""
"categorize-image","104","317145","0.0-2.2-2.2-1.42","pm501jllkgjsz4p","practice_no_cue","5f58f80199fe990bc281f681","5f60e3c0a3b16e07647b2ff9","5f61dbfaf858cc0401e33bf1","true","1014","./Stimuli/ImagesPractice/SM35.jpg","83","","","","test","true","M + N","83","","SM","SM35.jpg","forget","old","43","3","practice_forget","left","","","",""
"html-keyboard-response","105","317850","0.0-2.2-2.2-0.43","pm501jllkgjsz4p","practice_no_cue","5f58f80199fe990bc281f681","5f60e3c0a3b16e07647b2ff9","5f61dbfaf858cc0401e33bf1","false","null","<span style=""color: black; font-size: 48px"">N + M</span>","null","","","","resp_prompt","","","","","","","","","","","","","","","",""
"categorize-image","106","319554","0.0-2.2-2.2-1.43","pm501jllkgjsz4p","practice_no_cue","5f58f80199fe990bc281f681","5f60e3c0a3b16e07647b2ff9","5f61dbfaf858cc0401e33bf1","true","1198.9999999999418","./Stimuli/ImagesPractice/LN2.jpg","83","","","","test","true","N + M","83","","LN","LN2.jpg","remember","old","44","3","practice_forget","left","","","",""
"html-keyboard-response","107","320259","0.0-2.2-2.2-0.44","pm501jllkgjsz4p","practice_no_cue","5f58f80199fe990bc281f681","5f60e3c0a3b16e07647b2ff9","5f61dbfaf858cc0401e33bf1","false","null","<span style=""color: black; font-size: 48px"">M + N</span>","null","","","","resp_prompt","","","","","","","","","","","","","","","",""
"categorize-image","108","321914","0.0-2.2-2.2-1.44","pm501jllkgjsz4p","practice_no_cue","5f58f80199fe990bc281f681","5f60e3c0a3b16e07647b2ff9","5f61dbfaf858cc0401e33bf1","true","1150","./Stimuli/ImagesPractice/SM62.jpg","76","","","","test","false","M + N","83","","SM","SM62.jpg","forget","old","45","3","practice_forget","right","","","",""
"html-keyboard-response","109","322619","0.0-2.2-2.2-0.45","pm501jllkgjsz4p","practice_no_cue","5f58f80199fe990bc281f681","5f60e3c0a3b16e07647b2ff9","5f61dbfaf858cc0401e33bf1","false","null","<span style=""color: black; font-size: 48px"">N + M</span>","null","","","","resp_prompt","","","","","","","","","","","","","","","",""
"categorize-image","110","324454","0.0-2.2-2.2-1.45","pm501jllkgjsz4p","practice_no_cue","5f58f80199fe990bc281f681","5f60e3c0a3b16e07647b2ff9","5f61dbfaf858cc0401e33bf1","true","1329","./Stimuli/ImagesPractice/LN15.jpg","76","","","","test","false","N + M","83","","LN","LN15.jpg","forget","old","46","3","practice_forget","right","","","",""
"html-keyboard-response","111","325156","0.0-2.2-2.2-0.46","pm501jllkgjsz4p","practice_no_cue","5f58f80199fe990bc281f681","5f60e3c0a3b16e07647b2ff9","5f61dbfaf858cc0401e33bf1","false","null","<span style=""color: black; font-size: 48px"">M + N</span>","null","","","","resp_prompt","","","","","","","","","","","","","","","",""
"categorize-image","112","326691","0.0-2.2-2.2-1.46","pm501jllkgjsz4p","practice_no_cue","5f58f80199fe990bc281f681","5f60e3c0a3b16e07647b2ff9","5f61dbfaf858cc0401e33bf1","true","1031","./Stimuli/ImagesPractice/SN221.jpg","76","","","","test","true","M + N","76","","SN","SN221.jpg","remember","old","47","3","practice_forget","right","","","",""
"html-keyboard-response","113","327396","0.0-2.2-2.2-0.47","pm501jllkgjsz4p","practice_no_cue","5f58f80199fe990bc281f681","5f60e3c0a3b16e07647b2ff9","5f61dbfaf858cc0401e33bf1","false","null","<span style=""color: black; font-size: 48px"">M + N</span>","null","","","","resp_prompt","","","","","","","","","","","","","","","",""
"categorize-image","114","328601","0.0-2.2-2.2-1.47","pm501jllkgjsz4p","practice_no_cue","5f58f80199fe990bc281f681","5f60e3c0a3b16e07647b2ff9","5f61dbfaf858cc0401e33bf1","true","700","./Stimuli/ImagesPractice/LN72.jpg","83","","","","test","false","M + N","76","","LN","LN72.jpg","remember","old","48","3","practice_forget","left","","","",""
"html-keyboard-response","115","331097","0.0-2.2-3.2","pm501jllkgjsz4p","break","5f58f80199fe990bc281f681","5f60e3c0a3b16e07647b2ff9","5f61dbfaf858cc0401e33bf1","false","2494","<p style='font-size: 32px;'>Break</><br><br><br><br><br><p style='font-size: 24px;'>In the last block, you committed 9 errors and did not respond in time on 0 trials.
</p><p style='font-size: 24px;'>Try to respond as fast and accurately as possible in the next block as well! </p><p style='font-size: 24px;'>Press SPACE to continue.</p>","32","","","","","","","","","","","","","","","","","","","",""
"html-keyboard-response","116","331576","0.0-2.2-4.2","pm501jllkgjsz4p","instructions","5f58f80199fe990bc281f681","5f60e3c0a3b16e07647b2ff9","5f61dbfaf858cc0401e33bf1","false","477","<div align=left> Great!<br><br>Are you ready to continue?<br><br>If you want to reread the instructions and redo the practice trials, <br>please press „Z“. <br><br>Press SPACE to CONTINUE with the experiment when you are ready. </div>","32","","","","","","","","","","","","","","","","","","","",""
"html-keyboard-response","117","332233","0.0-3.0-0.0","pm501jllkgjsz4p","instructions","5f58f80199fe990bc281f681","5f60e3c0a3b16e07647b2ff9","5f61dbfaf858cc0401e33bf1","false","655","<div align=left>Great!<br> <strong>Attention</strong>! You will now receive a second, additional task! <br><br>To this point it was you <strong>first task</strong> to correctly <strong>classify objects</strong>. <br><br>As mentioned in the beginning, we aim to examine how well humans can remember previously learned information.<br>We would like to find out whether our memory improves if we only remember information that is relevant to us. <br><br>Therefore, your <strong>second task</strong> will be to <strong>remember</strong> the pictures you are to categorize. <br> After the learning phase, there will be a memory test phase, in which you will be asked to indicate whether you have seen a picture before or not. <br>Some, but not all pictures shown in the learning phase will appear in the memory test phase.<br>After classifying a picture, you will be told whether you should remember it for the memory test phase or not. <br>Thus, some pictures can be forgotten, whereas others have to be remembered. <br><br>Note: From now on, feedback will only be displayed if you responded incorrectly or not in time.<br><br>Press SPACE to continue.</div>","32","","","","","","","","","","","","","","","","","","","",""
"html-keyboard-response","118","350842","0.0-3.0-1.0","pm501jllkgjsz4p","instructions","5f58f80199fe990bc281f681","5f60e3c0a3b16e07647b2ff9","5f61dbfaf858cc0401e33bf1","false","18608","<div align=left>In the following part, you will thus have to remember only some pictures. <br>Immediately after seeing and classifying the picture, a symbol will be displayed, indicating whether you should remember or forget the previous picture. <br><br>A <span style='color: dodgerblue; font-size: 28px'>O</span> indicates REMEMBER. That means, you have to remember this picture, because it will be tested later. <br><br>A <span style='color: darkorange; font-size:28px'>Ø</span> indicates FORGET. You do not have to remember this picture. <br><br> As you will have to remember a lot of pictures, it will be hard for you to remember all of them. <br>It will put you at an advantage if you instantly forget the pictures you are not asked to remember. <br> This will make it easier for you to remember the pictures that will be tested afterwards. <br><br>Press SPACE to continue.</div>","32","","","","","","","","","","","","","","","","","","","",""
"html-keyboard-response","119","357771","0.0-3.0-2.0","pm501jllkgjsz4p","instructions","5f58f80199fe990bc281f681","5f60e3c0a3b16e07647b2ff9","5f61dbfaf858cc0401e33bf1","false","6928","<div align=left> Now you have the chance to practice both tasks together.<br><br>Remember: <br> <br><li>Please place your index fingers on the <strong>'S'</strong> and <strong>'L'</strong> keys <br>to respond as fast and accurately as possible.</li><li>Every picture can be classified as either mechanical or non-mechanical.</li><li>If you do not respond in time or commit an error, you will receive a corresponding feedback. <br>Please try to respond as <strong> fast </strong> and as <strong> accurately as possible </strong>.</li><li> Please remember only the to-be-remembered <span style='color: dodgerblue; font-size: 28px'>O</span> pictures. <br></li><li> Please minimize distractions and stay focused. </li><br><br>Press SPACE to START</div>","32","","","","","","","","","","","","","","","","","","","",""
"html-keyboard-response","120","358475","0.0-3.0-3.0-0.0","pm501jllkgjsz4p","practice_cue","5f58f80199fe990bc281f681","5f60e3c0a3b16e07647b2ff9","5f61dbfaf858cc0401e33bf1","false","null","<span style=""color: black; font-size: 48px"">N + M</span>","null","","","","resp_prompt","","","","","","","","","","","","","","","",""
"categorize-image","121","359472","0.0-3.0-3.0-1.0","pm501jllkgjsz4p","practice_cue","5f58f80199fe990bc281f681","5f60e3c0a3b16e07647b2ff9","5f61dbfaf858cc0401e33bf1","true","994","./Stimuli/ImagesPractice/LM147.jpg","76","","","","test","true","N + M","76","","LM","LM147.jpg","remember","old","49","4","practice_forget","right","","","",""
"html-keyboard-response","122","361476","0.0-3.0-3.0-3.0","pm501jllkgjsz4p","practice_cue","5f58f80199fe990bc281f681","5f60e3c0a3b16e07647b2ff9","5f61dbfaf858cc0401e33bf1","false","null","<div style=""align-items: center; display: flex; color: dodgerblue; font-size: 90px""><b>o</b></div>","null","","","","forget_cue","","","","","","","","","","","","","","","",""
"html-keyboard-response","123","362181","0.0-3.0-3.0-0.1","pm501jllkgjsz4p","practice_cue","5f58f80199fe990bc281f681","5f60e3c0a3b16e07647b2ff9","5f61dbfaf858cc0401e33bf1","false","null","<span style=""color: black; font-size: 48px"">N + M</span>","null","","","","resp_prompt","","","","","","","","","","","","","","","",""
"categorize-image","124","363065","0.0-3.0-3.0-1.1","pm501jllkgjsz4p","practice_cue","5f58f80199fe990bc281f681","5f60e3c0a3b16e07647b2ff9","5f61dbfaf858cc0401e33bf1","true","880","./Stimuli/ImagesPractice/LN15.jpg","83","","","","test","true","N + M","83","","LN","LN15.jpg","forget","old","50","4","practice_forget","left","","","",""
"html-keyboard-response","125","365067","0.0-3.0-3.0-3.1","pm501jllkgjsz4p","practice_cue","5f58f80199fe990bc281f681","5f60e3c0a3b16e07647b2ff9","5f61dbfaf858cc0401e33bf1","false","null","<div style=""align-items: center; display: flex; color: darkorange; font-size: 90px""><b>ø</b></div>","null","","","","forget_cue","","","","","","","","","","","","","","","",""
"html-keyboard-response","126","365770","0.0-3.0-3.0-0.2","pm501jllkgjsz4p","practice_cue","5f58f80199fe990bc281f681","5f60e3c0a3b16e07647b2ff9","5f61dbfaf858cc0401e33bf1","false","null","<span style=""color: black; font-size: 48px"">N + M</span>","null","","","","resp_prompt","","","","","","","","","","","","","","","",""
"categorize-image","127","366576","0.0-3.0-3.0-1.2","pm501jllkgjsz4p","practice_cue","5f58f80199fe990bc281f681","5f60e3c0a3b16e07647b2ff9","5f61dbfaf858cc0401e33bf1","true","802","./Stimuli/ImagesPractice/LN4.jpg","83","","","","test","true","N + M","83","","LN","LN4.jpg","forget","old","51","4","practice_forget","left","","","",""
"html-keyboard-response","128","368578","0.0-3.0-3.0-3.2","pm501jllkgjsz4p","practice_cue","5f58f80199fe990bc281f681","5f60e3c0a3b16e07647b2ff9","5f61dbfaf858cc0401e33bf1","false","null","<div style=""align-items: center; display: flex; color: darkorange; font-size: 90px""><b>ø</b></div>","null","","","","forget_cue","","","","","","","","","","","","","","","",""
"html-keyboard-response","129","369283","0.0-3.0-3.0-0.3","pm501jllkgjsz4p","practice_cue","5f58f80199fe990bc281f681","5f60e3c0a3b16e07647b2ff9","5f61dbfaf858cc0401e33bf1","false","null","<span style=""color: black; font-size: 48px"">N + M</span>","null","","","","resp_prompt","","","","","","","","","","","","","","","",""
"categorize-image","130","369750","0.0-3.0-3.0-1.3","pm501jllkgjsz4p","practice_cue","5f58f80199fe990bc281f681","5f60e3c0a3b16e07647b2ff9","5f61dbfaf858cc0401e33bf1","true","464","./Stimuli/ImagesPractice/LN109.jpg","76","","","","test","false","N + M","83","","LN","LN109.jpg","remember","old","52","4","practice_forget","right","","","",""
"html-keyboard-response","131","370255","0.0-3.0-3.0-2.3-0.3","pm501jllkgjsz4p","practice_cue","5f58f80199fe990bc281f681","5f60e3c0a3b16e07647b2ff9","5f61dbfaf858cc0401e33bf1","false","null","<span style=""color: red; font-size: 48px"">Error!</span>","null","","","","feedback","","","","","","","","","","","","","","","",""
"html-keyboard-response","132","372257","0.0-3.0-3.0-3.3","pm501jllkgjsz4p","practice_cue","5f58f80199fe990bc281f681","5f60e3c0a3b16e07647b2ff9","5f61dbfaf858cc0401e33bf1","false","null","<div style=""align-items: center; display: flex; color: dodgerblue; font-size: 90px""><b>o</b></div>","null","","","","forget_cue","","","","","","","","","","","","","","","",""
"html-keyboard-response","133","372962","0.0-3.0-3.0-0.4","pm501jllkgjsz4p","practice_cue","5f58f80199fe990bc281f681","5f60e3c0a3b16e07647b2ff9","5f61dbfaf858cc0401e33bf1","false","null","<span style=""color: black; font-size: 48px"">N + M</span>","null","","","","resp_prompt","","","","","","","","","","","","","","","",""
"categorize-image","134","374803","0.0-3.0-3.0-1.4","pm501jllkgjsz4p","practice_cue","5f58f80199fe990bc281f681","5f60e3c0a3b16e07647b2ff9","5f61dbfaf858cc0401e33bf1","true","1838.0000000000582","./Stimuli/ImagesPractice/LN2.jpg","83","","","","test","true","N + M","83","","LN","LN2.jpg","remember","old","53","4","practice_forget","left","","","",""
"html-keyboard-response","135","376808","0.0-3.0-3.0-3.4","pm501jllkgjsz4p","practice_cue","5f58f80199fe990bc281f681","5f60e3c0a3b16e07647b2ff9","5f61dbfaf858cc0401e33bf1","false","null","<div style=""align-items: center; display: flex; color: dodgerblue; font-size: 90px""><b>o</b></div>","null","","","","forget_cue","","","","","","","","","","","","","","","",""
"html-keyboard-response","136","377512","0.0-3.0-3.0-0.5","pm501jllkgjsz4p","practice_cue","5f58f80199fe990bc281f681","5f60e3c0a3b16e07647b2ff9","5f61dbfaf858cc0401e33bf1","false","null","<span style=""color: black; font-size: 48px"">M + N</span>","null","","","","resp_prompt","","","","","","","","","","","","","","","",""
"categorize-image","137","378142","0.0-3.0-3.0-1.5","pm501jllkgjsz4p","practice_cue","5f58f80199fe990bc281f681","5f60e3c0a3b16e07647b2ff9","5f61dbfaf858cc0401e33bf1","true","626","./Stimuli/ImagesPractice/LM55.jpg","83","","","","test","true","M + N","83","","LM","LM55.jpg","forget","old","54","4","practice_forget","left","","","",""
"html-keyboard-response","138","380146","0.0-3.0-3.0-3.5","pm501jllkgjsz4p","practice_cue","5f58f80199fe990bc281f681","5f60e3c0a3b16e07647b2ff9","5f61dbfaf858cc0401e33bf1","false","null","<div style=""align-items: center; display: flex; color: darkorange; font-size: 90px""><b>ø</b></div>","null","","","","forget_cue","","","","","","","","","","","","","","","",""
"html-keyboard-response","139","380851","0.0-3.0-3.0-0.6","pm501jllkgjsz4p","practice_cue","5f58f80199fe990bc281f681","5f60e3c0a3b16e07647b2ff9","5f61dbfaf858cc0401e33bf1","false","null","<span style=""color: black; font-size: 48px"">M + N</span>","null","","","","resp_prompt","","","","","","","","","","","","","","","",""
"categorize-image","140","381363","0.0-3.0-3.0-1.6","pm501jllkgjsz4p","practice_cue","5f58f80199fe990bc281f681","5f60e3c0a3b16e07647b2ff9","5f61dbfaf858cc0401e33bf1","true","509","./Stimuli/ImagesPractice/SN221.jpg","76","","","","test","true","M + N","76","","SN","SN221.jpg","remember","old","55","4","practice_forget","right","","","",""
"html-keyboard-response","141","383368","0.0-3.0-3.0-3.6","pm501jllkgjsz4p","practice_cue","5f58f80199fe990bc281f681","5f60e3c0a3b16e07647b2ff9","5f61dbfaf858cc0401e33bf1","false","null","<div style=""align-items: center; display: flex; color: dodgerblue; font-size: 90px""><b>o</b></div>","null","","","","forget_cue","","","","","","","","","","","","","","","",""
"html-keyboard-response","142","384072","0.0-3.0-3.0-0.7","pm501jllkgjsz4p","practice_cue","5f58f80199fe990bc281f681","5f60e3c0a3b16e07647b2ff9","5f61dbfaf858cc0401e33bf1","false","null","<span style=""color: black; font-size: 48px"">M + N</span>","null","","","","resp_prompt","","","","","","","","","","","","","","","",""
"categorize-image","143","384940","0.0-3.0-3.0-1.7","pm501jllkgjsz4p","practice_cue","5f58f80199fe990bc281f681","5f60e3c0a3b16e07647b2ff9","5f61dbfaf858cc0401e33bf1","true","864.0000000000582","./Stimuli/ImagesPractice/LM239.jpg","83","","","","test","true","M + N","83","","LM","LM239.jpg","remember","old","56","4","practice_forget","left","","","",""
"html-keyboard-response","144","386944","0.0-3.0-3.0-3.7","pm501jllkgjsz4p","practice_cue","5f58f80199fe990bc281f681","5f60e3c0a3b16e07647b2ff9","5f61dbfaf858cc0401e33bf1","false","null","<div style=""align-items: center; display: flex; color: dodgerblue; font-size: 90px""><b>o</b></div>","null","","","","forget_cue","","","","","","","","","","","","","","","",""
"html-keyboard-response","145","387646","0.0-3.0-3.0-0.8","pm501jllkgjsz4p","practice_cue","5f58f80199fe990bc281f681","5f60e3c0a3b16e07647b2ff9","5f61dbfaf858cc0401e33bf1","false","null","<span style=""color: black; font-size: 48px"">M + N</span>","null","","","","resp_prompt","","","","","","","","","","","","","","","",""
"categorize-image","146","388337","0.0-3.0-3.0-1.8","pm501jllkgjsz4p","practice_cue","5f58f80199fe990bc281f681","5f60e3c0a3b16e07647b2ff9","5f61dbfaf858cc0401e33bf1","true","688","./Stimuli/ImagesPractice/SN205.jpg","76","","","","test","true","M + N","76","","SN","SN205.jpg","remember","old","57","4","practice_forget","right","","","",""
"html-keyboard-response","147","390342","0.0-3.0-3.0-3.8","pm501jllkgjsz4p","practice_cue","5f58f80199fe990bc281f681","5f60e3c0a3b16e07647b2ff9","5f61dbfaf858cc0401e33bf1","false","null","<div style=""align-items: center; display: flex; color: dodgerblue; font-size: 90px""><b>o</b></div>","null","","","","forget_cue","","","","","","","","","","","","","","","",""
"html-keyboard-response","148","391044","0.0-3.0-3.0-0.9","pm501jllkgjsz4p","practice_cue","5f58f80199fe990bc281f681","5f60e3c0a3b16e07647b2ff9","5f61dbfaf858cc0401e33bf1","false","null","<span style=""color: black; font-size: 48px"">M + N</span>","null","","","","resp_prompt","","","","","","","","","","","","","","","",""
"categorize-image","149","391777","0.0-3.0-3.0-1.9","pm501jllkgjsz4p","practice_cue","5f58f80199fe990bc281f681","5f60e3c0a3b16e07647b2ff9","5f61dbfaf858cc0401e33bf1","true","728.9999999999418","./Stimuli/ImagesPractice/LN72.jpg","76","","","","test","true","M + N","76","","LN","LN72.jpg","remember","old","58","4","practice_forget","right","","","",""
"html-keyboard-response","150","393781","0.0-3.0-3.0-3.9","pm501jllkgjsz4p","practice_cue","5f58f80199fe990bc281f681","5f60e3c0a3b16e07647b2ff9","5f61dbfaf858cc0401e33bf1","false","null","<div style=""align-items: center; display: flex; color: dodgerblue; font-size: 90px""><b>o</b></div>","null","","","","forget_cue","","","","","","","","","","","","","","","",""
"html-keyboard-response","151","394485","0.0-3.0-3.0-0.10","pm501jllkgjsz4p","practice_cue","5f58f80199fe990bc281f681","5f60e3c0a3b16e07647b2ff9","5f61dbfaf858cc0401e33bf1","false","null","<span style=""color: black; font-size: 48px"">N + M</span>","null","","","","resp_prompt","","","","","","","","","","","","","","","",""
"categorize-image","152","395276","0.0-3.0-3.0-1.10","pm501jllkgjsz4p","practice_cue","5f58f80199fe990bc281f681","5f60e3c0a3b16e07647b2ff9","5f61dbfaf858cc0401e33bf1","true","788","./Stimuli/ImagesPractice/SN220.jpg","83","","","","test","true","N + M","83","","SN","SN220.jpg","remember","old","59","4","practice_forget","left","","","",""
"html-keyboard-response","153","397278","0.0-3.0-3.0-3.10","pm501jllkgjsz4p","practice_cue","5f58f80199fe990bc281f681","5f60e3c0a3b16e07647b2ff9","5f61dbfaf858cc0401e33bf1","false","null","<div style=""align-items: center; display: flex; color: dodgerblue; font-size: 90px""><b>o</b></div>","null","","","","forget_cue","","","","","","","","","","","","","","","",""
"html-keyboard-response","154","397983","0.0-3.0-3.0-0.11","pm501jllkgjsz4p","practice_cue","5f58f80199fe990bc281f681","5f60e3c0a3b16e07647b2ff9","5f61dbfaf858cc0401e33bf1","false","null","<span style=""color: black; font-size: 48px"">M + N</span>","null","","","","resp_prompt","","","","","","","","","","","","","","","",""
"categorize-image","155","398672","0.0-3.0-3.0-1.11","pm501jllkgjsz4p","practice_cue","5f58f80199fe990bc281f681","5f60e3c0a3b16e07647b2ff9","5f61dbfaf858cc0401e33bf1","true","687.0000000000582","./Stimuli/ImagesPractice/SN75.jpg","76","","","","test","true","M + N","76","","SN","SN75.jpg","forget","old","60","4","practice_forget","right","","","",""
"html-keyboard-response","156","400677","0.0-3.0-3.0-3.11","pm501jllkgjsz4p","practice_cue","5f58f80199fe990bc281f681","5f60e3c0a3b16e07647b2ff9","5f61dbfaf858cc0401e33bf1","false","null","<div style=""align-items: center; display: flex; color: darkorange; font-size: 90px""><b>ø</b></div>","null","","","","forget_cue","","","","","","","","","","","","","","","",""
"html-keyboard-response","157","401380","0.0-3.0-3.0-0.12","pm501jllkgjsz4p","practice_cue","5f58f80199fe990bc281f681","5f60e3c0a3b16e07647b2ff9","5f61dbfaf858cc0401e33bf1","false","null","<span style=""color: black; font-size: 48px"">M + N</span>","null","","","","resp_prompt","","","","","","","","","","","","","","","",""
"categorize-image","158","402161","0.0-3.0-3.0-1.12","pm501jllkgjsz4p","practice_cue","5f58f80199fe990bc281f681","5f60e3c0a3b16e07647b2ff9","5f61dbfaf858cc0401e33bf1","true","778","./Stimuli/ImagesPractice/SM35.jpg","83","","","","test","true","M + N","83","","SM","SM35.jpg","forget","old","61","4","practice_forget","left","","","",""
"html-keyboard-response","159","404163","0.0-3.0-3.0-3.12","pm501jllkgjsz4p","practice_cue","5f58f80199fe990bc281f681","5f60e3c0a3b16e07647b2ff9","5f61dbfaf858cc0401e33bf1","false","null","<div style=""align-items: center; display: flex; color: darkorange; font-size: 90px""><b>ø</b></div>","null","","","","forget_cue","","","","","","","","","","","","","","","",""
"html-keyboard-response","160","404867","0.0-3.0-3.0-0.13","pm501jllkgjsz4p","practice_cue","5f58f80199fe990bc281f681","5f60e3c0a3b16e07647b2ff9","5f61dbfaf858cc0401e33bf1","false","null","<span style=""color: black; font-size: 48px"">N + M</span>","null","","","","resp_prompt","","","","","","","","","","","","","","","",""
"categorize-image","161","405485","0.0-3.0-3.0-1.13","pm501jllkgjsz4p","practice_cue","5f58f80199fe990bc281f681","5f60e3c0a3b16e07647b2ff9","5f61dbfaf858cc0401e33bf1","true","615","./Stimuli/ImagesPractice/SN76.jpg","76","","","","test","false","N + M","83","","SN","SN76.jpg","forget","old","62","4","practice_forget","right","","","",""
"html-keyboard-response","162","405989","0.0-3.0-3.0-2.13-0.13","pm501jllkgjsz4p","practice_cue","5f58f80199fe990bc281f681","5f60e3c0a3b16e07647b2ff9","5f61dbfaf858cc0401e33bf1","false","null","<span style=""color: red; font-size: 48px"">Error!</span>","null","","","","feedback","","","","","","","","","","","","","","","",""
"html-keyboard-response","163","407993","0.0-3.0-3.0-3.13","pm501jllkgjsz4p","practice_cue","5f58f80199fe990bc281f681","5f60e3c0a3b16e07647b2ff9","5f61dbfaf858cc0401e33bf1","false","null","<div style=""align-items: center; display: flex; color: darkorange; font-size: 90px""><b>ø</b></div>","null","","","","forget_cue","","","","","","","","","","","","","","","",""
"html-keyboard-response","164","408698","0.0-3.0-3.0-0.14","pm501jllkgjsz4p","practice_cue","5f58f80199fe990bc281f681","5f60e3c0a3b16e07647b2ff9","5f61dbfaf858cc0401e33bf1","false","null","<span style=""color: black; font-size: 48px"">M + N</span>","null","","","","resp_prompt","","","","","","","","","","","","","","","",""
"categorize-image","165","409257","0.0-3.0-3.0-1.14","pm501jllkgjsz4p","practice_cue","5f58f80199fe990bc281f681","5f60e3c0a3b16e07647b2ff9","5f61dbfaf858cc0401e33bf1","true","555.9999999999418","./Stimuli/ImagesPractice/SM62.jpg","83","","","","test","true","M + N","83","","SM","SM62.jpg","forget","old","63","4","practice_forget","left","","","",""
"html-keyboard-response","166","411258","0.0-3.0-3.0-3.14","pm501jllkgjsz4p","practice_cue","5f58f80199fe990bc281f681","5f60e3c0a3b16e07647b2ff9","5f61dbfaf858cc0401e33bf1","false","null","<div style=""align-items: center; display: flex; color: darkorange; font-size: 90px""><b>ø</b></div>","null","","","","forget_cue","","","","","","","","","","","","","","","",""
"html-keyboard-response","167","411962","0.0-3.0-3.0-0.15","pm501jllkgjsz4p","practice_cue","5f58f80199fe990bc281f681","5f60e3c0a3b16e07647b2ff9","5f61dbfaf858cc0401e33bf1","false","null","<span style=""color: black; font-size: 48px"">N + M</span>","null","","","","resp_prompt","","","","","","","","","","","","","","","",""
"categorize-image","168","412797","0.0-3.0-3.0-1.15","pm501jllkgjsz4p","practice_cue","5f58f80199fe990bc281f681","5f60e3c0a3b16e07647b2ff9","5f61dbfaf858cc0401e33bf1","true","831.0000000000582","./Stimuli/ImagesPractice/LM224.jpg","83","","","","test","false","N + M","76","","LM","LM224.jpg","forget","old","64","4","practice_forget","left","","","",""
"html-keyboard-response","169","413301","0.0-3.0-3.0-2.15-0.15","pm501jllkgjsz4p","practice_cue","5f58f80199fe990bc281f681","5f60e3c0a3b16e07647b2ff9","5f61dbfaf858cc0401e33bf1","false","null","<span style=""color: red; font-size: 48px"">Error!</span>","null","","","","feedback","","","","","","","","","","","","","","","",""
"html-keyboard-response","170","415305","0.0-3.0-3.0-3.15","pm501jllkgjsz4p","practice_cue","5f58f80199fe990bc281f681","5f60e3c0a3b16e07647b2ff9","5f61dbfaf858cc0401e33bf1","false","null","<div style=""align-items: center; display: flex; color: darkorange; font-size: 90px""><b>ø</b></div>","null","","","","forget_cue","","","","","","","","","","","","","","","",""
"html-keyboard-response","171","420771","0.0-3.0-4.0","pm501jllkgjsz4p","break","5f58f80199fe990bc281f681","5f60e3c0a3b16e07647b2ff9","5f61dbfaf858cc0401e33bf1","false","5464","<p style='font-size: 32px;'>Break</><br><br><br><br><br><p style='font-size: 24px;'>In the last block, you committed 3 errors and did not respond in time on 0 trials.
</p><p style='font-size: 24px;'>Try to respond as fast and accurately as possible in the next block as well! </p><p style='font-size: 24px;'>Press SPACE to continue.</p>","32","","","","","","","","","","","","","","","","","","","",""
"html-keyboard-response","172","436127","0.0-3.0-5.0","pm501jllkgjsz4p","instructions","5f58f80199fe990bc281f681","5f60e3c0a3b16e07647b2ff9","5f61dbfaf858cc0401e33bf1","false","15355","<div align=left> Now, to practice, we kindly ask you to remember as many of the to-be-remembered pictures<br>of the previous learning phase as possible.<br><br>The pictures you were instructed to remember were the pictures followed by a <span style='color: dodgerblue; font-size: 28px'>O</span>.<br><br>In this memory test phase, you will also see some new pictures.<br>It is your task to remember whether you were presented with this specific picture in this study so far or not.<br>If you recognize an object (you have already seen it in this study), it is an OLD object. <br>If you do not recognize an object (you have NOT seen it in this study), it is a NEW object. <br><strong> Attention</strong>: As already mentioned, <span style='color: darkorange; font-size:28px'>Ø</span>-pictures will <strong>never</strong> appear in this memory test (neither as new objects). <br><br>Press SPACE to continue. </div>","32","","","","","","","","","","","","","","","","","","","",""
"html-keyboard-response","173","461488","0.0-3.0-6.0","pm501jllkgjsz4p","instructions","5f58f80199fe990bc281f681","5f60e3c0a3b16e07647b2ff9","5f61dbfaf858cc0401e33bf1","false","25360","<div align=left> M and N no longer will appear on the left/right of the fixation cross. <br>Instead there will be a note at the bottom of the left or right side  <br>indicating which key you should press for an old or new object:  <br> <br>Press the <strong>right</strong> key to classify an object as <strong>old</strong> and press the <strong>left</strong>, to classify an object as <strong>new</strong>.<br>Please classify the objects as new/old by again placing your index finger on the 'S' and 'L' keys <br>and press them accordingly.<br><br><strong>Old:</strong> This object has been presented before. <br><strong>New:</strong> This object has <strong>not</strong> been presented.<br><br>Now please put your right and left index fingers on the 'S' and 'L' keys of your keyboard. <br>Please respond as fast and as accurately as possible!<br><br>Press SPACE to continue. </div>","32","","","","","","","","","","","","","","","","","","","",""
"categorize-image","174","463238","0.0-3.0-7.0-0.0","pm501jllkgjsz4p","practice_recog","5f58f80199fe990bc281f681","5f60e3c0a3b16e07647b2ff9","5f61dbfaf858cc0401e33bf1","true","1244.0000000000582","./Stimuli/ImagesPractice/LM143.jpg","76","","","","test","true","","76","","LM","LM143.jpg","","new","65","5","practice_recog","right","","","",""
"categorize-image","175","464769","0.0-3.0-7.0-0.1","pm501jllkgjsz4p","practice_recog","5f58f80199fe990bc281f681","5f60e3c0a3b16e07647b2ff9","5f61dbfaf858cc0401e33bf1","true","1024.9999999999418","./Stimuli/ImagesPractice/LN72.jpg","83","","","","test","true","","83","","LN","LN72.jpg","","old","66","5","practice_recog","left","","","",""
"categorize-image","176","466153","0.0-3.0-7.0-0.2","pm501jllkgjsz4p","practice_recog","5f58f80199fe990bc281f681","5f60e3c0a3b16e07647b2ff9","5f61dbfaf858cc0401e33bf1","true","882","./Stimuli/ImagesPractice/LN17.jpg","76","","","","test","true","","76","","LN","LN17.jpg","","new","67","5","practice_recog","right","","","",""
"categorize-image","177","467604","0.0-3.0-7.0-0.3","pm501jllkgjsz4p","practice_recog","5f58f80199fe990bc281f681","5f60e3c0a3b16e07647b2ff9","5f61dbfaf858cc0401e33bf1","true","946","./Stimuli/ImagesPractice/SM97.jpg","76","","","","test","true","","76","","SM","SM97.jpg","","new","68","5","practice_recog","right","","","",""
"categorize-image","178","470057","0.0-3.0-7.0-0.4","pm501jllkgjsz4p","practice_recog","5f58f80199fe990bc281f681","5f60e3c0a3b16e07647b2ff9","5f61dbfaf858cc0401e33bf1","true","1949.0000000000582","./Stimuli/ImagesPractice/LM147.jpg","83","","","","test","true","","83","","LM","LM147.jpg","","old","69","5","practice_recog","left","","","",""
"categorize-image","179","471663","0.0-3.0-7.0-0.5","pm501jllkgjsz4p","practice_recog","5f58f80199fe990bc281f681","5f60e3c0a3b16e07647b2ff9","5f61dbfaf858cc0401e33bf1","true","1099","./Stimuli/ImagesPractice/LN2.jpg","83","","","","test","true","","83","","LN","LN2.jpg","","old","70","5","practice_recog","left","","","",""
"categorize-image","180","473341","0.0-3.0-7.0-0.6","pm501jllkgjsz4p","practice_recog","5f58f80199fe990bc281f681","5f60e3c0a3b16e07647b2ff9","5f61dbfaf858cc0401e33bf1","true","1173","./Stimuli/ImagesPractice/SM98.jpg","76","","","","test","true","","76","","SM","SM98.jpg","","new","71","5","practice_recog","right","","","",""
"categorize-image","181","475090","0.0-3.0-7.0-0.7","pm501jllkgjsz4p","practice_recog","5f58f80199fe990bc281f681","5f60e3c0a3b16e07647b2ff9","5f61dbfaf858cc0401e33bf1","true","1243","./Stimuli/ImagesPractice/SM37.jpg","76","","","","test","true","","76","","SM","SM37.jpg","","new","72","5","practice_recog","right","","","",""
"categorize-image","182","476628","0.0-3.0-7.0-0.8","pm501jllkgjsz4p","practice_recog","5f58f80199fe990bc281f681","5f60e3c0a3b16e07647b2ff9","5f61dbfaf858cc0401e33bf1","true","1032.9999999999418","./Stimuli/ImagesPractice/SN222.jpg","76","","","","test","true","","76","","SN","SN222.jpg","","new","73","5","practice_recog","right","","","",""
"categorize-image","183","477922","0.0-3.0-7.0-0.9","pm501jllkgjsz4p","practice_recog","5f58f80199fe990bc281f681","5f60e3c0a3b16e07647b2ff9","5f61dbfaf858cc0401e33bf1","true","788.0000000000582","./Stimuli/ImagesPractice/SN205.jpg","83","","","","test","true","","83","","SN","SN205.jpg","","old","74","5","practice_recog","left","","","",""
"categorize-image","184","479361","0.0-3.0-7.0-0.10","pm501jllkgjsz4p","practice_recog","5f58f80199fe990bc281f681","5f60e3c0a3b16e07647b2ff9","5f61dbfaf858cc0401e33bf1","true","935","./Stimuli/ImagesPractice/SM61.jpg","76","","","","test","true","","76","","SM","SM61.jpg","","new","75","5","practice_recog","right","","","",""
"categorize-image","185","480652","0.0-3.0-7.0-0.11","pm501jllkgjsz4p","practice_recog","5f58f80199fe990bc281f681","5f60e3c0a3b16e07647b2ff9","5f61dbfaf858cc0401e33bf1","true","787.0000000000582","./Stimuli/ImagesPractice/LN109.jpg","83","","","","test","true","","83","","LN","LN109.jpg","","old","76","5","practice_recog","left","","","",""
"categorize-image","186","481975","0.0-3.0-7.0-0.12","pm501jllkgjsz4p","practice_recog","5f58f80199fe990bc281f681","5f60e3c0a3b16e07647b2ff9","5f61dbfaf858cc0401e33bf1","true","817.0000000000582","./Stimuli/ImagesPractice/SN221.jpg","83","","","","test","true","","83","","SN","SN221.jpg","","old","77","5","practice_recog","left","","","",""
"categorize-image","187","483195","0.0-3.0-7.0-0.13","pm501jllkgjsz4p","practice_recog","5f58f80199fe990bc281f681","5f60e3c0a3b16e07647b2ff9","5f61dbfaf858cc0401e33bf1","true","715","./Stimuli/ImagesPractice/SN220.jpg","83","","","","test","true","","83","","SN","SN220.jpg","","old","78","5","practice_recog","left","","","",""
"categorize-image","188","484497","0.0-3.0-7.0-0.14","pm501jllkgjsz4p","practice_recog","5f58f80199fe990bc281f681","5f60e3c0a3b16e07647b2ff9","5f61dbfaf858cc0401e33bf1","true","800","./Stimuli/ImagesPractice/LM239.jpg","83","","","","test","true","","83","","LM","LM239.jpg","","old","79","5","practice_recog","left","","","",""
"categorize-image","189","486144","0.0-3.0-7.0-0.15","pm501jllkgjsz4p","practice_recog","5f58f80199fe990bc281f681","5f60e3c0a3b16e07647b2ff9","5f61dbfaf858cc0401e33bf1","true","1141","./Stimuli/ImagesPractice/LM230.jpg","76","","","","test","true","","76","","LM","LM230.jpg","","new","80","5","practice_recog","right","","","",""
"html-keyboard-response","190","490874","0.0-3.0-8.0","pm501jllkgjsz4p","instructions","5f58f80199fe990bc281f681","5f60e3c0a3b16e07647b2ff9","5f61dbfaf858cc0401e33bf1","false","4729","<div align=left> Great!<br><br>Are you ready to continue?<br>If you want to reread the instructions and redo the practice trials, please <br>press „Z“.<br><br>You can proceed when you are ready.<br><br>After the presentation of each object, you will receive an instruction whether to <br>remember or to forget the object.<br>We will test your memory of the following pictures only at the very end of <br>the experiment after all learning blocks are completed. <br><br>Press SPACE to CONTINUE when you are ready. </div>","32","","","","","","","","","","","","","","","","","","","",""
"html-keyboard-response","191","494111","0.0-4.0-0.0","pm501jllkgjsz4p","instructions","5f58f80199fe990bc281f681","5f60e3c0a3b16e07647b2ff9","5f61dbfaf858cc0401e33bf1","false","3235","<div align=left> The actual experiment is about to start.<br>The practice trials are over!<br><br>Please always respond both fast and accurately!<br><br>Remember: <br> <br><li> Please place your index fingers on the <strong>'S'</strong> and <strong>'L'</strong> keys <br>to respond as fast and accurately as possible.</li><li> Every picture can be classified as either mechanical or non-mechanical.</li><li> If you do not respond in time or commit an error, you will receive a corresponding feedback.<br> Please try to respond as <strong> fast </strong> and as <strong> accurately as possible </strong>.</li><li> Remember the <span style='color: dodgerblue; font-size: 28px'>O</span> pictures. <br></li><li> Please minimize distractions and stay focused. </li><br><br>Press SPACE to START.</div>","32","","","","","","","","","","","","","","","","","","","",""
"html-keyboard-response","192","494815","0.0-4.0-1.0-0.0","pm501jllkgjsz4p","prime","5f58f80199fe990bc281f681","5f60e3c0a3b16e07647b2ff9","5f61dbfaf858cc0401e33bf1","false","null","<span style=""color: black; font-size: 48px"">M + N</span>","null","","","","resp_prompt","","","","","","","","","","","","","","","",""
"categorize-image","193","495827","0.0-4.0-1.0-1.0","pm501jllkgjsz4p","prime","5f58f80199fe990bc281f681","5f60e3c0a3b16e07647b2ff9","5f61dbfaf858cc0401e33bf1","true","1008","./Stimuli/SelectedImages/SM/SM184.bmp","76","","","","test","false","M + N","83","switch","SM","SM184.bmp","remember","","81","5","prime1","right","","","",""
"html-keyboard-response","194","496332","0.0-4.0-1.0-2.0-0.0","pm501jllkgjsz4p","prime","5f58f80199fe990bc281f681","5f60e3c0a3b16e07647b2ff9","5f61dbfaf858cc0401e33bf1","false","null","<span style=""color: red; font-size: 48px"">Error!</span>","null","","","","feedback","","","","","","","","","","","","","","","",""
"html-keyboard-response","195","498334","0.0-4.0-1.0-3.0","pm501jllkgjsz4p","prime","5f58f80199fe990bc281f681","5f60e3c0a3b16e07647b2ff9","5f61dbfaf858cc0401e33bf1","false","null","<div style=""align-items: center; display: flex; color: dodgerblue; font-size: 90px""><b>o</b></div>","null","","","","forget_cue","","","","","","","","","","","","","","","",""
"html-keyboard-response","196","499036","0.0-4.0-1.0-0.1","pm501jllkgjsz4p","prime","5f58f80199fe990bc281f681","5f60e3c0a3b16e07647b2ff9","5f61dbfaf858cc0401e33bf1","false","null","<span style=""color: black; font-size: 48px"">M + N</span>","null","","","","resp_prompt","","","","","","","","","","","","","","","",""
"categorize-image","197","499888","0.0-4.0-1.0-1.1","pm501jllkgjsz4p","prime","5f58f80199fe990bc281f681","5f60e3c0a3b16e07647b2ff9","5f61dbfaf858cc0401e33bf1","true","848","./Stimuli/SelectedImages/SM/SM213.bmp","83","","","","test","true","M + N","83","repetition","SM","SM213.bmp","remember","","82","5","prime1","left","","","",""
"html-keyboard-response","198","501890","0.0-4.0-1.0-3.1","pm501jllkgjsz4p","prime","5f58f80199fe990bc281f681","5f60e3c0a3b16e07647b2ff9","5f61dbfaf858cc0401e33bf1","false","null","<div style=""align-items: center; display: flex; color: dodgerblue; font-size: 90px""><b>o</b></div>","null","","","","forget_cue","","","","","","","","","","","","","","","",""
"html-keyboard-response","199","502595","0.0-4.0-1.0-0.2","pm501jllkgjsz4p","prime","5f58f80199fe990bc281f681","5f60e3c0a3b16e07647b2ff9","5f61dbfaf858cc0401e33bf1","false","null","<span style=""color: black; font-size: 48px"">M + N</span>","null","","","","resp_prompt","","","","","","","","","","","","","","","",""
"categorize-image","200","503281","0.0-4.0-1.0-1.2","pm501jllkgjsz4p","prime","5f58f80199fe990bc281f681","5f60e3c0a3b16e07647b2ff9","5f61dbfaf858cc0401e33bf1","true","683","./Stimuli/SelectedImages/SM/SM78.bmp","83","","","","test","true","M + N","83","switch","SM","SM78.bmp","forget","","83","5","prime1","left","","","",""
"html-keyboard-response","201","505283","0.0-4.0-1.0-3.2","pm501jllkgjsz4p","prime","5f58f80199fe990bc281f681","5f60e3c0a3b16e07647b2ff9","5f61dbfaf858cc0401e33bf1","false","null","<div style=""align-items: center; display: flex; color: darkorange; font-size: 90px""><b>ø</b></div>","null","","","","forget_cue","","","","","","","","","","","","","","","",""
"html-keyboard-response","202","505985","0.0-4.0-1.0-0.3","pm501jllkgjsz4p","prime","5f58f80199fe990bc281f681","5f60e3c0a3b16e07647b2ff9","5f61dbfaf858cc0401e33bf1","false","null","<span style=""color: black; font-size: 48px"">N + M</span>","null","","","","resp_prompt","","","","","","","","","","","","","","","",""
"categorize-image","203","506796","0.0-4.0-1.0-1.3","pm501jllkgjsz4p","prime","5f58f80199fe990bc281f681","5f60e3c0a3b16e07647b2ff9","5f61dbfaf858cc0401e33bf1","true","808","./Stimuli/SelectedImages/LN/LN177.bmp","76","","","","test","false","N + M","83","repetition","LN","LN177.bmp","forget","","84","5","prime1","right","","","",""
"html-keyboard-response","204","507300","0.0-4.0-1.0-2.3-0.3","pm501jllkgjsz4p","prime","5f58f80199fe990bc281f681","5f60e3c0a3b16e07647b2ff9","5f61dbfaf858cc0401e33bf1","false","null","<span style=""color: red; font-size: 48px"">Error!</span>","null","","","","feedback","","","","","","","","","","","","","","","",""
"html-keyboard-response","205","509305","0.0-4.0-1.0-3.3","pm501jllkgjsz4p","prime","5f58f80199fe990bc281f681","5f60e3c0a3b16e07647b2ff9","5f61dbfaf858cc0401e33bf1","false","null","<div style=""align-items: center; display: flex; color: darkorange; font-size: 90px""><b>ø</b></div>","null","","","","forget_cue","","","","","","","","","","","","","","","",""
"html-keyboard-response","206","510010","0.0-4.0-1.0-0.4","pm501jllkgjsz4p","prime","5f58f80199fe990bc281f681","5f60e3c0a3b16e07647b2ff9","5f61dbfaf858cc0401e33bf1","false","null","<span style=""color: black; font-size: 48px"">M + N</span>","null","","","","resp_prompt","","","","","","","","","","","","","","","",""
"categorize-image","207","510848","0.0-4.0-1.0-1.4","pm501jllkgjsz4p","prime","5f58f80199fe990bc281f681","5f60e3c0a3b16e07647b2ff9","5f61dbfaf858cc0401e33bf1","true","836.0000000000582","./Stimuli/SelectedImages/LN/LN131.bmp","76","","","","test","true","M + N","76","switch","LN","LN131.bmp","remember","","85","5","prime1","right","","","",""
"html-keyboard-response","208","512851","0.0-4.0-1.0-3.4","pm501jllkgjsz4p","prime","5f58f80199fe990bc281f681","5f60e3c0a3b16e07647b2ff9","5f61dbfaf858cc0401e33bf1","false","null","<div style=""align-items: center; display: flex; color: dodgerblue; font-size: 90px""><b>o</b></div>","null","","","","forget_cue","","","","","","","","","","","","","","","",""
"html-keyboard-response","209","513555","0.0-4.0-1.0-0.5","pm501jllkgjsz4p","prime","5f58f80199fe990bc281f681","5f60e3c0a3b16e07647b2ff9","5f61dbfaf858cc0401e33bf1","false","null","<span style=""color: black; font-size: 48px"">M + N</span>","null","","","","resp_prompt","","","","","","","","","","","","","","","",""
"categorize-image","210","514223","0.0-4.0-1.0-1.5","pm501jllkgjsz4p","prime","5f58f80199fe990bc281f681","5f60e3c0a3b16e07647b2ff9","5f61dbfaf858cc0401e33bf1","true","665.0000000001164","./Stimuli/SelectedImages/LM/LM51.bmp","83","","","","test","true","M + N","83","repetition","LM","LM51.bmp","forget","","86","5","prime1","left","","","",""
"html-keyboard-response","211","516225","0.0-4.0-1.0-3.5","pm501jllkgjsz4p","prime","5f58f80199fe990bc281f681","5f60e3c0a3b16e07647b2ff9","5f61dbfaf858cc0401e33bf1","false","null","<div style=""align-items: center; display: flex; color: darkorange; font-size: 90px""><b>ø</b></div>","null","","","","forget_cue","","","","","","","","","","","","","","","",""
"html-keyboard-response","212","516930","0.0-4.0-1.0-0.6","pm501jllkgjsz4p","prime","5f58f80199fe990bc281f681","5f60e3c0a3b16e07647b2ff9","5f61dbfaf858cc0401e33bf1","false","null","<span style=""color: black; font-size: 48px"">M + N</span>","null","","","","resp_prompt","","","","","","","","","","","","","","","",""
"categorize-image","213","517492","0.0-4.0-1.0-1.6","pm501jllkgjsz4p","prime","5f58f80199fe990bc281f681","5f60e3c0a3b16e07647b2ff9","5f61dbfaf858cc0401e33bf1","true","558","./Stimuli/SelectedImages/LN/LN149.bmp","76","","","","test","true","M + N","76","repetition","LN","LN149.bmp","remember","","87","5","prime1","right","","","",""
"html-keyboard-response","214","519494","0.0-4.0-1.0-3.6","pm501jllkgjsz4p","prime","5f58f80199fe990bc281f681","5f60e3c0a3b16e07647b2ff9","5f61dbfaf858cc0401e33bf1","false","null","<div style=""align-items: center; display: flex; color: dodgerblue; font-size: 90px""><b>o</b></div>","null","","","","forget_cue","","","","","","","","","","","","","","","",""
"html-keyboard-response","215","520198","0.0-4.0-1.0-0.7","pm501jllkgjsz4p","prime","5f58f80199fe990bc281f681","5f60e3c0a3b16e07647b2ff9","5f61dbfaf858cc0401e33bf1","false","null","<span style=""color: black; font-size: 48px"">N + M</span>","null","","","","resp_prompt","","","","","","","","","","","","","","","",""
"categorize-image","216","521107","0.0-4.0-1.0-1.7","pm501jllkgjsz4p","prime","5f58f80199fe990bc281f681","5f60e3c0a3b16e07647b2ff9","5f61dbfaf858cc0401e33bf1","true","904.9999999999418","./Stimuli/SelectedImages/SN/SN49.bmp","83","","","","test","true","N + M","83","repetition","SN","SN49.bmp","remember","","88","5","prime1","left","","","",""
"html-keyboard-response","217","523111","0.0-4.0-1.0-3.7","pm501jllkgjsz4p","prime","5f58f80199fe990bc281f681","5f60e3c0a3b16e07647b2ff9","5f61dbfaf858cc0401e33bf1","false","null","<div style=""align-items: center; display: flex; color: dodgerblue; font-size: 90px""><b>o</b></div>","null","","","","forget_cue","","","","","","","","","","","","","","","",""
"html-keyboard-response","218","523816","0.0-4.0-1.0-0.8","pm501jllkgjsz4p","prime","5f58f80199fe990bc281f681","5f60e3c0a3b16e07647b2ff9","5f61dbfaf858cc0401e33bf1","false","null","<span style=""color: black; font-size: 48px"">N + M</span>","null","","","","resp_prompt","","","","","","","","","","","","","","","",""
"categorize-image","219","524710","0.0-4.0-1.0-1.8","pm501jllkgjsz4p","prime","5f58f80199fe990bc281f681","5f60e3c0a3b16e07647b2ff9","5f61dbfaf858cc0401e33bf1","true","890","./Stimuli/SelectedImages/LM/LM209.bmp","76","","","","test","true","N + M","76","switch","LM","LM209.bmp","forget","","89","5","prime1","right","","","",""
"html-keyboard-response","220","526712","0.0-4.0-1.0-3.8","pm501jllkgjsz4p","prime","5f58f80199fe990bc281f681","5f60e3c0a3b16e07647b2ff9","5f61dbfaf858cc0401e33bf1","false","null","<div style=""align-items: center; display: flex; color: darkorange; font-size: 90px""><b>ø</b></div>","null","","","","forget_cue","","","","","","","","","","","","","","","",""
"html-keyboard-response","221","527417","0.0-4.0-1.0-0.9","pm501jllkgjsz4p","prime","5f58f80199fe990bc281f681","5f60e3c0a3b16e07647b2ff9","5f61dbfaf858cc0401e33bf1","false","null","<span style=""color: black; font-size: 48px"">M + N</span>","null","","","","resp_prompt","","","","","","","","","","","","","","","",""
"categorize-image","222","528080","0.0-4.0-1.0-1.9","pm501jllkgjsz4p","prime","5f58f80199fe990bc281f681","5f60e3c0a3b16e07647b2ff9","5f61dbfaf858cc0401e33bf1","true","660","./Stimuli/SelectedImages/LM/LM57.bmp","83","","","","test","true","M + N","83","switch","LM","LM57.bmp","forget","","90","5","prime1","left","","","",""
"html-keyboard-response","223","530085","0.0-4.0-1.0-3.9","pm501jllkgjsz4p","prime","5f58f80199fe990bc281f681","5f60e3c0a3b16e07647b2ff9","5f61dbfaf858cc0401e33bf1","false","null","<div style=""align-items: center; display: flex; color: darkorange; font-size: 90px""><b>ø</b></div>","null","","","","forget_cue","","","","","","","","","","","","","","","",""
"html-keyboard-response","224","530789","0.0-4.0-1.0-0.10","pm501jllkgjsz4p","prime","5f58f80199fe990bc281f681","5f60e3c0a3b16e07647b2ff9","5f61dbfaf858cc0401e33bf1","false","null","<span style=""color: black; font-size: 48px"">M + N</span>","null","","","","resp_prompt","","","","","","","","","","","","","","","",""
"categorize-image","225","531376","0.0-4.0-1.0-1.10","pm501jllkgjsz4p","prime","5f58f80199fe990bc281f681","5f60e3c0a3b16e07647b2ff9","5f61dbfaf858cc0401e33bf1","true","584.0000000001164","./Stimuli/SelectedImages/SN/SN93.bmp","76","","","","test","true","M + N","76","switch","SN","SN93.bmp","forget","","91","5","prime1","right","","","",""
"html-keyboard-response","226","533380","0.0-4.0-1.0-3.10","pm501jllkgjsz4p","prime","5f58f80199fe990bc281f681","5f60e3c0a3b16e07647b2ff9","5f61dbfaf858cc0401e33bf1","false","null","<div style=""align-items: center; display: flex; color: darkorange; font-size: 90px""><b>ø</b></div>","null","","","","forget_cue","","","","","","","","","","","","","","","",""
"html-keyboard-response","227","534085","0.0-4.0-1.0-0.11","pm501jllkgjsz4p","prime","5f58f80199fe990bc281f681","5f60e3c0a3b16e07647b2ff9","5f61dbfaf858cc0401e33bf1","false","null","<span style=""color: black; font-size: 48px"">N + M</span>","null","","","","resp_prompt","","","","","","","","","","","","","","","",""
"categorize-image","228","535273","0.0-4.0-1.0-1.11","pm501jllkgjsz4p","prime","5f58f80199fe990bc281f681","5f60e3c0a3b16e07647b2ff9","5f61dbfaf858cc0401e33bf1","true","1185","./Stimuli/SelectedImages/LM/LM167.bmp","76","","","","test","true","N + M","76","repetition","LM","LM167.bmp","remember","","92","5","prime1","right","","","",""
"html-keyboard-response","229","537277","0.0-4.0-1.0-3.11","pm501jllkgjsz4p","prime","5f58f80199fe990bc281f681","5f60e3c0a3b16e07647b2ff9","5f61dbfaf858cc0401e33bf1","false","null","<div style=""align-items: center; display: flex; color: dodgerblue; font-size: 90px""><b>o</b></div>","null","","","","forget_cue","","","","","","","","","","","","","","","",""
"html-keyboard-response","230","537982","0.0-4.0-1.0-0.12","pm501jllkgjsz4p","prime","5f58f80199fe990bc281f681","5f60e3c0a3b16e07647b2ff9","5f61dbfaf858cc0401e33bf1","false","null","<span style=""color: black; font-size: 48px"">N + M</span>","null","","","","resp_prompt","","","","","","","","","","","","","","","",""
"categorize-image","231","538880","0.0-4.0-1.0-1.12","pm501jllkgjsz4p","prime","5f58f80199fe990bc281f681","5f60e3c0a3b16e07647b2ff9","5f61dbfaf858cc0401e33bf1","true","895","./Stimuli/SelectedImages/SM/SM200.bmp","76","","","","test","true","N + M","76","repetition","SM","SM200.bmp","forget","","93","5","prime1","right","","","",""
"html-keyboard-response","232","540884","0.0-4.0-1.0-3.12","pm501jllkgjsz4p","prime","5f58f80199fe990bc281f681","5f60e3c0a3b16e07647b2ff9","5f61dbfaf858cc0401e33bf1","false","null","<div style=""align-items: center; display: flex; color: darkorange; font-size: 90px""><b>ø</b></div>","null","","","","forget_cue","","","","","","","","","","","","","","","",""
"html-keyboard-response","233","541588","0.0-4.0-1.0-0.13","pm501jllkgjsz4p","prime","5f58f80199fe990bc281f681","5f60e3c0a3b16e07647b2ff9","5f61dbfaf858cc0401e33bf1","false","null","<span style=""color: black; font-size: 48px"">N + M</span>","null","","","","resp_prompt","","","","","","","","","","","","","","","",""
"categorize-image","234","542329","0.0-4.0-1.0-1.13","pm501jllkgjsz4p","prime","5f58f80199fe990bc281f681","5f60e3c0a3b16e07647b2ff9","5f61dbfaf858cc0401e33bf1","true","737","./Stimuli/SelectedImages/SM/SM205.bmp","76","","","","test","true","N + M","76","switch","SM","SM205.bmp","forget","","94","5","prime1","right","","","",""
"html-keyboard-response","235","544333","0.0-4.0-1.0-3.13","pm501jllkgjsz4p","prime","5f58f80199fe990bc281f681","5f60e3c0a3b16e07647b2ff9","5f61dbfaf858cc0401e33bf1","false","null","<div style=""align-items: center; display: flex; color: darkorange; font-size: 90px""><b>ø</b></div>","null","","","","forget_cue","","","","","","","","","","","","","","","",""
"html-keyboard-response","236","545038","0.0-4.0-1.0-0.14","pm501jllkgjsz4p","prime","5f58f80199fe990bc281f681","5f60e3c0a3b16e07647b2ff9","5f61dbfaf858cc0401e33bf1","false","null","<span style=""color: black; font-size: 48px"">M + N</span>","null","","","","resp_prompt","","","","","","","","","","","","","","","",""
"categorize-image","237","545866","0.0-4.0-1.0-1.14","pm501jllkgjsz4p","prime","5f58f80199fe990bc281f681","5f60e3c0a3b16e07647b2ff9","5f61dbfaf858cc0401e33bf1","true","825","./Stimuli/SelectedImages/LM/LM48.bmp","83","","","","test","true","M + N","83","repetition","LM","LM48.bmp","remember","","95","5","prime1","left","","","",""
"html-keyboard-response","238","547870","0.0-4.0-1.0-3.14","pm501jllkgjsz4p","prime","5f58f80199fe990bc281f681","5f60e3c0a3b16e07647b2ff9","5f61dbfaf858cc0401e33bf1","false","null","<div style=""align-items: center; display: flex; color: dodgerblue; font-size: 90px""><b>o</b></div>","null","","","","forget_cue","","","","","","","","","","","","","","","",""
"html-keyboard-response","239","548573","0.0-4.0-1.0-0.15","pm501jllkgjsz4p","prime","5f58f80199fe990bc281f681","5f60e3c0a3b16e07647b2ff9","5f61dbfaf858cc0401e33bf1","false","null","<span style=""color: black; font-size: 48px"">M + N</span>","null","","","","resp_prompt","","","","","","","","","","","","","","","",""
"categorize-image","240","549573","0.0-4.0-1.0-1.15","pm501jllkgjsz4p","prime","5f58f80199fe990bc281f681","5f60e3c0a3b16e07647b2ff9","5f61dbfaf858cc0401e33bf1","true","997","./Stimuli/SelectedImages/LM/LM129.bmp","76","","","","test","false","M + N","83","repetition","LM","LM129.bmp","forget","","96","5","prime1","right","","","",""
"html-keyboard-response","241","550078","0.0-4.0-1.0-2.15-0.15","pm501jllkgjsz4p","prime","5f58f80199fe990bc281f681","5f60e3c0a3b16e07647b2ff9","5f61dbfaf858cc0401e33bf1","false","null","<span style=""color: red; font-size: 48px"">Error!</span>","null","","","","feedback","","","","","","","","","","","","","","","",""
