"trial_type","trial_index","time_elapsed","internal_node_id","subject","exp_part","prolific_PID","study_ID","session_ID","use","rt","stimulus","key_press","button_pressed","responses","question_order","trial_part","correct","resp_map","correct_resp","probe_condition","category","image","forget_condition","list","trial_num","block_num","block","response","test_part","n_span","sequence","num_spaces"
"pavlovia","0","8","0.0-0.0","73rm9yuoam36occ","","5d305152b2cfe00019231a2a","5f60e3c0a3b16e07647b2ff9","5f646a5410a242025cdb136c","false","","","","","","","","","","","","","","","","","","","","","","",""
"html-keyboard-response","1","11723","0.0-1.0-0.0-0.0","73rm9yuoam36occ","welcome","5d305152b2cfe00019231a2a","5f60e3c0a3b16e07647b2ff9","5f646a5410a242025cdb136c","false","11709.769999957643","<div align=left>Dear participant, <br> thank you for participating in an online study of the Cognition, Action, and Sustainability Unit of the University of Freiburg! <br> <br>The aim of this study is to examine our ability to remember previously learned information. <br>Our goal is to find out, whether our memory improves, when we only remember information that is relevant to us. <br>The experiment will take about 35 minutes to complete. <br> <br>Please, note that you can only participate in this study if you are using a device with a keyboard (PC, Laptop etc.) <br>and not if you are using a mobile device such as a tablet or smartphone.<br> <br>Press 'SPACE' to proceed to the experiment. </div>","32","","","","","","","","","","","","","","","","","","","",""
"html-keyboard-response","2","33191","0.0-1.0-0.0-1.0","73rm9yuoam36occ","welcome","5d305152b2cfe00019231a2a","5f60e3c0a3b16e07647b2ff9","5f646a5410a242025cdb136c","false","21460.62999998685","<div align=left><strong> Time Course of this experiment: </strong> <br><br> <strong> 1.</strong>  First, please fill in some information regarding your demographic data. <br><br> <strong> 2.</strong>  Next, your task will be to classify everyday objects. <br>In addition, you will be asked to remember certain objects and recall them later. <br>Working on these tasks requires your undivided attention and concentration.<br>It is therefore essential that you eliminate any sources of distraction in your  <br>environment and ensure that you will not be disturbed. <br><br><strong> 3.</strong>  At the end of the experiment, you will be asked to answer a few additional questions. <br> <br><strong> Important:</strong> After finishing the experiment, only close the browser window <br> by clicking on the 'end the experiment'-button when you are asked to do so. <br>Closing the browser window prematurely will make the allocation of your participation credit impossible. <br><br> Press 'SPACE' to start the experiment. </div>","32","","","","","","","","","","","","","","","","","","","",""
"html-button-response","3","50947","0.0-1.0-0.0-2.0","73rm9yuoam36occ","welcome","5d305152b2cfe00019231a2a","5f60e3c0a3b16e07647b2ff9","5f646a5410a242025cdb136c","true","17749.5849999832","<div align=left><strong> Informed consent </strong>  <br>The aim of our research is to better understand human behavior and mental processes. <br>In the following study your behavior (e.g. choices, reaction times) will be studied. <br> <br><strong> Voluntariness and Anonymity </strong> <br>Your participation in this study is  <strong> voluntary</strong>.<br>You may withdraw your consent to participate at any time without providing a reason for doing so and without fear of prejudice. <br><br>As no personal data will be collected, <strong>your data and your person cannot be connected after data collection</strong> – the data-set is anonymous. <br>Respectively, deletion of your data will not be possible after data collection has been completed, as we cannot retrace your data-set.<br>The results and anonymized data collected in this study will be published as a scientific publication. <br>This will happen in an <strong>anonymized format</strong>, so that no data can be traced back to a specific person. <br> <br>The anonymized data of this study will be made available to other researchers and/or in a data archive on the Internet as a means of transparency and to enable subsequent re-use. By doing so, this study follows the recommendations of the Deutsche Forschungsgemeinschaft (DFG, German Research Foundation) and Deutsche Gesellschaft für Psychologie (DGPS, German Psychological Society) regarding quality assurance in research.<br>If you have any questions now or after the experiment, please contact our team (experiments@cs.uni-freiburg.de).<br><br><br>I hereby declare, that I understand the above described conditions of participation and I agree to participate under these conditions. <br><br> </div>","","0","","","","","","","","","","","","","","","","","","",""
"html-keyboard-response","4","75034","0.0-1.0-0.0-3.0","73rm9yuoam36occ","welcome","5d305152b2cfe00019231a2a","5f60e3c0a3b16e07647b2ff9","5f646a5410a242025cdb136c","false","24082.87499996368","<div align=left><strong> General information concerning the experiment </strong>  <br> <br>Please follow the instructions:<ol> <li><strong> Do not leave this tab (your browser window) during the experiment and do not reload this tab! </strong>  <br>If you do switch tabs/windows during the experiment (to check your mail or visit another website, for example), <br>the experiment will end automatically and you will <strong>not receive credit</strong> for your participation. <br>Repeated participation or resumption of the experiment is impossible.</li> <br><li>Please close all other programs for the duration of your participation. </li> <br><li>Please mute or turn off your phone and put it out of your reach. </li> <br><li>Please also take off any disturbing accessories (such as wristwatches, bracelets, etc.). </li> <br><li>If you have music playing in the background, please turn it off now. </li> <br></ol>Thank you! <br>Press 'SPACE' to continue. </div>","32","","","","","","","","","","","","","","","","","","","",""
"survey-text","5","81791","0.0-1.0-1.0-0.0","73rm9yuoam36occ","demographics","5d305152b2cfe00019231a2a","5f60e3c0a3b16e07647b2ff9","5f646a5410a242025cdb136c","true","6739.815000095405","","","","{""age"":""28""}","","","","","","","","","","","","","","","","","",""
"survey-multi-choice","6","109717","0.0-1.0-1.0-1.0","73rm9yuoam36occ","demographics","5d305152b2cfe00019231a2a","5f60e3c0a3b16e07647b2ff9","5f646a5410a242025cdb136c","true","27923.070000018924","","","","{""gender"":""male"",""school"":""high school"",""education"":""High school graduate, diploma or equivalent""}","[0,1,2]","","","","","","","","","","","","","","","","",""
"html-keyboard-response","7","128426","0.0-1.0-2.0","73rm9yuoam36occ","instructions","5d305152b2cfe00019231a2a","5f60e3c0a3b16e07647b2ff9","5f646a5410a242025cdb136c","false","18704.664999968372","<div align=left> The experiment is now about to start: <br> <br>In the following part, you will be presented pictures of everyday objects. <br>Your first task is to <strong>classify these objects. </strong> <br> <br> You will classify them either as mechanical or non-mechanical objects. <br> <br>Objects that include any kind of technical mechanism (for example, wheels, switches, levers, <br> electronic components) fall under the category of <strong>mechanical</strong> objects. <br>Only objects without any kind of technical mechanism should be classified as <strong>non-mechanical</strong>. <br><br>Press 'SPACE' to continue. </div>","32","","","","","","","","","","","","","","","","","","","",""
"html-keyboard-response","8","222926","0.0-2.0-0.0","73rm9yuoam36occ","instructions","5d305152b2cfe00019231a2a","5f60e3c0a3b16e07647b2ff9","5f646a5410a242025cdb136c","false","94493.52499993984","<div align=justify>You will classify the objects using the <strong>'S'</strong> and the <strong>'L'</strong> keys on your keyboard.<br>For doing so, please place your <strong>left index finger</strong> on the <strong>'S'</strong> key and place your <strong>right index finger</strong> on the <strong>'L'</strong> key. <br><br> Each trial starts with an instruction, indicating which key ('S'/'L') you need to press to classify <br>the object as mechanical (letter M) or non-mechanical (letter N).<br>The instruction <strong>M + N</strong> indicates that, in the current trial, by pressing the left key ('S') you classify the displayed object as mechanical (M) <br> and by pressing the right key ('L') you classify the object as non-mechanical (N). <br>The instruction <strong>N + M</strong> on the other hand indicates that by pressing the left key ('S') you classify the displayed object as non-mechanical (N) <br> and by pressing the right key ('L') you classify the object as mechanical (M). <br><br>Please press the key corresponding to the correct classification as fast as possible as soon as the object is displayed and try to avoid making mistakes.<br>If you do not respond within a 2 second window, a corresponding feedback will be displayed and the next trial will start.<br> The experiment is divided into multiple blocks to give you the opportunity to take a break after each block. <br>First, you can now practice this task. <br><br>Please place your <strong>LEFT INDEX FINGER</strong> on the 'S' key and your <strong>RIGHT INDEX FINGER</strong> on the 'L' key now. <br><br>Press SPACE to continue.</div>","32","","","","","","","","","","","","","","","","","","","",""
"html-keyboard-response","9","235585","0.0-2.0-1.0","73rm9yuoam36occ","instructions","5d305152b2cfe00019231a2a","5f60e3c0a3b16e07647b2ff9","5f646a5410a242025cdb136c","false","12655.034999945201","<div align=left> You will now have time to practice this task.<br><br>Remember: <br> <br><li>Please place your index fingers on the <strong>'S'</strong> and <strong>'L'</strong> keys <br>to respond as fast and accurately as possible.</li><li>Every picture can be classified as either mechanical or non-mechanical.</li><li>If you do not respond in time or commit an error, you will receive a corresponding feedback. </li><li> Please try to respond as <strong> fast </strong> and as <strong> accurately as possible </strong> .<br><li>To ensure optimal results, please minimize distractions and stay focused. </li><br><br>Press SPACE to continue.</div>","32","","","","","","","","","","","","","","","","","","","",""
"html-keyboard-response","10","236299","0.0-2.0-2.0-0.0","73rm9yuoam36occ","practice_no_cue","5d305152b2cfe00019231a2a","5f60e3c0a3b16e07647b2ff9","5f646a5410a242025cdb136c","false","null","<span style=""color: black; font-size: 48px"">N + M</span>","null","","","","resp_prompt","","","","","","","","","","","","","","","",""
"categorize-image","11","238815","0.0-2.0-2.0-1.0","73rm9yuoam36occ","practice_no_cue","5d305152b2cfe00019231a2a","5f60e3c0a3b16e07647b2ff9","5f646a5410a242025cdb136c","true","null","./Stimuli/ImagesPractice/LN72.jpg","null","","","","test","false","N + M","83","","LN","LN72.jpg","forget","old","1","1","start","too_slow","","","",""
"html-keyboard-response","12","239524","0.0-2.0-2.0-0.1","73rm9yuoam36occ","practice_no_cue","5d305152b2cfe00019231a2a","5f60e3c0a3b16e07647b2ff9","5f646a5410a242025cdb136c","false","null","<span style=""color: black; font-size: 48px"">N + M</span>","null","","","","resp_prompt","","","","","","","","","","","","","","","",""
"categorize-image","13","242041","0.0-2.0-2.0-1.1","73rm9yuoam36occ","practice_no_cue","5d305152b2cfe00019231a2a","5f60e3c0a3b16e07647b2ff9","5f646a5410a242025cdb136c","true","null","./Stimuli/ImagesPractice/SM98.jpg","null","","","","test","false","N + M","76","","SM","SM98.jpg","remember","old","2","1","start","too_slow","","","",""
"html-keyboard-response","14","242747","0.0-2.0-2.0-0.2","73rm9yuoam36occ","practice_no_cue","5d305152b2cfe00019231a2a","5f60e3c0a3b16e07647b2ff9","5f646a5410a242025cdb136c","false","null","<span style=""color: black; font-size: 48px"">N + M</span>","null","","","","resp_prompt","","","","","","","","","","","","","","","",""
"categorize-image","15","244215","0.0-2.0-2.0-1.2","73rm9yuoam36occ","practice_no_cue","5d305152b2cfe00019231a2a","5f60e3c0a3b16e07647b2ff9","5f646a5410a242025cdb136c","true","948.3199999667704","./Stimuli/ImagesPractice/SN205.jpg","76","","","","test","false","N + M","83","","SN","SN205.jpg","remember","old","3","1","start","right","","","",""
"html-keyboard-response","16","244936","0.0-2.0-2.0-0.3","73rm9yuoam36occ","practice_no_cue","5d305152b2cfe00019231a2a","5f60e3c0a3b16e07647b2ff9","5f646a5410a242025cdb136c","false","null","<span style=""color: black; font-size: 48px"">M + N</span>","null","","","","resp_prompt","","","","","","","","","","","","","","","",""
"categorize-image","17","247459","0.0-2.0-2.0-1.3","73rm9yuoam36occ","practice_no_cue","5d305152b2cfe00019231a2a","5f60e3c0a3b16e07647b2ff9","5f646a5410a242025cdb136c","true","null","./Stimuli/ImagesPractice/SN75.jpg","null","","","","test","false","M + N","76","","SN","SN75.jpg","forget","old","4","1","start","too_slow","","","",""
"html-keyboard-response","18","248174","0.0-2.0-2.0-0.4","73rm9yuoam36occ","practice_no_cue","5d305152b2cfe00019231a2a","5f60e3c0a3b16e07647b2ff9","5f646a5410a242025cdb136c","false","null","<span style=""color: black; font-size: 48px"">N + M</span>","null","","","","resp_prompt","","","","","","","","","","","","","","","",""
"categorize-image","19","250688","0.0-2.0-2.0-1.4","73rm9yuoam36occ","practice_no_cue","5d305152b2cfe00019231a2a","5f60e3c0a3b16e07647b2ff9","5f646a5410a242025cdb136c","true","null","./Stimuli/ImagesPractice/SM35.jpg","null","","","","test","false","N + M","76","","SM","SM35.jpg","remember","old","5","1","start","too_slow","","","",""
"html-keyboard-response","20","251391","0.0-2.0-2.0-0.5","73rm9yuoam36occ","practice_no_cue","5d305152b2cfe00019231a2a","5f60e3c0a3b16e07647b2ff9","5f646a5410a242025cdb136c","false","null","<span style=""color: black; font-size: 48px"">M + N</span>","null","","","","resp_prompt","","","","","","","","","","","","","","","",""
"categorize-image","21","253913","0.0-2.0-2.0-1.5","73rm9yuoam36occ","practice_no_cue","5d305152b2cfe00019231a2a","5f60e3c0a3b16e07647b2ff9","5f646a5410a242025cdb136c","true","null","./Stimuli/ImagesPractice/SM97.jpg","null","","","","test","false","M + N","83","","SM","SM97.jpg","forget","old","6","1","start","too_slow","","","",""
"html-keyboard-response","22","254618","0.0-2.0-2.0-0.6","73rm9yuoam36occ","practice_no_cue","5d305152b2cfe00019231a2a","5f60e3c0a3b16e07647b2ff9","5f646a5410a242025cdb136c","false","null","<span style=""color: black; font-size: 48px"">M + N</span>","null","","","","resp_prompt","","","","","","","","","","","","","","","",""
"categorize-image","23","256155","0.0-2.0-2.0-1.6","73rm9yuoam36occ","practice_no_cue","5d305152b2cfe00019231a2a","5f60e3c0a3b16e07647b2ff9","5f646a5410a242025cdb136c","true","1025.569999939762","./Stimuli/ImagesPractice/SM61.jpg","76","","","","test","false","M + N","83","","SM","SM61.jpg","remember","old","7","1","start","right","","","",""
"html-keyboard-response","24","256860","0.0-2.0-2.0-0.7","73rm9yuoam36occ","practice_no_cue","5d305152b2cfe00019231a2a","5f60e3c0a3b16e07647b2ff9","5f646a5410a242025cdb136c","false","null","<span style=""color: black; font-size: 48px"">N + M</span>","null","","","","resp_prompt","","","","","","","","","","","","","","","",""
"categorize-image","25","259391","0.0-2.0-2.0-1.7","73rm9yuoam36occ","practice_no_cue","5d305152b2cfe00019231a2a","5f60e3c0a3b16e07647b2ff9","5f646a5410a242025cdb136c","true","null","./Stimuli/ImagesPractice/SM37.jpg","null","","","","test","false","N + M","76","","SM","SM37.jpg","forget","old","8","1","start","too_slow","","","",""
"html-keyboard-response","26","260102","0.0-2.0-2.0-0.8","73rm9yuoam36occ","practice_no_cue","5d305152b2cfe00019231a2a","5f60e3c0a3b16e07647b2ff9","5f646a5410a242025cdb136c","false","null","<span style=""color: black; font-size: 48px"">M + N</span>","null","","","","resp_prompt","","","","","","","","","","","","","","","",""
"categorize-image","27","262624","0.0-2.0-2.0-1.8","73rm9yuoam36occ","practice_no_cue","5d305152b2cfe00019231a2a","5f60e3c0a3b16e07647b2ff9","5f646a5410a242025cdb136c","true","null","./Stimuli/ImagesPractice/LN2.jpg","null","","","","test","false","M + N","76","","LN","LN2.jpg","remember","old","9","1","start","too_slow","","","",""
"html-keyboard-response","28","263329","0.0-2.0-2.0-0.9","73rm9yuoam36occ","practice_no_cue","5d305152b2cfe00019231a2a","5f60e3c0a3b16e07647b2ff9","5f646a5410a242025cdb136c","false","null","<span style=""color: black; font-size: 48px"">M + N</span>","null","","","","resp_prompt","","","","","","","","","","","","","","","",""
"categorize-image","29","265851","0.0-2.0-2.0-1.9","73rm9yuoam36occ","practice_no_cue","5d305152b2cfe00019231a2a","5f60e3c0a3b16e07647b2ff9","5f646a5410a242025cdb136c","true","null","./Stimuli/ImagesPractice/LM230.jpg","null","","","","test","false","M + N","83","","LM","LM230.jpg","forget","old","10","1","start","too_slow","","","",""
"html-keyboard-response","30","266556","0.0-2.0-2.0-0.10","73rm9yuoam36occ","practice_no_cue","5d305152b2cfe00019231a2a","5f60e3c0a3b16e07647b2ff9","5f646a5410a242025cdb136c","false","null","<span style=""color: black; font-size: 48px"">N + M</span>","null","","","","resp_prompt","","","","","","","","","","","","","","","",""
"categorize-image","31","269082","0.0-2.0-2.0-1.10","73rm9yuoam36occ","practice_no_cue","5d305152b2cfe00019231a2a","5f60e3c0a3b16e07647b2ff9","5f646a5410a242025cdb136c","true","null","./Stimuli/ImagesPractice/LM147.jpg","null","","","","test","false","N + M","76","","LM","LM147.jpg","forget","old","11","1","start","too_slow","","","",""
"html-keyboard-response","32","269798","0.0-2.0-2.0-0.11","73rm9yuoam36occ","practice_no_cue","5d305152b2cfe00019231a2a","5f60e3c0a3b16e07647b2ff9","5f646a5410a242025cdb136c","false","null","<span style=""color: black; font-size: 48px"">N + M</span>","null","","","","resp_prompt","","","","","","","","","","","","","","","",""
"categorize-image","33","272324","0.0-2.0-2.0-1.11","73rm9yuoam36occ","practice_no_cue","5d305152b2cfe00019231a2a","5f60e3c0a3b16e07647b2ff9","5f646a5410a242025cdb136c","true","null","./Stimuli/ImagesPractice/LN109.jpg","null","","","","test","false","N + M","83","","LN","LN109.jpg","remember","old","12","1","start","too_slow","","","",""
"html-keyboard-response","34","273036","0.0-2.0-2.0-0.12","73rm9yuoam36occ","practice_no_cue","5d305152b2cfe00019231a2a","5f60e3c0a3b16e07647b2ff9","5f646a5410a242025cdb136c","false","null","<span style=""color: black; font-size: 48px"">N + M</span>","null","","","","resp_prompt","","","","","","","","","","","","","","","",""
"categorize-image","35","275568","0.0-2.0-2.0-1.12","73rm9yuoam36occ","practice_no_cue","5d305152b2cfe00019231a2a","5f60e3c0a3b16e07647b2ff9","5f646a5410a242025cdb136c","true","null","./Stimuli/ImagesPractice/SN220.jpg","null","","","","test","false","N + M","83","","SN","SN220.jpg","forget","old","13","1","start","too_slow","","","",""
"html-keyboard-response","36","276271","0.0-2.0-2.0-0.13","73rm9yuoam36occ","practice_no_cue","5d305152b2cfe00019231a2a","5f60e3c0a3b16e07647b2ff9","5f646a5410a242025cdb136c","false","null","<span style=""color: black; font-size: 48px"">M + N</span>","null","","","","resp_prompt","","","","","","","","","","","","","","","",""
"categorize-image","37","278791","0.0-2.0-2.0-1.13","73rm9yuoam36occ","practice_no_cue","5d305152b2cfe00019231a2a","5f60e3c0a3b16e07647b2ff9","5f646a5410a242025cdb136c","true","null","./Stimuli/ImagesPractice/SM62.jpg","null","","","","test","false","M + N","83","","SM","SM62.jpg","remember","old","14","1","start","too_slow","","","",""
"html-keyboard-response","38","279498","0.0-2.0-2.0-0.14","73rm9yuoam36occ","practice_no_cue","5d305152b2cfe00019231a2a","5f60e3c0a3b16e07647b2ff9","5f646a5410a242025cdb136c","false","null","<span style=""color: black; font-size: 48px"">M + N</span>","null","","","","resp_prompt","","","","","","","","","","","","","","","",""
"categorize-image","39","282022","0.0-2.0-2.0-1.14","73rm9yuoam36occ","practice_no_cue","5d305152b2cfe00019231a2a","5f60e3c0a3b16e07647b2ff9","5f646a5410a242025cdb136c","true","null","./Stimuli/ImagesPractice/LN15.jpg","null","","","","test","false","M + N","76","","LN","LN15.jpg","remember","old","15","1","start","too_slow","","","",""
"html-keyboard-response","40","282726","0.0-2.0-2.0-0.15","73rm9yuoam36occ","practice_no_cue","5d305152b2cfe00019231a2a","5f60e3c0a3b16e07647b2ff9","5f646a5410a242025cdb136c","false","null","<span style=""color: black; font-size: 48px"">M + N</span>","null","","","","resp_prompt","","","","","","","","","","","","","","","",""
"categorize-image","41","284972","0.0-2.0-2.0-1.15","73rm9yuoam36occ","practice_no_cue","5d305152b2cfe00019231a2a","5f60e3c0a3b16e07647b2ff9","5f646a5410a242025cdb136c","true","1726.304999901913","./Stimuli/ImagesPractice/LN4.jpg","76","","","","test","true","M + N","76","","LN","LN4.jpg","forget","old","16","1","start","right","","","",""
"html-keyboard-response","42","332676","0.0-2.0-3.0","73rm9yuoam36occ","break","5d305152b2cfe00019231a2a","5f60e3c0a3b16e07647b2ff9","5f646a5410a242025cdb136c","false","47699.789999984205","<p style='font-size: 32px;'>Break</><br><br><br><br><br><p style='font-size: 24px;'>In the last block, you committed 2 errors and did not respond in time on 13 trials.
</p><p style='font-size: 24px;'>Try to respond as fast and accurately as possible in the next block as well! </p><p style='font-size: 24px;'>Press SPACE to continue.</p>","32","","","","","","","","","","","","","","","","","","","",""
"html-keyboard-response","43","336861","0.0-2.0-4.0","73rm9yuoam36occ","instructions","5d305152b2cfe00019231a2a","5f60e3c0a3b16e07647b2ff9","5f646a5410a242025cdb136c","false","4179.574999958277","<div align=left> Great!<br><br>Are you ready to continue?<br><br>If you want to reread the instructions and redo the practice trials, <br>please press „Z“. <br><br>Press SPACE to CONTINUE with the experiment when you are ready. </div>","90","","","","","","","","","","","","","","","","","","","",""
"html-keyboard-response","44","337858","0.0-2.1-0.1","73rm9yuoam36occ","instructions","5d305152b2cfe00019231a2a","5f60e3c0a3b16e07647b2ff9","5f646a5410a242025cdb136c","false","990.6450000125915","<div align=justify>You will classify the objects using the <strong>'S'</strong> and the <strong>'L'</strong> keys on your keyboard.<br>For doing so, please place your <strong>left index finger</strong> on the <strong>'S'</strong> key and place your <strong>right index finger</strong> on the <strong>'L'</strong> key. <br><br> Each trial starts with an instruction, indicating which key ('S'/'L') you need to press to classify <br>the object as mechanical (letter M) or non-mechanical (letter N).<br>The instruction <strong>M + N</strong> indicates that, in the current trial, by pressing the left key ('S') you classify the displayed object as mechanical (M) <br> and by pressing the right key ('L') you classify the object as non-mechanical (N). <br>The instruction <strong>N + M</strong> on the other hand indicates that by pressing the left key ('S') you classify the displayed object as non-mechanical (N) <br> and by pressing the right key ('L') you classify the object as mechanical (M). <br><br>Please press the key corresponding to the correct classification as fast as possible as soon as the object is displayed and try to avoid making mistakes.<br>If you do not respond within a 2 second window, a corresponding feedback will be displayed and the next trial will start.<br> The experiment is divided into multiple blocks to give you the opportunity to take a break after each block. <br>First, you can now practice this task. <br><br>Please place your <strong>LEFT INDEX FINGER</strong> on the 'S' key and your <strong>RIGHT INDEX FINGER</strong> on the 'L' key now. <br><br>Press SPACE to continue.</div>","32","","","","","","","","","","","","","","","","","","","",""
"html-keyboard-response","45","338806","0.0-2.1-1.1","73rm9yuoam36occ","instructions","5d305152b2cfe00019231a2a","5f60e3c0a3b16e07647b2ff9","5f646a5410a242025cdb136c","false","945.2499999897555","<div align=left> You will now have time to practice this task.<br><br>Remember: <br> <br><li>Please place your index fingers on the <strong>'S'</strong> and <strong>'L'</strong> keys <br>to respond as fast and accurately as possible.</li><li>Every picture can be classified as either mechanical or non-mechanical.</li><li>If you do not respond in time or commit an error, you will receive a corresponding feedback. </li><li> Please try to respond as <strong> fast </strong> and as <strong> accurately as possible </strong> .<br><li>To ensure optimal results, please minimize distractions and stay focused. </li><br><br>Press SPACE to continue.</div>","32","","","","","","","","","","","","","","","","","","","",""
"html-keyboard-response","46","339513","0.0-2.1-2.1-0.16","73rm9yuoam36occ","practice_no_cue","5d305152b2cfe00019231a2a","5f60e3c0a3b16e07647b2ff9","5f646a5410a242025cdb136c","false","null","<span style=""color: black; font-size: 48px"">M + N</span>","null","","","","resp_prompt","","","","","","","","","","","","","","","",""
"categorize-image","47","341291","0.0-2.1-2.1-1.16","73rm9yuoam36occ","practice_no_cue","5d305152b2cfe00019231a2a","5f60e3c0a3b16e07647b2ff9","5f646a5410a242025cdb136c","true","1257.7899999450892","./Stimuli/ImagesPractice/SM97.jpg","76","","","","test","false","M + N","83","","SM","SM97.jpg","forget","old","17","2","practice_forget","right","","","",""
"html-keyboard-response","48","341996","0.0-2.1-2.1-0.17","73rm9yuoam36occ","practice_no_cue","5d305152b2cfe00019231a2a","5f60e3c0a3b16e07647b2ff9","5f646a5410a242025cdb136c","false","null","<span style=""color: black; font-size: 48px"">M + N</span>","null","","","","resp_prompt","","","","","","","","","","","","","","","",""
"categorize-image","49","343248","0.0-2.1-2.1-1.17","73rm9yuoam36occ","practice_no_cue","5d305152b2cfe00019231a2a","5f60e3c0a3b16e07647b2ff9","5f646a5410a242025cdb136c","true","747.10999999661","./Stimuli/ImagesPractice/LN15.jpg","83","","","","test","false","M + N","76","","LN","LN15.jpg","remember","old","18","2","practice_forget","left","","","",""
"html-keyboard-response","50","343953","0.0-2.1-2.1-0.18","73rm9yuoam36occ","practice_no_cue","5d305152b2cfe00019231a2a","5f60e3c0a3b16e07647b2ff9","5f646a5410a242025cdb136c","false","null","<span style=""color: black; font-size: 48px"">N + M</span>","null","","","","resp_prompt","","","","","","","","","","","","","","","",""
"categorize-image","51","345237","0.0-2.1-2.1-1.18","73rm9yuoam36occ","practice_no_cue","5d305152b2cfe00019231a2a","5f60e3c0a3b16e07647b2ff9","5f646a5410a242025cdb136c","true","767.2050000401214","./Stimuli/ImagesPractice/LM147.jpg","76","","","","test","true","N + M","76","","LM","LM147.jpg","forget","old","19","2","practice_forget","right","","","",""
"html-keyboard-response","52","345951","0.0-2.1-2.1-0.19","73rm9yuoam36occ","practice_no_cue","5d305152b2cfe00019231a2a","5f60e3c0a3b16e07647b2ff9","5f646a5410a242025cdb136c","false","null","<span style=""color: black; font-size: 48px"">M + N</span>","null","","","","resp_prompt","","","","","","","","","","","","","","","",""
"categorize-image","53","347376","0.0-2.1-2.1-1.19","73rm9yuoam36occ","practice_no_cue","5d305152b2cfe00019231a2a","5f60e3c0a3b16e07647b2ff9","5f646a5410a242025cdb136c","true","908.545000012964","./Stimuli/ImagesPractice/LN4.jpg","83","","","","test","false","M + N","76","","LN","LN4.jpg","forget","old","20","2","practice_forget","left","","","",""
"html-keyboard-response","54","348083","0.0-2.1-2.1-0.20","73rm9yuoam36occ","practice_no_cue","5d305152b2cfe00019231a2a","5f60e3c0a3b16e07647b2ff9","5f646a5410a242025cdb136c","false","null","<span style=""color: black; font-size: 48px"">N + M</span>","null","","","","resp_prompt","","","","","","","","","","","","","","","",""
"categorize-image","55","349267","0.0-2.1-2.1-1.20","73rm9yuoam36occ","practice_no_cue","5d305152b2cfe00019231a2a","5f60e3c0a3b16e07647b2ff9","5f646a5410a242025cdb136c","true","671.8700000783429","./Stimuli/ImagesPractice/SM37.jpg","76","","","","test","true","N + M","76","","SM","SM37.jpg","forget","old","21","2","practice_forget","right","","","",""
"html-keyboard-response","56","349979","0.0-2.1-2.1-0.21","73rm9yuoam36occ","practice_no_cue","5d305152b2cfe00019231a2a","5f60e3c0a3b16e07647b2ff9","5f646a5410a242025cdb136c","false","null","<span style=""color: black; font-size: 48px"">N + M</span>","null","","","","resp_prompt","","","","","","","","","","","","","","","",""
"categorize-image","57","351449","0.0-2.1-2.1-1.21","73rm9yuoam36occ","practice_no_cue","5d305152b2cfe00019231a2a","5f60e3c0a3b16e07647b2ff9","5f646a5410a242025cdb136c","true","949.2549999849871","./Stimuli/ImagesPractice/LN109.jpg","83","","","","test","true","N + M","83","","LN","LN109.jpg","remember","old","22","2","practice_forget","left","","","",""
"html-keyboard-response","58","352164","0.0-2.1-2.1-0.22","73rm9yuoam36occ","practice_no_cue","5d305152b2cfe00019231a2a","5f60e3c0a3b16e07647b2ff9","5f646a5410a242025cdb136c","false","null","<span style=""color: black; font-size: 48px"">M + N</span>","null","","","","resp_prompt","","","","","","","","","","","","","","","",""
"categorize-image","59","353402","0.0-2.1-2.1-1.22","73rm9yuoam36occ","practice_no_cue","5d305152b2cfe00019231a2a","5f60e3c0a3b16e07647b2ff9","5f646a5410a242025cdb136c","true","724.3050000397488","./Stimuli/ImagesPractice/SM62.jpg","76","","","","test","false","M + N","83","","SM","SM62.jpg","remember","old","23","2","practice_forget","right","","","",""
"html-keyboard-response","60","354116","0.0-2.1-2.1-0.23","73rm9yuoam36occ","practice_no_cue","5d305152b2cfe00019231a2a","5f60e3c0a3b16e07647b2ff9","5f646a5410a242025cdb136c","false","null","<span style=""color: black; font-size: 48px"">M + N</span>","null","","","","resp_prompt","","","","","","","","","","","","","","","",""
"categorize-image","61","355437","0.0-2.1-2.1-1.23","73rm9yuoam36occ","practice_no_cue","5d305152b2cfe00019231a2a","5f60e3c0a3b16e07647b2ff9","5f646a5410a242025cdb136c","true","812.1150000952184","./Stimuli/ImagesPractice/SN75.jpg","83","","","","test","false","M + N","76","","SN","SN75.jpg","forget","old","24","2","practice_forget","left","","","",""
"html-keyboard-response","62","356141","0.0-2.1-2.1-0.24","73rm9yuoam36occ","practice_no_cue","5d305152b2cfe00019231a2a","5f60e3c0a3b16e07647b2ff9","5f646a5410a242025cdb136c","false","null","<span style=""color: black; font-size: 48px"">N + M</span>","null","","","","resp_prompt","","","","","","","","","","","","","","","",""
"categorize-image","63","358078","0.0-2.1-2.1-1.24","73rm9yuoam36occ","practice_no_cue","5d305152b2cfe00019231a2a","5f60e3c0a3b16e07647b2ff9","5f646a5410a242025cdb136c","true","1421.875","./Stimuli/ImagesPractice/LN72.jpg","76","","","","test","false","N + M","83","","LN","LN72.jpg","forget","old","25","2","practice_forget","right","","","",""
"html-keyboard-response","64","358793","0.0-2.1-2.1-0.25","73rm9yuoam36occ","practice_no_cue","5d305152b2cfe00019231a2a","5f60e3c0a3b16e07647b2ff9","5f646a5410a242025cdb136c","false","null","<span style=""color: black; font-size: 48px"">M + N</span>","null","","","","resp_prompt","","","","","","","","","","","","","","","",""
"categorize-image","65","359934","0.0-2.1-2.1-1.25","73rm9yuoam36occ","practice_no_cue","5d305152b2cfe00019231a2a","5f60e3c0a3b16e07647b2ff9","5f646a5410a242025cdb136c","true","624.8049999121577","./Stimuli/ImagesPractice/LN2.jpg","83","","","","test","false","M + N","76","","LN","LN2.jpg","remember","old","26","2","practice_forget","left","","","",""
"html-keyboard-response","66","360648","0.0-2.1-2.1-0.26","73rm9yuoam36occ","practice_no_cue","5d305152b2cfe00019231a2a","5f60e3c0a3b16e07647b2ff9","5f646a5410a242025cdb136c","false","null","<span style=""color: black; font-size: 48px"">M + N</span>","null","","","","resp_prompt","","","","","","","","","","","","","","","",""
"categorize-image","67","361789","0.0-2.1-2.1-1.26","73rm9yuoam36occ","practice_no_cue","5d305152b2cfe00019231a2a","5f60e3c0a3b16e07647b2ff9","5f646a5410a242025cdb136c","true","620.0100000714883","./Stimuli/ImagesPractice/LM230.jpg","76","","","","test","false","M + N","83","","LM","LM230.jpg","forget","old","27","2","practice_forget","right","","","",""
"html-keyboard-response","68","362495","0.0-2.1-2.1-0.27","73rm9yuoam36occ","practice_no_cue","5d305152b2cfe00019231a2a","5f60e3c0a3b16e07647b2ff9","5f646a5410a242025cdb136c","false","null","<span style=""color: black; font-size: 48px"">N + M</span>","null","","","","resp_prompt","","","","","","","","","","","","","","","",""
"categorize-image","69","363613","0.0-2.1-2.1-1.27","73rm9yuoam36occ","practice_no_cue","5d305152b2cfe00019231a2a","5f60e3c0a3b16e07647b2ff9","5f646a5410a242025cdb136c","true","609.195000026375","./Stimuli/ImagesPractice/SN220.jpg","76","","","","test","false","N + M","83","","SN","SN220.jpg","forget","old","28","2","practice_forget","right","","","",""
"html-keyboard-response","70","364324","0.0-2.1-2.1-0.28","73rm9yuoam36occ","practice_no_cue","5d305152b2cfe00019231a2a","5f60e3c0a3b16e07647b2ff9","5f646a5410a242025cdb136c","false","null","<span style=""color: black; font-size: 48px"">N + M</span>","null","","","","resp_prompt","","","","","","","","","","","","","","","",""
"categorize-image","71","365236","0.0-2.1-2.1-1.28","73rm9yuoam36occ","practice_no_cue","5d305152b2cfe00019231a2a","5f60e3c0a3b16e07647b2ff9","5f646a5410a242025cdb136c","true","401.0800000978634","./Stimuli/ImagesPractice/SM35.jpg","76","","","","test","true","N + M","76","","SM","SM35.jpg","remember","old","29","2","practice_forget","right","","","",""
"html-keyboard-response","72","365939","0.0-2.1-2.1-0.29","73rm9yuoam36occ","practice_no_cue","5d305152b2cfe00019231a2a","5f60e3c0a3b16e07647b2ff9","5f646a5410a242025cdb136c","false","null","<span style=""color: black; font-size: 48px"">M + N</span>","null","","","","resp_prompt","","","","","","","","","","","","","","","",""
"categorize-image","73","367643","0.0-2.1-2.1-1.29","73rm9yuoam36occ","practice_no_cue","5d305152b2cfe00019231a2a","5f60e3c0a3b16e07647b2ff9","5f646a5410a242025cdb136c","true","1195.4250000417233","./Stimuli/ImagesPractice/SM61.jpg","76","","","","test","false","M + N","83","","SM","SM61.jpg","remember","old","30","2","practice_forget","right","","","",""
"html-keyboard-response","74","368356","0.0-2.1-2.1-0.30","73rm9yuoam36occ","practice_no_cue","5d305152b2cfe00019231a2a","5f60e3c0a3b16e07647b2ff9","5f646a5410a242025cdb136c","false","null","<span style=""color: black; font-size: 48px"">N + M</span>","null","","","","resp_prompt","","","","","","","","","","","","","","","",""
"categorize-image","75","369855","0.0-2.1-2.1-1.30","73rm9yuoam36occ","practice_no_cue","5d305152b2cfe00019231a2a","5f60e3c0a3b16e07647b2ff9","5f646a5410a242025cdb136c","true","982.0349999936298","./Stimuli/ImagesPractice/SM98.jpg","76","","","","test","true","N + M","76","","SM","SM98.jpg","remember","old","31","2","practice_forget","right","","","",""
"html-keyboard-response","76","370571","0.0-2.1-2.1-0.31","73rm9yuoam36occ","practice_no_cue","5d305152b2cfe00019231a2a","5f60e3c0a3b16e07647b2ff9","5f646a5410a242025cdb136c","false","null","<span style=""color: black; font-size: 48px"">N + M</span>","null","","","","resp_prompt","","","","","","","","","","","","","","","",""
"categorize-image","77","371755","0.0-2.1-2.1-1.31","73rm9yuoam36occ","practice_no_cue","5d305152b2cfe00019231a2a","5f60e3c0a3b16e07647b2ff9","5f646a5410a242025cdb136c","true","677.8550000162795","./Stimuli/ImagesPractice/SN205.jpg","83","","","","test","true","N + M","83","","SN","SN205.jpg","remember","old","32","2","practice_forget","left","","","",""
"html-keyboard-response","78","377334","0.0-2.1-3.1","73rm9yuoam36occ","break","5d305152b2cfe00019231a2a","5f60e3c0a3b16e07647b2ff9","5f646a5410a242025cdb136c","false","5567.335000028834","<p style='font-size: 32px;'>Break</><br><br><br><br><br><p style='font-size: 24px;'>In the last block, you committed 10 errors and did not respond in time on 0 trials.
</p><p style='font-size: 24px;'>Try to respond as fast and accurately as possible in the next block as well! </p><p style='font-size: 24px;'>Press SPACE to continue.</p>","32","","","","","","","","","","","","","","","","","","","",""
"html-keyboard-response","79","378375","0.0-2.1-4.1","73rm9yuoam36occ","instructions","5d305152b2cfe00019231a2a","5f60e3c0a3b16e07647b2ff9","5f646a5410a242025cdb136c","false","1037.4099999899045","<div align=left> Great!<br><br>Are you ready to continue?<br><br>If you want to reread the instructions and redo the practice trials, <br>please press „Z“. <br><br>Press SPACE to CONTINUE with the experiment when you are ready. </div>","90","","","","","","","","","","","","","","","","","","","",""
"html-keyboard-response","80","382125","0.0-2.2-0.2","73rm9yuoam36occ","instructions","5d305152b2cfe00019231a2a","5f60e3c0a3b16e07647b2ff9","5f646a5410a242025cdb136c","false","3747.880000039004","<div align=justify>You will classify the objects using the <strong>'S'</strong> and the <strong>'L'</strong> keys on your keyboard.<br>For doing so, please place your <strong>left index finger</strong> on the <strong>'S'</strong> key and place your <strong>right index finger</strong> on the <strong>'L'</strong> key. <br><br> Each trial starts with an instruction, indicating which key ('S'/'L') you need to press to classify <br>the object as mechanical (letter M) or non-mechanical (letter N).<br>The instruction <strong>M + N</strong> indicates that, in the current trial, by pressing the left key ('S') you classify the displayed object as mechanical (M) <br> and by pressing the right key ('L') you classify the object as non-mechanical (N). <br>The instruction <strong>N + M</strong> on the other hand indicates that by pressing the left key ('S') you classify the displayed object as non-mechanical (N) <br> and by pressing the right key ('L') you classify the object as mechanical (M). <br><br>Please press the key corresponding to the correct classification as fast as possible as soon as the object is displayed and try to avoid making mistakes.<br>If you do not respond within a 2 second window, a corresponding feedback will be displayed and the next trial will start.<br> The experiment is divided into multiple blocks to give you the opportunity to take a break after each block. <br>First, you can now practice this task. <br><br>Please place your <strong>LEFT INDEX FINGER</strong> on the 'S' key and your <strong>RIGHT INDEX FINGER</strong> on the 'L' key now. <br><br>Press SPACE to continue.</div>","32","","","","","","","","","","","","","","","","","","","",""
"html-keyboard-response","81","383209","0.0-2.2-1.2","73rm9yuoam36occ","instructions","5d305152b2cfe00019231a2a","5f60e3c0a3b16e07647b2ff9","5f646a5410a242025cdb136c","false","1080.6449999799952","<div align=left> You will now have time to practice this task.<br><br>Remember: <br> <br><li>Please place your index fingers on the <strong>'S'</strong> and <strong>'L'</strong> keys <br>to respond as fast and accurately as possible.</li><li>Every picture can be classified as either mechanical or non-mechanical.</li><li>If you do not respond in time or commit an error, you will receive a corresponding feedback. </li><li> Please try to respond as <strong> fast </strong> and as <strong> accurately as possible </strong> .<br><li>To ensure optimal results, please minimize distractions and stay focused. </li><br><br>Press SPACE to continue.</div>","32","","","","","","","","","","","","","","","","","","","",""
"html-keyboard-response","82","383914","0.0-2.2-2.2-0.32","73rm9yuoam36occ","practice_no_cue","5d305152b2cfe00019231a2a","5f60e3c0a3b16e07647b2ff9","5f646a5410a242025cdb136c","false","null","<span style=""color: black; font-size: 48px"">N + M</span>","null","","","","resp_prompt","","","","","","","","","","","","","","","",""
"categorize-image","83","385236","0.0-2.2-2.2-1.32","73rm9yuoam36occ","practice_no_cue","5d305152b2cfe00019231a2a","5f60e3c0a3b16e07647b2ff9","5f646a5410a242025cdb136c","true","795.1650000177324","./Stimuli/ImagesPractice/SN205.jpg","83","","","","test","true","N + M","83","","SN","SN205.jpg","remember","old","33","3","practice_forget","left","","","",""
"html-keyboard-response","84","385952","0.0-2.2-2.2-0.33","73rm9yuoam36occ","practice_no_cue","5d305152b2cfe00019231a2a","5f60e3c0a3b16e07647b2ff9","5f646a5410a242025cdb136c","false","null","<span style=""color: black; font-size: 48px"">N + M</span>","null","","","","resp_prompt","","","","","","","","","","","","","","","",""
"categorize-image","85","387110","0.0-2.2-2.2-1.33","73rm9yuoam36occ","practice_no_cue","5d305152b2cfe00019231a2a","5f60e3c0a3b16e07647b2ff9","5f646a5410a242025cdb136c","true","651.8100000685081","./Stimuli/ImagesPractice/SM98.jpg","76","","","","test","true","N + M","76","","SM","SM98.jpg","remember","old","34","3","practice_forget","right","","","",""
"html-keyboard-response","86","387819","0.0-2.2-2.2-0.34","73rm9yuoam36occ","practice_no_cue","5d305152b2cfe00019231a2a","5f60e3c0a3b16e07647b2ff9","5f646a5410a242025cdb136c","false","null","<span style=""color: black; font-size: 48px"">M + N</span>","null","","","","resp_prompt","","","","","","","","","","","","","","","",""
"categorize-image","87","389079","0.0-2.2-2.2-1.34","73rm9yuoam36occ","practice_no_cue","5d305152b2cfe00019231a2a","5f60e3c0a3b16e07647b2ff9","5f646a5410a242025cdb136c","true","747.3250000039116","./Stimuli/ImagesPractice/SN75.jpg","83","","","","test","false","M + N","76","","SN","SN75.jpg","forget","old","35","3","practice_forget","left","","","",""
"html-keyboard-response","88","389782","0.0-2.2-2.2-0.35","73rm9yuoam36occ","practice_no_cue","5d305152b2cfe00019231a2a","5f60e3c0a3b16e07647b2ff9","5f646a5410a242025cdb136c","false","null","<span style=""color: black; font-size: 48px"">M + N</span>","null","","","","resp_prompt","","","","","","","","","","","","","","","",""
"categorize-image","89","391467","0.0-2.2-2.2-1.35","73rm9yuoam36occ","practice_no_cue","5d305152b2cfe00019231a2a","5f60e3c0a3b16e07647b2ff9","5f646a5410a242025cdb136c","true","1176.5000000596046","./Stimuli/ImagesPractice/SM61.jpg","76","","","","test","false","M + N","83","","SM","SM61.jpg","remember","old","36","3","practice_forget","right","","","",""
"html-keyboard-response","90","392174","0.0-2.2-2.2-0.36","73rm9yuoam36occ","practice_no_cue","5d305152b2cfe00019231a2a","5f60e3c0a3b16e07647b2ff9","5f646a5410a242025cdb136c","false","null","<span style=""color: black; font-size: 48px"">N + M</span>","null","","","","resp_prompt","","","","","","","","","","","","","","","",""
"categorize-image","91","393488","0.0-2.2-2.2-1.36","73rm9yuoam36occ","practice_no_cue","5d305152b2cfe00019231a2a","5f60e3c0a3b16e07647b2ff9","5f646a5410a242025cdb136c","true","799.4549999712035","./Stimuli/ImagesPractice/LN109.jpg","76","","","","test","false","N + M","83","","LN","LN109.jpg","remember","old","37","3","practice_forget","right","","","",""
"html-keyboard-response","92","394197","0.0-2.2-2.2-0.37","73rm9yuoam36occ","practice_no_cue","5d305152b2cfe00019231a2a","5f60e3c0a3b16e07647b2ff9","5f646a5410a242025cdb136c","false","null","<span style=""color: black; font-size: 48px"">N + M</span>","null","","","","resp_prompt","","","","","","","","","","","","","","","",""
"categorize-image","93","395515","0.0-2.2-2.2-1.37","73rm9yuoam36occ","practice_no_cue","5d305152b2cfe00019231a2a","5f60e3c0a3b16e07647b2ff9","5f646a5410a242025cdb136c","true","800.844999961555","./Stimuli/ImagesPractice/SN220.jpg","83","","","","test","true","N + M","83","","SN","SN220.jpg","forget","old","38","3","practice_forget","left","","","",""
"html-keyboard-response","94","396219","0.0-2.2-2.2-0.38","73rm9yuoam36occ","practice_no_cue","5d305152b2cfe00019231a2a","5f60e3c0a3b16e07647b2ff9","5f646a5410a242025cdb136c","false","null","<span style=""color: black; font-size: 48px"">M + N</span>","null","","","","resp_prompt","","","","","","","","","","","","","","","",""
"categorize-image","95","397408","0.0-2.2-2.2-1.38","73rm9yuoam36occ","practice_no_cue","5d305152b2cfe00019231a2a","5f60e3c0a3b16e07647b2ff9","5f646a5410a242025cdb136c","true","665.3350000269711","./Stimuli/ImagesPractice/LN4.jpg","76","","","","test","true","M + N","76","","LN","LN4.jpg","forget","old","39","3","practice_forget","right","","","",""
"html-keyboard-response","96","398125","0.0-2.2-2.2-0.39","73rm9yuoam36occ","practice_no_cue","5d305152b2cfe00019231a2a","5f60e3c0a3b16e07647b2ff9","5f646a5410a242025cdb136c","false","null","<span style=""color: black; font-size: 48px"">N + M</span>","null","","","","resp_prompt","","","","","","","","","","","","","","","",""
"categorize-image","97","399418","0.0-2.2-2.2-1.39","73rm9yuoam36occ","practice_no_cue","5d305152b2cfe00019231a2a","5f60e3c0a3b16e07647b2ff9","5f646a5410a242025cdb136c","true","781.4649998908862","./Stimuli/ImagesPractice/LM147.jpg","76","","","","test","true","N + M","76","","LM","LM147.jpg","forget","old","40","3","practice_forget","right","","","",""
"html-keyboard-response","98","400132","0.0-2.2-2.2-0.40","73rm9yuoam36occ","practice_no_cue","5d305152b2cfe00019231a2a","5f60e3c0a3b16e07647b2ff9","5f646a5410a242025cdb136c","false","null","<span style=""color: black; font-size: 48px"">N + M</span>","null","","","","resp_prompt","","","","","","","","","","","","","","","",""
"categorize-image","99","401181","0.0-2.2-2.2-1.40","73rm9yuoam36occ","practice_no_cue","5d305152b2cfe00019231a2a","5f60e3c0a3b16e07647b2ff9","5f646a5410a242025cdb136c","true","528.0500000808388","./Stimuli/ImagesPractice/SM35.jpg","76","","","","test","true","N + M","76","","SM","SM35.jpg","remember","old","41","3","practice_forget","right","","","",""
"html-keyboard-response","100","401890","0.0-2.2-2.2-0.41","73rm9yuoam36occ","practice_no_cue","5d305152b2cfe00019231a2a","5f60e3c0a3b16e07647b2ff9","5f646a5410a242025cdb136c","false","null","<span style=""color: black; font-size: 48px"">M + N</span>","null","","","","resp_prompt","","","","","","","","","","","","","","","",""
"categorize-image","101","403225","0.0-2.2-2.2-1.41","73rm9yuoam36occ","practice_no_cue","5d305152b2cfe00019231a2a","5f60e3c0a3b16e07647b2ff9","5f646a5410a242025cdb136c","true","824.834999977611","./Stimuli/ImagesPractice/LN15.jpg","76","","","","test","true","M + N","76","","LN","LN15.jpg","remember","old","42","3","practice_forget","right","","","",""
"html-keyboard-response","102","403944","0.0-2.2-2.2-0.42","73rm9yuoam36occ","practice_no_cue","5d305152b2cfe00019231a2a","5f60e3c0a3b16e07647b2ff9","5f646a5410a242025cdb136c","false","null","<span style=""color: black; font-size: 48px"">M + N</span>","null","","","","resp_prompt","","","","","","","","","","","","","","","",""
"categorize-image","103","405129","0.0-2.2-2.2-1.42","73rm9yuoam36occ","practice_no_cue","5d305152b2cfe00019231a2a","5f60e3c0a3b16e07647b2ff9","5f646a5410a242025cdb136c","true","675.6900000618771","./Stimuli/ImagesPractice/LM230.jpg","76","","","","test","false","M + N","83","","LM","LM230.jpg","forget","old","43","3","practice_forget","right","","","",""
"html-keyboard-response","104","405833","0.0-2.2-2.2-0.43","73rm9yuoam36occ","practice_no_cue","5d305152b2cfe00019231a2a","5f60e3c0a3b16e07647b2ff9","5f646a5410a242025cdb136c","false","null","<span style=""color: black; font-size: 48px"">M + N</span>","null","","","","resp_prompt","","","","","","","","","","","","","","","",""
"categorize-image","105","406967","0.0-2.2-2.2-1.43","73rm9yuoam36occ","practice_no_cue","5d305152b2cfe00019231a2a","5f60e3c0a3b16e07647b2ff9","5f646a5410a242025cdb136c","true","629.4299999717623","./Stimuli/ImagesPractice/SM97.jpg","76","","","","test","false","M + N","83","","SM","SM97.jpg","forget","old","44","3","practice_forget","right","","","",""
"html-keyboard-response","106","407671","0.0-2.2-2.2-0.44","73rm9yuoam36occ","practice_no_cue","5d305152b2cfe00019231a2a","5f60e3c0a3b16e07647b2ff9","5f646a5410a242025cdb136c","false","null","<span style=""color: black; font-size: 48px"">N + M</span>","null","","","","resp_prompt","","","","","","","","","","","","","","","",""
"categorize-image","107","408856","0.0-2.2-2.2-1.44","73rm9yuoam36occ","practice_no_cue","5d305152b2cfe00019231a2a","5f60e3c0a3b16e07647b2ff9","5f646a5410a242025cdb136c","true","668.1350000435486","./Stimuli/ImagesPractice/SM37.jpg","76","","","","test","true","N + M","76","","SM","SM37.jpg","forget","old","45","3","practice_forget","right","","","",""
"html-keyboard-response","108","409569","0.0-2.2-2.2-0.45","73rm9yuoam36occ","practice_no_cue","5d305152b2cfe00019231a2a","5f60e3c0a3b16e07647b2ff9","5f646a5410a242025cdb136c","false","null","<span style=""color: black; font-size: 48px"">N + M</span>","null","","","","resp_prompt","","","","","","","","","","","","","","","",""
"categorize-image","109","410965","0.0-2.2-2.2-1.45","73rm9yuoam36occ","practice_no_cue","5d305152b2cfe00019231a2a","5f60e3c0a3b16e07647b2ff9","5f646a5410a242025cdb136c","true","889.2650000052527","./Stimuli/ImagesPractice/LN72.jpg","83","","","","test","true","N + M","83","","LN","LN72.jpg","forget","old","46","3","practice_forget","left","","","",""
"html-keyboard-response","110","411677","0.0-2.2-2.2-0.46","73rm9yuoam36occ","practice_no_cue","5d305152b2cfe00019231a2a","5f60e3c0a3b16e07647b2ff9","5f646a5410a242025cdb136c","false","null","<span style=""color: black; font-size: 48px"">M + N</span>","null","","","","resp_prompt","","","","","","","","","","","","","","","",""
"categorize-image","111","412853","0.0-2.2-2.2-1.46","73rm9yuoam36occ","practice_no_cue","5d305152b2cfe00019231a2a","5f60e3c0a3b16e07647b2ff9","5f646a5410a242025cdb136c","true","668.779999949038","./Stimuli/ImagesPractice/LN2.jpg","83","","","","test","false","M + N","76","","LN","LN2.jpg","remember","old","47","3","practice_forget","left","","","",""
"html-keyboard-response","112","413558","0.0-2.2-2.2-0.47","73rm9yuoam36occ","practice_no_cue","5d305152b2cfe00019231a2a","5f60e3c0a3b16e07647b2ff9","5f646a5410a242025cdb136c","false","null","<span style=""color: black; font-size: 48px"">M + N</span>","null","","","","resp_prompt","","","","","","","","","","","","","","","",""
"categorize-image","113","414640","0.0-2.2-2.2-1.47","73rm9yuoam36occ","practice_no_cue","5d305152b2cfe00019231a2a","5f60e3c0a3b16e07647b2ff9","5f646a5410a242025cdb136c","true","567.9200000595301","./Stimuli/ImagesPractice/SM62.jpg","76","","","","test","false","M + N","83","","SM","SM62.jpg","remember","old","48","3","practice_forget","right","","","",""
"html-keyboard-response","114","422493","0.0-2.2-3.2","73rm9yuoam36occ","break","5d305152b2cfe00019231a2a","5f60e3c0a3b16e07647b2ff9","5f646a5410a242025cdb136c","false","7847.18000004068","<p style='font-size: 32px;'>Break</><br><br><br><br><br><p style='font-size: 24px;'>In the last block, you committed 7 errors and did not respond in time on 0 trials.
</p><p style='font-size: 24px;'>Try to respond as fast and accurately as possible in the next block as well! </p><p style='font-size: 24px;'>Press SPACE to continue.</p>","32","","","","","","","","","","","","","","","","","","","",""
"html-keyboard-response","115","423624","0.0-2.2-4.2","73rm9yuoam36occ","instructions","5d305152b2cfe00019231a2a","5f60e3c0a3b16e07647b2ff9","5f646a5410a242025cdb136c","false","1126.5950000379235","<div align=left> Great!<br><br>Are you ready to continue?<br><br>If you want to reread the instructions and redo the practice trials, <br>please press „Z“. <br><br>Press SPACE to CONTINUE with the experiment when you are ready. </div>","90","","","","","","","","","","","","","","","","","","","",""
"html-keyboard-response","116","424416","0.0-2.3-0.3","73rm9yuoam36occ","instructions","5d305152b2cfe00019231a2a","5f60e3c0a3b16e07647b2ff9","5f646a5410a242025cdb136c","false","788.8550000498071","<div align=justify>You will classify the objects using the <strong>'S'</strong> and the <strong>'L'</strong> keys on your keyboard.<br>For doing so, please place your <strong>left index finger</strong> on the <strong>'S'</strong> key and place your <strong>right index finger</strong> on the <strong>'L'</strong> key. <br><br> Each trial starts with an instruction, indicating which key ('S'/'L') you need to press to classify <br>the object as mechanical (letter M) or non-mechanical (letter N).<br>The instruction <strong>M + N</strong> indicates that, in the current trial, by pressing the left key ('S') you classify the displayed object as mechanical (M) <br> and by pressing the right key ('L') you classify the object as non-mechanical (N). <br>The instruction <strong>N + M</strong> on the other hand indicates that by pressing the left key ('S') you classify the displayed object as non-mechanical (N) <br> and by pressing the right key ('L') you classify the object as mechanical (M). <br><br>Please press the key corresponding to the correct classification as fast as possible as soon as the object is displayed and try to avoid making mistakes.<br>If you do not respond within a 2 second window, a corresponding feedback will be displayed and the next trial will start.<br> The experiment is divided into multiple blocks to give you the opportunity to take a break after each block. <br>First, you can now practice this task. <br><br>Please place your <strong>LEFT INDEX FINGER</strong> on the 'S' key and your <strong>RIGHT INDEX FINGER</strong> on the 'L' key now. <br><br>Press SPACE to continue.</div>","32","","","","","","","","","","","","","","","","","","","",""
"html-keyboard-response","117","425413","0.0-2.3-1.3","73rm9yuoam36occ","instructions","5d305152b2cfe00019231a2a","5f60e3c0a3b16e07647b2ff9","5f646a5410a242025cdb136c","false","993.6299999244511","<div align=left> You will now have time to practice this task.<br><br>Remember: <br> <br><li>Please place your index fingers on the <strong>'S'</strong> and <strong>'L'</strong> keys <br>to respond as fast and accurately as possible.</li><li>Every picture can be classified as either mechanical or non-mechanical.</li><li>If you do not respond in time or commit an error, you will receive a corresponding feedback. </li><li> Please try to respond as <strong> fast </strong> and as <strong> accurately as possible </strong> .<br><li>To ensure optimal results, please minimize distractions and stay focused. </li><br><br>Press SPACE to continue.</div>","32","","","","","","","","","","","","","","","","","","","",""
"html-keyboard-response","118","426129","0.0-2.3-2.3-0.48","73rm9yuoam36occ","practice_no_cue","5d305152b2cfe00019231a2a","5f60e3c0a3b16e07647b2ff9","5f646a5410a242025cdb136c","false","null","<span style=""color: black; font-size: 48px"">M + N</span>","null","","","","resp_prompt","","","","","","","","","","","","","","","",""
"categorize-image","119","427833","0.0-2.3-2.3-1.48","73rm9yuoam36occ","practice_no_cue","5d305152b2cfe00019231a2a","5f60e3c0a3b16e07647b2ff9","5f646a5410a242025cdb136c","true","1191.8900000164285","./Stimuli/ImagesPractice/LM230.jpg","76","","","","test","false","M + N","83","","LM","LM230.jpg","forget","old","49","4","practice_forget","right","","","",""
"html-keyboard-response","120","428548","0.0-2.3-2.3-0.49","73rm9yuoam36occ","practice_no_cue","5d305152b2cfe00019231a2a","5f60e3c0a3b16e07647b2ff9","5f646a5410a242025cdb136c","false","null","<span style=""color: black; font-size: 48px"">N + M</span>","null","","","","resp_prompt","","","","","","","","","","","","","","","",""
"categorize-image","121","429856","0.0-2.3-2.3-1.49","73rm9yuoam36occ","practice_no_cue","5d305152b2cfe00019231a2a","5f60e3c0a3b16e07647b2ff9","5f646a5410a242025cdb136c","true","786.6699999431148","./Stimuli/ImagesPractice/SN220.jpg","83","","","","test","true","N + M","83","","SN","SN220.jpg","forget","old","50","4","practice_forget","left","","","",""
"html-keyboard-response","122","430568","0.0-2.3-2.3-0.50","73rm9yuoam36occ","practice_no_cue","5d305152b2cfe00019231a2a","5f60e3c0a3b16e07647b2ff9","5f646a5410a242025cdb136c","false","null","<span style=""color: black; font-size: 48px"">N + M</span>","null","","","","resp_prompt","","","","","","","","","","","","","","","",""
"categorize-image","123","431780","0.0-2.3-2.3-1.50","73rm9yuoam36occ","practice_no_cue","5d305152b2cfe00019231a2a","5f60e3c0a3b16e07647b2ff9","5f646a5410a242025cdb136c","true","703.6300000036135","./Stimuli/ImagesPractice/SM98.jpg","76","","","","test","true","N + M","76","","SM","SM98.jpg","remember","old","51","4","practice_forget","right","","","",""
"html-keyboard-response","124","432484","0.0-2.3-2.3-0.51","73rm9yuoam36occ","practice_no_cue","5d305152b2cfe00019231a2a","5f60e3c0a3b16e07647b2ff9","5f646a5410a242025cdb136c","false","null","<span style=""color: black; font-size: 48px"">N + M</span>","null","","","","resp_prompt","","","","","","","","","","","","","","","",""
"categorize-image","125","433668","0.0-2.3-2.3-1.51","73rm9yuoam36occ","practice_no_cue","5d305152b2cfe00019231a2a","5f60e3c0a3b16e07647b2ff9","5f646a5410a242025cdb136c","true","667.7099999506027","./Stimuli/ImagesPractice/LM147.jpg","76","","","","test","true","N + M","76","","LM","LM147.jpg","forget","old","52","4","practice_forget","right","","","",""
"html-keyboard-response","126","434381","0.0-2.3-2.3-0.52","73rm9yuoam36occ","practice_no_cue","5d305152b2cfe00019231a2a","5f60e3c0a3b16e07647b2ff9","5f646a5410a242025cdb136c","false","null","<span style=""color: black; font-size: 48px"">M + N</span>","null","","","","resp_prompt","","","","","","","","","","","","","","","",""
"categorize-image","127","435625","0.0-2.3-2.3-1.52","73rm9yuoam36occ","practice_no_cue","5d305152b2cfe00019231a2a","5f60e3c0a3b16e07647b2ff9","5f646a5410a242025cdb136c","true","728.0500000342727","./Stimuli/ImagesPractice/SM62.jpg","83","","","","test","true","M + N","83","","SM","SM62.jpg","remember","old","53","4","practice_forget","left","","","",""
"html-keyboard-response","128","436339","0.0-2.3-2.3-0.53","73rm9yuoam36occ","practice_no_cue","5d305152b2cfe00019231a2a","5f60e3c0a3b16e07647b2ff9","5f646a5410a242025cdb136c","false","null","<span style=""color: black; font-size: 48px"">N + M</span>","null","","","","resp_prompt","","","","","","","","","","","","","","","",""
"categorize-image","129","437705","0.0-2.3-2.3-1.53","73rm9yuoam36occ","practice_no_cue","5d305152b2cfe00019231a2a","5f60e3c0a3b16e07647b2ff9","5f646a5410a242025cdb136c","true","854.0649999631569","./Stimuli/ImagesPractice/LN72.jpg","83","","","","test","true","N + M","83","","LN","LN72.jpg","forget","old","54","4","practice_forget","left","","","",""
"html-keyboard-response","130","438423","0.0-2.3-2.3-0.54","73rm9yuoam36occ","practice_no_cue","5d305152b2cfe00019231a2a","5f60e3c0a3b16e07647b2ff9","5f646a5410a242025cdb136c","false","null","<span style=""color: black; font-size: 48px"">N + M</span>","null","","","","resp_prompt","","","","","","","","","","","","","","","",""
"categorize-image","131","439539","0.0-2.3-2.3-1.54","73rm9yuoam36occ","practice_no_cue","5d305152b2cfe00019231a2a","5f60e3c0a3b16e07647b2ff9","5f646a5410a242025cdb136c","true","606.7349999211729","./Stimuli/ImagesPractice/SN205.jpg","83","","","","test","true","N + M","83","","SN","SN205.jpg","remember","old","55","4","practice_forget","left","","","",""
"html-keyboard-response","132","440257","0.0-2.3-2.3-0.55","73rm9yuoam36occ","practice_no_cue","5d305152b2cfe00019231a2a","5f60e3c0a3b16e07647b2ff9","5f646a5410a242025cdb136c","false","null","<span style=""color: black; font-size: 48px"">N + M</span>","null","","","","resp_prompt","","","","","","","","","","","","","","","",""
"categorize-image","133","441354","0.0-2.3-2.3-1.55","73rm9yuoam36occ","practice_no_cue","5d305152b2cfe00019231a2a","5f60e3c0a3b16e07647b2ff9","5f646a5410a242025cdb136c","true","586.6449999157339","./Stimuli/ImagesPractice/SM35.jpg","76","","","","test","true","N + M","76","","SM","SM35.jpg","remember","old","56","4","practice_forget","right","","","",""
"html-keyboard-response","134","442065","0.0-2.3-2.3-0.56","73rm9yuoam36occ","practice_no_cue","5d305152b2cfe00019231a2a","5f60e3c0a3b16e07647b2ff9","5f646a5410a242025cdb136c","false","null","<span style=""color: black; font-size: 48px"">M + N</span>","null","","","","resp_prompt","","","","","","","","","","","","","","","",""
"categorize-image","135","443394","0.0-2.3-2.3-1.56","73rm9yuoam36occ","practice_no_cue","5d305152b2cfe00019231a2a","5f60e3c0a3b16e07647b2ff9","5f646a5410a242025cdb136c","true","812.6149999443442","./Stimuli/ImagesPractice/SN75.jpg","83","","","","test","false","M + N","76","","SN","SN75.jpg","forget","old","57","4","practice_forget","left","","","",""
"html-keyboard-response","136","444111","0.0-2.3-2.3-0.57","73rm9yuoam36occ","practice_no_cue","5d305152b2cfe00019231a2a","5f60e3c0a3b16e07647b2ff9","5f646a5410a242025cdb136c","false","null","<span style=""color: black; font-size: 48px"">N + M</span>","null","","","","resp_prompt","","","","","","","","","","","","","","","",""
"categorize-image","137","445205","0.0-2.3-2.3-1.57","73rm9yuoam36occ","practice_no_cue","5d305152b2cfe00019231a2a","5f60e3c0a3b16e07647b2ff9","5f646a5410a242025cdb136c","true","579.9999999580905","./Stimuli/ImagesPractice/SM37.jpg","76","","","","test","true","N + M","76","","SM","SM37.jpg","forget","old","58","4","practice_forget","right","","","",""
"html-keyboard-response","138","445917","0.0-2.3-2.3-0.58","73rm9yuoam36occ","practice_no_cue","5d305152b2cfe00019231a2a","5f60e3c0a3b16e07647b2ff9","5f646a5410a242025cdb136c","false","null","<span style=""color: black; font-size: 48px"">M + N</span>","null","","","","resp_prompt","","","","","","","","","","","","","","","",""
"categorize-image","139","447127","0.0-2.3-2.3-1.58","73rm9yuoam36occ","practice_no_cue","5d305152b2cfe00019231a2a","5f60e3c0a3b16e07647b2ff9","5f646a5410a242025cdb136c","true","697.1149999881163","./Stimuli/ImagesPractice/SM97.jpg","76","","","","test","false","M + N","83","","SM","SM97.jpg","forget","old","59","4","practice_forget","right","","","",""
"html-keyboard-response","140","447833","0.0-2.3-2.3-0.59","73rm9yuoam36occ","practice_no_cue","5d305152b2cfe00019231a2a","5f60e3c0a3b16e07647b2ff9","5f646a5410a242025cdb136c","false","null","<span style=""color: black; font-size: 48px"">M + N</span>","null","","","","resp_prompt","","","","","","","","","","","","","","","",""
"categorize-image","141","448868","0.0-2.3-2.3-1.59","73rm9yuoam36occ","practice_no_cue","5d305152b2cfe00019231a2a","5f60e3c0a3b16e07647b2ff9","5f646a5410a242025cdb136c","true","520.9499999182299","./Stimuli/ImagesPractice/LN15.jpg","76","","","","test","true","M + N","76","","LN","LN15.jpg","remember","old","60","4","practice_forget","right","","","",""
"html-keyboard-response","142","449580","0.0-2.3-2.3-0.60","73rm9yuoam36occ","practice_no_cue","5d305152b2cfe00019231a2a","5f60e3c0a3b16e07647b2ff9","5f646a5410a242025cdb136c","false","null","<span style=""color: black; font-size: 48px"">N + M</span>","null","","","","resp_prompt","","","","","","","","","","","","","","","",""
"categorize-image","143","451008","0.0-2.3-2.3-1.60","73rm9yuoam36occ","practice_no_cue","5d305152b2cfe00019231a2a","5f60e3c0a3b16e07647b2ff9","5f646a5410a242025cdb136c","true","918.0850000120699","./Stimuli/ImagesPractice/LN109.jpg","83","","","","test","true","N + M","83","","LN","LN109.jpg","remember","old","61","4","practice_forget","left","","","",""
"html-keyboard-response","144","451727","0.0-2.3-2.3-0.61","73rm9yuoam36occ","practice_no_cue","5d305152b2cfe00019231a2a","5f60e3c0a3b16e07647b2ff9","5f646a5410a242025cdb136c","false","null","<span style=""color: black; font-size: 48px"">M + N</span>","null","","","","resp_prompt","","","","","","","","","","","","","","","",""
"categorize-image","145","453031","0.0-2.3-2.3-1.61","73rm9yuoam36occ","practice_no_cue","5d305152b2cfe00019231a2a","5f60e3c0a3b16e07647b2ff9","5f646a5410a242025cdb136c","true","789.504999993369","./Stimuli/ImagesPractice/SM61.jpg","83","","","","test","true","M + N","83","","SM","SM61.jpg","remember","old","62","4","practice_forget","left","","","",""
"html-keyboard-response","146","453750","0.0-2.3-2.3-0.62","73rm9yuoam36occ","practice_no_cue","5d305152b2cfe00019231a2a","5f60e3c0a3b16e07647b2ff9","5f646a5410a242025cdb136c","false","null","<span style=""color: black; font-size: 48px"">M + N</span>","null","","","","resp_prompt","","","","","","","","","","","","","","","",""
"categorize-image","147","454960","0.0-2.3-2.3-1.62","73rm9yuoam36occ","practice_no_cue","5d305152b2cfe00019231a2a","5f60e3c0a3b16e07647b2ff9","5f646a5410a242025cdb136c","true","702.1649999078363","./Stimuli/ImagesPractice/LN2.jpg","83","","","","test","false","M + N","76","","LN","LN2.jpg","remember","old","63","4","practice_forget","left","","","",""
"html-keyboard-response","148","455673","0.0-2.3-2.3-0.63","73rm9yuoam36occ","practice_no_cue","5d305152b2cfe00019231a2a","5f60e3c0a3b16e07647b2ff9","5f646a5410a242025cdb136c","false","null","<span style=""color: black; font-size: 48px"">M + N</span>","null","","","","resp_prompt","","","","","","","","","","","","","","","",""
"categorize-image","149","456759","0.0-2.3-2.3-1.63","73rm9yuoam36occ","practice_no_cue","5d305152b2cfe00019231a2a","5f60e3c0a3b16e07647b2ff9","5f646a5410a242025cdb136c","true","581.8250000011176","./Stimuli/ImagesPractice/LN4.jpg","76","","","","test","true","M + N","76","","LN","LN4.jpg","forget","old","64","4","practice_forget","right","","","",""
"html-keyboard-response","150","459367","0.0-2.3-3.3","73rm9yuoam36occ","break","5d305152b2cfe00019231a2a","5f60e3c0a3b16e07647b2ff9","5f646a5410a242025cdb136c","false","2602.50499995891","<p style='font-size: 32px;'>Break</><br><br><br><br><br><p style='font-size: 24px;'>In the last block, you committed 4 errors and did not respond in time on 0 trials.
</p><p style='font-size: 24px;'>Try to respond as fast and accurately as possible in the next block as well! </p><p style='font-size: 24px;'>Press SPACE to continue.</p>","32","","","","","","","","","","","","","","","","","","","",""
"html-keyboard-response","151","460080","0.0-2.3-4.3","73rm9yuoam36occ","instructions","5d305152b2cfe00019231a2a","5f60e3c0a3b16e07647b2ff9","5f646a5410a242025cdb136c","false","707.410000031814","<div align=left> Great!<br><br>Are you ready to continue?<br><br>If you want to reread the instructions and redo the practice trials, <br>please press „Z“. <br><br>Press SPACE to CONTINUE with the experiment when you are ready. </div>","32","","","","","","","","","","","","","","","","","","","",""
"html-keyboard-response","152","478208","0.0-3.0-0.0","73rm9yuoam36occ","instructions","5d305152b2cfe00019231a2a","5f60e3c0a3b16e07647b2ff9","5f646a5410a242025cdb136c","false","18124.494999996386","<div align=left>Great!<br> <strong>Attention</strong>! You will now receive a second, additional task! <br><br>To this point it was you <strong>first task</strong> to correctly <strong>classify objects</strong>. <br><br>As mentioned in the beginning, we aim to examine how well humans can remember previously learned information.<br>We would like to find out whether our memory improves if we only remember information that is relevant to us. <br><br>Therefore, your <strong>second task</strong> will be to <strong>remember</strong> the pictures you are to categorize. <br> After the learning phase, there will be a memory test phase, in which you will be asked to indicate whether you have seen a picture before or not. <br>Some, but not all pictures shown in the learning phase will appear in the memory test phase.<br>After classifying a picture, you will be told whether you should remember it for the memory test phase or not. <br>Thus, some pictures can be forgotten, whereas others have to be remembered. <br><br>Note: From now on, feedback will only be displayed if you responded incorrectly or not in time.<br><br>Press SPACE to continue.</div>","32","","","","","","","","","","","","","","","","","","","",""
"html-keyboard-response","153","494219","0.0-3.0-1.0","73rm9yuoam36occ","instructions","5d305152b2cfe00019231a2a","5f60e3c0a3b16e07647b2ff9","5f646a5410a242025cdb136c","false","16007.364999968559","<div align=left>In the following part, you will thus have to remember only some pictures. <br>Immediately after seeing and classifying the picture, a symbol will be displayed, indicating whether you should remember or forget the previous picture. <br><br>A <span style='color: dodgerblue; font-size: 28px'>O</span> indicates REMEMBER. That means, you have to remember this picture, because it will be tested later. <br><br>A <span style='color: darkorange; font-size:28px'>Ø</span> indicates FORGET. You do not have to remember this picture. <br><br> As you will have to remember a lot of pictures, it will be hard for you to remember all of them. <br>It will put you at an advantage if you instantly forget the pictures you are not asked to remember. <br> This will make it easier for you to remember the pictures that will be tested afterwards. <br><br>Press SPACE to continue.</div>","32","","","","","","","","","","","","","","","","","","","",""
"html-keyboard-response","154","509328","0.0-3.0-2.0","73rm9yuoam36occ","instructions","5d305152b2cfe00019231a2a","5f60e3c0a3b16e07647b2ff9","5f646a5410a242025cdb136c","false","15105.559999938123","<div align=left> Now you have the chance to practice both tasks together.<br><br>Remember: <br> <br><li>Please place your index fingers on the <strong>'S'</strong> and <strong>'L'</strong> keys <br>to respond as fast and accurately as possible.</li><li>Every picture can be classified as either mechanical or non-mechanical.</li><li>If you do not respond in time or commit an error, you will receive a corresponding feedback. <br>Please try to respond as <strong> fast </strong> and as <strong> accurately as possible </strong>.</li><li> Please remember only the to-be-remembered <span style='color: dodgerblue; font-size: 28px'>O</span> pictures. <br></li><li> Please minimize distractions and stay focused. </li><br><br>Press SPACE to START</div>","32","","","","","","","","","","","","","","","","","","","",""
"html-keyboard-response","155","510047","0.0-3.0-3.0-0.0","73rm9yuoam36occ","practice_cue","5d305152b2cfe00019231a2a","5f60e3c0a3b16e07647b2ff9","5f646a5410a242025cdb136c","false","null","<span style=""color: black; font-size: 48px"">M + N</span>","null","","","","resp_prompt","","","","","","","","","","","","","","","",""
"categorize-image","156","510750","0.0-3.0-3.0-1.0","73rm9yuoam36occ","practice_cue","5d305152b2cfe00019231a2a","5f60e3c0a3b16e07647b2ff9","5f646a5410a242025cdb136c","true","686.4549999590963","./Stimuli/ImagesPractice/SM61.jpg","83","","","","test","true","M + N","83","","SM","SM61.jpg","remember","old","65","5","practice_forget","left","","","",""
"html-keyboard-response","157","512756","0.0-3.0-3.0-3.0","73rm9yuoam36occ","practice_cue","5d305152b2cfe00019231a2a","5f60e3c0a3b16e07647b2ff9","5f646a5410a242025cdb136c","false","null","<div style=""align-items: center; display: flex; color: dodgerblue; font-size: 90px""><b>o</b></div>","null","","","","forget_cue","","","","","","","","","","","","","","","",""
"html-keyboard-response","158","513474","0.0-3.0-3.0-0.1","73rm9yuoam36occ","practice_cue","5d305152b2cfe00019231a2a","5f60e3c0a3b16e07647b2ff9","5f646a5410a242025cdb136c","false","null","<span style=""color: black; font-size: 48px"">N + M</span>","null","","","","resp_prompt","","","","","","","","","","","","","","","",""
"categorize-image","159","514530","0.0-3.0-3.0-1.1","73rm9yuoam36occ","practice_cue","5d305152b2cfe00019231a2a","5f60e3c0a3b16e07647b2ff9","5f646a5410a242025cdb136c","true","1046.6099999612197","./Stimuli/ImagesPractice/SM37.jpg","76","","","","test","true","N + M","76","","SM","SM37.jpg","forget","old","66","5","practice_forget","right","","","",""
"html-keyboard-response","160","516539","0.0-3.0-3.0-3.1","73rm9yuoam36occ","practice_cue","5d305152b2cfe00019231a2a","5f60e3c0a3b16e07647b2ff9","5f646a5410a242025cdb136c","false","null","<div style=""align-items: center; display: flex; color: darkorange; font-size: 90px""><b>ø</b></div>","null","","","","forget_cue","","","","","","","","","","","","","","","",""
"html-keyboard-response","161","517253","0.0-3.0-3.0-0.2","73rm9yuoam36occ","practice_cue","5d305152b2cfe00019231a2a","5f60e3c0a3b16e07647b2ff9","5f646a5410a242025cdb136c","false","null","<span style=""color: black; font-size: 48px"">M + N</span>","null","","","","resp_prompt","","","","","","","","","","","","","","","",""
"categorize-image","162","518331","0.0-3.0-3.0-1.2","73rm9yuoam36occ","practice_cue","5d305152b2cfe00019231a2a","5f60e3c0a3b16e07647b2ff9","5f646a5410a242025cdb136c","true","1071.1949999677017","./Stimuli/ImagesPractice/LN2.jpg","76","","","","test","true","M + N","76","","LN","LN2.jpg","remember","old","67","5","practice_forget","right","","","",""
"html-keyboard-response","163","520340","0.0-3.0-3.0-3.2","73rm9yuoam36occ","practice_cue","5d305152b2cfe00019231a2a","5f60e3c0a3b16e07647b2ff9","5f646a5410a242025cdb136c","false","null","<div style=""align-items: center; display: flex; color: dodgerblue; font-size: 90px""><b>o</b></div>","null","","","","forget_cue","","","","","","","","","","","","","","","",""
"html-keyboard-response","164","521049","0.0-3.0-3.0-0.3","73rm9yuoam36occ","practice_cue","5d305152b2cfe00019231a2a","5f60e3c0a3b16e07647b2ff9","5f646a5410a242025cdb136c","false","null","<span style=""color: black; font-size: 48px"">M + N</span>","null","","","","resp_prompt","","","","","","","","","","","","","","","",""
"categorize-image","165","521862","0.0-3.0-3.0-1.3","73rm9yuoam36occ","practice_cue","5d305152b2cfe00019231a2a","5f60e3c0a3b16e07647b2ff9","5f646a5410a242025cdb136c","true","804.535000002943","./Stimuli/ImagesPractice/LN4.jpg","76","","","","test","true","M + N","76","","LN","LN4.jpg","forget","old","68","5","practice_forget","right","","","",""
"html-keyboard-response","166","523867","0.0-3.0-3.0-3.3","73rm9yuoam36occ","practice_cue","5d305152b2cfe00019231a2a","5f60e3c0a3b16e07647b2ff9","5f646a5410a242025cdb136c","false","null","<div style=""align-items: center; display: flex; color: darkorange; font-size: 90px""><b>ø</b></div>","null","","","","forget_cue","","","","","","","","","","","","","","","",""
"html-keyboard-response","167","524578","0.0-3.0-3.0-0.4","73rm9yuoam36occ","practice_cue","5d305152b2cfe00019231a2a","5f60e3c0a3b16e07647b2ff9","5f646a5410a242025cdb136c","false","null","<span style=""color: black; font-size: 48px"">M + N</span>","null","","","","resp_prompt","","","","","","","","","","","","","","","",""
"categorize-image","168","525371","0.0-3.0-3.0-1.4","73rm9yuoam36occ","practice_cue","5d305152b2cfe00019231a2a","5f60e3c0a3b16e07647b2ff9","5f646a5410a242025cdb136c","true","783.6250000400469","./Stimuli/ImagesPractice/LN15.jpg","76","","","","test","true","M + N","76","","LN","LN15.jpg","remember","old","69","5","practice_forget","right","","","",""
"html-keyboard-response","169","527380","0.0-3.0-3.0-3.4","73rm9yuoam36occ","practice_cue","5d305152b2cfe00019231a2a","5f60e3c0a3b16e07647b2ff9","5f646a5410a242025cdb136c","false","null","<div style=""align-items: center; display: flex; color: dodgerblue; font-size: 90px""><b>o</b></div>","null","","","","forget_cue","","","","","","","","","","","","","","","",""
"html-keyboard-response","170","528093","0.0-3.0-3.0-0.5","73rm9yuoam36occ","practice_cue","5d305152b2cfe00019231a2a","5f60e3c0a3b16e07647b2ff9","5f646a5410a242025cdb136c","false","null","<span style=""color: black; font-size: 48px"">N + M</span>","null","","","","resp_prompt","","","","","","","","","","","","","","","",""
"categorize-image","171","529514","0.0-3.0-3.0-1.5","73rm9yuoam36occ","practice_cue","5d305152b2cfe00019231a2a","5f60e3c0a3b16e07647b2ff9","5f646a5410a242025cdb136c","true","1410.7899999944493","./Stimuli/ImagesPractice/SN220.jpg","83","","","","test","true","N + M","83","","SN","SN220.jpg","forget","old","70","5","practice_forget","left","","","",""
"html-keyboard-response","172","531526","0.0-3.0-3.0-3.5","73rm9yuoam36occ","practice_cue","5d305152b2cfe00019231a2a","5f60e3c0a3b16e07647b2ff9","5f646a5410a242025cdb136c","false","null","<div style=""align-items: center; display: flex; color: darkorange; font-size: 90px""><b>ø</b></div>","null","","","","forget_cue","","","","","","","","","","","","","","","",""
"html-keyboard-response","173","532236","0.0-3.0-3.0-0.6","73rm9yuoam36occ","practice_cue","5d305152b2cfe00019231a2a","5f60e3c0a3b16e07647b2ff9","5f646a5410a242025cdb136c","false","null","<span style=""color: black; font-size: 48px"">M + N</span>","null","","","","resp_prompt","","","","","","","","","","","","","","","",""
"categorize-image","174","533821","0.0-3.0-3.0-1.6","73rm9yuoam36occ","practice_cue","5d305152b2cfe00019231a2a","5f60e3c0a3b16e07647b2ff9","5f646a5410a242025cdb136c","true","1575.8849999401718","./Stimuli/ImagesPractice/SN75.jpg","76","","","","test","true","M + N","76","","SN","SN75.jpg","forget","old","71","5","practice_forget","right","","","",""
"html-keyboard-response","175","535840","0.0-3.0-3.0-3.6","73rm9yuoam36occ","practice_cue","5d305152b2cfe00019231a2a","5f60e3c0a3b16e07647b2ff9","5f646a5410a242025cdb136c","false","null","<div style=""align-items: center; display: flex; color: darkorange; font-size: 90px""><b>ø</b></div>","null","","","","forget_cue","","","","","","","","","","","","","","","",""
"html-keyboard-response","176","536557","0.0-3.0-3.0-0.7","73rm9yuoam36occ","practice_cue","5d305152b2cfe00019231a2a","5f60e3c0a3b16e07647b2ff9","5f646a5410a242025cdb136c","false","null","<span style=""color: black; font-size: 48px"">M + N</span>","null","","","","resp_prompt","","","","","","","","","","","","","","","",""
"categorize-image","177","537876","0.0-3.0-3.0-1.7","73rm9yuoam36occ","practice_cue","5d305152b2cfe00019231a2a","5f60e3c0a3b16e07647b2ff9","5f646a5410a242025cdb136c","true","1303.8649999070913","./Stimuli/ImagesPractice/SM62.jpg","83","","","","test","true","M + N","83","","SM","SM62.jpg","remember","old","72","5","practice_forget","left","","","",""
"html-keyboard-response","178","539885","0.0-3.0-3.0-3.7","73rm9yuoam36occ","practice_cue","5d305152b2cfe00019231a2a","5f60e3c0a3b16e07647b2ff9","5f646a5410a242025cdb136c","false","null","<div style=""align-items: center; display: flex; color: dodgerblue; font-size: 90px""><b>o</b></div>","null","","","","forget_cue","","","","","","","","","","","","","","","",""
"html-keyboard-response","179","540596","0.0-3.0-3.0-0.8","73rm9yuoam36occ","practice_cue","5d305152b2cfe00019231a2a","5f60e3c0a3b16e07647b2ff9","5f646a5410a242025cdb136c","false","null","<span style=""color: black; font-size: 48px"">M + N</span>","null","","","","resp_prompt","","","","","","","","","","","","","","","",""
"categorize-image","180","541363","0.0-3.0-3.0-1.8","73rm9yuoam36occ","practice_cue","5d305152b2cfe00019231a2a","5f60e3c0a3b16e07647b2ff9","5f646a5410a242025cdb136c","true","755.1199999870732","./Stimuli/ImagesPractice/SM97.jpg","83","","","","test","true","M + N","83","","SM","SM97.jpg","forget","old","73","5","practice_forget","left","","","",""
"html-keyboard-response","181","543380","0.0-3.0-3.0-3.8","73rm9yuoam36occ","practice_cue","5d305152b2cfe00019231a2a","5f60e3c0a3b16e07647b2ff9","5f646a5410a242025cdb136c","false","null","<div style=""align-items: center; display: flex; color: darkorange; font-size: 90px""><b>ø</b></div>","null","","","","forget_cue","","","","","","","","","","","","","","","",""
"html-keyboard-response","182","544089","0.0-3.0-3.0-0.9","73rm9yuoam36occ","practice_cue","5d305152b2cfe00019231a2a","5f60e3c0a3b16e07647b2ff9","5f646a5410a242025cdb136c","false","null","<span style=""color: black; font-size: 48px"">N + M</span>","null","","","","resp_prompt","","","","","","","","","","","","","","","",""
"categorize-image","183","544930","0.0-3.0-3.0-1.9","73rm9yuoam36occ","practice_cue","5d305152b2cfe00019231a2a","5f60e3c0a3b16e07647b2ff9","5f646a5410a242025cdb136c","true","832.0950000779703","./Stimuli/ImagesPractice/LN72.jpg","83","","","","test","true","N + M","83","","LN","LN72.jpg","forget","old","74","5","practice_forget","left","","","",""
"html-keyboard-response","184","546943","0.0-3.0-3.0-3.9","73rm9yuoam36occ","practice_cue","5d305152b2cfe00019231a2a","5f60e3c0a3b16e07647b2ff9","5f646a5410a242025cdb136c","false","null","<div style=""align-items: center; display: flex; color: darkorange; font-size: 90px""><b>ø</b></div>","null","","","","forget_cue","","","","","","","","","","","","","","","",""
"html-keyboard-response","185","547666","0.0-3.0-3.0-0.10","73rm9yuoam36occ","practice_cue","5d305152b2cfe00019231a2a","5f60e3c0a3b16e07647b2ff9","5f646a5410a242025cdb136c","false","null","<span style=""color: black; font-size: 48px"">N + M</span>","null","","","","resp_prompt","","","","","","","","","","","","","","","",""
"categorize-image","186","548416","0.0-3.0-3.0-1.10","73rm9yuoam36occ","practice_cue","5d305152b2cfe00019231a2a","5f60e3c0a3b16e07647b2ff9","5f646a5410a242025cdb136c","true","737.8200000384822","./Stimuli/ImagesPractice/SM98.jpg","76","","","","test","true","N + M","76","","SM","SM98.jpg","remember","old","75","5","practice_forget","right","","","",""
"html-keyboard-response","187","550425","0.0-3.0-3.0-3.10","73rm9yuoam36occ","practice_cue","5d305152b2cfe00019231a2a","5f60e3c0a3b16e07647b2ff9","5f646a5410a242025cdb136c","false","null","<div style=""align-items: center; display: flex; color: dodgerblue; font-size: 90px""><b>o</b></div>","null","","","","forget_cue","","","","","","","","","","","","","","","",""
"html-keyboard-response","188","551136","0.0-3.0-3.0-0.11","73rm9yuoam36occ","practice_cue","5d305152b2cfe00019231a2a","5f60e3c0a3b16e07647b2ff9","5f646a5410a242025cdb136c","false","null","<span style=""color: black; font-size: 48px"">N + M</span>","null","","","","resp_prompt","","","","","","","","","","","","","","","",""
"categorize-image","189","551986","0.0-3.0-3.0-1.11","73rm9yuoam36occ","practice_cue","5d305152b2cfe00019231a2a","5f60e3c0a3b16e07647b2ff9","5f646a5410a242025cdb136c","true","839.4600000465289","./Stimuli/ImagesPractice/SM35.jpg","76","","","","test","true","N + M","76","","SM","SM35.jpg","remember","old","76","5","practice_forget","right","","","",""
"html-keyboard-response","190","553997","0.0-3.0-3.0-3.11","73rm9yuoam36occ","practice_cue","5d305152b2cfe00019231a2a","5f60e3c0a3b16e07647b2ff9","5f646a5410a242025cdb136c","false","null","<div style=""align-items: center; display: flex; color: dodgerblue; font-size: 90px""><b>o</b></div>","null","","","","forget_cue","","","","","","","","","","","","","","","",""
"html-keyboard-response","191","554707","0.0-3.0-3.0-0.12","73rm9yuoam36occ","practice_cue","5d305152b2cfe00019231a2a","5f60e3c0a3b16e07647b2ff9","5f646a5410a242025cdb136c","false","null","<span style=""color: black; font-size: 48px"">N + M</span>","null","","","","resp_prompt","","","","","","","","","","","","","","","",""
"categorize-image","192","555494","0.0-3.0-3.0-1.12","73rm9yuoam36occ","practice_cue","5d305152b2cfe00019231a2a","5f60e3c0a3b16e07647b2ff9","5f646a5410a242025cdb136c","true","772.2300000023097","./Stimuli/ImagesPractice/SN205.jpg","83","","","","test","true","N + M","83","","SN","SN205.jpg","remember","old","77","5","practice_forget","left","","","",""
"html-keyboard-response","193","557508","0.0-3.0-3.0-3.12","73rm9yuoam36occ","practice_cue","5d305152b2cfe00019231a2a","5f60e3c0a3b16e07647b2ff9","5f646a5410a242025cdb136c","false","null","<div style=""align-items: center; display: flex; color: dodgerblue; font-size: 90px""><b>o</b></div>","null","","","","forget_cue","","","","","","","","","","","","","","","",""
"html-keyboard-response","194","558217","0.0-3.0-3.0-0.13","73rm9yuoam36occ","practice_cue","5d305152b2cfe00019231a2a","5f60e3c0a3b16e07647b2ff9","5f646a5410a242025cdb136c","false","null","<span style=""color: black; font-size: 48px"">N + M</span>","null","","","","resp_prompt","","","","","","","","","","","","","","","",""
"categorize-image","195","558990","0.0-3.0-3.0-1.13","73rm9yuoam36occ","practice_cue","5d305152b2cfe00019231a2a","5f60e3c0a3b16e07647b2ff9","5f646a5410a242025cdb136c","true","763.6150000616908","./Stimuli/ImagesPractice/LM147.jpg","76","","","","test","true","N + M","76","","LM","LM147.jpg","forget","old","78","5","practice_forget","right","","","",""
"html-keyboard-response","196","561000","0.0-3.0-3.0-3.13","73rm9yuoam36occ","practice_cue","5d305152b2cfe00019231a2a","5f60e3c0a3b16e07647b2ff9","5f646a5410a242025cdb136c","false","null","<div style=""align-items: center; display: flex; color: darkorange; font-size: 90px""><b>ø</b></div>","null","","","","forget_cue","","","","","","","","","","","","","","","",""
"html-keyboard-response","197","561712","0.0-3.0-3.0-0.14","73rm9yuoam36occ","practice_cue","5d305152b2cfe00019231a2a","5f60e3c0a3b16e07647b2ff9","5f646a5410a242025cdb136c","false","null","<span style=""color: black; font-size: 48px"">M + N</span>","null","","","","resp_prompt","","","","","","","","","","","","","","","",""
"categorize-image","198","562536","0.0-3.0-3.0-1.14","73rm9yuoam36occ","practice_cue","5d305152b2cfe00019231a2a","5f60e3c0a3b16e07647b2ff9","5f646a5410a242025cdb136c","true","812.4899999238551","./Stimuli/ImagesPractice/LM230.jpg","83","","","","test","true","M + N","83","","LM","LM230.jpg","forget","old","79","5","practice_forget","left","","","",""
"html-keyboard-response","199","564541","0.0-3.0-3.0-3.14","73rm9yuoam36occ","practice_cue","5d305152b2cfe00019231a2a","5f60e3c0a3b16e07647b2ff9","5f646a5410a242025cdb136c","false","null","<div style=""align-items: center; display: flex; color: darkorange; font-size: 90px""><b>ø</b></div>","null","","","","forget_cue","","","","","","","","","","","","","","","",""
"html-keyboard-response","200","565256","0.0-3.0-3.0-0.15","73rm9yuoam36occ","practice_cue","5d305152b2cfe00019231a2a","5f60e3c0a3b16e07647b2ff9","5f646a5410a242025cdb136c","false","null","<span style=""color: black; font-size: 48px"">N + M</span>","null","","","","resp_prompt","","","","","","","","","","","","","","","",""
"categorize-image","201","565963","0.0-3.0-3.0-1.15","73rm9yuoam36occ","practice_cue","5d305152b2cfe00019231a2a","5f60e3c0a3b16e07647b2ff9","5f646a5410a242025cdb136c","true","699.5749999769032","./Stimuli/ImagesPractice/LN109.jpg","83","","","","test","true","N + M","83","","LN","LN109.jpg","remember","old","80","5","practice_forget","left","","","",""
"html-keyboard-response","202","567976","0.0-3.0-3.0-3.15","73rm9yuoam36occ","practice_cue","5d305152b2cfe00019231a2a","5f60e3c0a3b16e07647b2ff9","5f646a5410a242025cdb136c","false","null","<div style=""align-items: center; display: flex; color: dodgerblue; font-size: 90px""><b>o</b></div>","null","","","","forget_cue","","","","","","","","","","","","","","","",""
"html-keyboard-response","203","596757","0.0-3.0-4.0","73rm9yuoam36occ","break","5d305152b2cfe00019231a2a","5f60e3c0a3b16e07647b2ff9","5f646a5410a242025cdb136c","false","28776.780000072904","<p style='font-size: 32px;'>Break</><br><br><br><br><br><p style='font-size: 24px;'>In the last block, you committed 0 errors and did not respond in time on 0 trials.
</p><p style='font-size: 24px;'>Try to respond as fast and accurately as possible in the next block as well! </p><p style='font-size: 24px;'>Press SPACE to continue.</p>","32","","","","","","","","","","","","","","","","","","","",""
"html-keyboard-response","204","598484","0.0-3.0-5.0","73rm9yuoam36occ","instructions","5d305152b2cfe00019231a2a","5f60e3c0a3b16e07647b2ff9","5f646a5410a242025cdb136c","false","1723.8150000339374","<div align=left> Now, to practice, we kindly ask you to remember as many of the to-be-remembered pictures<br>of the previous learning phase as possible.<br><br>The pictures you were instructed to remember were the pictures followed by a <span style='color: dodgerblue; font-size: 28px'>O</span>.<br><br>In this memory test phase, you will also see some new pictures.<br>It is your task to remember whether you were presented with this specific picture in this study so far or not.<br>If you recognize an object (you have already seen it in this study), it is an OLD object. <br>If you do not recognize an object (you have NOT seen it in this study), it is a NEW object. <br><strong> Attention</strong>: As already mentioned, <span style='color: darkorange; font-size:28px'>Ø</span>-pictures will <strong>never</strong> appear in this memory test (neither as new objects). <br><br>Press SPACE to continue. </div>","32","","","","","","","","","","","","","","","","","","","",""
"html-keyboard-response","205","608589","0.0-3.0-6.0","73rm9yuoam36occ","instructions","5d305152b2cfe00019231a2a","5f60e3c0a3b16e07647b2ff9","5f646a5410a242025cdb136c","false","10100.329999928363","<div align=left> M and N no longer will appear on the left/right of the fixation cross. <br>Instead there will be a note at the bottom of the left or right side  <br>indicating which key you should press for an old or new object:  <br> <br>Press the <strong>right</strong> key to classify an object as <strong>old</strong> and press the <strong>left</strong>, to classify an object as <strong>new</strong>.<br>Please classify the objects as new/old by again placing your index finger on the 'S' and 'L' keys <br>and press them accordingly.<br><br><strong>Old:</strong> This object has been presented before. <br><strong>New:</strong> This object has <strong>not</strong> been presented.<br><br>Now please put your right and left index fingers on the 'S' and 'L' keys of your keyboard. <br>Please respond as fast and as accurately as possible!<br><br>Press SPACE to continue. </div>","32","","","","","","","","","","","","","","","","","","","",""
"categorize-image","206","612439","0.0-3.0-7.0-0.0","73rm9yuoam36occ","practice_recog","5d305152b2cfe00019231a2a","5f60e3c0a3b16e07647b2ff9","5f646a5410a242025cdb136c","true","3327.169999945909","./Stimuli/ImagesPractice/SN205.jpg","76","","","","test","true","","76","","SN","SN205.jpg","","old","81","6","practice_recog","right","","","",""
"categorize-image","207","613896","0.0-3.0-7.0-0.1","73rm9yuoam36occ","practice_recog","5d305152b2cfe00019231a2a","5f60e3c0a3b16e07647b2ff9","5f646a5410a242025cdb136c","true","931.1600000364706","./Stimuli/ImagesPractice/LN15.jpg","76","","","","test","true","","76","","LN","LN15.jpg","","old","82","6","practice_recog","right","","","",""
"categorize-image","208","615798","0.0-3.0-7.0-0.2","73rm9yuoam36occ","practice_recog","5d305152b2cfe00019231a2a","5f60e3c0a3b16e07647b2ff9","5f646a5410a242025cdb136c","true","1387.3400000156835","./Stimuli/ImagesPractice/LM143.jpg","83","","","","test","true","","83","","LM","LM143.jpg","","new","83","6","practice_recog","left","","","",""
"categorize-image","209","617245","0.0-3.0-7.0-0.3","73rm9yuoam36occ","practice_recog","5d305152b2cfe00019231a2a","5f60e3c0a3b16e07647b2ff9","5f646a5410a242025cdb136c","true","929.2999999597669","./Stimuli/ImagesPractice/SM98.jpg","76","","","","test","true","","76","","SM","SM98.jpg","","old","84","6","practice_recog","right","","","",""
"categorize-image","210","618990","0.0-3.0-7.0-0.4","73rm9yuoam36occ","practice_recog","5d305152b2cfe00019231a2a","5f60e3c0a3b16e07647b2ff9","5f646a5410a242025cdb136c","true","1241.924999980256","./Stimuli/ImagesPractice/LM55.jpg","83","","","","test","true","","83","","LM","LM55.jpg","","new","85","6","practice_recog","left","","","",""
"categorize-image","211","620413","0.0-3.0-7.0-0.5","73rm9yuoam36occ","practice_recog","5d305152b2cfe00019231a2a","5f60e3c0a3b16e07647b2ff9","5f646a5410a242025cdb136c","true","913.0499999737367","./Stimuli/ImagesPractice/LM239.jpg","83","","","","test","true","","83","","LM","LM239.jpg","","new","86","6","practice_recog","left","","","",""
"categorize-image","212","622125","0.0-3.0-7.0-0.6","73rm9yuoam36occ","practice_recog","5d305152b2cfe00019231a2a","5f60e3c0a3b16e07647b2ff9","5f646a5410a242025cdb136c","true","1192.0399999944493","./Stimuli/ImagesPractice/LN17.jpg","83","","","","test","true","","83","","LN","LN17.jpg","","new","87","6","practice_recog","left","","","",""
"categorize-image","213","623555","0.0-3.0-7.0-0.7","73rm9yuoam36occ","practice_recog","5d305152b2cfe00019231a2a","5f60e3c0a3b16e07647b2ff9","5f646a5410a242025cdb136c","true","913.6949999956414","./Stimuli/ImagesPractice/LM224.jpg","83","","","","test","true","","83","","LM","LM224.jpg","","new","88","6","practice_recog","left","","","",""
"categorize-image","214","625098","0.0-3.0-7.0-0.8","73rm9yuoam36occ","practice_recog","5d305152b2cfe00019231a2a","5f60e3c0a3b16e07647b2ff9","5f646a5410a242025cdb136c","true","1030.3850000491366","./Stimuli/ImagesPractice/SN221.jpg","83","","","","test","true","","83","","SN","SN221.jpg","","new","89","6","practice_recog","left","","","",""
"categorize-image","215","626716","0.0-3.0-7.0-0.9","73rm9yuoam36occ","practice_recog","5d305152b2cfe00019231a2a","5f60e3c0a3b16e07647b2ff9","5f646a5410a242025cdb136c","true","1099.460000055842","./Stimuli/ImagesPractice/LN2.jpg","76","","","","test","true","","76","","LN","LN2.jpg","","old","90","6","practice_recog","right","","","",""
"categorize-image","216","628679","0.0-3.0-7.0-0.10","73rm9yuoam36occ","practice_recog","5d305152b2cfe00019231a2a","5f60e3c0a3b16e07647b2ff9","5f646a5410a242025cdb136c","true","1447.2850000020117","./Stimuli/ImagesPractice/SM62.jpg","76","","","","test","true","","76","","SM","SM62.jpg","","old","91","6","practice_recog","right","","","",""
"categorize-image","217","630127","0.0-3.0-7.0-0.11","73rm9yuoam36occ","practice_recog","5d305152b2cfe00019231a2a","5f60e3c0a3b16e07647b2ff9","5f646a5410a242025cdb136c","true","937.1300000930205","./Stimuli/ImagesPractice/SN76.jpg","83","","","","test","true","","83","","SN","SN76.jpg","","new","92","6","practice_recog","left","","","",""
"categorize-image","218","631949","0.0-3.0-7.0-0.12","73rm9yuoam36occ","practice_recog","5d305152b2cfe00019231a2a","5f60e3c0a3b16e07647b2ff9","5f646a5410a242025cdb136c","true","1304.3049999978393","./Stimuli/ImagesPractice/SM61.jpg","76","","","","test","true","","76","","SM","SM61.jpg","","old","93","6","practice_recog","right","","","",""
"categorize-image","219","633187","0.0-3.0-7.0-0.13","73rm9yuoam36occ","practice_recog","5d305152b2cfe00019231a2a","5f60e3c0a3b16e07647b2ff9","5f646a5410a242025cdb136c","true","723.534999997355","./Stimuli/ImagesPractice/SM35.jpg","76","","","","test","true","","76","","SM","SM35.jpg","","old","94","6","practice_recog","right","","","",""
"categorize-image","220","634975","0.0-3.0-7.0-0.14","73rm9yuoam36occ","practice_recog","5d305152b2cfe00019231a2a","5f60e3c0a3b16e07647b2ff9","5f646a5410a242025cdb136c","true","1270.0300000142306","./Stimuli/ImagesPractice/SN222.jpg","83","","","","test","true","","83","","SN","SN222.jpg","","new","95","6","practice_recog","left","","","",""
"categorize-image","221","636297","0.0-3.0-7.0-0.15","73rm9yuoam36occ","practice_recog","5d305152b2cfe00019231a2a","5f60e3c0a3b16e07647b2ff9","5f646a5410a242025cdb136c","true","816.8999999761581","./Stimuli/ImagesPractice/LN109.jpg","76","","","","test","true","","76","","LN","LN109.jpg","","old","96","6","practice_recog","right","","","",""
"html-keyboard-response","222","644701","0.0-3.0-8.0","73rm9yuoam36occ","instructions","5d305152b2cfe00019231a2a","5f60e3c0a3b16e07647b2ff9","5f646a5410a242025cdb136c","false","8399.564999970607","<div align=left> Great!<br><br>Are you ready to continue?<br>If you want to reread the instructions and redo the practice trials, please <br>press „Z“.<br><br>You can proceed when you are ready.<br><br>After the presentation of each object, you will receive an instruction whether to <br>remember or to forget the object.<br>We will test your memory of the following pictures only at the very end of <br>the experiment after all learning blocks are completed. <br><br>Press SPACE to CONTINUE when you are ready. </div>","32","","","","","","","","","","","","","","","","","","","",""
"html-keyboard-response","223","647269","0.0-4.0-0.0","73rm9yuoam36occ","instructions","5d305152b2cfe00019231a2a","5f60e3c0a3b16e07647b2ff9","5f646a5410a242025cdb136c","false","2563.6950000189245","<div align=left> The actual experiment is about to start.<br>The practice trials are over!<br><br>Please always respond both fast and accurately!<br><br>Remember: <br> <br><li> Please place your index fingers on the <strong>'S'</strong> and <strong>'L'</strong> keys <br>to respond as fast and accurately as possible.</li><li> Every picture can be classified as either mechanical or non-mechanical.</li><li> If you do not respond in time or commit an error, you will receive a corresponding feedback.<br> Please try to respond as <strong> fast </strong> and as <strong> accurately as possible </strong>.</li><li> Remember the <span style='color: dodgerblue; font-size: 28px'>O</span> pictures. <br></li><li> Please minimize distractions and stay focused. </li><br><br>Press SPACE to START.</div>","32","","","","","","","","","","","","","","","","","","","",""
"html-keyboard-response","224","647985","0.0-4.0-1.0-0.0","73rm9yuoam36occ","prime","5d305152b2cfe00019231a2a","5f60e3c0a3b16e07647b2ff9","5f646a5410a242025cdb136c","false","null","<span style=""color: black; font-size: 48px"">M + N</span>","null","","","","resp_prompt","","","","","","","","","","","","","","","",""
"categorize-image","225","648873","0.0-4.0-1.0-1.0","73rm9yuoam36occ","prime","5d305152b2cfe00019231a2a","5f60e3c0a3b16e07647b2ff9","5f646a5410a242025cdb136c","true","876.1850000591949","./Stimuli/SelectedImages/LN/LN59.bmp","83","","","","test","false","M + N","76","repetition","LN","LN59.bmp","forget","","97","6","prime1","left","","","",""
"html-keyboard-response","226","649389","0.0-4.0-1.0-2.0-0.0","73rm9yuoam36occ","prime","5d305152b2cfe00019231a2a","5f60e3c0a3b16e07647b2ff9","5f646a5410a242025cdb136c","false","null","<span style=""color: red; font-size: 48px"">Error!</span>","null","","","","feedback","","","","","","","","","","","","","","","",""
"html-keyboard-response","227","651398","0.0-4.0-1.0-3.0","73rm9yuoam36occ","prime","5d305152b2cfe00019231a2a","5f60e3c0a3b16e07647b2ff9","5f646a5410a242025cdb136c","false","null","<div style=""align-items: center; display: flex; color: darkorange; font-size: 90px""><b>ø</b></div>","null","","","","forget_cue","","","","","","","","","","","","","","","",""
"html-keyboard-response","228","652116","0.0-4.0-1.0-0.1","73rm9yuoam36occ","prime","5d305152b2cfe00019231a2a","5f60e3c0a3b16e07647b2ff9","5f646a5410a242025cdb136c","false","null","<span style=""color: black; font-size: 48px"">N + M</span>","null","","","","resp_prompt","","","","","","","","","","","","","","","",""
"categorize-image","229","652917","0.0-4.0-1.0-1.1","73rm9yuoam36occ","prime","5d305152b2cfe00019231a2a","5f60e3c0a3b16e07647b2ff9","5f646a5410a242025cdb136c","true","791.5250000078231","./Stimuli/SelectedImages/LM/LM51.bmp","76","","","","test","true","N + M","76","switch","LM","LM51.bmp","remember","","98","6","prime1","right","","","",""
"html-keyboard-response","230","654924","0.0-4.0-1.0-3.1","73rm9yuoam36occ","prime","5d305152b2cfe00019231a2a","5f60e3c0a3b16e07647b2ff9","5f646a5410a242025cdb136c","false","null","<div style=""align-items: center; display: flex; color: dodgerblue; font-size: 90px""><b>o</b></div>","null","","","","forget_cue","","","","","","","","","","","","","","","",""
