"trial_type","trial_index","time_elapsed","internal_node_id","subject","exp_part","prolific_PID","study_ID","session_ID","use","rt","stimulus","key_press","button_pressed","responses","question_order","trial_part","correct","resp_map","correct_resp","probe_condition","category","image","forget_condition","list","trial_num","block_num","block","response","test_part","n_span","sequence","num_spaces"
"pavlovia","0","13","0.0-0.0","p53ptvde1njwm1j","","5f39969af06eda1376816f70","5f5a55364e9b770ed21874ff","5f60d79030a67d0598d60d12","false","","","","","","","","","","","","","","","","","","","","","","",""
"html-keyboard-response","1","16770","0.0-1.0-0.0-0.0","p53ptvde1njwm1j","welcome","5f39969af06eda1376816f70","5f5a55364e9b770ed21874ff","5f60d79030a67d0598d60d12","false","16751.035000000003","<div align=left>Dear participant, <br> thank you for participating in an online study of the Cognition, Action, and Sustainability Unit of the University of Freiburg! <br> <br>The aim of this study is to examine our ability to remember previously learned information. <br>Our goal is to find out, whether our memory improves, when we only remember information that is relevant to us. <br>The experiment will take about 30 minutes to complete. <br> <br>Please, note that you can only participate in this study if you are using a device with a keyboard (PC, Laptop etc.) <br>and not if you are using a mobile device such as a tablet or smartphone.<br> <br>Press 'SPACE' to proceed to the experiment. </div>","32","","","","","","","","","","","","","","","","","","","",""
"html-keyboard-response","2","46980","0.0-1.0-0.0-1.0","p53ptvde1njwm1j","welcome","5f39969af06eda1376816f70","5f5a55364e9b770ed21874ff","5f60d79030a67d0598d60d12","false","30205.319999999996","<div align=left><strong> Time Course of this experiment: </strong> <br><br> <strong> 1.</strong>  First, please fill in some information regarding your demographic data. <br><br> <strong> 2.</strong>  Next, your task will be to classify everyday objects. <br>In addition, you will be asked to remember certain objects and recall them later. <br>Working on these tasks requires your undivided attention and concentration.<br>It is therefore essential that you eliminate any sources of distraction in your  <br>environment and ensure that you will not be disturbed. <br><br><strong> 3.</strong>  At the end of the experiment, you will be asked to answer a few additional questions. <br> <br><strong> Important:</strong> After finishing the experiment, only close the browser window <br> by clicking on the 'end the experiment'-button when you are asked to do so. <br>Closing the browser window prematurely will make the allocation of your participation credit impossible. <br><br> Press 'SPACE' to start the experiment. </div>","32","","","","","","","","","","","","","","","","","","","",""
"html-button-response","3","58644","0.0-1.0-0.0-2.0","p53ptvde1njwm1j","welcome","5f39969af06eda1376816f70","5f5a55364e9b770ed21874ff","5f60d79030a67d0598d60d12","true","11658.669999999998","<div align=left><strong> Informed consent </strong>  <br>The aim of our research is to better understand human behavior and mental processes. <br>In the following study your behavior (e.g. choices, reaction times) will be studied. <br> <br><strong> Voluntariness and Anonymity </strong> <br>Your participation in this study is  <strong> voluntary</strong>.<br>You may withdraw your consent to participate at any time without providing a reason for doing so and without fear of prejudice. <br><br>As no personal data will be collected, <strong>your data and your person cannot be connected after data collection</strong> – the data-set is anonymous. <br>Respectively, deletion of your data will not be possible after data collection has been completed, as we cannot retrace your data-set.<br>The results and anonymized data collected in this study will be published as a scientific publication. <br>This will happen in an <strong>anonymized format</strong>, so that no data can be traced back to a specific person. <br> <br>The anonymized data of this study will be made available to other researchers and/or in a data archive on the Internet as a means of transparency and to enable subsequent re-use. By doing so, this study follows the recommendations of the Deutsche Forschungsgemeinschaft (DFG, German Research Foundation) and Deutsche Gesellschaft für Psychologie (DGPS, German Psychological Society) regarding quality assurance in research.<br>If you have any questions now or after the experiment, please contact our team (experiments@cs.uni-freiburg.de).<br><br><br>I hereby declare, that I understand the above described conditions of participation and I agree to participate under these conditions. <br><br> </div>","","0","","","","","","","","","","","","","","","","","","",""
"html-keyboard-response","4","81077","0.0-1.0-0.0-3.0","p53ptvde1njwm1j","welcome","5f39969af06eda1376816f70","5f5a55364e9b770ed21874ff","5f60d79030a67d0598d60d12","false","22427.084999999992","<div align=left><strong> General information concerning the experiment </strong>  <br> <br>Please follow the instructions:<ol> <li><strong> Do not leave this tab (your browser window) during the experiment and do not reload this tab! </strong>  <br>If you do switch tabs/windows during the experiment (to check your mail or visit another website, for example), <br>the experiment will end automatically and you will <strong>not receive credit</strong> for your participation. <br>Repeated participation or resumption of the experiment is impossible.</li> <br><li>Please close all other programs for the duration of your participation. </li> <br><li>Please mute or turn off your phone and put it out of your reach. </li> <br><li>Please also take off any disturbing accessories (such as wristwatches, bracelets, etc.). </li> <br><li>If you have music playing in the background, please turn it off now. </li> <br></ol>Thank you! <br>Press 'SPACE' to continue. </div>","32","","","","","","","","","","","","","","","","","","","",""
"survey-text","5","83293","0.0-1.0-1.0-0.0","p53ptvde1njwm1j","demographics","5f39969af06eda1376816f70","5f5a55364e9b770ed21874ff","5f60d79030a67d0598d60d12","true","2210.9850000000006","","","","{""age"":""18""}","","","","","","","","","","","","","","","","","",""
"survey-multi-choice","6","104635","0.0-1.0-1.0-1.0","p53ptvde1njwm1j","demographics","5f39969af06eda1376816f70","5f5a55364e9b770ed21874ff","5f60d79030a67d0598d60d12","true","21337.309999999998","","","","{""gender"":""female"",""school"":""high school"",""education"":""Still in training/ university""}","[0,1,2]","","","","","","","","","","","","","","","","",""
"survey-text","7","116108","0.0-1.0-1.0-2.0-0.0","p53ptvde1njwm1j","demographics","5f39969af06eda1376816f70","5f5a55364e9b770ed21874ff","5f60d79030a67d0598d60d12","true","11464.08000000003","","","","{""education_text"":""Medicine""}","","","","","","","","","","","","","","","","","",""
"html-keyboard-response","8","130141","0.0-1.0-2.0","p53ptvde1njwm1j","instructions","5f39969af06eda1376816f70","5f5a55364e9b770ed21874ff","5f60d79030a67d0598d60d12","false","14030.454999999973","<div align=left> The experiment is now about to start: <br> <br>In the following part, you will be presented pictures of everyday objects. <br>Your first task is to <strong>classify these objects. </strong> <br> <br> You will classify them either as mechanical or non-mechanical objects. <br> <br>Objects that include any kind of technical mechanism (for example, wheels, switches, levers, <br> electronic components) fall under the category of <strong>mechanical</strong> objects. <br>Only objects without any kind of technical mechanism should be classified as <strong>non-mechanical</strong>. <br><br>Press 'SPACE' to continue. </div>","32","","","","","","","","","","","","","","","","","","","",""
"html-keyboard-response","9","207348","0.0-2.0-0.0","p53ptvde1njwm1j","instructions","5f39969af06eda1376816f70","5f5a55364e9b770ed21874ff","5f60d79030a67d0598d60d12","false","77199.22999999998","<div align=justify>You will classify the objects using the <strong>'S'</strong> and the <strong>'L'</strong> keys on your keyboard.<br>For doing so, please place your <strong>left index finger</strong> on the <strong>'S'</strong> key and place your <strong>right index finger</strong> on the <strong>'L'</strong> key. <br><br> Each trial starts with an instruction, indicating which key ('S'/'L') you need to press to classify <br>the object as mechanical (letter M) or non-mechanical (letter N).<br>The instruction <strong>M + N</strong> indicates that, in the current trial, by pressing the left key ('S') you classify the displayed object as mechanical (M) <br> and by pressing the right key ('L') you classify the object as non-mechanical (N). <br>The instruction <strong>N + M</strong> on the other hand indicates that by pressing the left key ('S') you classify the displayed object as non-mechanical (N) <br> and by pressing the right key ('L') you classify the object as mechanical (M). <br><br>Please press the key corresponding to the correct classification as fast as possible as soon as the object is displayed and try to avoid making mistakes.<br>If you do not respond within a 2 second window, a corresponding feedback will be displayed and the next trial will start.<br> The experiment is divided into multiple blocks to give you the opportunity to take a break after each block. <br>First, you can now practice this task. <br><br>Please place your <strong>LEFT INDEX FINGER</strong> on the 'S' key and your <strong>RIGHT INDEX FINGER</strong> on the 'L' key now. <br><br>Press SPACE to continue.</div>","32","","","","","","","","","","","","","","","","","","","",""
"html-keyboard-response","10","216710","0.0-2.0-1.0","p53ptvde1njwm1j","instructions","5f39969af06eda1376816f70","5f5a55364e9b770ed21874ff","5f60d79030a67d0598d60d12","false","9359.779999999999","<div align=left> You will now have time to practice this task.<br><br>Remember: <br> <br><li>Please place your index fingers on the <strong>'S'</strong> and <strong>'L'</strong> keys <br>to respond as fast and accurately as possible.</li><li>Every picture can be classified as either mechanical or non-mechanical.</li><li>If you do not respond in time or commit an error, you will receive a corresponding feedback. </li><li> Please try to respond as <strong> fast </strong> and as <strong> accurately as possible </strong> .<br><li>To ensure optimal results, please minimize distractions and stay focused. </li><br><br>Press SPACE to continue.</div>","32","","","","","","","","","","","","","","","","","","","",""
"html-keyboard-response","11","217417","0.0-2.0-2.0-0.0","p53ptvde1njwm1j","practice_no_cue","5f39969af06eda1376816f70","5f5a55364e9b770ed21874ff","5f60d79030a67d0598d60d12","false","null","<span style=""color: black; font-size: 48px"">N + M</span>","null","","","","resp_prompt","","","","","","","","","","","","","","","",""
"categorize-image","12","219923","0.0-2.0-2.0-1.0","p53ptvde1njwm1j","practice_no_cue","5f39969af06eda1376816f70","5f5a55364e9b770ed21874ff","5f60d79030a67d0598d60d12","true","null","./Stimuli/ImagesPractice/LN2.jpg","null","","","","test","false","N + M","83","","LN","LN2.jpg","forget","old","1","1","start","too_slow","","","",""
"html-keyboard-response","13","220627","0.0-2.0-2.0-0.1","p53ptvde1njwm1j","practice_no_cue","5f39969af06eda1376816f70","5f5a55364e9b770ed21874ff","5f60d79030a67d0598d60d12","false","null","<span style=""color: black; font-size: 48px"">M + N</span>","null","","","","resp_prompt","","","","","","","","","","","","","","","",""
"categorize-image","14","221294","0.0-2.0-2.0-1.1","p53ptvde1njwm1j","practice_no_cue","5f39969af06eda1376816f70","5f5a55364e9b770ed21874ff","5f60d79030a67d0598d60d12","true","163.17999999999302","./Stimuli/ImagesPractice/LM239.jpg","83","","","","test","true","M + N","83","","LM","LM239.jpg","remember","old","2","1","start","left","","","",""
"html-keyboard-response","15","221998","0.0-2.0-2.0-0.2","p53ptvde1njwm1j","practice_no_cue","5f39969af06eda1376816f70","5f5a55364e9b770ed21874ff","5f60d79030a67d0598d60d12","false","null","<span style=""color: black; font-size: 48px"">M + N</span>","null","","","","resp_prompt","","","","","","","","","","","","","","","",""
"categorize-image","16","222918","0.0-2.0-2.0-1.2","p53ptvde1njwm1j","practice_no_cue","5f39969af06eda1376816f70","5f5a55364e9b770ed21874ff","5f60d79030a67d0598d60d12","true","417.58499999999185","./Stimuli/ImagesPractice/SN76.jpg","83","","","","test","false","M + N","76","","SN","SN76.jpg","remember","old","3","1","start","left","","","",""
"html-keyboard-response","17","223621","0.0-2.0-2.0-0.3","p53ptvde1njwm1j","practice_no_cue","5f39969af06eda1376816f70","5f5a55364e9b770ed21874ff","5f60d79030a67d0598d60d12","false","null","<span style=""color: black; font-size: 48px"">N + M</span>","null","","","","resp_prompt","","","","","","","","","","","","","","","",""
"categorize-image","18","224597","0.0-2.0-2.0-1.3","p53ptvde1njwm1j","practice_no_cue","5f39969af06eda1376816f70","5f5a55364e9b770ed21874ff","5f60d79030a67d0598d60d12","true","471.7050000000454","./Stimuli/ImagesPractice/LM147.jpg","76","","","","test","true","N + M","76","","LM","LM147.jpg","remember","old","4","1","start","right","","","",""
"html-keyboard-response","19","225303","0.0-2.0-2.0-0.4","p53ptvde1njwm1j","practice_no_cue","5f39969af06eda1376816f70","5f5a55364e9b770ed21874ff","5f60d79030a67d0598d60d12","false","null","<span style=""color: black; font-size: 48px"">M + N</span>","null","","","","resp_prompt","","","","","","","","","","","","","","","",""
"categorize-image","20","226516","0.0-2.0-2.0-1.4","p53ptvde1njwm1j","practice_no_cue","5f39969af06eda1376816f70","5f5a55364e9b770ed21874ff","5f60d79030a67d0598d60d12","true","708.125","./Stimuli/ImagesPractice/SM62.jpg","76","","","","test","false","M + N","83","","SM","SM62.jpg","forget","old","5","1","start","right","","","",""
"html-keyboard-response","21","227217","0.0-2.0-2.0-0.5","p53ptvde1njwm1j","practice_no_cue","5f39969af06eda1376816f70","5f5a55364e9b770ed21874ff","5f60d79030a67d0598d60d12","false","null","<span style=""color: black; font-size: 48px"">M + N</span>","null","","","","resp_prompt","","","","","","","","","","","","","","","",""
"categorize-image","22","229724","0.0-2.0-2.0-1.5","p53ptvde1njwm1j","practice_no_cue","5f39969af06eda1376816f70","5f5a55364e9b770ed21874ff","5f60d79030a67d0598d60d12","true","null","./Stimuli/ImagesPractice/LM143.jpg","null","","","","test","false","M + N","83","","LM","LM143.jpg","forget","old","6","1","start","too_slow","","","",""
"html-keyboard-response","23","230428","0.0-2.0-2.0-0.6","p53ptvde1njwm1j","practice_no_cue","5f39969af06eda1376816f70","5f5a55364e9b770ed21874ff","5f60d79030a67d0598d60d12","false","null","<span style=""color: black; font-size: 48px"">N + M</span>","null","","","","resp_prompt","","","","","","","","","","","","","","","",""
"categorize-image","24","231179","0.0-2.0-2.0-1.6","p53ptvde1njwm1j","practice_no_cue","5f39969af06eda1376816f70","5f5a55364e9b770ed21874ff","5f60d79030a67d0598d60d12","true","245.7150000000256","./Stimuli/ImagesPractice/LN72.jpg","76","","","","test","false","N + M","83","","LN","LN72.jpg","forget","old","7","1","start","right","","","",""
"html-keyboard-response","25","231881","0.0-2.0-2.0-0.7","p53ptvde1njwm1j","practice_no_cue","5f39969af06eda1376816f70","5f5a55364e9b770ed21874ff","5f60d79030a67d0598d60d12","false","null","<span style=""color: black; font-size: 48px"">N + M</span>","null","","","","resp_prompt","","","","","","","","","","","","","","","",""
"categorize-image","26","233313","0.0-2.0-2.0-1.7","p53ptvde1njwm1j","practice_no_cue","5f39969af06eda1376816f70","5f5a55364e9b770ed21874ff","5f60d79030a67d0598d60d12","true","925.9799999999814","./Stimuli/ImagesPractice/SM35.jpg","76","","","","test","true","N + M","76","","SM","SM35.jpg","forget","old","8","1","start","right","","","",""
"html-keyboard-response","27","234019","0.0-2.0-2.0-0.8","p53ptvde1njwm1j","practice_no_cue","5f39969af06eda1376816f70","5f5a55364e9b770ed21874ff","5f60d79030a67d0598d60d12","false","null","<span style=""color: black; font-size: 48px"">M + N</span>","null","","","","resp_prompt","","","","","","","","","","","","","","","",""
"categorize-image","28","235820","0.0-2.0-2.0-1.8","p53ptvde1njwm1j","practice_no_cue","5f39969af06eda1376816f70","5f5a55364e9b770ed21874ff","5f60d79030a67d0598d60d12","true","1295.3550000000396","./Stimuli/ImagesPractice/LN17.jpg","76","","","","test","true","M + N","76","","LN","LN17.jpg","remember","old","9","1","start","right","","","",""
"html-keyboard-response","29","236526","0.0-2.0-2.0-0.9","p53ptvde1njwm1j","practice_no_cue","5f39969af06eda1376816f70","5f5a55364e9b770ed21874ff","5f60d79030a67d0598d60d12","false","null","<span style=""color: black; font-size: 48px"">M + N</span>","null","","","","resp_prompt","","","","","","","","","","","","","","","",""
"categorize-image","30","238337","0.0-2.0-2.0-1.9","p53ptvde1njwm1j","practice_no_cue","5f39969af06eda1376816f70","5f5a55364e9b770ed21874ff","5f60d79030a67d0598d60d12","true","1308.8349999999919","./Stimuli/ImagesPractice/SM97.jpg","76","","","","test","false","M + N","83","","SM","SM97.jpg","forget","old","10","1","start","right","","","",""
"html-keyboard-response","31","239038","0.0-2.0-2.0-0.10","p53ptvde1njwm1j","practice_no_cue","5f39969af06eda1376816f70","5f5a55364e9b770ed21874ff","5f60d79030a67d0598d60d12","false","null","<span style=""color: black; font-size: 48px"">N + M</span>","null","","","","resp_prompt","","","","","","","","","","","","","","","",""
"categorize-image","32","240813","0.0-2.0-2.0-1.10","p53ptvde1njwm1j","practice_no_cue","5f39969af06eda1376816f70","5f5a55364e9b770ed21874ff","5f60d79030a67d0598d60d12","true","1268.5099999999802","./Stimuli/ImagesPractice/SM61.jpg","83","","","","test","false","N + M","76","","SM","SM61.jpg","remember","old","11","1","start","left","","","",""
"html-keyboard-response","33","241518","0.0-2.0-2.0-0.11","p53ptvde1njwm1j","practice_no_cue","5f39969af06eda1376816f70","5f5a55364e9b770ed21874ff","5f60d79030a67d0598d60d12","false","null","<span style=""color: black; font-size: 48px"">M + N</span>","null","","","","resp_prompt","","","","","","","","","","","","","","","",""
"categorize-image","34","242160","0.0-2.0-2.0-1.11","p53ptvde1njwm1j","practice_no_cue","5f39969af06eda1376816f70","5f5a55364e9b770ed21874ff","5f60d79030a67d0598d60d12","true","140.21000000005006","./Stimuli/ImagesPractice/LN15.jpg","76","","","","test","true","M + N","76","","LN","LN15.jpg","forget","old","12","1","start","right","","","",""
"html-keyboard-response","35","242862","0.0-2.0-2.0-0.12","p53ptvde1njwm1j","practice_no_cue","5f39969af06eda1376816f70","5f5a55364e9b770ed21874ff","5f60d79030a67d0598d60d12","false","null","<span style=""color: black; font-size: 48px"">N + M</span>","null","","","","resp_prompt","","","","","","","","","","","","","","","",""
"categorize-image","36","244579","0.0-2.0-2.0-1.12","p53ptvde1njwm1j","practice_no_cue","5f39969af06eda1376816f70","5f5a55364e9b770ed21874ff","5f60d79030a67d0598d60d12","true","1211.149999999965","./Stimuli/ImagesPractice/SN222.jpg","83","","","","test","true","N + M","83","","SN","SN222.jpg","remember","old","13","1","start","left","","","",""
"html-keyboard-response","37","245281","0.0-2.0-2.0-0.13","p53ptvde1njwm1j","practice_no_cue","5f39969af06eda1376816f70","5f5a55364e9b770ed21874ff","5f60d79030a67d0598d60d12","false","null","<span style=""color: black; font-size: 48px"">M + N</span>","null","","","","resp_prompt","","","","","","","","","","","","","","","",""
"categorize-image","38","247607","0.0-2.0-2.0-1.13","p53ptvde1njwm1j","practice_no_cue","5f39969af06eda1376816f70","5f5a55364e9b770ed21874ff","5f60d79030a67d0598d60d12","true","1820.9499999999825","./Stimuli/ImagesPractice/LN109.jpg","76","","","","test","true","M + N","76","","LN","LN109.jpg","remember","old","14","1","start","right","","","",""
"html-keyboard-response","39","248312","0.0-2.0-2.0-0.14","p53ptvde1njwm1j","practice_no_cue","5f39969af06eda1376816f70","5f5a55364e9b770ed21874ff","5f60d79030a67d0598d60d12","false","null","<span style=""color: black; font-size: 48px"">N + M</span>","null","","","","resp_prompt","","","","","","","","","","","","","","","",""
"categorize-image","40","250026","0.0-2.0-2.0-1.14","p53ptvde1njwm1j","practice_no_cue","5f39969af06eda1376816f70","5f5a55364e9b770ed21874ff","5f60d79030a67d0598d60d12","true","1211.304999999993","./Stimuli/ImagesPractice/LM224.jpg","83","","","","test","false","N + M","76","","LM","LM224.jpg","forget","old","15","1","start","left","","","",""
"html-keyboard-response","41","250732","0.0-2.0-2.0-0.15","p53ptvde1njwm1j","practice_no_cue","5f39969af06eda1376816f70","5f5a55364e9b770ed21874ff","5f60d79030a67d0598d60d12","false","null","<span style=""color: black; font-size: 48px"">N + M</span>","null","","","","resp_prompt","","","","","","","","","","","","","","","",""
"categorize-image","42","252725","0.0-2.0-2.0-1.15","p53ptvde1njwm1j","practice_no_cue","5f39969af06eda1376816f70","5f5a55364e9b770ed21874ff","5f60d79030a67d0598d60d12","true","1489.8349999999919","./Stimuli/ImagesPractice/SN220.jpg","83","","","","test","true","N + M","83","","SN","SN220.jpg","remember","old","16","1","start","left","","","",""
"html-keyboard-response","43","258815","0.0-2.0-3.0","p53ptvde1njwm1j","break","5f39969af06eda1376816f70","5f5a55364e9b770ed21874ff","5f60d79030a67d0598d60d12","false","6086.924999999988","<p style='font-size: 32px;'>Break</><br><br><br><br><br><p style='font-size: 24px;'>In the last block, you committed 6 errors and did not respond in time on 2 trials.
</p><p style='font-size: 24px;'>Try to respond as fast and accurately as possible in the next block as well! </p><p style='font-size: 24px;'>Press SPACE to continue.</p>","32","","","","","","","","","","","","","","","","","","","",""
"html-keyboard-response","44","261969","0.0-2.0-4.0","p53ptvde1njwm1j","instructions","5f39969af06eda1376816f70","5f5a55364e9b770ed21874ff","5f60d79030a67d0598d60d12","false","3152.2699999999604","<div align=left> Great!<br><br>Are you ready to continue?<br><br>If you want to reread the instructions and redo the practice trials, <br>please press „Z“. <br><br>Press SPACE to CONTINUE with the experiment when you are ready. </div>","32","","","","","","","","","","","","","","","","","","","",""
"html-keyboard-response","45","295097","0.0-3.0-0.0","p53ptvde1njwm1j","instructions","5f39969af06eda1376816f70","5f5a55364e9b770ed21874ff","5f60d79030a67d0598d60d12","false","33124.88000000006","<div align=left>Great!<br> <strong>Attention</strong>! You will now receive a second, additional task! <br><br>To this point it was you <strong>first task</strong> to correctly <strong>classify objects</strong>. <br><br>As mentioned in the beginning, we aim to examine how well humans can remember previously learned information.<br>We would like to find out whether our memory improves if we only remember information that is relevant to us. <br><br>Therefore, your <strong>second task</strong> will be to <strong>remember</strong> the pictures you are to categorize. <br> After the learning phase, there will be a memory test phase, in which you will be asked to indicate whether you have seen a picture before or not. <br>Some, but not all pictures shown in the learning phase will appear in the memory test phase.<br>After classifying a picture, you will be told whether you should remember it for the memory test phase or not. <br>Thus, some pictures can be forgotten, whereas others have to be remembered. <br><br>Note: From now on, feedback will only be displayed if you responded incorrectly or not in time.<br><br>Press SPACE to continue.</div>","32","","","","","","","","","","","","","","","","","","","",""
"html-keyboard-response","46","312996","0.0-3.0-1.0","p53ptvde1njwm1j","instructions","5f39969af06eda1376816f70","5f5a55364e9b770ed21874ff","5f60d79030a67d0598d60d12","false","17896.255000000005","<div align=left>In the following part, you will thus have to remember only some pictures. <br>Immediately after seeing and classifying the picture, a symbol will be displayed, indicating whether you should remember or forget the previous picture. <br><br>A <span style='color: dodgerblue; font-size: 28px'>O</span> indicates REMEMBER. That means, you have to remember this picture, because it will be tested later. <br><br>A <span style='color: darkorange; font-size:28px'>Ø</span> indicates FORGET. You do not have to remember this picture. <br><br> As you will have to remember a lot of pictures, it will be hard for you to remember all of them. <br>It will put you at an advantage if you instantly forget the pictures you are not asked to remember. <br> This will make it easier for you to remember the pictures that will be tested afterwards. <br><br>Press SPACE to continue.</div>","32","","","","","","","","","","","","","","","","","","","",""
"html-keyboard-response","47","320846","0.0-3.0-2.0","p53ptvde1njwm1j","instructions","5f39969af06eda1376816f70","5f5a55364e9b770ed21874ff","5f60d79030a67d0598d60d12","false","7847.974999999977","<div align=left> Now you have the chance to practice both tasks together.<br><br>Remember: <br> <br><li>Please place your index fingers on the <strong>'S'</strong> and <strong>'L'</strong> keys <br>to respond as fast and accurately as possible.</li><li>Every picture can be classified as either mechanical or non-mechanical.</li><li>If you do not respond in time or commit an error, you will receive a corresponding feedback. <br>Please try to respond as <strong> fast </strong> and as <strong> accurately as possible </strong>.</li><li> Please remember only the to-be-remembered <span style='color: dodgerblue; font-size: 28px'>O</span> pictures. <br></li><li> Please minimize distractions and stay focused. </li><br><br>Press SPACE to START</div>","32","","","","","","","","","","","","","","","","","","","",""
"html-keyboard-response","48","321547","0.0-3.0-3.0-0.0","p53ptvde1njwm1j","practice_cue","5f39969af06eda1376816f70","5f5a55364e9b770ed21874ff","5f60d79030a67d0598d60d12","false","null","<span style=""color: black; font-size: 48px"">M + N</span>","null","","","","resp_prompt","","","","","","","","","","","","","","","",""
"categorize-image","49","321733","0.0-3.0-3.0-1.0","p53ptvde1njwm1j","practice_cue","5f39969af06eda1376816f70","5f5a55364e9b770ed21874ff","5f60d79030a67d0598d60d12","true","183.0449999999837","./Stimuli/ImagesPractice/SN76.jpg","76","","","","test","true","M + N","76","","SN","SN76.jpg","remember","old","17","2","practice_forget","right","","","",""
"html-keyboard-response","50","323739","0.0-3.0-3.0-3.0","p53ptvde1njwm1j","practice_cue","5f39969af06eda1376816f70","5f5a55364e9b770ed21874ff","5f60d79030a67d0598d60d12","false","null","<div style=""align-items: center; display: flex; color: dodgerblue; font-size: 90px""><b>o</b></div>","null","","","","forget_cue","","","","","","","","","","","","","","","",""
"html-keyboard-response","51","324443","0.0-3.0-3.0-0.1","p53ptvde1njwm1j","practice_cue","5f39969af06eda1376816f70","5f5a55364e9b770ed21874ff","5f60d79030a67d0598d60d12","false","null","<span style=""color: black; font-size: 48px"">N + M</span>","null","","","","resp_prompt","","","","","","","","","","","","","","","",""
"categorize-image","52","325288","0.0-3.0-3.0-1.1","p53ptvde1njwm1j","practice_cue","5f39969af06eda1376816f70","5f5a55364e9b770ed21874ff","5f60d79030a67d0598d60d12","true","841.9899999999907","./Stimuli/ImagesPractice/SM61.jpg","83","","","","test","false","N + M","76","","SM","SM61.jpg","remember","old","18","2","practice_forget","left","","","",""
"html-keyboard-response","53","325790","0.0-3.0-3.0-2.1-0.1","p53ptvde1njwm1j","practice_cue","5f39969af06eda1376816f70","5f5a55364e9b770ed21874ff","5f60d79030a67d0598d60d12","false","null","<span style=""color: red; font-size: 48px"">Error!</span>","null","","","","feedback","","","","","","","","","","","","","","","",""
"html-keyboard-response","54","327791","0.0-3.0-3.0-3.1","p53ptvde1njwm1j","practice_cue","5f39969af06eda1376816f70","5f5a55364e9b770ed21874ff","5f60d79030a67d0598d60d12","false","null","<div style=""align-items: center; display: flex; color: dodgerblue; font-size: 90px""><b>o</b></div>","null","","","","forget_cue","","","","","","","","","","","","","","","",""
"html-keyboard-response","55","328493","0.0-3.0-3.0-0.2","p53ptvde1njwm1j","practice_cue","5f39969af06eda1376816f70","5f5a55364e9b770ed21874ff","5f60d79030a67d0598d60d12","false","null","<span style=""color: black; font-size: 48px"">M + N</span>","null","","","","resp_prompt","","","","","","","","","","","","","","","",""
"categorize-image","56","328826","0.0-3.0-3.0-1.2","p53ptvde1njwm1j","practice_cue","5f39969af06eda1376816f70","5f5a55364e9b770ed21874ff","5f60d79030a67d0598d60d12","true","329.99499999999534","./Stimuli/ImagesPractice/LM143.jpg","76","","","","test","false","M + N","83","","LM","LM143.jpg","forget","old","19","2","practice_forget","right","","","",""
"html-keyboard-response","57","329328","0.0-3.0-3.0-2.2-0.2","p53ptvde1njwm1j","practice_cue","5f39969af06eda1376816f70","5f5a55364e9b770ed21874ff","5f60d79030a67d0598d60d12","false","null","<span style=""color: red; font-size: 48px"">Error!</span>","null","","","","feedback","","","","","","","","","","","","","","","",""
"html-keyboard-response","58","331334","0.0-3.0-3.0-3.2","p53ptvde1njwm1j","practice_cue","5f39969af06eda1376816f70","5f5a55364e9b770ed21874ff","5f60d79030a67d0598d60d12","false","null","<div style=""align-items: center; display: flex; color: darkorange; font-size: 90px""><b>ø</b></div>","null","","","","forget_cue","","","","","","","","","","","","","","","",""
"html-keyboard-response","59","332040","0.0-3.0-3.0-0.3","p53ptvde1njwm1j","practice_cue","5f39969af06eda1376816f70","5f5a55364e9b770ed21874ff","5f60d79030a67d0598d60d12","false","null","<span style=""color: black; font-size: 48px"">M + N</span>","null","","","","resp_prompt","","","","","","","","","","","","","","","",""
"categorize-image","60","333233","0.0-3.0-3.0-1.3","p53ptvde1njwm1j","practice_cue","5f39969af06eda1376816f70","5f5a55364e9b770ed21874ff","5f60d79030a67d0598d60d12","true","1189.1949999999488","./Stimuli/ImagesPractice/LM239.jpg","76","","","","test","false","M + N","83","","LM","LM239.jpg","remember","old","20","2","practice_forget","right","","","",""
"html-keyboard-response","61","333734","0.0-3.0-3.0-2.3-0.3","p53ptvde1njwm1j","practice_cue","5f39969af06eda1376816f70","5f5a55364e9b770ed21874ff","5f60d79030a67d0598d60d12","false","null","<span style=""color: red; font-size: 48px"">Error!</span>","null","","","","feedback","","","","","","","","","","","","","","","",""
"html-keyboard-response","62","335739","0.0-3.0-3.0-3.3","p53ptvde1njwm1j","practice_cue","5f39969af06eda1376816f70","5f5a55364e9b770ed21874ff","5f60d79030a67d0598d60d12","false","null","<div style=""align-items: center; display: flex; color: dodgerblue; font-size: 90px""><b>o</b></div>","null","","","","forget_cue","","","","","","","","","","","","","","","",""
"html-keyboard-response","63","336441","0.0-3.0-3.0-0.4","p53ptvde1njwm1j","practice_cue","5f39969af06eda1376816f70","5f5a55364e9b770ed21874ff","5f60d79030a67d0598d60d12","false","null","<span style=""color: black; font-size: 48px"">N + M</span>","null","","","","resp_prompt","","","","","","","","","","","","","","","",""
"categorize-image","64","337561","0.0-3.0-3.0-1.4","p53ptvde1njwm1j","practice_cue","5f39969af06eda1376816f70","5f5a55364e9b770ed21874ff","5f60d79030a67d0598d60d12","true","1116.4400000000023","./Stimuli/ImagesPractice/SM35.jpg","83","","","","test","false","N + M","76","","SM","SM35.jpg","forget","old","21","2","practice_forget","left","","","",""
"html-keyboard-response","65","338063","0.0-3.0-3.0-2.4-0.4","p53ptvde1njwm1j","practice_cue","5f39969af06eda1376816f70","5f5a55364e9b770ed21874ff","5f60d79030a67d0598d60d12","false","null","<span style=""color: red; font-size: 48px"">Error!</span>","null","","","","feedback","","","","","","","","","","","","","","","",""
"html-keyboard-response","66","340069","0.0-3.0-3.0-3.4","p53ptvde1njwm1j","practice_cue","5f39969af06eda1376816f70","5f5a55364e9b770ed21874ff","5f60d79030a67d0598d60d12","false","null","<div style=""align-items: center; display: flex; color: darkorange; font-size: 90px""><b>ø</b></div>","null","","","","forget_cue","","","","","","","","","","","","","","","",""
"html-keyboard-response","67","340771","0.0-3.0-3.0-0.5","p53ptvde1njwm1j","practice_cue","5f39969af06eda1376816f70","5f5a55364e9b770ed21874ff","5f60d79030a67d0598d60d12","false","null","<span style=""color: black; font-size: 48px"">N + M</span>","null","","","","resp_prompt","","","","","","","","","","","","","","","",""
"categorize-image","68","340993","0.0-3.0-3.0-1.5","p53ptvde1njwm1j","practice_cue","5f39969af06eda1376816f70","5f5a55364e9b770ed21874ff","5f60d79030a67d0598d60d12","true","219.26500000001397","./Stimuli/ImagesPractice/SN222.jpg","76","","","","test","false","N + M","83","","SN","SN222.jpg","remember","old","22","2","practice_forget","right","","","",""
"html-keyboard-response","69","341495","0.0-3.0-3.0-2.5-0.5","p53ptvde1njwm1j","practice_cue","5f39969af06eda1376816f70","5f5a55364e9b770ed21874ff","5f60d79030a67d0598d60d12","false","null","<span style=""color: red; font-size: 48px"">Error!</span>","null","","","","feedback","","","","","","","","","","","","","","","",""
"html-keyboard-response","70","343499","0.0-3.0-3.0-3.5","p53ptvde1njwm1j","practice_cue","5f39969af06eda1376816f70","5f5a55364e9b770ed21874ff","5f60d79030a67d0598d60d12","false","null","<div style=""align-items: center; display: flex; color: dodgerblue; font-size: 90px""><b>o</b></div>","null","","","","forget_cue","","","","","","","","","","","","","","","",""
"html-keyboard-response","71","344201","0.0-3.0-3.0-0.6","p53ptvde1njwm1j","practice_cue","5f39969af06eda1376816f70","5f5a55364e9b770ed21874ff","5f60d79030a67d0598d60d12","false","null","<span style=""color: black; font-size: 48px"">M + N</span>","null","","","","resp_prompt","","","","","","","","","","","","","","","",""
"categorize-image","72","345326","0.0-3.0-3.0-1.6","p53ptvde1njwm1j","practice_cue","5f39969af06eda1376816f70","5f5a55364e9b770ed21874ff","5f60d79030a67d0598d60d12","true","1121.6849999999395","./Stimuli/ImagesPractice/LN17.jpg","76","","","","test","true","M + N","76","","LN","LN17.jpg","remember","old","23","2","practice_forget","right","","","",""
"html-keyboard-response","73","347330","0.0-3.0-3.0-3.6","p53ptvde1njwm1j","practice_cue","5f39969af06eda1376816f70","5f5a55364e9b770ed21874ff","5f60d79030a67d0598d60d12","false","null","<div style=""align-items: center; display: flex; color: dodgerblue; font-size: 90px""><b>o</b></div>","null","","","","forget_cue","","","","","","","","","","","","","","","",""
"html-keyboard-response","74","348032","0.0-3.0-3.0-0.7","p53ptvde1njwm1j","practice_cue","5f39969af06eda1376816f70","5f5a55364e9b770ed21874ff","5f60d79030a67d0598d60d12","false","null","<span style=""color: black; font-size: 48px"">N + M</span>","null","","","","resp_prompt","","","","","","","","","","","","","","","",""
"categorize-image","75","349156","0.0-3.0-3.0-1.7","p53ptvde1njwm1j","practice_cue","5f39969af06eda1376816f70","5f5a55364e9b770ed21874ff","5f60d79030a67d0598d60d12","true","1120.1299999999464","./Stimuli/ImagesPractice/LM147.jpg","83","","","","test","false","N + M","76","","LM","LM147.jpg","remember","old","24","2","practice_forget","left","","","",""
"html-keyboard-response","76","349657","0.0-3.0-3.0-2.7-0.7","p53ptvde1njwm1j","practice_cue","5f39969af06eda1376816f70","5f5a55364e9b770ed21874ff","5f60d79030a67d0598d60d12","false","null","<span style=""color: red; font-size: 48px"">Error!</span>","null","","","","feedback","","","","","","","","","","","","","","","",""
"html-keyboard-response","77","351661","0.0-3.0-3.0-3.7","p53ptvde1njwm1j","practice_cue","5f39969af06eda1376816f70","5f5a55364e9b770ed21874ff","5f60d79030a67d0598d60d12","false","null","<div style=""align-items: center; display: flex; color: dodgerblue; font-size: 90px""><b>o</b></div>","null","","","","forget_cue","","","","","","","","","","","","","","","",""
"html-keyboard-response","78","352368","0.0-3.0-3.0-0.8","p53ptvde1njwm1j","practice_cue","5f39969af06eda1376816f70","5f5a55364e9b770ed21874ff","5f60d79030a67d0598d60d12","false","null","<span style=""color: black; font-size: 48px"">N + M</span>","null","","","","resp_prompt","","","","","","","","","","","","","","","",""
"categorize-image","79","353236","0.0-3.0-3.0-1.8","p53ptvde1njwm1j","practice_cue","5f39969af06eda1376816f70","5f5a55364e9b770ed21874ff","5f60d79030a67d0598d60d12","true","864.1699999999837","./Stimuli/ImagesPractice/LM224.jpg","83","","","","test","false","N + M","76","","LM","LM224.jpg","forget","old","25","2","practice_forget","left","","","",""
"html-keyboard-response","80","353738","0.0-3.0-3.0-2.8-0.8","p53ptvde1njwm1j","practice_cue","5f39969af06eda1376816f70","5f5a55364e9b770ed21874ff","5f60d79030a67d0598d60d12","false","null","<span style=""color: red; font-size: 48px"">Error!</span>","null","","","","feedback","","","","","","","","","","","","","","","",""
"html-keyboard-response","81","355743","0.0-3.0-3.0-3.8","p53ptvde1njwm1j","practice_cue","5f39969af06eda1376816f70","5f5a55364e9b770ed21874ff","5f60d79030a67d0598d60d12","false","null","<div style=""align-items: center; display: flex; color: darkorange; font-size: 90px""><b>ø</b></div>","null","","","","forget_cue","","","","","","","","","","","","","","","",""
"html-keyboard-response","82","356449","0.0-3.0-3.0-0.9","p53ptvde1njwm1j","practice_cue","5f39969af06eda1376816f70","5f5a55364e9b770ed21874ff","5f60d79030a67d0598d60d12","false","null","<span style=""color: black; font-size: 48px"">N + M</span>","null","","","","resp_prompt","","","","","","","","","","","","","","","",""
"categorize-image","83","357360","0.0-3.0-3.0-1.9","p53ptvde1njwm1j","practice_cue","5f39969af06eda1376816f70","5f5a55364e9b770ed21874ff","5f60d79030a67d0598d60d12","true","907.4400000000023","./Stimuli/ImagesPractice/LN72.jpg","83","","","","test","true","N + M","83","","LN","LN72.jpg","forget","old","26","2","practice_forget","left","","","",""
"html-keyboard-response","84","359362","0.0-3.0-3.0-3.9","p53ptvde1njwm1j","practice_cue","5f39969af06eda1376816f70","5f5a55364e9b770ed21874ff","5f60d79030a67d0598d60d12","false","null","<div style=""align-items: center; display: flex; color: darkorange; font-size: 90px""><b>ø</b></div>","null","","","","forget_cue","","","","","","","","","","","","","","","",""
"html-keyboard-response","85","360064","0.0-3.0-3.0-0.10","p53ptvde1njwm1j","practice_cue","5f39969af06eda1376816f70","5f5a55364e9b770ed21874ff","5f60d79030a67d0598d60d12","false","null","<span style=""color: black; font-size: 48px"">M + N</span>","null","","","","resp_prompt","","","","","","","","","","","","","","","",""
"categorize-image","86","360999","0.0-3.0-3.0-1.10","p53ptvde1njwm1j","practice_cue","5f39969af06eda1376816f70","5f5a55364e9b770ed21874ff","5f60d79030a67d0598d60d12","true","931.8699999999953","./Stimuli/ImagesPractice/SM97.jpg","76","","","","test","false","M + N","83","","SM","SM97.jpg","forget","old","27","2","practice_forget","right","","","",""
"html-keyboard-response","87","361500","0.0-3.0-3.0-2.10-0.10","p53ptvde1njwm1j","practice_cue","5f39969af06eda1376816f70","5f5a55364e9b770ed21874ff","5f60d79030a67d0598d60d12","false","null","<span style=""color: red; font-size: 48px"">Error!</span>","null","","","","feedback","","","","","","","","","","","","","","","",""
"html-keyboard-response","88","363503","0.0-3.0-3.0-3.10","p53ptvde1njwm1j","practice_cue","5f39969af06eda1376816f70","5f5a55364e9b770ed21874ff","5f60d79030a67d0598d60d12","false","null","<div style=""align-items: center; display: flex; color: darkorange; font-size: 90px""><b>ø</b></div>","null","","","","forget_cue","","","","","","","","","","","","","","","",""
"html-keyboard-response","89","364209","0.0-3.0-3.0-0.11","p53ptvde1njwm1j","practice_cue","5f39969af06eda1376816f70","5f5a55364e9b770ed21874ff","5f60d79030a67d0598d60d12","false","null","<span style=""color: black; font-size: 48px"">M + N</span>","null","","","","resp_prompt","","","","","","","","","","","","","","","",""
"categorize-image","90","365527","0.0-3.0-3.0-1.11","p53ptvde1njwm1j","practice_cue","5f39969af06eda1376816f70","5f5a55364e9b770ed21874ff","5f60d79030a67d0598d60d12","true","1315.1900000000023","./Stimuli/ImagesPractice/SM62.jpg","83","","","","test","true","M + N","83","","SM","SM62.jpg","forget","old","28","2","practice_forget","left","","","",""
"html-keyboard-response","91","367529","0.0-3.0-3.0-3.11","p53ptvde1njwm1j","practice_cue","5f39969af06eda1376816f70","5f5a55364e9b770ed21874ff","5f60d79030a67d0598d60d12","false","null","<div style=""align-items: center; display: flex; color: darkorange; font-size: 90px""><b>ø</b></div>","null","","","","forget_cue","","","","","","","","","","","","","","","",""
"html-keyboard-response","92","368233","0.0-3.0-3.0-0.12","p53ptvde1njwm1j","practice_cue","5f39969af06eda1376816f70","5f5a55364e9b770ed21874ff","5f60d79030a67d0598d60d12","false","null","<span style=""color: black; font-size: 48px"">N + M</span>","null","","","","resp_prompt","","","","","","","","","","","","","","","",""
"categorize-image","93","369567","0.0-3.0-3.0-1.12","p53ptvde1njwm1j","practice_cue","5f39969af06eda1376816f70","5f5a55364e9b770ed21874ff","5f60d79030a67d0598d60d12","true","1329.795000000042","./Stimuli/ImagesPractice/LN2.jpg","83","","","","test","true","N + M","83","","LN","LN2.jpg","forget","old","29","2","practice_forget","left","","","",""
"html-keyboard-response","94","371572","0.0-3.0-3.0-3.12","p53ptvde1njwm1j","practice_cue","5f39969af06eda1376816f70","5f5a55364e9b770ed21874ff","5f60d79030a67d0598d60d12","false","null","<div style=""align-items: center; display: flex; color: darkorange; font-size: 90px""><b>ø</b></div>","null","","","","forget_cue","","","","","","","","","","","","","","","",""
"html-keyboard-response","95","372274","0.0-3.0-3.0-0.13","p53ptvde1njwm1j","practice_cue","5f39969af06eda1376816f70","5f5a55364e9b770ed21874ff","5f60d79030a67d0598d60d12","false","null","<span style=""color: black; font-size: 48px"">N + M</span>","null","","","","resp_prompt","","","","","","","","","","","","","","","",""
"categorize-image","96","373311","0.0-3.0-3.0-1.13","p53ptvde1njwm1j","practice_cue","5f39969af06eda1376816f70","5f5a55364e9b770ed21874ff","5f60d79030a67d0598d60d12","true","1033.3750000000582","./Stimuli/ImagesPractice/SN220.jpg","83","","","","test","true","N + M","83","","SN","SN220.jpg","remember","old","30","2","practice_forget","left","","","",""
"html-keyboard-response","97","375316","0.0-3.0-3.0-3.13","p53ptvde1njwm1j","practice_cue","5f39969af06eda1376816f70","5f5a55364e9b770ed21874ff","5f60d79030a67d0598d60d12","false","null","<div style=""align-items: center; display: flex; color: dodgerblue; font-size: 90px""><b>o</b></div>","null","","","","forget_cue","","","","","","","","","","","","","","","",""
"html-keyboard-response","98","376021","0.0-3.0-3.0-0.14","p53ptvde1njwm1j","practice_cue","5f39969af06eda1376816f70","5f5a55364e9b770ed21874ff","5f60d79030a67d0598d60d12","false","null","<span style=""color: black; font-size: 48px"">M + N</span>","null","","","","resp_prompt","","","","","","","","","","","","","","","",""
"categorize-image","99","377614","0.0-3.0-3.0-1.14","p53ptvde1njwm1j","practice_cue","5f39969af06eda1376816f70","5f5a55364e9b770ed21874ff","5f60d79030a67d0598d60d12","true","1587.7799999999697","./Stimuli/ImagesPractice/LN15.jpg","76","","","","test","true","M + N","76","","LN","LN15.jpg","forget","old","31","2","practice_forget","right","","","",""
"html-keyboard-response","100","379618","0.0-3.0-3.0-3.14","p53ptvde1njwm1j","practice_cue","5f39969af06eda1376816f70","5f5a55364e9b770ed21874ff","5f60d79030a67d0598d60d12","false","null","<div style=""align-items: center; display: flex; color: darkorange; font-size: 90px""><b>ø</b></div>","null","","","","forget_cue","","","","","","","","","","","","","","","",""
"html-keyboard-response","101","380321","0.0-3.0-3.0-0.15","p53ptvde1njwm1j","practice_cue","5f39969af06eda1376816f70","5f5a55364e9b770ed21874ff","5f60d79030a67d0598d60d12","false","null","<span style=""color: black; font-size: 48px"">M + N</span>","null","","","","resp_prompt","","","","","","","","","","","","","","","",""
"categorize-image","102","381414","0.0-3.0-3.0-1.15","p53ptvde1njwm1j","practice_cue","5f39969af06eda1376816f70","5f5a55364e9b770ed21874ff","5f60d79030a67d0598d60d12","true","1089.195000000007","./Stimuli/ImagesPractice/LN109.jpg","83","","","","test","false","M + N","76","","LN","LN109.jpg","remember","old","32","2","practice_forget","left","","","",""
"html-keyboard-response","103","381916","0.0-3.0-3.0-2.15-0.15","p53ptvde1njwm1j","practice_cue","5f39969af06eda1376816f70","5f5a55364e9b770ed21874ff","5f60d79030a67d0598d60d12","false","null","<span style=""color: red; font-size: 48px"">Error!</span>","null","","","","feedback","","","","","","","","","","","","","","","",""
"html-keyboard-response","104","383921","0.0-3.0-3.0-3.15","p53ptvde1njwm1j","practice_cue","5f39969af06eda1376816f70","5f5a55364e9b770ed21874ff","5f60d79030a67d0598d60d12","false","null","<div style=""align-items: center; display: flex; color: dodgerblue; font-size: 90px""><b>o</b></div>","null","","","","forget_cue","","","","","","","","","","","","","","","",""
"html-keyboard-response","105","389541","0.0-3.0-4.0","p53ptvde1njwm1j","break","5f39969af06eda1376816f70","5f5a55364e9b770ed21874ff","5f60d79030a67d0598d60d12","false","5618.054999999993","<p style='font-size: 32px;'>Break</><br><br><br><br><br><p style='font-size: 24px;'>In the last block, you committed 9 errors and did not respond in time on 0 trials.
</p><p style='font-size: 24px;'>Try to respond as fast and accurately as possible in the next block as well! </p><p style='font-size: 24px;'>Press SPACE to continue.</p>","32","","","","","","","","","","","","","","","","","","","",""
"html-keyboard-response","106","409332","0.0-3.0-5.0","p53ptvde1njwm1j","instructions","5f39969af06eda1376816f70","5f5a55364e9b770ed21874ff","5f60d79030a67d0598d60d12","false","19788.429999999993","<div align=left> Now, to practice, we kindly ask you to remember as many of the to-be-remembered pictures<br>of the previous learning phase as possible.<br><br>The pictures you were instructed to remember were the pictures followed by a <span style='color: dodgerblue; font-size: 28px'>O</span>.<br><br>In this memory test phase, you will also see some new pictures.<br>It is your task to remember whether you were presented with this specific picture in this study so far or not.<br>If you recognize an object (you have already seen it in this study), it is an OLD object. <br>If you do not recognize an object (you have NOT seen it in this study), it is a NEW object. <br><strong> Attention</strong>: As already mentioned, <span style='color: darkorange; font-size:28px'>Ø</span>-pictures will <strong>never</strong> appear in this memory test (neither as new objects). <br><br>Press SPACE to continue. </div>","32","","","","","","","","","","","","","","","","","","","",""
"html-keyboard-response","107","442742","0.0-3.0-6.0","p53ptvde1njwm1j","instructions","5f39969af06eda1376816f70","5f5a55364e9b770ed21874ff","5f60d79030a67d0598d60d12","false","33406.514999999956","<div align=left> M and N no longer will appear on the left/right of the fixation cross. <br>Instead there will be a note at the bottom of the left or right side  <br>indicating which key you should press for an old or new object:  <br> <br>Press the <strong>right</strong> key to classify an object as <strong>old</strong> and press the <strong>left</strong>, to classify an object as <strong>new</strong>.<br>Please classify the objects as new/old by again placing your index finger on the 'S' and 'L' keys <br>and press them accordingly.<br><br><strong>Old:</strong> This object has been presented before. <br><strong>New:</strong> This object has <strong>not</strong> been presented.<br><br>Now please put your right and left index fingers on the 'S' and 'L' keys of your keyboard. <br>Please respond as fast and as accurately as possible!<br><br>Press SPACE to continue. </div>","32","","","","","","","","","","","","","","","","","","","",""
"categorize-image","108","444652","0.0-3.0-7.0-0.0","p53ptvde1njwm1j","practice_recog","5f39969af06eda1376816f70","5f5a55364e9b770ed21874ff","5f60d79030a67d0598d60d12","true","1403.8600000000442","./Stimuli/ImagesPractice/SN221.jpg","83","","","","test","true","","83","","SN","SN221.jpg","","new","33","3","practice_recog","left","","","",""
"categorize-image","109","446260","0.0-3.0-7.0-0.1","p53ptvde1njwm1j","practice_recog","5f39969af06eda1376816f70","5f5a55364e9b770ed21874ff","5f60d79030a67d0598d60d12","true","1101.8450000000303","./Stimuli/ImagesPractice/SN75.jpg","83","","","","test","true","","83","","SN","SN75.jpg","","new","34","3","practice_recog","left","","","",""
"categorize-image","110","447565","0.0-3.0-7.0-0.2","p53ptvde1njwm1j","practice_recog","5f39969af06eda1376816f70","5f5a55364e9b770ed21874ff","5f60d79030a67d0598d60d12","true","798.070000000007","./Stimuli/ImagesPractice/SN205.jpg","83","","","","test","true","","83","","SN","SN205.jpg","","new","35","3","practice_recog","left","","","",""
"categorize-image","111","448823","0.0-3.0-7.0-0.3","p53ptvde1njwm1j","practice_recog","5f39969af06eda1376816f70","5f5a55364e9b770ed21874ff","5f60d79030a67d0598d60d12","true","755.5800000000163","./Stimuli/ImagesPractice/SM61.jpg","76","","","","test","true","","76","","SM","SM61.jpg","","old","36","3","practice_recog","right","","","",""
"categorize-image","112","450121","0.0-3.0-7.0-0.4","p53ptvde1njwm1j","practice_recog","5f39969af06eda1376816f70","5f5a55364e9b770ed21874ff","5f60d79030a67d0598d60d12","true","793.6500000000233","./Stimuli/ImagesPractice/LN4.jpg","83","","","","test","true","","83","","LN","LN4.jpg","","new","37","3","practice_recog","left","","","",""
"categorize-image","113","451306","0.0-3.0-7.0-0.5","p53ptvde1njwm1j","practice_recog","5f39969af06eda1376816f70","5f5a55364e9b770ed21874ff","5f60d79030a67d0598d60d12","true","681.2399999999907","./Stimuli/ImagesPractice/LM239.jpg","76","","","","test","true","","76","","LM","LM239.jpg","","old","38","3","practice_recog","right","","","",""
"categorize-image","114","452720","0.0-3.0-7.0-0.6","p53ptvde1njwm1j","practice_recog","5f39969af06eda1376816f70","5f5a55364e9b770ed21874ff","5f60d79030a67d0598d60d12","true","909.7849999999744","./Stimuli/ImagesPractice/SN220.jpg","76","","","","test","true","","76","","SN","SN220.jpg","","old","39","3","practice_recog","right","","","",""
"categorize-image","115","454277","0.0-3.0-7.0-0.7","p53ptvde1njwm1j","practice_recog","5f39969af06eda1376816f70","5f5a55364e9b770ed21874ff","5f60d79030a67d0598d60d12","true","1051.2149999999674","./Stimuli/ImagesPractice/LN109.jpg","76","","","","test","true","","76","","LN","LN109.jpg","","old","40","3","practice_recog","right","","","",""
"categorize-image","116","455668","0.0-3.0-7.0-0.8","p53ptvde1njwm1j","practice_recog","5f39969af06eda1376816f70","5f5a55364e9b770ed21874ff","5f60d79030a67d0598d60d12","true","885.5699999999488","./Stimuli/ImagesPractice/SM37.jpg","83","","","","test","true","","83","","SM","SM37.jpg","","new","41","3","practice_recog","left","","","",""
"categorize-image","117","457131","0.0-3.0-7.0-0.9","p53ptvde1njwm1j","practice_recog","5f39969af06eda1376816f70","5f5a55364e9b770ed21874ff","5f60d79030a67d0598d60d12","true","956.0449999999837","./Stimuli/ImagesPractice/SM98.jpg","83","","","","test","true","","83","","SM","SM98.jpg","","new","42","3","practice_recog","left","","","",""
"categorize-image","118","458371","0.0-3.0-7.0-0.10","p53ptvde1njwm1j","practice_recog","5f39969af06eda1376816f70","5f5a55364e9b770ed21874ff","5f60d79030a67d0598d60d12","true","737.8949999999604","./Stimuli/ImagesPractice/LM55.jpg","83","","","","test","true","","83","","LM","LM55.jpg","","new","43","3","practice_recog","left","","","",""
"categorize-image","119","459577","0.0-3.0-7.0-0.11","p53ptvde1njwm1j","practice_recog","5f39969af06eda1376816f70","5f5a55364e9b770ed21874ff","5f60d79030a67d0598d60d12","true","703.6199999999953","./Stimuli/ImagesPractice/LN17.jpg","76","","","","test","true","","76","","LN","LN17.jpg","","old","44","3","practice_recog","right","","","",""
"categorize-image","120","460825","0.0-3.0-7.0-0.12","p53ptvde1njwm1j","practice_recog","5f39969af06eda1376816f70","5f5a55364e9b770ed21874ff","5f60d79030a67d0598d60d12","true","743.3150000000605","./Stimuli/ImagesPractice/SN222.jpg","76","","","","test","true","","76","","SN","SN222.jpg","","old","45","3","practice_recog","right","","","",""
"categorize-image","121","461976","0.0-3.0-7.0-0.13","p53ptvde1njwm1j","practice_recog","5f39969af06eda1376816f70","5f5a55364e9b770ed21874ff","5f60d79030a67d0598d60d12","true","646.6849999999395","./Stimuli/ImagesPractice/LM147.jpg","76","","","","test","true","","76","","LM","LM147.jpg","","old","46","3","practice_recog","right","","","",""
"categorize-image","122","463643","0.0-3.0-7.0-0.14","p53ptvde1njwm1j","practice_recog","5f39969af06eda1376816f70","5f5a55364e9b770ed21874ff","5f60d79030a67d0598d60d12","true","1164.4350000000559","./Stimuli/ImagesPractice/LM230.jpg","76","","","","test","false","","83","","LM","LM230.jpg","","new","47","3","practice_recog","right","","","",""
"categorize-image","123","465094","0.0-3.0-7.0-0.15","p53ptvde1njwm1j","practice_recog","5f39969af06eda1376816f70","5f5a55364e9b770ed21874ff","5f60d79030a67d0598d60d12","true","945.5650000000023","./Stimuli/ImagesPractice/SN76.jpg","76","","","","test","true","","76","","SN","SN76.jpg","","old","48","3","practice_recog","right","","","",""
"html-keyboard-response","124","482565","0.0-3.0-8.0","p53ptvde1njwm1j","instructions","5f39969af06eda1376816f70","5f5a55364e9b770ed21874ff","5f60d79030a67d0598d60d12","false","17468.35499999998","<div align=left> Great!<br><br>Are you ready to continue?<br>If you want to reread the instructions and redo the practice trials, please <br>press „Z“.<br><br>You can proceed when you are ready.<br><br>After the presentation of each object, you will receive an instruction whether to <br>remember or to forget the object.<br>We will test your memory of the following pictures only at the very end of <br>the experiment after all learning blocks are completed. <br><br>Press SPACE to CONTINUE when you are ready. </div>","32","","","","","","","","","","","","","","","","","","","",""
"html-keyboard-response","125","490977","0.0-4.0-0.0","p53ptvde1njwm1j","instructions","5f39969af06eda1376816f70","5f5a55364e9b770ed21874ff","5f60d79030a67d0598d60d12","false","8409.86499999999","<div align=left> The actual experiment is about to start.<br>The practice trials are over!<br><br>Please always respond both fast and accurately!<br><br>Remember: <br> <br><li> Please place your index fingers on the <strong>'S'</strong> and <strong>'L'</strong> keys <br>to respond as fast and accurately as possible.</li><li> Every picture can be classified as either mechanical or non-mechanical.</li><li> If you do not respond in time or commit an error, you will receive a corresponding feedback.<br> Please try to respond as <strong> fast </strong> and as <strong> accurately as possible </strong>.</li><li> Remember the <span style='color: dodgerblue; font-size: 28px'>O</span> pictures. <br></li><li> Please minimize distractions and stay focused. </li><br><br>Press SPACE to START.</div>","32","","","","","","","","","","","","","","","","","","","",""
"html-keyboard-response","126","491682","0.0-4.0-1.0-0.0","p53ptvde1njwm1j","prime","5f39969af06eda1376816f70","5f5a55364e9b770ed21874ff","5f60d79030a67d0598d60d12","false","null","<span style=""color: black; font-size: 48px"">N + M</span>","null","","","","resp_prompt","","","","","","","","","","","","","","","",""
"categorize-image","127","492495","0.0-4.0-1.0-1.0","p53ptvde1njwm1j","prime","5f39969af06eda1376816f70","5f5a55364e9b770ed21874ff","5f60d79030a67d0598d60d12","true","808.890000000014","./Stimuli/SelectedImages/SM/SM17.bmp","76","","","","test","true","N + M","76","switch","SM","SM17.bmp","remember","","49","3","prime1","right","","","",""
"html-keyboard-response","128","494500","0.0-4.0-1.0-3.0","p53ptvde1njwm1j","prime","5f39969af06eda1376816f70","5f5a55364e9b770ed21874ff","5f60d79030a67d0598d60d12","false","null","<div style=""align-items: center; display: flex; color: dodgerblue; font-size: 90px""><b>o</b></div>","null","","","","forget_cue","","","","","","","","","","","","","","","",""
"html-keyboard-response","129","495203","0.0-4.0-1.0-0.1","p53ptvde1njwm1j","prime","5f39969af06eda1376816f70","5f5a55364e9b770ed21874ff","5f60d79030a67d0598d60d12","false","null","<span style=""color: black; font-size: 48px"">M + N</span>","null","","","","resp_prompt","","","","","","","","","","","","","","","",""
"categorize-image","130","495398","0.0-4.0-1.0-1.1","p53ptvde1njwm1j","prime","5f39969af06eda1376816f70","5f5a55364e9b770ed21874ff","5f60d79030a67d0598d60d12","true","192.59499999997206","./Stimuli/SelectedImages/SM/SM200.bmp","83","","","","test","true","M + N","83","repetition","SM","SM200.bmp","forget","","50","3","prime1","left","","","",""
"html-keyboard-response","131","497403","0.0-4.0-1.0-3.1","p53ptvde1njwm1j","prime","5f39969af06eda1376816f70","5f5a55364e9b770ed21874ff","5f60d79030a67d0598d60d12","false","null","<div style=""align-items: center; display: flex; color: darkorange; font-size: 90px""><b>ø</b></div>","null","","","","forget_cue","","","","","","","","","","","","","","","",""
"html-keyboard-response","132","498108","0.0-4.0-1.0-0.2","p53ptvde1njwm1j","prime","5f39969af06eda1376816f70","5f5a55364e9b770ed21874ff","5f60d79030a67d0598d60d12","false","null","<span style=""color: black; font-size: 48px"">M + N</span>","null","","","","resp_prompt","","","","","","","","","","","","","","","",""
"categorize-image","133","498737","0.0-4.0-1.0-1.2","p53ptvde1njwm1j","prime","5f39969af06eda1376816f70","5f5a55364e9b770ed21874ff","5f60d79030a67d0598d60d12","true","625.3649999999907","./Stimuli/SelectedImages/SM/SM76.bmp","83","","","","test","true","M + N","83","switch","SM","SM76.bmp","remember","","51","3","prime1","left","","","",""
"html-keyboard-response","134","500738","0.0-4.0-1.0-3.2","p53ptvde1njwm1j","prime","5f39969af06eda1376816f70","5f5a55364e9b770ed21874ff","5f60d79030a67d0598d60d12","false","null","<div style=""align-items: center; display: flex; color: dodgerblue; font-size: 90px""><b>o</b></div>","null","","","","forget_cue","","","","","","","","","","","","","","","",""
"html-keyboard-response","135","501444","0.0-4.0-1.0-0.3","p53ptvde1njwm1j","prime","5f39969af06eda1376816f70","5f5a55364e9b770ed21874ff","5f60d79030a67d0598d60d12","false","null","<span style=""color: black; font-size: 48px"">N + M</span>","null","","","","resp_prompt","","","","","","","","","","","","","","","",""
"categorize-image","136","502607","0.0-4.0-1.0-1.3","p53ptvde1njwm1j","prime","5f39969af06eda1376816f70","5f5a55364e9b770ed21874ff","5f60d79030a67d0598d60d12","true","1159.1399999999558","./Stimuli/SelectedImages/LN/LN166.bmp","83","","","","test","true","N + M","83","switch","LN","LN166.bmp","forget","","52","3","prime1","left","","","",""
"html-keyboard-response","137","504609","0.0-4.0-1.0-3.3","p53ptvde1njwm1j","prime","5f39969af06eda1376816f70","5f5a55364e9b770ed21874ff","5f60d79030a67d0598d60d12","false","null","<div style=""align-items: center; display: flex; color: darkorange; font-size: 90px""><b>ø</b></div>","null","","","","forget_cue","","","","","","","","","","","","","","","",""
"html-keyboard-response","138","505314","0.0-4.0-1.0-0.4","p53ptvde1njwm1j","prime","5f39969af06eda1376816f70","5f5a55364e9b770ed21874ff","5f60d79030a67d0598d60d12","false","null","<span style=""color: black; font-size: 48px"">M + N</span>","null","","","","resp_prompt","","","","","","","","","","","","","","","",""
"categorize-image","139","506619","0.0-4.0-1.0-1.4","p53ptvde1njwm1j","prime","5f39969af06eda1376816f70","5f5a55364e9b770ed21874ff","5f60d79030a67d0598d60d12","true","1301.5900000000838","./Stimuli/SelectedImages/SN/SN18.bmp","76","","","","test","true","M + N","76","repetition","SN","SN18.bmp","remember","","53","3","prime1","right","","","",""
"html-keyboard-response","140","508625","0.0-4.0-1.0-3.4","p53ptvde1njwm1j","prime","5f39969af06eda1376816f70","5f5a55364e9b770ed21874ff","5f60d79030a67d0598d60d12","false","null","<div style=""align-items: center; display: flex; color: dodgerblue; font-size: 90px""><b>o</b></div>","null","","","","forget_cue","","","","","","","","","","","","","","","",""
"html-keyboard-response","141","509328","0.0-4.0-1.0-0.5","p53ptvde1njwm1j","prime","5f39969af06eda1376816f70","5f5a55364e9b770ed21874ff","5f60d79030a67d0598d60d12","false","null","<span style=""color: black; font-size: 48px"">N + M</span>","null","","","","resp_prompt","","","","","","","","","","","","","","","",""
"categorize-image","142","510675","0.0-4.0-1.0-1.5","p53ptvde1njwm1j","prime","5f39969af06eda1376816f70","5f5a55364e9b770ed21874ff","5f60d79030a67d0598d60d12","true","1342.9449999999488","./Stimuli/SelectedImages/SN/SN49.bmp","83","","","","test","true","N + M","83","switch","SN","SN49.bmp","remember","","54","3","prime1","left","","","",""
"html-keyboard-response","143","512680","0.0-4.0-1.0-3.5","p53ptvde1njwm1j","prime","5f39969af06eda1376816f70","5f5a55364e9b770ed21874ff","5f60d79030a67d0598d60d12","false","null","<div style=""align-items: center; display: flex; color: dodgerblue; font-size: 90px""><b>o</b></div>","null","","","","forget_cue","","","","","","","","","","","","","","","",""
"html-keyboard-response","144","513383","0.0-4.0-1.0-0.6","p53ptvde1njwm1j","prime","5f39969af06eda1376816f70","5f5a55364e9b770ed21874ff","5f60d79030a67d0598d60d12","false","null","<span style=""color: black; font-size: 48px"">M + N</span>","null","","","","resp_prompt","","","","","","","","","","","","","","","",""
"categorize-image","145","514252","0.0-4.0-1.0-1.6","p53ptvde1njwm1j","prime","5f39969af06eda1376816f70","5f5a55364e9b770ed21874ff","5f60d79030a67d0598d60d12","true","865.2899999999208","./Stimuli/SelectedImages/SN/SN182.bmp","76","","","","test","true","M + N","76","repetition","SN","SN182.bmp","forget","","55","3","prime1","right","","","",""
"html-keyboard-response","146","516258","0.0-4.0-1.0-3.6","p53ptvde1njwm1j","prime","5f39969af06eda1376816f70","5f5a55364e9b770ed21874ff","5f60d79030a67d0598d60d12","false","null","<div style=""align-items: center; display: flex; color: darkorange; font-size: 90px""><b>ø</b></div>","null","","","","forget_cue","","","","","","","","","","","","","","","",""
"html-keyboard-response","147","516963","0.0-4.0-1.0-0.7","p53ptvde1njwm1j","prime","5f39969af06eda1376816f70","5f5a55364e9b770ed21874ff","5f60d79030a67d0598d60d12","false","null","<span style=""color: black; font-size: 48px"">N + M</span>","null","","","","resp_prompt","","","","","","","","","","","","","","","",""
"categorize-image","148","517984","0.0-4.0-1.0-1.7","p53ptvde1njwm1j","prime","5f39969af06eda1376816f70","5f5a55364e9b770ed21874ff","5f60d79030a67d0598d60d12","true","1018.3449999999721","./Stimuli/SelectedImages/SN/SN93.bmp","83","","","","test","true","N + M","83","switch","SN","SN93.bmp","forget","","56","3","prime1","left","","","",""
"html-keyboard-response","149","519988","0.0-4.0-1.0-3.7","p53ptvde1njwm1j","prime","5f39969af06eda1376816f70","5f5a55364e9b770ed21874ff","5f60d79030a67d0598d60d12","false","null","<div style=""align-items: center; display: flex; color: darkorange; font-size: 90px""><b>ø</b></div>","null","","","","forget_cue","","","","","","","","","","","","","","","",""
"html-keyboard-response","150","520691","0.0-4.0-1.0-0.8","p53ptvde1njwm1j","prime","5f39969af06eda1376816f70","5f5a55364e9b770ed21874ff","5f60d79030a67d0598d60d12","false","null","<span style=""color: black; font-size: 48px"">N + M</span>","null","","","","resp_prompt","","","","","","","","","","","","","","","",""
"categorize-image","151","521276","0.0-4.0-1.0-1.8","p53ptvde1njwm1j","prime","5f39969af06eda1376816f70","5f5a55364e9b770ed21874ff","5f60d79030a67d0598d60d12","true","581.8899999998976","./Stimuli/SelectedImages/SM/SM74.bmp","76","","","","test","true","N + M","76","switch","SM","SM74.bmp","remember","","57","3","prime1","right","","","",""
"html-keyboard-response","152","523280","0.0-4.0-1.0-3.8","p53ptvde1njwm1j","prime","5f39969af06eda1376816f70","5f5a55364e9b770ed21874ff","5f60d79030a67d0598d60d12","false","null","<div style=""align-items: center; display: flex; color: dodgerblue; font-size: 90px""><b>o</b></div>","null","","","","forget_cue","","","","","","","","","","","","","","","",""
"html-keyboard-response","153","523983","0.0-4.0-1.0-0.9","p53ptvde1njwm1j","prime","5f39969af06eda1376816f70","5f5a55364e9b770ed21874ff","5f60d79030a67d0598d60d12","false","null","<span style=""color: black; font-size: 48px"">M + N</span>","null","","","","resp_prompt","","","","","","","","","","","","","","","",""
"categorize-image","154","524872","0.0-4.0-1.0-1.9","p53ptvde1njwm1j","prime","5f39969af06eda1376816f70","5f5a55364e9b770ed21874ff","5f60d79030a67d0598d60d12","true","886.8049999999348","./Stimuli/SelectedImages/LM/LM157.bmp","83","","","","test","true","M + N","83","repetition","LM","LM157.bmp","forget","","58","3","prime1","left","","","",""
"html-keyboard-response","155","526878","0.0-4.0-1.0-3.9","p53ptvde1njwm1j","prime","5f39969af06eda1376816f70","5f5a55364e9b770ed21874ff","5f60d79030a67d0598d60d12","false","null","<div style=""align-items: center; display: flex; color: darkorange; font-size: 90px""><b>ø</b></div>","null","","","","forget_cue","","","","","","","","","","","","","","","",""
"html-keyboard-response","156","527581","0.0-4.0-1.0-0.10","p53ptvde1njwm1j","prime","5f39969af06eda1376816f70","5f5a55364e9b770ed21874ff","5f60d79030a67d0598d60d12","false","null","<span style=""color: black; font-size: 48px"">M + N</span>","null","","","","resp_prompt","","","","","","","","","","","","","","","",""
"categorize-image","157","528254","0.0-4.0-1.0-1.10","p53ptvde1njwm1j","prime","5f39969af06eda1376816f70","5f5a55364e9b770ed21874ff","5f60d79030a67d0598d60d12","true","668.5749999999534","./Stimuli/SelectedImages/LM/LM57.bmp","76","","","","test","false","M + N","83","repetition","LM","LM57.bmp","forget","","59","3","prime1","right","","","",""
"html-keyboard-response","158","528756","0.0-4.0-1.0-2.10-0.10","p53ptvde1njwm1j","prime","5f39969af06eda1376816f70","5f5a55364e9b770ed21874ff","5f60d79030a67d0598d60d12","false","null","<span style=""color: red; font-size: 48px"">Error!</span>","null","","","","feedback","","","","","","","","","","","","","","","",""
"html-keyboard-response","159","530757","0.0-4.0-1.0-3.10","p53ptvde1njwm1j","prime","5f39969af06eda1376816f70","5f5a55364e9b770ed21874ff","5f60d79030a67d0598d60d12","false","null","<div style=""align-items: center; display: flex; color: darkorange; font-size: 90px""><b>ø</b></div>","null","","","","forget_cue","","","","","","","","","","","","","","","",""
"html-keyboard-response","160","531462","0.0-4.0-1.0-0.11","p53ptvde1njwm1j","prime","5f39969af06eda1376816f70","5f5a55364e9b770ed21874ff","5f60d79030a67d0598d60d12","false","null","<span style=""color: black; font-size: 48px"">N + M</span>","null","","","","resp_prompt","","","","","","","","","","","","","","","",""
"categorize-image","161","532150","0.0-4.0-1.0-1.11","p53ptvde1njwm1j","prime","5f39969af06eda1376816f70","5f5a55364e9b770ed21874ff","5f60d79030a67d0598d60d12","true","684.8800000000047","./Stimuli/SelectedImages/SN/SN140.bmp","83","","","","test","true","N + M","83","repetition","SN","SN140.bmp","forget","","60","3","prime1","left","","","",""
"html-keyboard-response","162","534154","0.0-4.0-1.0-3.11","p53ptvde1njwm1j","prime","5f39969af06eda1376816f70","5f5a55364e9b770ed21874ff","5f60d79030a67d0598d60d12","false","null","<div style=""align-items: center; display: flex; color: darkorange; font-size: 90px""><b>ø</b></div>","null","","","","forget_cue","","","","","","","","","","","","","","","",""
"html-keyboard-response","163","534859","0.0-4.0-1.0-0.12","p53ptvde1njwm1j","prime","5f39969af06eda1376816f70","5f5a55364e9b770ed21874ff","5f60d79030a67d0598d60d12","false","null","<span style=""color: black; font-size: 48px"">N + M</span>","null","","","","resp_prompt","","","","","","","","","","","","","","","",""
"categorize-image","164","535574","0.0-4.0-1.0-1.12","p53ptvde1njwm1j","prime","5f39969af06eda1376816f70","5f5a55364e9b770ed21874ff","5f60d79030a67d0598d60d12","true","712.0949999999721","./Stimuli/SelectedImages/LM/LM150.bmp","83","","","","test","false","N + M","76","switch","LM","LM150.bmp","remember","","61","3","prime1","left","","","",""
"html-keyboard-response","165","536075","0.0-4.0-1.0-2.12-0.12","p53ptvde1njwm1j","prime","5f39969af06eda1376816f70","5f5a55364e9b770ed21874ff","5f60d79030a67d0598d60d12","false","null","<span style=""color: red; font-size: 48px"">Error!</span>","null","","","","feedback","","","","","","","","","","","","","","","",""
"html-keyboard-response","166","538078","0.0-4.0-1.0-3.12","p53ptvde1njwm1j","prime","5f39969af06eda1376816f70","5f5a55364e9b770ed21874ff","5f60d79030a67d0598d60d12","false","null","<div style=""align-items: center; display: flex; color: dodgerblue; font-size: 90px""><b>o</b></div>","null","","","","forget_cue","","","","","","","","","","","","","","","",""
"html-keyboard-response","167","538783","0.0-4.0-1.0-0.13","p53ptvde1njwm1j","prime","5f39969af06eda1376816f70","5f5a55364e9b770ed21874ff","5f60d79030a67d0598d60d12","false","null","<span style=""color: black; font-size: 48px"">M + N</span>","null","","","","resp_prompt","","","","","","","","","","","","","","","",""
"categorize-image","168","540774","0.0-4.0-1.0-1.13","p53ptvde1njwm1j","prime","5f39969af06eda1376816f70","5f5a55364e9b770ed21874ff","5f60d79030a67d0598d60d12","true","1985.545000000042","./Stimuli/SelectedImages/LN/LN82.bmp","76","","","","test","true","M + N","76","switch","LN","LN82.bmp","forget","","62","3","prime1","right","","","",""
"html-keyboard-response","169","542775","0.0-4.0-1.0-3.13","p53ptvde1njwm1j","prime","5f39969af06eda1376816f70","5f5a55364e9b770ed21874ff","5f60d79030a67d0598d60d12","false","null","<div style=""align-items: center; display: flex; color: darkorange; font-size: 90px""><b>ø</b></div>","null","","","","forget_cue","","","","","","","","","","","","","","","",""
"html-keyboard-response","170","543481","0.0-4.0-1.0-0.14","p53ptvde1njwm1j","prime","5f39969af06eda1376816f70","5f5a55364e9b770ed21874ff","5f60d79030a67d0598d60d12","false","null","<span style=""color: black; font-size: 48px"">N + M</span>","null","","","","resp_prompt","","","","","","","","","","","","","","","",""
"categorize-image","171","544523","0.0-4.0-1.0-1.14","p53ptvde1njwm1j","prime","5f39969af06eda1376816f70","5f5a55364e9b770ed21874ff","5f60d79030a67d0598d60d12","true","1038.9000000000233","./Stimuli/SelectedImages/SM/SM184.bmp","76","","","","test","true","N + M","76","repetition","SM","SM184.bmp","remember","","63","3","prime1","right","","","",""
"html-keyboard-response","172","546527","0.0-4.0-1.0-3.14","p53ptvde1njwm1j","prime","5f39969af06eda1376816f70","5f5a55364e9b770ed21874ff","5f60d79030a67d0598d60d12","false","null","<div style=""align-items: center; display: flex; color: dodgerblue; font-size: 90px""><b>o</b></div>","null","","","","forget_cue","","","","","","","","","","","","","","","",""
"html-keyboard-response","173","547232","0.0-4.0-1.0-0.15","p53ptvde1njwm1j","prime","5f39969af06eda1376816f70","5f5a55364e9b770ed21874ff","5f60d79030a67d0598d60d12","false","null","<span style=""color: black; font-size: 48px"">M + N</span>","null","","","","resp_prompt","","","","","","","","","","","","","","","",""
"categorize-image","174","547805","0.0-4.0-1.0-1.15","p53ptvde1njwm1j","prime","5f39969af06eda1376816f70","5f5a55364e9b770ed21874ff","5f60d79030a67d0598d60d12","true","569.3850000000093","./Stimuli/SelectedImages/SM/SM73.bmp","83","","","","test","true","M + N","83","repetition","SM","SM73.bmp","remember","","64","3","prime1","left","","","",""
"html-keyboard-response","175","549808","0.0-4.0-1.0-3.15","p53ptvde1njwm1j","prime","5f39969af06eda1376816f70","5f5a55364e9b770ed21874ff","5f60d79030a67d0598d60d12","false","null","<div style=""align-items: center; display: flex; color: dodgerblue; font-size: 90px""><b>o</b></div>","null","","","","forget_cue","","","","","","","","","","","","","","","",""
"html-keyboard-response","176","550510","0.0-4.0-1.0-0.16","p53ptvde1njwm1j","prime","5f39969af06eda1376816f70","5f5a55364e9b770ed21874ff","5f60d79030a67d0598d60d12","false","null","<span style=""color: black; font-size: 48px"">N + M</span>","null","","","","resp_prompt","","","","","","","","","","","","","","","",""
"categorize-image","177","551254","0.0-4.0-1.0-1.16","p53ptvde1njwm1j","prime","5f39969af06eda1376816f70","5f5a55364e9b770ed21874ff","5f60d79030a67d0598d60d12","true","740.765000000014","./Stimuli/SelectedImages/SN/SN111.bmp","83","","","","test","true","N + M","83","repetition","SN","SN111.bmp","remember","","65","3","prime1","left","","","",""
"html-keyboard-response","178","553260","0.0-4.0-1.0-3.16","p53ptvde1njwm1j","prime","5f39969af06eda1376816f70","5f5a55364e9b770ed21874ff","5f60d79030a67d0598d60d12","false","null","<div style=""align-items: center; display: flex; color: dodgerblue; font-size: 90px""><b>o</b></div>","null","","","","forget_cue","","","","","","","","","","","","","","","",""
"html-keyboard-response","179","553964","0.0-4.0-1.0-0.17","p53ptvde1njwm1j","prime","5f39969af06eda1376816f70","5f5a55364e9b770ed21874ff","5f60d79030a67d0598d60d12","false","null","<span style=""color: black; font-size: 48px"">M + N</span>","null","","","","resp_prompt","","","","","","","","","","","","","","","",""
"categorize-image","180","555313","0.0-4.0-1.0-1.17","p53ptvde1njwm1j","prime","5f39969af06eda1376816f70","5f5a55364e9b770ed21874ff","5f60d79030a67d0598d60d12","true","1345.420000000042","./Stimuli/SelectedImages/LN/LN128.bmp","76","","","","test","true","M + N","76","switch","LN","LN128.bmp","forget","","66","3","prime1","right","","","",""
"html-keyboard-response","181","557317","0.0-4.0-1.0-3.17","p53ptvde1njwm1j","prime","5f39969af06eda1376816f70","5f5a55364e9b770ed21874ff","5f60d79030a67d0598d60d12","false","null","<div style=""align-items: center; display: flex; color: darkorange; font-size: 90px""><b>ø</b></div>","null","","","","forget_cue","","","","","","","","","","","","","","","",""
"html-keyboard-response","182","558022","0.0-4.0-1.0-0.18","p53ptvde1njwm1j","prime","5f39969af06eda1376816f70","5f5a55364e9b770ed21874ff","5f60d79030a67d0598d60d12","false","null","<span style=""color: black; font-size: 48px"">N + M</span>","null","","","","resp_prompt","","","","","","","","","","","","","","","",""
"categorize-image","183","558983","0.0-4.0-1.0-1.18","p53ptvde1njwm1j","prime","5f39969af06eda1376816f70","5f5a55364e9b770ed21874ff","5f60d79030a67d0598d60d12","true","956.8199999999488","./Stimuli/SelectedImages/LM/LM48.bmp","76","","","","test","true","N + M","76","repetition","LM","LM48.bmp","forget","","67","3","prime1","right","","","",""
"html-keyboard-response","184","560988","0.0-4.0-1.0-3.18","p53ptvde1njwm1j","prime","5f39969af06eda1376816f70","5f5a55364e9b770ed21874ff","5f60d79030a67d0598d60d12","false","null","<div style=""align-items: center; display: flex; color: darkorange; font-size: 90px""><b>ø</b></div>","null","","","","forget_cue","","","","","","","","","","","","","","","",""
"html-keyboard-response","185","561690","0.0-4.0-1.0-0.19","p53ptvde1njwm1j","prime","5f39969af06eda1376816f70","5f5a55364e9b770ed21874ff","5f60d79030a67d0598d60d12","false","null","<span style=""color: black; font-size: 48px"">M + N</span>","null","","","","resp_prompt","","","","","","","","","","","","","","","",""
"categorize-image","186","562281","0.0-4.0-1.0-1.19","p53ptvde1njwm1j","prime","5f39969af06eda1376816f70","5f5a55364e9b770ed21874ff","5f60d79030a67d0598d60d12","true","587.2949999999255","./Stimuli/SelectedImages/LM/LM167.bmp","83","","","","test","true","M + N","83","repetition","LM","LM167.bmp","remember","","68","3","prime1","left","","","",""
"html-keyboard-response","187","564286","0.0-4.0-1.0-3.19","p53ptvde1njwm1j","prime","5f39969af06eda1376816f70","5f5a55364e9b770ed21874ff","5f60d79030a67d0598d60d12","false","null","<div style=""align-items: center; display: flex; color: dodgerblue; font-size: 90px""><b>o</b></div>","null","","","","forget_cue","","","","","","","","","","","","","","","",""
"html-keyboard-response","188","564990","0.0-4.0-1.0-0.20","p53ptvde1njwm1j","prime","5f39969af06eda1376816f70","5f5a55364e9b770ed21874ff","5f60d79030a67d0598d60d12","false","null","<span style=""color: black; font-size: 48px"">M + N</span>","null","","","","resp_prompt","","","","","","","","","","","","","","","",""
"categorize-image","189","566266","0.0-4.0-1.0-1.20","p53ptvde1njwm1j","prime","5f39969af06eda1376816f70","5f5a55364e9b770ed21874ff","5f60d79030a67d0598d60d12","true","1271.509999999893","./Stimuli/SelectedImages/LN/LN101.bmp","76","","","","test","true","M + N","76","switch","LN","LN101.bmp","remember","","69","3","prime1","right","","","",""
"html-keyboard-response","190","568271","0.0-4.0-1.0-3.20","p53ptvde1njwm1j","prime","5f39969af06eda1376816f70","5f5a55364e9b770ed21874ff","5f60d79030a67d0598d60d12","false","null","<div style=""align-items: center; display: flex; color: dodgerblue; font-size: 90px""><b>o</b></div>","null","","","","forget_cue","","","","","","","","","","","","","","","",""
"html-keyboard-response","191","568974","0.0-4.0-1.0-0.21","p53ptvde1njwm1j","prime","5f39969af06eda1376816f70","5f5a55364e9b770ed21874ff","5f60d79030a67d0598d60d12","false","null","<span style=""color: black; font-size: 48px"">M + N</span>","null","","","","resp_prompt","","","","","","","","","","","","","","","",""
"categorize-image","192","570519","0.0-4.0-1.0-1.21","p53ptvde1njwm1j","prime","5f39969af06eda1376816f70","5f5a55364e9b770ed21874ff","5f60d79030a67d0598d60d12","true","1540.0200000000186","./Stimuli/SelectedImages/LN/LN92.bmp","76","","","","test","true","M + N","76","repetition","LN","LN92.bmp","forget","","70","3","prime1","right","","","",""
"html-keyboard-response","193","572523","0.0-4.0-1.0-3.21","p53ptvde1njwm1j","prime","5f39969af06eda1376816f70","5f5a55364e9b770ed21874ff","5f60d79030a67d0598d60d12","false","null","<div style=""align-items: center; display: flex; color: darkorange; font-size: 90px""><b>ø</b></div>","null","","","","forget_cue","","","","","","","","","","","","","","","",""
"html-keyboard-response","194","573227","0.0-4.0-1.0-0.22","p53ptvde1njwm1j","prime","5f39969af06eda1376816f70","5f5a55364e9b770ed21874ff","5f60d79030a67d0598d60d12","false","null","<span style=""color: black; font-size: 48px"">M + N</span>","null","","","","resp_prompt","","","","","","","","","","","","","","","",""
"categorize-image","195","574024","0.0-4.0-1.0-1.22","p53ptvde1njwm1j","prime","5f39969af06eda1376816f70","5f5a55364e9b770ed21874ff","5f60d79030a67d0598d60d12","true","793.6199999999953","./Stimuli/SelectedImages/SM/SM24.bmp","83","","","","test","true","M + N","83","switch","SM","SM24.bmp","forget","","71","3","prime1","left","","","",""
"html-keyboard-response","196","576029","0.0-4.0-1.0-3.22","p53ptvde1njwm1j","prime","5f39969af06eda1376816f70","5f5a55364e9b770ed21874ff","5f60d79030a67d0598d60d12","false","null","<div style=""align-items: center; display: flex; color: darkorange; font-size: 90px""><b>ø</b></div>","null","","","","forget_cue","","","","","","","","","","","","","","","",""
"html-keyboard-response","197","576734","0.0-4.0-1.0-0.23","p53ptvde1njwm1j","prime","5f39969af06eda1376816f70","5f5a55364e9b770ed21874ff","5f60d79030a67d0598d60d12","false","null","<span style=""color: black; font-size: 48px"">N + M</span>","null","","","","resp_prompt","","","","","","","","","","","","","","","",""
"categorize-image","198","578026","0.0-4.0-1.0-1.23","p53ptvde1njwm1j","prime","5f39969af06eda1376816f70","5f5a55364e9b770ed21874ff","5f60d79030a67d0598d60d12","true","1288.3399999999674","./Stimuli/SelectedImages/LM/LM209.bmp","83","","","","test","false","N + M","76","switch","LM","LM209.bmp","forget","","72","3","prime1","left","","","",""
"html-keyboard-response","199","578529","0.0-4.0-1.0-2.23-0.23","p53ptvde1njwm1j","prime","5f39969af06eda1376816f70","5f5a55364e9b770ed21874ff","5f60d79030a67d0598d60d12","false","null","<span style=""color: red; font-size: 48px"">Error!</span>","null","","","","feedback","","","","","","","","","","","","","","","",""
"html-keyboard-response","200","580532","0.0-4.0-1.0-3.23","p53ptvde1njwm1j","prime","5f39969af06eda1376816f70","5f5a55364e9b770ed21874ff","5f60d79030a67d0598d60d12","false","null","<div style=""align-items: center; display: flex; color: darkorange; font-size: 90px""><b>ø</b></div>","null","","","","forget_cue","","","","","","","","","","","","","","","",""
"html-keyboard-response","201","581238","0.0-4.0-1.0-0.24","p53ptvde1njwm1j","prime","5f39969af06eda1376816f70","5f5a55364e9b770ed21874ff","5f60d79030a67d0598d60d12","false","null","<span style=""color: black; font-size: 48px"">M + N</span>","null","","","","resp_prompt","","","","","","","","","","","","","","","",""
"categorize-image","202","582850","0.0-4.0-1.0-1.24","p53ptvde1njwm1j","prime","5f39969af06eda1376816f70","5f5a55364e9b770ed21874ff","5f60d79030a67d0598d60d12","true","1607.9000000000233","./Stimuli/SelectedImages/LN/LN13.bmp","76","","","","test","true","M + N","76","repetition","LN","LN13.bmp","forget","","73","3","prime1","right","","","",""
"html-keyboard-response","203","584852","0.0-4.0-1.0-3.24","p53ptvde1njwm1j","prime","5f39969af06eda1376816f70","5f5a55364e9b770ed21874ff","5f60d79030a67d0598d60d12","false","null","<div style=""align-items: center; display: flex; color: darkorange; font-size: 90px""><b>ø</b></div>","null","","","","forget_cue","","","","","","","","","","","","","","","",""
"html-keyboard-response","204","585554","0.0-4.0-1.0-0.25","p53ptvde1njwm1j","prime","5f39969af06eda1376816f70","5f5a55364e9b770ed21874ff","5f60d79030a67d0598d60d12","false","null","<span style=""color: black; font-size: 48px"">N + M</span>","null","","","","resp_prompt","","","","","","","","","","","","","","","",""
"categorize-image","205","586340","0.0-4.0-1.0-1.25","p53ptvde1njwm1j","prime","5f39969af06eda1376816f70","5f5a55364e9b770ed21874ff","5f60d79030a67d0598d60d12","true","782.2700000000186","./Stimuli/SelectedImages/LN/LN149.bmp","83","","","","test","true","N + M","83","switch","LN","LN149.bmp","remember","","74","3","prime1","left","","","",""
"html-keyboard-response","206","588342","0.0-4.0-1.0-3.25","p53ptvde1njwm1j","prime","5f39969af06eda1376816f70","5f5a55364e9b770ed21874ff","5f60d79030a67d0598d60d12","false","null","<div style=""align-items: center; display: flex; color: dodgerblue; font-size: 90px""><b>o</b></div>","null","","","","forget_cue","","","","","","","","","","","","","","","",""
"html-keyboard-response","207","589045","0.0-4.0-1.0-0.26","p53ptvde1njwm1j","prime","5f39969af06eda1376816f70","5f5a55364e9b770ed21874ff","5f60d79030a67d0598d60d12","false","null","<span style=""color: black; font-size: 48px"">M + N</span>","null","","","","resp_prompt","","","","","","","","","","","","","","","",""
"categorize-image","208","590323","0.0-4.0-1.0-1.26","p53ptvde1njwm1j","prime","5f39969af06eda1376816f70","5f5a55364e9b770ed21874ff","5f60d79030a67d0598d60d12","true","1274.1599999999162","./Stimuli/SelectedImages/SM/SM205.bmp","83","","","","test","true","M + N","83","switch","SM","SM205.bmp","remember","","75","3","prime1","left","","","",""
"html-keyboard-response","209","592329","0.0-4.0-1.0-3.26","p53ptvde1njwm1j","prime","5f39969af06eda1376816f70","5f5a55364e9b770ed21874ff","5f60d79030a67d0598d60d12","false","null","<div style=""align-items: center; display: flex; color: dodgerblue; font-size: 90px""><b>o</b></div>","null","","","","forget_cue","","","","","","","","","","","","","","","",""
"html-keyboard-response","210","593034","0.0-4.0-1.0-0.27","p53ptvde1njwm1j","prime","5f39969af06eda1376816f70","5f5a55364e9b770ed21874ff","5f60d79030a67d0598d60d12","false","null","<span style=""color: black; font-size: 48px"">N + M</span>","null","","","","resp_prompt","","","","","","","","","","","","","","","",""
"categorize-image","211","593727","0.0-4.0-1.0-1.27","p53ptvde1njwm1j","prime","5f39969af06eda1376816f70","5f5a55364e9b770ed21874ff","5f60d79030a67d0598d60d12","true","689.1050000000978","./Stimuli/SelectedImages/LM/LM235.bmp","76","","","","test","true","N + M","76","switch","LM","LM235.bmp","remember","","76","3","prime1","right","","","",""
"html-keyboard-response","212","595730","0.0-4.0-1.0-3.27","p53ptvde1njwm1j","prime","5f39969af06eda1376816f70","5f5a55364e9b770ed21874ff","5f60d79030a67d0598d60d12","false","null","<div style=""align-items: center; display: flex; color: dodgerblue; font-size: 90px""><b>o</b></div>","null","","","","forget_cue","","","","","","","","","","","","","","","",""
"html-keyboard-response","213","596435","0.0-4.0-1.0-0.28","p53ptvde1njwm1j","prime","5f39969af06eda1376816f70","5f5a55364e9b770ed21874ff","5f60d79030a67d0598d60d12","false","null","<span style=""color: black; font-size: 48px"">N + M</span>","null","","","","resp_prompt","","","","","","","","","","","","","","","",""
"categorize-image","214","597390","0.0-4.0-1.0-1.28","p53ptvde1njwm1j","prime","5f39969af06eda1376816f70","5f5a55364e9b770ed21874ff","5f60d79030a67d0598d60d12","true","952.359999999986","./Stimuli/SelectedImages/LN/LN111.bmp","83","","","","test","true","N + M","83","switch","LN","LN111.bmp","remember","","77","3","prime1","left","","","",""
"html-keyboard-response","215","599394","0.0-4.0-1.0-3.28","p53ptvde1njwm1j","prime","5f39969af06eda1376816f70","5f5a55364e9b770ed21874ff","5f60d79030a67d0598d60d12","false","null","<div style=""align-items: center; display: flex; color: dodgerblue; font-size: 90px""><b>o</b></div>","null","","","","forget_cue","","","","","","","","","","","","","","","",""
"html-keyboard-response","216","600097","0.0-4.0-1.0-0.29","p53ptvde1njwm1j","prime","5f39969af06eda1376816f70","5f5a55364e9b770ed21874ff","5f60d79030a67d0598d60d12","false","null","<span style=""color: black; font-size: 48px"">N + M</span>","null","","","","resp_prompt","","","","","","","","","","","","","","","",""
"categorize-image","217","601445","0.0-4.0-1.0-1.29","p53ptvde1njwm1j","prime","5f39969af06eda1376816f70","5f5a55364e9b770ed21874ff","5f60d79030a67d0598d60d12","true","1344.5250000000233","./Stimuli/SelectedImages/SN/SN27.bmp","83","","","","test","true","N + M","83","repetition","SN","SN27.bmp","forget","","78","3","prime1","left","","","",""
"html-keyboard-response","218","603449","0.0-4.0-1.0-3.29","p53ptvde1njwm1j","prime","5f39969af06eda1376816f70","5f5a55364e9b770ed21874ff","5f60d79030a67d0598d60d12","false","null","<div style=""align-items: center; display: flex; color: darkorange; font-size: 90px""><b>ø</b></div>","null","","","","forget_cue","","","","","","","","","","","","","","","",""
"html-keyboard-response","219","604153","0.0-4.0-1.0-0.30","p53ptvde1njwm1j","prime","5f39969af06eda1376816f70","5f5a55364e9b770ed21874ff","5f60d79030a67d0598d60d12","false","null","<span style=""color: black; font-size: 48px"">N + M</span>","null","","","","resp_prompt","","","","","","","","","","","","","","","",""
"categorize-image","220","605338","0.0-4.0-1.0-1.30","p53ptvde1njwm1j","prime","5f39969af06eda1376816f70","5f5a55364e9b770ed21874ff","5f60d79030a67d0598d60d12","true","1180.7749999999069","./Stimuli/SelectedImages/LN/LN9.bmp","83","","","","test","true","N + M","83","repetition","LN","LN9.bmp","forget","","79","3","prime1","left","","","",""
"html-keyboard-response","221","607339","0.0-4.0-1.0-3.30","p53ptvde1njwm1j","prime","5f39969af06eda1376816f70","5f5a55364e9b770ed21874ff","5f60d79030a67d0598d60d12","false","null","<div style=""align-items: center; display: flex; color: darkorange; font-size: 90px""><b>ø</b></div>","null","","","","forget_cue","","","","","","","","","","","","","","","",""
"html-keyboard-response","222","608043","0.0-4.0-1.0-0.31","p53ptvde1njwm1j","prime","5f39969af06eda1376816f70","5f5a55364e9b770ed21874ff","5f60d79030a67d0598d60d12","false","null","<span style=""color: black; font-size: 48px"">N + M</span>","null","","","","resp_prompt","","","","","","","","","","","","","","","",""
"categorize-image","223","609445","0.0-4.0-1.0-1.31","p53ptvde1njwm1j","prime","5f39969af06eda1376816f70","5f5a55364e9b770ed21874ff","5f60d79030a67d0598d60d12","true","1398.125","./Stimuli/SelectedImages/LN/LN59.bmp","83","","","","test","true","N + M","83","switch","LN","LN59.bmp","forget","","80","3","prime1","left","","","",""
"html-keyboard-response","224","611449","0.0-4.0-1.0-3.31","p53ptvde1njwm1j","prime","5f39969af06eda1376816f70","5f5a55364e9b770ed21874ff","5f60d79030a67d0598d60d12","false","null","<div style=""align-items: center; display: flex; color: darkorange; font-size: 90px""><b>ø</b></div>","null","","","","forget_cue","","","","","","","","","","","","","","","",""
"html-keyboard-response","225","612155","0.0-4.0-1.0-0.32","p53ptvde1njwm1j","prime","5f39969af06eda1376816f70","5f5a55364e9b770ed21874ff","5f60d79030a67d0598d60d12","false","null","<span style=""color: black; font-size: 48px"">M + N</span>","null","","","","resp_prompt","","","","","","","","","","","","","","","",""
"categorize-image","226","613604","0.0-4.0-1.0-1.32","p53ptvde1njwm1j","prime","5f39969af06eda1376816f70","5f5a55364e9b770ed21874ff","5f60d79030a67d0598d60d12","true","1445.420000000042","./Stimuli/SelectedImages/LN/LN28.bmp","76","","","","test","true","M + N","76","repetition","LN","LN28.bmp","remember","","81","3","prime1","right","","","",""
"html-keyboard-response","227","615608","0.0-4.0-1.0-3.32","p53ptvde1njwm1j","prime","5f39969af06eda1376816f70","5f5a55364e9b770ed21874ff","5f60d79030a67d0598d60d12","false","null","<div style=""align-items: center; display: flex; color: dodgerblue; font-size: 90px""><b>o</b></div>","null","","","","forget_cue","","","","","","","","","","","","","","","",""
"html-keyboard-response","228","616313","0.0-4.0-1.0-0.33","p53ptvde1njwm1j","prime","5f39969af06eda1376816f70","5f5a55364e9b770ed21874ff","5f60d79030a67d0598d60d12","false","null","<span style=""color: black; font-size: 48px"">N + M</span>","null","","","","resp_prompt","","","","","","","","","","","","","","","",""
"categorize-image","229","617270","0.0-4.0-1.0-1.33","p53ptvde1njwm1j","prime","5f39969af06eda1376816f70","5f5a55364e9b770ed21874ff","5f60d79030a67d0598d60d12","true","953.6049999999814","./Stimuli/SelectedImages/SN/SN179.bmp","83","","","","test","true","N + M","83","switch","SN","SN179.bmp","forget","","82","3","prime1","left","","","",""
"html-keyboard-response","230","619275","0.0-4.0-1.0-3.33","p53ptvde1njwm1j","prime","5f39969af06eda1376816f70","5f5a55364e9b770ed21874ff","5f60d79030a67d0598d60d12","false","null","<div style=""align-items: center; display: flex; color: darkorange; font-size: 90px""><b>ø</b></div>","null","","","","forget_cue","","","","","","","","","","","","","","","",""
"html-keyboard-response","231","619977","0.0-4.0-1.0-0.34","p53ptvde1njwm1j","prime","5f39969af06eda1376816f70","5f5a55364e9b770ed21874ff","5f60d79030a67d0598d60d12","false","null","<span style=""color: black; font-size: 48px"">N + M</span>","null","","","","resp_prompt","","","","","","","","","","","","","","","",""
"categorize-image","232","621194","0.0-4.0-1.0-1.34","p53ptvde1njwm1j","prime","5f39969af06eda1376816f70","5f5a55364e9b770ed21874ff","5f60d79030a67d0598d60d12","true","1213.4649999999674","./Stimuli/SelectedImages/LN/LN42.bmp","83","","","","test","true","N + M","83","repetition","LN","LN42.bmp","forget","","83","3","prime1","left","","","",""
"html-keyboard-response","233","623198","0.0-4.0-1.0-3.34","p53ptvde1njwm1j","prime","5f39969af06eda1376816f70","5f5a55364e9b770ed21874ff","5f60d79030a67d0598d60d12","false","null","<div style=""align-items: center; display: flex; color: darkorange; font-size: 90px""><b>ø</b></div>","null","","","","forget_cue","","","","","","","","","","","","","","","",""
"html-keyboard-response","234","623900","0.0-4.0-1.0-0.35","p53ptvde1njwm1j","prime","5f39969af06eda1376816f70","5f5a55364e9b770ed21874ff","5f60d79030a67d0598d60d12","false","null","<span style=""color: black; font-size: 48px"">M + N</span>","null","","","","resp_prompt","","","","","","","","","","","","","","","",""
"categorize-image","235","625587","0.0-4.0-1.0-1.35","p53ptvde1njwm1j","prime","5f39969af06eda1376816f70","5f5a55364e9b770ed21874ff","5f60d79030a67d0598d60d12","true","1684.7900000000373","./Stimuli/SelectedImages/LM/LM100.bmp","83","","","","test","true","M + N","83","repetition","LM","LM100.bmp","remember","","84","3","prime1","left","","","",""
"html-keyboard-response","236","627592","0.0-4.0-1.0-3.35","p53ptvde1njwm1j","prime","5f39969af06eda1376816f70","5f5a55364e9b770ed21874ff","5f60d79030a67d0598d60d12","false","null","<div style=""align-items: center; display: flex; color: dodgerblue; font-size: 90px""><b>o</b></div>","null","","","","forget_cue","","","","","","","","","","","","","","","",""
"html-keyboard-response","237","628297","0.0-4.0-1.0-0.36","p53ptvde1njwm1j","prime","5f39969af06eda1376816f70","5f5a55364e9b770ed21874ff","5f60d79030a67d0598d60d12","false","null","<span style=""color: black; font-size: 48px"">M + N</span>","null","","","","resp_prompt","","","","","","","","","","","","","","","",""
"categorize-image","238","630192","0.0-4.0-1.0-1.36","p53ptvde1njwm1j","prime","5f39969af06eda1376816f70","5f5a55364e9b770ed21874ff","5f60d79030a67d0598d60d12","true","1892.4550000000745","./Stimuli/SelectedImages/LM/LM75.bmp","83","","","","test","true","M + N","83","switch","LM","LM75.bmp","forget","","85","3","prime1","left","","","",""
"html-keyboard-response","239","632198","0.0-4.0-1.0-3.36","p53ptvde1njwm1j","prime","5f39969af06eda1376816f70","5f5a55364e9b770ed21874ff","5f60d79030a67d0598d60d12","false","null","<div style=""align-items: center; display: flex; color: darkorange; font-size: 90px""><b>ø</b></div>","null","","","","forget_cue","","","","","","","","","","","","","","","",""
"html-keyboard-response","240","632900","0.0-4.0-1.0-0.37","p53ptvde1njwm1j","prime","5f39969af06eda1376816f70","5f5a55364e9b770ed21874ff","5f60d79030a67d0598d60d12","false","null","<span style=""color: black; font-size: 48px"">M + N</span>","null","","","","resp_prompt","","","","","","","","","","","","","","","",""
"categorize-image","241","633660","0.0-4.0-1.0-1.37","p53ptvde1njwm1j","prime","5f39969af06eda1376816f70","5f5a55364e9b770ed21874ff","5f60d79030a67d0598d60d12","true","756.1050000000978","./Stimuli/SelectedImages/LN/LN177.bmp","76","","","","test","true","M + N","76","switch","LN","LN177.bmp","remember","","86","3","prime1","right","","","",""
"html-keyboard-response","242","635664","0.0-4.0-1.0-3.37","p53ptvde1njwm1j","prime","5f39969af06eda1376816f70","5f5a55364e9b770ed21874ff","5f60d79030a67d0598d60d12","false","null","<div style=""align-items: center; display: flex; color: dodgerblue; font-size: 90px""><b>o</b></div>","null","","","","forget_cue","","","","","","","","","","","","","","","",""
"html-keyboard-response","243","636369","0.0-4.0-1.0-0.38","p53ptvde1njwm1j","prime","5f39969af06eda1376816f70","5f5a55364e9b770ed21874ff","5f60d79030a67d0598d60d12","false","null","<span style=""color: black; font-size: 48px"">N + M</span>","null","","","","resp_prompt","","","","","","","","","","","","","","","",""
"categorize-image","244","637406","0.0-4.0-1.0-1.38","p53ptvde1njwm1j","prime","5f39969af06eda1376816f70","5f5a55364e9b770ed21874ff","5f60d79030a67d0598d60d12","true","1033.0399999999208","./Stimuli/SelectedImages/SN/SN64.bmp","83","","","","test","true","N + M","83","switch","SN","SN64.bmp","remember","","87","3","prime1","left","","","",""
"html-keyboard-response","245","639410","0.0-4.0-1.0-3.38","p53ptvde1njwm1j","prime","5f39969af06eda1376816f70","5f5a55364e9b770ed21874ff","5f60d79030a67d0598d60d12","false","null","<div style=""align-items: center; display: flex; color: dodgerblue; font-size: 90px""><b>o</b></div>","null","","","","forget_cue","","","","","","","","","","","","","","","",""
"html-keyboard-response","246","640115","0.0-4.0-1.0-0.39","p53ptvde1njwm1j","prime","5f39969af06eda1376816f70","5f5a55364e9b770ed21874ff","5f60d79030a67d0598d60d12","false","null","<span style=""color: black; font-size: 48px"">M + N</span>","null","","","","resp_prompt","","","","","","","","","","","","","","","",""
"categorize-image","247","641277","0.0-4.0-1.0-1.39","p53ptvde1njwm1j","prime","5f39969af06eda1376816f70","5f5a55364e9b770ed21874ff","5f60d79030a67d0598d60d12","true","1159.1849999999395","./Stimuli/SelectedImages/LM/LM216.bmp","83","","","","test","true","M + N","83","switch","LM","LM216.bmp","remember","","88","3","prime1","left","","","",""
"html-keyboard-response","248","643283","0.0-4.0-1.0-3.39","p53ptvde1njwm1j","prime","5f39969af06eda1376816f70","5f5a55364e9b770ed21874ff","5f60d79030a67d0598d60d12","false","null","<div style=""align-items: center; display: flex; color: dodgerblue; font-size: 90px""><b>o</b></div>","null","","","","forget_cue","","","","","","","","","","","","","","","",""
"html-keyboard-response","249","643987","0.0-4.0-1.0-0.40","p53ptvde1njwm1j","prime","5f39969af06eda1376816f70","5f5a55364e9b770ed21874ff","5f60d79030a67d0598d60d12","false","null","<span style=""color: black; font-size: 48px"">M + N</span>","null","","","","resp_prompt","","","","","","","","","","","","","","","",""
"categorize-image","250","645108","0.0-4.0-1.0-1.40","p53ptvde1njwm1j","prime","5f39969af06eda1376816f70","5f5a55364e9b770ed21874ff","5f60d79030a67d0598d60d12","true","1117.9749999999767","./Stimuli/SelectedImages/SM/SM108.bmp","83","","","","test","true","M + N","83","repetition","SM","SM108.bmp","remember","","89","3","prime1","left","","","",""
"html-keyboard-response","251","647114","0.0-4.0-1.0-3.40","p53ptvde1njwm1j","prime","5f39969af06eda1376816f70","5f5a55364e9b770ed21874ff","5f60d79030a67d0598d60d12","false","null","<div style=""align-items: center; display: flex; color: dodgerblue; font-size: 90px""><b>o</b></div>","null","","","","forget_cue","","","","","","","","","","","","","","","",""
"html-keyboard-response","252","647820","0.0-4.0-1.0-0.41","p53ptvde1njwm1j","prime","5f39969af06eda1376816f70","5f5a55364e9b770ed21874ff","5f60d79030a67d0598d60d12","false","null","<span style=""color: black; font-size: 48px"">N + M</span>","null","","","","resp_prompt","","","","","","","","","","","","","","","",""
"categorize-image","253","649258","0.0-4.0-1.0-1.41","p53ptvde1njwm1j","prime","5f39969af06eda1376816f70","5f5a55364e9b770ed21874ff","5f60d79030a67d0598d60d12","true","1434.5850000001956","./Stimuli/SelectedImages/SM/SM213.bmp","76","","","","test","true","N + M","76","repetition","SM","SM213.bmp","remember","","90","3","prime1","right","","","",""
