"trial_type","trial_index","time_elapsed","internal_node_id","subject","exp_part","prolific_PID","study_ID","session_ID","use","rt","stimulus","key_press","button_pressed","responses","question_order","trial_part","correct","resp_map","correct_resp","probe_condition","category","image","forget_condition","list","trial_num","block_num","block","response","test_part","n_span","sequence","num_spaces"
"pavlovia","0","11","0.0-0.0","ppd2zj2l9nyqrq4","","5f5d33e0e5bbeb12a39439eb","5f60e3c0a3b16e07647b2ff9","5f64c2c1c82b0e027153b81e","false","","","","","","","","","","","","","","","","","","","","","","",""
"html-keyboard-response","1","11004","0.0-1.0-0.0-0.0","ppd2zj2l9nyqrq4","welcome","5f5d33e0e5bbeb12a39439eb","5f60e3c0a3b16e07647b2ff9","5f64c2c1c82b0e027153b81e","false","10989.195000001928","<div align=left>Dear participant, <br> thank you for participating in an online study of the Cognition, Action, and Sustainability Unit of the University of Freiburg! <br> <br>The aim of this study is to examine our ability to remember previously learned information. <br>Our goal is to find out, whether our memory improves, when we only remember information that is relevant to us. <br>The experiment will take about 35 minutes to complete. <br> <br>Please, note that you can only participate in this study if you are using a device with a keyboard (PC, Laptop etc.) <br>and not if you are using a mobile device such as a tablet or smartphone.<br> <br>Press 'SPACE' to proceed to the experiment. </div>","32","","","","","","","","","","","","","","","","","","","",""
"html-keyboard-response","2","80427","0.0-1.0-0.0-1.0","ppd2zj2l9nyqrq4","welcome","5f5d33e0e5bbeb12a39439eb","5f60e3c0a3b16e07647b2ff9","5f64c2c1c82b0e027153b81e","false","69420.55000000983","<div align=left><strong> Time Course of this experiment: </strong> <br><br> <strong> 1.</strong>  First, please fill in some information regarding your demographic data. <br><br> <strong> 2.</strong>  Next, your task will be to classify everyday objects. <br>In addition, you will be asked to remember certain objects and recall them later. <br>Working on these tasks requires your undivided attention and concentration.<br>It is therefore essential that you eliminate any sources of distraction in your  <br>environment and ensure that you will not be disturbed. <br><br><strong> 3.</strong>  At the end of the experiment, you will be asked to answer a few additional questions. <br> <br><strong> Important:</strong> After finishing the experiment, only close the browser window <br> by clicking on the 'end the experiment'-button when you are asked to do so. <br>Closing the browser window prematurely will make the allocation of your participation credit impossible. <br><br> Press 'SPACE' to start the experiment. </div>","32","","","","","","","","","","","","","","","","","","","",""
"html-button-response","3","89336","0.0-1.0-0.0-2.0","ppd2zj2l9nyqrq4","welcome","5f5d33e0e5bbeb12a39439eb","5f60e3c0a3b16e07647b2ff9","5f64c2c1c82b0e027153b81e","true","8907.145000004675","<div align=left><strong> Informed consent </strong>  <br>The aim of our research is to better understand human behavior and mental processes. <br>In the following study your behavior (e.g. choices, reaction times) will be studied. <br> <br><strong> Voluntariness and Anonymity </strong> <br>Your participation in this study is  <strong> voluntary</strong>.<br>You may withdraw your consent to participate at any time without providing a reason for doing so and without fear of prejudice. <br><br>As no personal data will be collected, <strong>your data and your person cannot be connected after data collection</strong> – the data-set is anonymous. <br>Respectively, deletion of your data will not be possible after data collection has been completed, as we cannot retrace your data-set.<br>The results and anonymized data collected in this study will be published as a scientific publication. <br>This will happen in an <strong>anonymized format</strong>, so that no data can be traced back to a specific person. <br> <br>The anonymized data of this study will be made available to other researchers and/or in a data archive on the Internet as a means of transparency and to enable subsequent re-use. By doing so, this study follows the recommendations of the Deutsche Forschungsgemeinschaft (DFG, German Research Foundation) and Deutsche Gesellschaft für Psychologie (DGPS, German Psychological Society) regarding quality assurance in research.<br>If you have any questions now or after the experiment, please contact our team (experiments@cs.uni-freiburg.de).<br><br><br>I hereby declare, that I understand the above described conditions of participation and I agree to participate under these conditions. <br><br> </div>","","0","","","","","","","","","","","","","","","","","","",""
"html-keyboard-response","4","123000","0.0-1.0-0.0-3.0","ppd2zj2l9nyqrq4","welcome","5f5d33e0e5bbeb12a39439eb","5f60e3c0a3b16e07647b2ff9","5f64c2c1c82b0e027153b81e","false","33661.01999999955","<div align=left><strong> General information concerning the experiment </strong>  <br> <br>Please follow the instructions:<ol> <li><strong> Do not leave this tab (your browser window) during the experiment and do not reload this tab! </strong>  <br>If you do switch tabs/windows during the experiment (to check your mail or visit another website, for example), <br>the experiment will end automatically and you will <strong>not receive credit</strong> for your participation. <br>Repeated participation or resumption of the experiment is impossible.</li> <br><li>Please close all other programs for the duration of your participation. </li> <br><li>Please mute or turn off your phone and put it out of your reach. </li> <br><li>Please also take off any disturbing accessories (such as wristwatches, bracelets, etc.). </li> <br><li>If you have music playing in the background, please turn it off now. </li> <br></ol>Thank you! <br>Press 'SPACE' to continue. </div>","32","","","","","","","","","","","","","","","","","","","",""
"survey-text","5","125488","0.0-1.0-1.0-0.0","ppd2zj2l9nyqrq4","demographics","5f5d33e0e5bbeb12a39439eb","5f60e3c0a3b16e07647b2ff9","5f64c2c1c82b0e027153b81e","true","2478.5499999998137","","","","{""age"":""21""}","","","","","","","","","","","","","","","","","",""
"survey-multi-choice","6","150407","0.0-1.0-1.0-1.0","ppd2zj2l9nyqrq4","demographics","5f5d33e0e5bbeb12a39439eb","5f60e3c0a3b16e07647b2ff9","5f64c2c1c82b0e027153b81e","true","24913.360000005923","","","","{""gender"":""male"",""school"":""high school"",""education"":""Completed university degree or equivalent""}","[0,1,2]","","","","","","","","","","","","","","","","",""
"html-keyboard-response","7","171897","0.0-1.0-2.0","ppd2zj2l9nyqrq4","instructions","5f5d33e0e5bbeb12a39439eb","5f60e3c0a3b16e07647b2ff9","5f64c2c1c82b0e027153b81e","false","21480.060000001686","<div align=left> The experiment is now about to start: <br> <br>In the following part, you will be presented pictures of everyday objects. <br>Your first task is to <strong>classify these objects. </strong> <br> <br> You will classify them either as mechanical or non-mechanical objects. <br> <br>Objects that include any kind of technical mechanism (for example, wheels, switches, levers, <br> electronic components) fall under the category of <strong>mechanical</strong> objects. <br>Only objects without any kind of technical mechanism should be classified as <strong>non-mechanical</strong>. <br><br>Press 'SPACE' to continue. </div>","32","","","","","","","","","","","","","","","","","","","",""
"html-keyboard-response","8","226191","0.0-2.0-0.0","ppd2zj2l9nyqrq4","instructions","5f5d33e0e5bbeb12a39439eb","5f60e3c0a3b16e07647b2ff9","5f64c2c1c82b0e027153b81e","false","54291.70500001055","<div align=justify>You will classify the objects using the <strong>'S'</strong> and the <strong>'L'</strong> keys on your keyboard.<br>For doing so, please place your <strong>left index finger</strong> on the <strong>'S'</strong> key and place your <strong>right index finger</strong> on the <strong>'L'</strong> key. <br><br> Each trial starts with an instruction, indicating which key ('S'/'L') you need to press to classify <br>the object as mechanical (letter M) or non-mechanical (letter N).<br>The instruction <strong>M + N</strong> indicates that, in the current trial, by pressing the left key ('S') you classify the displayed object as mechanical (M) <br> and by pressing the right key ('L') you classify the object as non-mechanical (N). <br>The instruction <strong>N + M</strong> on the other hand indicates that by pressing the left key ('S') you classify the displayed object as non-mechanical (N) <br> and by pressing the right key ('L') you classify the object as mechanical (M). <br><br>Please press the key corresponding to the correct classification as fast as possible as soon as the object is displayed and try to avoid making mistakes.<br>If you do not respond within a 2 second window, a corresponding feedback will be displayed and the next trial will start.<br> The experiment is divided into multiple blocks to give you the opportunity to take a break after each block. <br>First, you can now practice this task. <br><br>Please place your <strong>LEFT INDEX FINGER</strong> on the 'S' key and your <strong>RIGHT INDEX FINGER</strong> on the 'L' key now. <br><br>Press SPACE to continue.</div>","32","","","","","","","","","","","","","","","","","","","",""
"html-keyboard-response","9","233662","0.0-2.0-1.0","ppd2zj2l9nyqrq4","instructions","5f5d33e0e5bbeb12a39439eb","5f60e3c0a3b16e07647b2ff9","5f64c2c1c82b0e027153b81e","false","7468.445000005886","<div align=left> You will now have time to practice this task.<br><br>Remember: <br> <br><li>Please place your index fingers on the <strong>'S'</strong> and <strong>'L'</strong> keys <br>to respond as fast and accurately as possible.</li><li>Every picture can be classified as either mechanical or non-mechanical.</li><li>If you do not respond in time or commit an error, you will receive a corresponding feedback. </li><li> Please try to respond as <strong> fast </strong> and as <strong> accurately as possible </strong> .<br><li>To ensure optimal results, please minimize distractions and stay focused. </li><br><br>Press SPACE to continue.</div>","32","","","","","","","","","","","","","","","","","","","",""
"html-keyboard-response","10","234369","0.0-2.0-2.0-0.0","ppd2zj2l9nyqrq4","practice_no_cue","5f5d33e0e5bbeb12a39439eb","5f60e3c0a3b16e07647b2ff9","5f64c2c1c82b0e027153b81e","false","null","<span style=""color: black; font-size: 48px"">N + M</span>","null","","","","resp_prompt","","","","","","","","","","","","","","","",""
"categorize-image","11","235664","0.0-2.0-2.0-1.0","ppd2zj2l9nyqrq4","practice_no_cue","5f5d33e0e5bbeb12a39439eb","5f60e3c0a3b16e07647b2ff9","5f64c2c1c82b0e027153b81e","true","787.609999999404","./Stimuli/ImagesPractice/SM98.jpg","76","","","","test","true","N + M","76","","SM","SM98.jpg","forget","old","1","1","start","right","","","",""
"html-keyboard-response","12","236369","0.0-2.0-2.0-0.1","ppd2zj2l9nyqrq4","practice_no_cue","5f5d33e0e5bbeb12a39439eb","5f60e3c0a3b16e07647b2ff9","5f64c2c1c82b0e027153b81e","false","null","<span style=""color: black; font-size: 48px"">N + M</span>","null","","","","resp_prompt","","","","","","","","","","","","","","","",""
"categorize-image","13","237632","0.0-2.0-2.0-1.1","ppd2zj2l9nyqrq4","practice_no_cue","5f5d33e0e5bbeb12a39439eb","5f60e3c0a3b16e07647b2ff9","5f64c2c1c82b0e027153b81e","true","757.2949999885168","./Stimuli/ImagesPractice/SM35.jpg","76","","","","test","true","N + M","76","","SM","SM35.jpg","forget","old","2","1","start","right","","","",""
"html-keyboard-response","14","238337","0.0-2.0-2.0-0.2","ppd2zj2l9nyqrq4","practice_no_cue","5f5d33e0e5bbeb12a39439eb","5f60e3c0a3b16e07647b2ff9","5f64c2c1c82b0e027153b81e","false","null","<span style=""color: black; font-size: 48px"">M + N</span>","null","","","","resp_prompt","","","","","","","","","","","","","","","",""
"categorize-image","15","239660","0.0-2.0-2.0-1.2","ppd2zj2l9nyqrq4","practice_no_cue","5f5d33e0e5bbeb12a39439eb","5f60e3c0a3b16e07647b2ff9","5f64c2c1c82b0e027153b81e","true","818.8849999860395","./Stimuli/ImagesPractice/SN221.jpg","76","","","","test","true","M + N","76","","SN","SN221.jpg","forget","old","3","1","start","right","","","",""
"html-keyboard-response","16","240366","0.0-2.0-2.0-0.3","ppd2zj2l9nyqrq4","practice_no_cue","5f5d33e0e5bbeb12a39439eb","5f60e3c0a3b16e07647b2ff9","5f64c2c1c82b0e027153b81e","false","null","<span style=""color: black; font-size: 48px"">M + N</span>","null","","","","resp_prompt","","","","","","","","","","","","","","","",""
"categorize-image","17","241444","0.0-2.0-2.0-1.3","ppd2zj2l9nyqrq4","practice_no_cue","5f5d33e0e5bbeb12a39439eb","5f60e3c0a3b16e07647b2ff9","5f64c2c1c82b0e027153b81e","true","574.1500000003725","./Stimuli/ImagesPractice/SM62.jpg","83","","","","test","true","M + N","83","","SM","SM62.jpg","remember","old","4","1","start","left","","","",""
"html-keyboard-response","18","242149","0.0-2.0-2.0-0.4","ppd2zj2l9nyqrq4","practice_no_cue","5f5d33e0e5bbeb12a39439eb","5f60e3c0a3b16e07647b2ff9","5f64c2c1c82b0e027153b81e","false","null","<span style=""color: black; font-size: 48px"">N + M</span>","null","","","","resp_prompt","","","","","","","","","","","","","","","",""
"categorize-image","19","243254","0.0-2.0-2.0-1.4","ppd2zj2l9nyqrq4","practice_no_cue","5f5d33e0e5bbeb12a39439eb","5f60e3c0a3b16e07647b2ff9","5f64c2c1c82b0e027153b81e","true","597.6500000106171","./Stimuli/ImagesPractice/LN15.jpg","83","","","","test","true","N + M","83","","LN","LN15.jpg","forget","old","5","1","start","left","","","",""
"html-keyboard-response","20","243960","0.0-2.0-2.0-0.5","ppd2zj2l9nyqrq4","practice_no_cue","5f5d33e0e5bbeb12a39439eb","5f60e3c0a3b16e07647b2ff9","5f64c2c1c82b0e027153b81e","false","null","<span style=""color: black; font-size: 48px"">M + N</span>","null","","","","resp_prompt","","","","","","","","","","","","","","","",""
"categorize-image","21","245080","0.0-2.0-2.0-1.5","ppd2zj2l9nyqrq4","practice_no_cue","5f5d33e0e5bbeb12a39439eb","5f60e3c0a3b16e07647b2ff9","5f64c2c1c82b0e027153b81e","true","614.3750000046566","./Stimuli/ImagesPractice/SN205.jpg","76","","","","test","true","M + N","76","","SN","SN205.jpg","forget","old","6","1","start","right","","","",""
"html-keyboard-response","22","245786","0.0-2.0-2.0-0.6","ppd2zj2l9nyqrq4","practice_no_cue","5f5d33e0e5bbeb12a39439eb","5f60e3c0a3b16e07647b2ff9","5f64c2c1c82b0e027153b81e","false","null","<span style=""color: black; font-size: 48px"">N + M</span>","null","","","","resp_prompt","","","","","","","","","","","","","","","",""
"categorize-image","23","246909","0.0-2.0-2.0-1.6","ppd2zj2l9nyqrq4","practice_no_cue","5f5d33e0e5bbeb12a39439eb","5f60e3c0a3b16e07647b2ff9","5f64c2c1c82b0e027153b81e","true","616.5449999971315","./Stimuli/ImagesPractice/LM55.jpg","76","","","","test","true","N + M","76","","LM","LM55.jpg","remember","old","7","1","start","right","","","",""
"html-keyboard-response","24","247614","0.0-2.0-2.0-0.7","ppd2zj2l9nyqrq4","practice_no_cue","5f5d33e0e5bbeb12a39439eb","5f60e3c0a3b16e07647b2ff9","5f64c2c1c82b0e027153b81e","false","null","<span style=""color: black; font-size: 48px"">M + N</span>","null","","","","resp_prompt","","","","","","","","","","","","","","","",""
"categorize-image","25","248693","0.0-2.0-2.0-1.7","ppd2zj2l9nyqrq4","practice_no_cue","5f5d33e0e5bbeb12a39439eb","5f60e3c0a3b16e07647b2ff9","5f64c2c1c82b0e027153b81e","true","575.3150000236928","./Stimuli/ImagesPractice/LN72.jpg","76","","","","test","true","M + N","76","","LN","LN72.jpg","remember","old","8","1","start","right","","","",""
"html-keyboard-response","26","249399","0.0-2.0-2.0-0.8","ppd2zj2l9nyqrq4","practice_no_cue","5f5d33e0e5bbeb12a39439eb","5f60e3c0a3b16e07647b2ff9","5f64c2c1c82b0e027153b81e","false","null","<span style=""color: black; font-size: 48px"">M + N</span>","null","","","","resp_prompt","","","","","","","","","","","","","","","",""
"categorize-image","27","250508","0.0-2.0-2.0-1.8","ppd2zj2l9nyqrq4","practice_no_cue","5f5d33e0e5bbeb12a39439eb","5f60e3c0a3b16e07647b2ff9","5f64c2c1c82b0e027153b81e","true","604.0599999832921","./Stimuli/ImagesPractice/LM230.jpg","83","","","","test","true","M + N","83","","LM","LM230.jpg","forget","old","9","1","start","left","","","",""
"html-keyboard-response","28","251213","0.0-2.0-2.0-0.9","ppd2zj2l9nyqrq4","practice_no_cue","5f5d33e0e5bbeb12a39439eb","5f60e3c0a3b16e07647b2ff9","5f64c2c1c82b0e027153b81e","false","null","<span style=""color: black; font-size: 48px"">M + N</span>","null","","","","resp_prompt","","","","","","","","","","","","","","","",""
"categorize-image","29","252397","0.0-2.0-2.0-1.9","ppd2zj2l9nyqrq4","practice_no_cue","5f5d33e0e5bbeb12a39439eb","5f60e3c0a3b16e07647b2ff9","5f64c2c1c82b0e027153b81e","true","679.0050000126939","./Stimuli/ImagesPractice/SN75.jpg","83","","","","test","false","M + N","76","","SN","SN75.jpg","forget","old","10","1","start","left","","","",""
"html-keyboard-response","30","253100","0.0-2.0-2.0-0.10","ppd2zj2l9nyqrq4","practice_no_cue","5f5d33e0e5bbeb12a39439eb","5f60e3c0a3b16e07647b2ff9","5f64c2c1c82b0e027153b81e","false","null","<span style=""color: black; font-size: 48px"">N + M</span>","null","","","","resp_prompt","","","","","","","","","","","","","","","",""
"categorize-image","31","254291","0.0-2.0-2.0-1.10","ppd2zj2l9nyqrq4","practice_no_cue","5f5d33e0e5bbeb12a39439eb","5f60e3c0a3b16e07647b2ff9","5f64c2c1c82b0e027153b81e","true","686.390000017127","./Stimuli/ImagesPractice/SM61.jpg","76","","","","test","true","N + M","76","","SM","SM61.jpg","forget","old","11","1","start","right","","","",""
"html-keyboard-response","32","254996","0.0-2.0-2.0-0.11","ppd2zj2l9nyqrq4","practice_no_cue","5f5d33e0e5bbeb12a39439eb","5f60e3c0a3b16e07647b2ff9","5f64c2c1c82b0e027153b81e","false","null","<span style=""color: black; font-size: 48px"">M + N</span>","null","","","","resp_prompt","","","","","","","","","","","","","","","",""
"categorize-image","33","256165","0.0-2.0-2.0-1.11","ppd2zj2l9nyqrq4","practice_no_cue","5f5d33e0e5bbeb12a39439eb","5f60e3c0a3b16e07647b2ff9","5f64c2c1c82b0e027153b81e","true","662.0200000179466","./Stimuli/ImagesPractice/LN4.jpg","76","","","","test","true","M + N","76","","LN","LN4.jpg","remember","old","12","1","start","right","","","",""
"html-keyboard-response","34","256870","0.0-2.0-2.0-0.12","ppd2zj2l9nyqrq4","practice_no_cue","5f5d33e0e5bbeb12a39439eb","5f60e3c0a3b16e07647b2ff9","5f64c2c1c82b0e027153b81e","false","null","<span style=""color: black; font-size: 48px"">N + M</span>","null","","","","resp_prompt","","","","","","","","","","","","","","","",""
"categorize-image","35","258031","0.0-2.0-2.0-1.12","ppd2zj2l9nyqrq4","practice_no_cue","5f5d33e0e5bbeb12a39439eb","5f60e3c0a3b16e07647b2ff9","5f64c2c1c82b0e027153b81e","true","655.0799999968149","./Stimuli/ImagesPractice/LM224.jpg","76","","","","test","true","N + M","76","","LM","LM224.jpg","remember","old","13","1","start","right","","","",""
"html-keyboard-response","36","258736","0.0-2.0-2.0-0.13","ppd2zj2l9nyqrq4","practice_no_cue","5f5d33e0e5bbeb12a39439eb","5f60e3c0a3b16e07647b2ff9","5f64c2c1c82b0e027153b81e","false","null","<span style=""color: black; font-size: 48px"">N + M</span>","null","","","","resp_prompt","","","","","","","","","","","","","","","",""
"categorize-image","37","259968","0.0-2.0-2.0-1.13","ppd2zj2l9nyqrq4","practice_no_cue","5f5d33e0e5bbeb12a39439eb","5f60e3c0a3b16e07647b2ff9","5f64c2c1c82b0e027153b81e","true","727.6249999995343","./Stimuli/ImagesPractice/LM147.jpg","83","","","","test","false","N + M","76","","LM","LM147.jpg","remember","old","14","1","start","left","","","",""
"html-keyboard-response","38","260674","0.0-2.0-2.0-0.14","ppd2zj2l9nyqrq4","practice_no_cue","5f5d33e0e5bbeb12a39439eb","5f60e3c0a3b16e07647b2ff9","5f64c2c1c82b0e027153b81e","false","null","<span style=""color: black; font-size: 48px"">M + N</span>","null","","","","resp_prompt","","","","","","","","","","","","","","","",""
"categorize-image","39","261805","0.0-2.0-2.0-1.14","ppd2zj2l9nyqrq4","practice_no_cue","5f5d33e0e5bbeb12a39439eb","5f60e3c0a3b16e07647b2ff9","5f64c2c1c82b0e027153b81e","true","624.6099999989383","./Stimuli/ImagesPractice/SN220.jpg","76","","","","test","true","M + N","76","","SN","SN220.jpg","remember","old","15","1","start","right","","","",""
"html-keyboard-response","40","262510","0.0-2.0-2.0-0.15","ppd2zj2l9nyqrq4","practice_no_cue","5f5d33e0e5bbeb12a39439eb","5f60e3c0a3b16e07647b2ff9","5f64c2c1c82b0e027153b81e","false","null","<span style=""color: black; font-size: 48px"">N + M</span>","null","","","","resp_prompt","","","","","","","","","","","","","","","",""
"categorize-image","41","263700","0.0-2.0-2.0-1.15","ppd2zj2l9nyqrq4","practice_no_cue","5f5d33e0e5bbeb12a39439eb","5f60e3c0a3b16e07647b2ff9","5f64c2c1c82b0e027153b81e","true","685.5450000148267","./Stimuli/ImagesPractice/LN2.jpg","83","","","","test","true","N + M","83","","LN","LN2.jpg","remember","old","16","1","start","left","","","",""
"html-keyboard-response","42","270743","0.0-2.0-3.0","ppd2zj2l9nyqrq4","break","5f5d33e0e5bbeb12a39439eb","5f60e3c0a3b16e07647b2ff9","5f64c2c1c82b0e027153b81e","false","7041.100000002189","<p style='font-size: 32px;'>Break</><br><br><br><br><br><p style='font-size: 24px;'>In the last block, you committed 2 errors and did not respond in time on 0 trials.
</p><p style='font-size: 24px;'>Try to respond as fast and accurately as possible in the next block as well! </p><p style='font-size: 24px;'>Press SPACE to continue.</p>","32","","","","","","","","","","","","","","","","","","","",""
"html-keyboard-response","43","275349","0.0-2.0-4.0","ppd2zj2l9nyqrq4","instructions","5f5d33e0e5bbeb12a39439eb","5f60e3c0a3b16e07647b2ff9","5f64c2c1c82b0e027153b81e","false","4603.590000013355","<div align=left> Great!<br><br>Are you ready to continue?<br><br>If you want to reread the instructions and redo the practice trials, <br>please press „Z“. <br><br>Press SPACE to CONTINUE with the experiment when you are ready. </div>","32","","","","","","","","","","","","","","","","","","","",""
"html-keyboard-response","44","298529","0.0-3.0-0.0","ppd2zj2l9nyqrq4","instructions","5f5d33e0e5bbeb12a39439eb","5f60e3c0a3b16e07647b2ff9","5f64c2c1c82b0e027153b81e","false","23178.155000001425","<div align=left>Great!<br> <strong>Attention</strong>! You will now receive a second, additional task! <br><br>To this point it was you <strong>first task</strong> to correctly <strong>classify objects</strong>. <br><br>As mentioned in the beginning, we aim to examine how well humans can remember previously learned information.<br>We would like to find out whether our memory improves if we only remember information that is relevant to us. <br><br>Therefore, your <strong>second task</strong> will be to <strong>remember</strong> the pictures you are to categorize. <br> After the learning phase, there will be a memory test phase, in which you will be asked to indicate whether you have seen a picture before or not. <br>Some, but not all pictures shown in the learning phase will appear in the memory test phase.<br>After classifying a picture, you will be told whether you should remember it for the memory test phase or not. <br>Thus, some pictures can be forgotten, whereas others have to be remembered. <br><br>Note: From now on, feedback will only be displayed if you responded incorrectly or not in time.<br><br>Press SPACE to continue.</div>","32","","","","","","","","","","","","","","","","","","","",""
"html-keyboard-response","45","321784","0.0-3.0-1.0","ppd2zj2l9nyqrq4","instructions","5f5d33e0e5bbeb12a39439eb","5f60e3c0a3b16e07647b2ff9","5f64c2c1c82b0e027153b81e","false","23253.06499999715","<div align=left>In the following part, you will thus have to remember only some pictures. <br>Immediately after seeing and classifying the picture, a symbol will be displayed, indicating whether you should remember or forget the previous picture. <br><br>A <span style='color: dodgerblue; font-size: 28px'>O</span> indicates REMEMBER. That means, you have to remember this picture, because it will be tested later. <br><br>A <span style='color: darkorange; font-size:28px'>Ø</span> indicates FORGET. You do not have to remember this picture. <br><br> As you will have to remember a lot of pictures, it will be hard for you to remember all of them. <br>It will put you at an advantage if you instantly forget the pictures you are not asked to remember. <br> This will make it easier for you to remember the pictures that will be tested afterwards. <br><br>Press SPACE to continue.</div>","32","","","","","","","","","","","","","","","","","","","",""
"html-keyboard-response","46","330092","0.0-3.0-2.0","ppd2zj2l9nyqrq4","instructions","5f5d33e0e5bbeb12a39439eb","5f60e3c0a3b16e07647b2ff9","5f64c2c1c82b0e027153b81e","false","8306.604999990668","<div align=left> Now you have the chance to practice both tasks together.<br><br>Remember: <br> <br><li>Please place your index fingers on the <strong>'S'</strong> and <strong>'L'</strong> keys <br>to respond as fast and accurately as possible.</li><li>Every picture can be classified as either mechanical or non-mechanical.</li><li>If you do not respond in time or commit an error, you will receive a corresponding feedback. <br>Please try to respond as <strong> fast </strong> and as <strong> accurately as possible </strong>.</li><li> Please remember only the to-be-remembered <span style='color: dodgerblue; font-size: 28px'>O</span> pictures. <br></li><li> Please minimize distractions and stay focused. </li><br><br>Press SPACE to START</div>","32","","","","","","","","","","","","","","","","","","","",""
"html-keyboard-response","47","330797","0.0-3.0-3.0-0.0","ppd2zj2l9nyqrq4","practice_cue","5f5d33e0e5bbeb12a39439eb","5f60e3c0a3b16e07647b2ff9","5f64c2c1c82b0e027153b81e","false","null","<span style=""color: black; font-size: 48px"">M + N</span>","null","","","","resp_prompt","","","","","","","","","","","","","","","",""
"categorize-image","48","331392","0.0-3.0-3.0-1.0","ppd2zj2l9nyqrq4","practice_cue","5f5d33e0e5bbeb12a39439eb","5f60e3c0a3b16e07647b2ff9","5f64c2c1c82b0e027153b81e","true","588.5100000014063","./Stimuli/ImagesPractice/SM62.jpg","83","","","","test","true","M + N","83","","SM","SM62.jpg","remember","old","17","2","practice_forget","left","","","",""
"html-keyboard-response","49","333398","0.0-3.0-3.0-3.0","ppd2zj2l9nyqrq4","practice_cue","5f5d33e0e5bbeb12a39439eb","5f60e3c0a3b16e07647b2ff9","5f64c2c1c82b0e027153b81e","false","null","<div style=""align-items: center; display: flex; color: dodgerblue; font-size: 90px""><b>o</b></div>","null","","","","forget_cue","","","","","","","","","","","","","","","",""
"html-keyboard-response","50","334103","0.0-3.0-3.0-0.1","ppd2zj2l9nyqrq4","practice_cue","5f5d33e0e5bbeb12a39439eb","5f60e3c0a3b16e07647b2ff9","5f64c2c1c82b0e027153b81e","false","null","<span style=""color: black; font-size: 48px"">N + M</span>","null","","","","resp_prompt","","","","","","","","","","","","","","","",""
"categorize-image","51","334727","0.0-3.0-3.0-1.1","ppd2zj2l9nyqrq4","practice_cue","5f5d33e0e5bbeb12a39439eb","5f60e3c0a3b16e07647b2ff9","5f64c2c1c82b0e027153b81e","true","620.3600000008009","./Stimuli/ImagesPractice/LM147.jpg","76","","","","test","true","N + M","76","","LM","LM147.jpg","remember","old","18","2","practice_forget","right","","","",""
"html-keyboard-response","52","336730","0.0-3.0-3.0-3.1","ppd2zj2l9nyqrq4","practice_cue","5f5d33e0e5bbeb12a39439eb","5f60e3c0a3b16e07647b2ff9","5f64c2c1c82b0e027153b81e","false","null","<div style=""align-items: center; display: flex; color: dodgerblue; font-size: 90px""><b>o</b></div>","null","","","","forget_cue","","","","","","","","","","","","","","","",""
"html-keyboard-response","53","337437","0.0-3.0-3.0-0.2","ppd2zj2l9nyqrq4","practice_cue","5f5d33e0e5bbeb12a39439eb","5f60e3c0a3b16e07647b2ff9","5f64c2c1c82b0e027153b81e","false","null","<span style=""color: black; font-size: 48px"">N + M</span>","null","","","","resp_prompt","","","","","","","","","","","","","","","",""
"categorize-image","54","337951","0.0-3.0-3.0-1.2","ppd2zj2l9nyqrq4","practice_cue","5f5d33e0e5bbeb12a39439eb","5f60e3c0a3b16e07647b2ff9","5f64c2c1c82b0e027153b81e","true","508.4400000050664","./Stimuli/ImagesPractice/LN15.jpg","83","","","","test","true","N + M","83","","LN","LN15.jpg","forget","old","19","2","practice_forget","left","","","",""
"html-keyboard-response","55","339957","0.0-3.0-3.0-3.2","ppd2zj2l9nyqrq4","practice_cue","5f5d33e0e5bbeb12a39439eb","5f60e3c0a3b16e07647b2ff9","5f64c2c1c82b0e027153b81e","false","null","<div style=""align-items: center; display: flex; color: darkorange; font-size: 90px""><b>ø</b></div>","null","","","","forget_cue","","","","","","","","","","","","","","","",""
"html-keyboard-response","56","340663","0.0-3.0-3.0-0.3","ppd2zj2l9nyqrq4","practice_cue","5f5d33e0e5bbeb12a39439eb","5f60e3c0a3b16e07647b2ff9","5f64c2c1c82b0e027153b81e","false","null","<span style=""color: black; font-size: 48px"">M + N</span>","null","","","","resp_prompt","","","","","","","","","","","","","","","",""
"categorize-image","57","341255","0.0-3.0-3.0-1.3","ppd2zj2l9nyqrq4","practice_cue","5f5d33e0e5bbeb12a39439eb","5f60e3c0a3b16e07647b2ff9","5f64c2c1c82b0e027153b81e","true","586.3450000179","./Stimuli/ImagesPractice/LN72.jpg","83","","","","test","false","M + N","76","","LN","LN72.jpg","remember","old","20","2","practice_forget","left","","","",""
"html-keyboard-response","58","341757","0.0-3.0-3.0-2.3-0.3","ppd2zj2l9nyqrq4","practice_cue","5f5d33e0e5bbeb12a39439eb","5f60e3c0a3b16e07647b2ff9","5f64c2c1c82b0e027153b81e","false","null","<span style=""color: red; font-size: 48px"">Error!</span>","null","","","","feedback","","","","","","","","","","","","","","","",""
"html-keyboard-response","59","343762","0.0-3.0-3.0-3.3","ppd2zj2l9nyqrq4","practice_cue","5f5d33e0e5bbeb12a39439eb","5f60e3c0a3b16e07647b2ff9","5f64c2c1c82b0e027153b81e","false","null","<div style=""align-items: center; display: flex; color: dodgerblue; font-size: 90px""><b>o</b></div>","null","","","","forget_cue","","","","","","","","","","","","","","","",""
"html-keyboard-response","60","344468","0.0-3.0-3.0-0.4","ppd2zj2l9nyqrq4","practice_cue","5f5d33e0e5bbeb12a39439eb","5f60e3c0a3b16e07647b2ff9","5f64c2c1c82b0e027153b81e","false","null","<span style=""color: black; font-size: 48px"">M + N</span>","null","","","","resp_prompt","","","","","","","","","","","","","","","",""
"categorize-image","61","345043","0.0-3.0-3.0-1.4","ppd2zj2l9nyqrq4","practice_cue","5f5d33e0e5bbeb12a39439eb","5f60e3c0a3b16e07647b2ff9","5f64c2c1c82b0e027153b81e","true","570.689999993192","./Stimuli/ImagesPractice/LN4.jpg","76","","","","test","true","M + N","76","","LN","LN4.jpg","remember","old","21","2","practice_forget","right","","","",""
"html-keyboard-response","62","347047","0.0-3.0-3.0-3.4","ppd2zj2l9nyqrq4","practice_cue","5f5d33e0e5bbeb12a39439eb","5f60e3c0a3b16e07647b2ff9","5f64c2c1c82b0e027153b81e","false","null","<div style=""align-items: center; display: flex; color: dodgerblue; font-size: 90px""><b>o</b></div>","null","","","","forget_cue","","","","","","","","","","","","","","","",""
"html-keyboard-response","63","347753","0.0-3.0-3.0-0.5","ppd2zj2l9nyqrq4","practice_cue","5f5d33e0e5bbeb12a39439eb","5f60e3c0a3b16e07647b2ff9","5f64c2c1c82b0e027153b81e","false","null","<span style=""color: black; font-size: 48px"">M + N</span>","null","","","","resp_prompt","","","","","","","","","","","","","","","",""
"categorize-image","64","348471","0.0-3.0-3.0-1.5","ppd2zj2l9nyqrq4","practice_cue","5f5d33e0e5bbeb12a39439eb","5f60e3c0a3b16e07647b2ff9","5f64c2c1c82b0e027153b81e","true","713.3150000008754","./Stimuli/ImagesPractice/SN75.jpg","76","","","","test","true","M + N","76","","SN","SN75.jpg","forget","old","22","2","practice_forget","right","","","",""
"html-keyboard-response","65","350476","0.0-3.0-3.0-3.5","ppd2zj2l9nyqrq4","practice_cue","5f5d33e0e5bbeb12a39439eb","5f60e3c0a3b16e07647b2ff9","5f64c2c1c82b0e027153b81e","false","null","<div style=""align-items: center; display: flex; color: darkorange; font-size: 90px""><b>ø</b></div>","null","","","","forget_cue","","","","","","","","","","","","","","","",""
"html-keyboard-response","66","351181","0.0-3.0-3.0-0.6","ppd2zj2l9nyqrq4","practice_cue","5f5d33e0e5bbeb12a39439eb","5f60e3c0a3b16e07647b2ff9","5f64c2c1c82b0e027153b81e","false","null","<span style=""color: black; font-size: 48px"">N + M</span>","null","","","","resp_prompt","","","","","","","","","","","","","","","",""
"categorize-image","67","351678","0.0-3.0-3.0-1.6","ppd2zj2l9nyqrq4","practice_cue","5f5d33e0e5bbeb12a39439eb","5f60e3c0a3b16e07647b2ff9","5f64c2c1c82b0e027153b81e","true","492.28999999468215","./Stimuli/ImagesPractice/SM61.jpg","76","","","","test","true","N + M","76","","SM","SM61.jpg","forget","old","23","2","practice_forget","right","","","",""
"html-keyboard-response","68","353682","0.0-3.0-3.0-3.6","ppd2zj2l9nyqrq4","practice_cue","5f5d33e0e5bbeb12a39439eb","5f60e3c0a3b16e07647b2ff9","5f64c2c1c82b0e027153b81e","false","null","<div style=""align-items: center; display: flex; color: darkorange; font-size: 90px""><b>ø</b></div>","null","","","","forget_cue","","","","","","","","","","","","","","","",""
"html-keyboard-response","69","354389","0.0-3.0-3.0-0.7","ppd2zj2l9nyqrq4","practice_cue","5f5d33e0e5bbeb12a39439eb","5f60e3c0a3b16e07647b2ff9","5f64c2c1c82b0e027153b81e","false","null","<span style=""color: black; font-size: 48px"">N + M</span>","null","","","","resp_prompt","","","","","","","","","","","","","","","",""
"categorize-image","70","356191","0.0-3.0-3.0-1.7","ppd2zj2l9nyqrq4","practice_cue","5f5d33e0e5bbeb12a39439eb","5f60e3c0a3b16e07647b2ff9","5f64c2c1c82b0e027153b81e","true","1797.1850000030827","./Stimuli/ImagesPractice/LN2.jpg","83","","","","test","true","N + M","83","","LN","LN2.jpg","remember","old","24","2","practice_forget","left","","","",""
"html-keyboard-response","71","358195","0.0-3.0-3.0-3.7","ppd2zj2l9nyqrq4","practice_cue","5f5d33e0e5bbeb12a39439eb","5f60e3c0a3b16e07647b2ff9","5f64c2c1c82b0e027153b81e","false","null","<div style=""align-items: center; display: flex; color: dodgerblue; font-size: 90px""><b>o</b></div>","null","","","","forget_cue","","","","","","","","","","","","","","","",""
"html-keyboard-response","72","358902","0.0-3.0-3.0-0.8","ppd2zj2l9nyqrq4","practice_cue","5f5d33e0e5bbeb12a39439eb","5f60e3c0a3b16e07647b2ff9","5f64c2c1c82b0e027153b81e","false","null","<span style=""color: black; font-size: 48px"">M + N</span>","null","","","","resp_prompt","","","","","","","","","","","","","","","",""
"categorize-image","73","359702","0.0-3.0-3.0-1.8","ppd2zj2l9nyqrq4","practice_cue","5f5d33e0e5bbeb12a39439eb","5f60e3c0a3b16e07647b2ff9","5f64c2c1c82b0e027153b81e","true","795.3149999957532","./Stimuli/ImagesPractice/SN220.jpg","76","","","","test","true","M + N","76","","SN","SN220.jpg","remember","old","25","2","practice_forget","right","","","",""
"html-keyboard-response","74","361709","0.0-3.0-3.0-3.8","ppd2zj2l9nyqrq4","practice_cue","5f5d33e0e5bbeb12a39439eb","5f60e3c0a3b16e07647b2ff9","5f64c2c1c82b0e027153b81e","false","null","<div style=""align-items: center; display: flex; color: dodgerblue; font-size: 90px""><b>o</b></div>","null","","","","forget_cue","","","","","","","","","","","","","","","",""
"html-keyboard-response","75","362413","0.0-3.0-3.0-0.9","ppd2zj2l9nyqrq4","practice_cue","5f5d33e0e5bbeb12a39439eb","5f60e3c0a3b16e07647b2ff9","5f64c2c1c82b0e027153b81e","false","null","<span style=""color: black; font-size: 48px"">M + N</span>","null","","","","resp_prompt","","","","","","","","","","","","","","","",""
"categorize-image","76","363126","0.0-3.0-3.0-1.9","ppd2zj2l9nyqrq4","practice_cue","5f5d33e0e5bbeb12a39439eb","5f60e3c0a3b16e07647b2ff9","5f64c2c1c82b0e027153b81e","true","707.4999999895226","./Stimuli/ImagesPractice/LM230.jpg","83","","","","test","true","M + N","83","","LM","LM230.jpg","forget","old","26","2","practice_forget","left","","","",""
"html-keyboard-response","77","365130","0.0-3.0-3.0-3.9","ppd2zj2l9nyqrq4","practice_cue","5f5d33e0e5bbeb12a39439eb","5f60e3c0a3b16e07647b2ff9","5f64c2c1c82b0e027153b81e","false","null","<div style=""align-items: center; display: flex; color: darkorange; font-size: 90px""><b>ø</b></div>","null","","","","forget_cue","","","","","","","","","","","","","","","",""
"html-keyboard-response","78","365840","0.0-3.0-3.0-0.10","ppd2zj2l9nyqrq4","practice_cue","5f5d33e0e5bbeb12a39439eb","5f60e3c0a3b16e07647b2ff9","5f64c2c1c82b0e027153b81e","false","null","<span style=""color: black; font-size: 48px"">N + M</span>","null","","","","resp_prompt","","","","","","","","","","","","","","","",""
"categorize-image","79","366743","0.0-3.0-3.0-1.10","ppd2zj2l9nyqrq4","practice_cue","5f5d33e0e5bbeb12a39439eb","5f60e3c0a3b16e07647b2ff9","5f64c2c1c82b0e027153b81e","true","899.29500001017","./Stimuli/ImagesPractice/SM35.jpg","83","","","","test","false","N + M","76","","SM","SM35.jpg","forget","old","27","2","practice_forget","left","","","",""
"html-keyboard-response","80","367244","0.0-3.0-3.0-2.10-0.10","ppd2zj2l9nyqrq4","practice_cue","5f5d33e0e5bbeb12a39439eb","5f60e3c0a3b16e07647b2ff9","5f64c2c1c82b0e027153b81e","false","null","<span style=""color: red; font-size: 48px"">Error!</span>","null","","","","feedback","","","","","","","","","","","","","","","",""
"html-keyboard-response","81","369250","0.0-3.0-3.0-3.10","ppd2zj2l9nyqrq4","practice_cue","5f5d33e0e5bbeb12a39439eb","5f60e3c0a3b16e07647b2ff9","5f64c2c1c82b0e027153b81e","false","null","<div style=""align-items: center; display: flex; color: darkorange; font-size: 90px""><b>ø</b></div>","null","","","","forget_cue","","","","","","","","","","","","","","","",""
"html-keyboard-response","82","369955","0.0-3.0-3.0-0.11","ppd2zj2l9nyqrq4","practice_cue","5f5d33e0e5bbeb12a39439eb","5f60e3c0a3b16e07647b2ff9","5f64c2c1c82b0e027153b81e","false","null","<span style=""color: black; font-size: 48px"">N + M</span>","null","","","","resp_prompt","","","","","","","","","","","","","","","",""
"categorize-image","83","370766","0.0-3.0-3.0-1.11","ppd2zj2l9nyqrq4","practice_cue","5f5d33e0e5bbeb12a39439eb","5f60e3c0a3b16e07647b2ff9","5f64c2c1c82b0e027153b81e","true","805.9849999845028","./Stimuli/ImagesPractice/SM98.jpg","76","","","","test","true","N + M","76","","SM","SM98.jpg","forget","old","28","2","practice_forget","right","","","",""
"html-keyboard-response","84","372771","0.0-3.0-3.0-3.11","ppd2zj2l9nyqrq4","practice_cue","5f5d33e0e5bbeb12a39439eb","5f60e3c0a3b16e07647b2ff9","5f64c2c1c82b0e027153b81e","false","null","<div style=""align-items: center; display: flex; color: darkorange; font-size: 90px""><b>ø</b></div>","null","","","","forget_cue","","","","","","","","","","","","","","","",""
"html-keyboard-response","85","373476","0.0-3.0-3.0-0.12","ppd2zj2l9nyqrq4","practice_cue","5f5d33e0e5bbeb12a39439eb","5f60e3c0a3b16e07647b2ff9","5f64c2c1c82b0e027153b81e","false","null","<span style=""color: black; font-size: 48px"">N + M</span>","null","","","","resp_prompt","","","","","","","","","","","","","","","",""
"categorize-image","86","374293","0.0-3.0-3.0-1.12","ppd2zj2l9nyqrq4","practice_cue","5f5d33e0e5bbeb12a39439eb","5f60e3c0a3b16e07647b2ff9","5f64c2c1c82b0e027153b81e","true","812.8100000030827","./Stimuli/ImagesPractice/LM224.jpg","76","","","","test","true","N + M","76","","LM","LM224.jpg","remember","old","29","2","practice_forget","right","","","",""
"html-keyboard-response","87","376301","0.0-3.0-3.0-3.12","ppd2zj2l9nyqrq4","practice_cue","5f5d33e0e5bbeb12a39439eb","5f60e3c0a3b16e07647b2ff9","5f64c2c1c82b0e027153b81e","false","null","<div style=""align-items: center; display: flex; color: dodgerblue; font-size: 90px""><b>o</b></div>","null","","","","forget_cue","","","","","","","","","","","","","","","",""
"html-keyboard-response","88","377006","0.0-3.0-3.0-0.13","ppd2zj2l9nyqrq4","practice_cue","5f5d33e0e5bbeb12a39439eb","5f60e3c0a3b16e07647b2ff9","5f64c2c1c82b0e027153b81e","false","null","<span style=""color: black; font-size: 48px"">M + N</span>","null","","","","resp_prompt","","","","","","","","","","","","","","","",""
"categorize-image","89","377743","0.0-3.0-3.0-1.13","ppd2zj2l9nyqrq4","practice_cue","5f5d33e0e5bbeb12a39439eb","5f60e3c0a3b16e07647b2ff9","5f64c2c1c82b0e027153b81e","true","733.2449999812525","./Stimuli/ImagesPractice/SN221.jpg","76","","","","test","true","M + N","76","","SN","SN221.jpg","forget","old","30","2","practice_forget","right","","","",""
"html-keyboard-response","90","379749","0.0-3.0-3.0-3.13","ppd2zj2l9nyqrq4","practice_cue","5f5d33e0e5bbeb12a39439eb","5f60e3c0a3b16e07647b2ff9","5f64c2c1c82b0e027153b81e","false","null","<div style=""align-items: center; display: flex; color: darkorange; font-size: 90px""><b>ø</b></div>","null","","","","forget_cue","","","","","","","","","","","","","","","",""
"html-keyboard-response","91","380454","0.0-3.0-3.0-0.14","ppd2zj2l9nyqrq4","practice_cue","5f5d33e0e5bbeb12a39439eb","5f60e3c0a3b16e07647b2ff9","5f64c2c1c82b0e027153b81e","false","null","<span style=""color: black; font-size: 48px"">N + M</span>","null","","","","resp_prompt","","","","","","","","","","","","","","","",""
"categorize-image","92","381350","0.0-3.0-3.0-1.14","ppd2zj2l9nyqrq4","practice_cue","5f5d33e0e5bbeb12a39439eb","5f60e3c0a3b16e07647b2ff9","5f64c2c1c82b0e027153b81e","true","891.410000011092","./Stimuli/ImagesPractice/LM55.jpg","76","","","","test","true","N + M","76","","LM","LM55.jpg","remember","old","31","2","practice_forget","right","","","",""
"html-keyboard-response","93","383357","0.0-3.0-3.0-3.14","ppd2zj2l9nyqrq4","practice_cue","5f5d33e0e5bbeb12a39439eb","5f60e3c0a3b16e07647b2ff9","5f64c2c1c82b0e027153b81e","false","null","<div style=""align-items: center; display: flex; color: dodgerblue; font-size: 90px""><b>o</b></div>","null","","","","forget_cue","","","","","","","","","","","","","","","",""
"html-keyboard-response","94","384062","0.0-3.0-3.0-0.15","ppd2zj2l9nyqrq4","practice_cue","5f5d33e0e5bbeb12a39439eb","5f60e3c0a3b16e07647b2ff9","5f64c2c1c82b0e027153b81e","false","null","<span style=""color: black; font-size: 48px"">M + N</span>","null","","","","resp_prompt","","","","","","","","","","","","","","","",""
"categorize-image","95","384766","0.0-3.0-3.0-1.15","ppd2zj2l9nyqrq4","practice_cue","5f5d33e0e5bbeb12a39439eb","5f60e3c0a3b16e07647b2ff9","5f64c2c1c82b0e027153b81e","true","699.1249999846332","./Stimuli/ImagesPractice/SN205.jpg","76","","","","test","true","M + N","76","","SN","SN205.jpg","forget","old","32","2","practice_forget","right","","","",""
"html-keyboard-response","96","386773","0.0-3.0-3.0-3.15","ppd2zj2l9nyqrq4","practice_cue","5f5d33e0e5bbeb12a39439eb","5f60e3c0a3b16e07647b2ff9","5f64c2c1c82b0e027153b81e","false","null","<div style=""align-items: center; display: flex; color: darkorange; font-size: 90px""><b>ø</b></div>","null","","","","forget_cue","","","","","","","","","","","","","","","",""
"html-keyboard-response","97","389723","0.0-3.0-4.0","ppd2zj2l9nyqrq4","break","5f5d33e0e5bbeb12a39439eb","5f60e3c0a3b16e07647b2ff9","5f64c2c1c82b0e027153b81e","false","2949.1149999957997","<p style='font-size: 32px;'>Break</><br><br><br><br><br><p style='font-size: 24px;'>In the last block, you committed 2 errors and did not respond in time on 0 trials.
</p><p style='font-size: 24px;'>Try to respond as fast and accurately as possible in the next block as well! </p><p style='font-size: 24px;'>Press SPACE to continue.</p>","32","","","","","","","","","","","","","","","","","","","",""
"html-keyboard-response","98","406500","0.0-3.0-5.0","ppd2zj2l9nyqrq4","instructions","5f5d33e0e5bbeb12a39439eb","5f60e3c0a3b16e07647b2ff9","5f64c2c1c82b0e027153b81e","false","16774.875000002794","<div align=left> Now, to practice, we kindly ask you to remember as many of the to-be-remembered pictures<br>of the previous learning phase as possible.<br><br>The pictures you were instructed to remember were the pictures followed by a <span style='color: dodgerblue; font-size: 28px'>O</span>.<br><br>In this memory test phase, you will also see some new pictures.<br>It is your task to remember whether you were presented with this specific picture in this study so far or not.<br>If you recognize an object (you have already seen it in this study), it is an OLD object. <br>If you do not recognize an object (you have NOT seen it in this study), it is a NEW object. <br><strong> Attention</strong>: As already mentioned, <span style='color: darkorange; font-size:28px'>Ø</span>-pictures will <strong>never</strong> appear in this memory test (neither as new objects). <br><br>Press SPACE to continue. </div>","32","","","","","","","","","","","","","","","","","","","",""
"html-keyboard-response","99","437227","0.0-3.0-6.0","ppd2zj2l9nyqrq4","instructions","5f5d33e0e5bbeb12a39439eb","5f60e3c0a3b16e07647b2ff9","5f64c2c1c82b0e027153b81e","false","30724.675000004936","<div align=left> M and N no longer will appear on the left/right of the fixation cross. <br>Instead there will be a note at the bottom of the left or right side  <br>indicating which key you should press for an old or new object:  <br> <br>Press the <strong>right</strong> key to classify an object as <strong>old</strong> and press the <strong>left</strong>, to classify an object as <strong>new</strong>.<br>Please classify the objects as new/old by again placing your index finger on the 'S' and 'L' keys <br>and press them accordingly.<br><br><strong>Old:</strong> This object has been presented before. <br><strong>New:</strong> This object has <strong>not</strong> been presented.<br><br>Now please put your right and left index fingers on the 'S' and 'L' keys of your keyboard. <br>Please respond as fast and as accurately as possible!<br><br>Press SPACE to continue. </div>","32","","","","","","","","","","","","","","","","","","","",""
"categorize-image","100","442242","0.0-3.0-7.0-0.0","ppd2zj2l9nyqrq4","practice_recog","5f5d33e0e5bbeb12a39439eb","5f60e3c0a3b16e07647b2ff9","5f64c2c1c82b0e027153b81e","true","4507.07500000135","./Stimuli/ImagesPractice/SM62.jpg","83","","","","test","true","","83","","SM","SM62.jpg","","old","33","3","practice_recog","left","","","",""
"categorize-image","101","449516","0.0-3.0-7.0-0.1","ppd2zj2l9nyqrq4","practice_recog","5f5d33e0e5bbeb12a39439eb","5f60e3c0a3b16e07647b2ff9","5f64c2c1c82b0e027153b81e","true","6766.34999999078","./Stimuli/ImagesPractice/LM55.jpg","83","","","","test","true","","83","","LM","LM55.jpg","","old","34","3","practice_recog","left","","","",""
"categorize-image","102","450878","0.0-3.0-7.0-0.2","ppd2zj2l9nyqrq4","practice_recog","5f5d33e0e5bbeb12a39439eb","5f60e3c0a3b16e07647b2ff9","5f64c2c1c82b0e027153b81e","true","857.5899999996182","./Stimuli/ImagesPractice/LN17.jpg","76","","","","test","true","","76","","LN","LN17.jpg","","new","35","3","practice_recog","right","","","",""
"categorize-image","103","452642","0.0-3.0-7.0-0.3","ppd2zj2l9nyqrq4","practice_recog","5f5d33e0e5bbeb12a39439eb","5f60e3c0a3b16e07647b2ff9","5f64c2c1c82b0e027153b81e","true","1256.309999997029","./Stimuli/ImagesPractice/LM224.jpg","83","","","","test","true","","83","","LM","LM224.jpg","","old","36","3","practice_recog","left","","","",""
"categorize-image","104","455238","0.0-3.0-7.0-0.4","ppd2zj2l9nyqrq4","practice_recog","5f5d33e0e5bbeb12a39439eb","5f60e3c0a3b16e07647b2ff9","5f64c2c1c82b0e027153b81e","true","2093.120000005001","./Stimuli/ImagesPractice/LN72.jpg","83","","","","test","true","","83","","LN","LN72.jpg","","old","37","3","practice_recog","left","","","",""
"categorize-image","105","456787","0.0-3.0-7.0-0.5","ppd2zj2l9nyqrq4","practice_recog","5f5d33e0e5bbeb12a39439eb","5f60e3c0a3b16e07647b2ff9","5f64c2c1c82b0e027153b81e","true","1042.5499999837484","./Stimuli/ImagesPractice/SM37.jpg","76","","","","test","true","","76","","SM","SM37.jpg","","new","38","3","practice_recog","right","","","",""
"categorize-image","106","458226","0.0-3.0-7.0-0.6","ppd2zj2l9nyqrq4","practice_recog","5f5d33e0e5bbeb12a39439eb","5f60e3c0a3b16e07647b2ff9","5f64c2c1c82b0e027153b81e","true","932.0949999964796","./Stimuli/ImagesPractice/SN220.jpg","83","","","","test","true","","83","","SN","SN220.jpg","","old","39","3","practice_recog","left","","","",""
"categorize-image","107","459978","0.0-3.0-7.0-0.7","ppd2zj2l9nyqrq4","practice_recog","5f5d33e0e5bbeb12a39439eb","5f60e3c0a3b16e07647b2ff9","5f64c2c1c82b0e027153b81e","true","1247.574999986682","./Stimuli/ImagesPractice/LM147.jpg","83","","","","test","true","","83","","LM","LM147.jpg","","old","40","3","practice_recog","left","","","",""
"categorize-image","108","461434","0.0-3.0-7.0-0.8","ppd2zj2l9nyqrq4","practice_recog","5f5d33e0e5bbeb12a39439eb","5f60e3c0a3b16e07647b2ff9","5f64c2c1c82b0e027153b81e","true","948.7850000150502","./Stimuli/ImagesPractice/SN76.jpg","76","","","","test","true","","76","","SN","SN76.jpg","","new","41","3","practice_recog","right","","","",""
"categorize-image","109","463078","0.0-3.0-7.0-0.9","ppd2zj2l9nyqrq4","practice_recog","5f5d33e0e5bbeb12a39439eb","5f60e3c0a3b16e07647b2ff9","5f64c2c1c82b0e027153b81e","true","1140.8400000073016","./Stimuli/ImagesPractice/LM143.jpg","76","","","","test","true","","76","","LM","LM143.jpg","","new","42","3","practice_recog","right","","","",""
"categorize-image","110","464496","0.0-3.0-7.0-0.10","ppd2zj2l9nyqrq4","practice_recog","5f5d33e0e5bbeb12a39439eb","5f60e3c0a3b16e07647b2ff9","5f64c2c1c82b0e027153b81e","true","912.1400000003632","./Stimuli/ImagesPractice/SN222.jpg","83","","","","test","false","","76","","SN","SN222.jpg","","new","43","3","practice_recog","left","","","",""
"categorize-image","111","465872","0.0-3.0-7.0-0.11","ppd2zj2l9nyqrq4","practice_recog","5f5d33e0e5bbeb12a39439eb","5f60e3c0a3b16e07647b2ff9","5f64c2c1c82b0e027153b81e","true","870.8650000044145","./Stimuli/ImagesPractice/LM239.jpg","76","","","","test","true","","76","","LM","LM239.jpg","","new","44","3","practice_recog","right","","","",""
"categorize-image","112","467704","0.0-3.0-7.0-0.12","ppd2zj2l9nyqrq4","practice_recog","5f5d33e0e5bbeb12a39439eb","5f60e3c0a3b16e07647b2ff9","5f64c2c1c82b0e027153b81e","true","1328.7950000085402","./Stimuli/ImagesPractice/SM97.jpg","76","","","","test","true","","76","","SM","SM97.jpg","","new","45","3","practice_recog","right","","","",""
"categorize-image","113","469274","0.0-3.0-7.0-0.13","ppd2zj2l9nyqrq4","practice_recog","5f5d33e0e5bbeb12a39439eb","5f60e3c0a3b16e07647b2ff9","5f64c2c1c82b0e027153b81e","true","1063.4149999823421","./Stimuli/ImagesPractice/LN2.jpg","83","","","","test","true","","83","","LN","LN2.jpg","","old","46","3","practice_recog","left","","","",""
"categorize-image","114","470786","0.0-3.0-7.0-0.14","ppd2zj2l9nyqrq4","practice_recog","5f5d33e0e5bbeb12a39439eb","5f60e3c0a3b16e07647b2ff9","5f64c2c1c82b0e027153b81e","true","1006.3199999858625","./Stimuli/ImagesPractice/LN4.jpg","83","","","","test","true","","83","","LN","LN4.jpg","","old","47","3","practice_recog","left","","","",""
"categorize-image","115","472295","0.0-3.0-7.0-0.15","ppd2zj2l9nyqrq4","practice_recog","5f5d33e0e5bbeb12a39439eb","5f60e3c0a3b16e07647b2ff9","5f64c2c1c82b0e027153b81e","true","1004.5199999876786","./Stimuli/ImagesPractice/LN109.jpg","76","","","","test","true","","76","","LN","LN109.jpg","","new","48","3","practice_recog","right","","","",""
"html-keyboard-response","116","478955","0.0-3.0-8.0","ppd2zj2l9nyqrq4","instructions","5f5d33e0e5bbeb12a39439eb","5f60e3c0a3b16e07647b2ff9","5f64c2c1c82b0e027153b81e","false","6658.674999984214","<div align=left> Great!<br><br>Are you ready to continue?<br>If you want to reread the instructions and redo the practice trials, please <br>press „Z“.<br><br>You can proceed when you are ready.<br><br>After the presentation of each object, you will receive an instruction whether to <br>remember or to forget the object.<br>We will test your memory of the following pictures only at the very end of <br>the experiment after all learning blocks are completed. <br><br>Press SPACE to CONTINUE when you are ready. </div>","32","","","","","","","","","","","","","","","","","","","",""
"html-keyboard-response","117","485123","0.0-4.0-0.0","ppd2zj2l9nyqrq4","instructions","5f5d33e0e5bbeb12a39439eb","5f60e3c0a3b16e07647b2ff9","5f64c2c1c82b0e027153b81e","false","6165.3450000158045","<div align=left> The actual experiment is about to start.<br>The practice trials are over!<br><br>Please always respond both fast and accurately!<br><br>Remember: <br> <br><li> Please place your index fingers on the <strong>'S'</strong> and <strong>'L'</strong> keys <br>to respond as fast and accurately as possible.</li><li> Every picture can be classified as either mechanical or non-mechanical.</li><li> If you do not respond in time or commit an error, you will receive a corresponding feedback.<br> Please try to respond as <strong> fast </strong> and as <strong> accurately as possible </strong>.</li><li> Remember the <span style='color: dodgerblue; font-size: 28px'>O</span> pictures. <br></li><li> Please minimize distractions and stay focused. </li><br><br>Press SPACE to START.</div>","32","","","","","","","","","","","","","","","","","","","",""
"html-keyboard-response","118","485830","0.0-4.0-1.0-0.0","ppd2zj2l9nyqrq4","prime","5f5d33e0e5bbeb12a39439eb","5f60e3c0a3b16e07647b2ff9","5f64c2c1c82b0e027153b81e","false","null","<span style=""color: black; font-size: 48px"">N + M</span>","null","","","","resp_prompt","","","","","","","","","","","","","","","",""
"categorize-image","119","486956","0.0-4.0-1.0-1.0","ppd2zj2l9nyqrq4","prime","5f5d33e0e5bbeb12a39439eb","5f60e3c0a3b16e07647b2ff9","5f64c2c1c82b0e027153b81e","true","1122.0250000187661","./Stimuli/SelectedImages/LN/LN12.bmp","83","","","","test","true","N + M","83","repetition","LN","LN12.bmp","forget","","49","3","prime1","left","","","",""
"html-keyboard-response","120","488962","0.0-4.0-1.0-3.0","ppd2zj2l9nyqrq4","prime","5f5d33e0e5bbeb12a39439eb","5f60e3c0a3b16e07647b2ff9","5f64c2c1c82b0e027153b81e","false","null","<div style=""align-items: center; display: flex; color: darkorange; font-size: 90px""><b>ø</b></div>","null","","","","forget_cue","","","","","","","","","","","","","","","",""
"html-keyboard-response","121","489667","0.0-4.0-1.0-0.1","ppd2zj2l9nyqrq4","prime","5f5d33e0e5bbeb12a39439eb","5f60e3c0a3b16e07647b2ff9","5f64c2c1c82b0e027153b81e","false","null","<span style=""color: black; font-size: 48px"">N + M</span>","null","","","","resp_prompt","","","","","","","","","","","","","","","",""
"categorize-image","122","490876","0.0-4.0-1.0-1.1","ppd2zj2l9nyqrq4","prime","5f5d33e0e5bbeb12a39439eb","5f60e3c0a3b16e07647b2ff9","5f64c2c1c82b0e027153b81e","true","1204.3150000099558","./Stimuli/SelectedImages/LM/LM59.bmp","76","","","","test","true","N + M","76","switch","LM","LM59.bmp","remember","","50","3","prime1","right","","","",""
"html-keyboard-response","123","492882","0.0-4.0-1.0-3.1","ppd2zj2l9nyqrq4","prime","5f5d33e0e5bbeb12a39439eb","5f60e3c0a3b16e07647b2ff9","5f64c2c1c82b0e027153b81e","false","null","<div style=""align-items: center; display: flex; color: dodgerblue; font-size: 90px""><b>o</b></div>","null","","","","forget_cue","","","","","","","","","","","","","","","",""
"html-keyboard-response","124","493587","0.0-4.0-1.0-0.2","ppd2zj2l9nyqrq4","prime","5f5d33e0e5bbeb12a39439eb","5f60e3c0a3b16e07647b2ff9","5f64c2c1c82b0e027153b81e","false","null","<span style=""color: black; font-size: 48px"">M + N</span>","null","","","","resp_prompt","","","","","","","","","","","","","","","",""
"categorize-image","125","494675","0.0-4.0-1.0-1.2","ppd2zj2l9nyqrq4","prime","5f5d33e0e5bbeb12a39439eb","5f60e3c0a3b16e07647b2ff9","5f64c2c1c82b0e027153b81e","true","1082.974999997532","./Stimuli/SelectedImages/LM/LM209.bmp","83","","","","test","true","M + N","83","switch","LM","LM209.bmp","forget","","51","3","prime1","left","","","",""
"html-keyboard-response","126","496683","0.0-4.0-1.0-3.2","ppd2zj2l9nyqrq4","prime","5f5d33e0e5bbeb12a39439eb","5f60e3c0a3b16e07647b2ff9","5f64c2c1c82b0e027153b81e","false","null","<div style=""align-items: center; display: flex; color: darkorange; font-size: 90px""><b>ø</b></div>","null","","","","forget_cue","","","","","","","","","","","","","","","",""
"html-keyboard-response","127","497388","0.0-4.0-1.0-0.3","ppd2zj2l9nyqrq4","prime","5f5d33e0e5bbeb12a39439eb","5f60e3c0a3b16e07647b2ff9","5f64c2c1c82b0e027153b81e","false","null","<span style=""color: black; font-size: 48px"">N + M</span>","null","","","","resp_prompt","","","","","","","","","","","","","","","",""
"categorize-image","128","498069","0.0-4.0-1.0-1.3","ppd2zj2l9nyqrq4","prime","5f5d33e0e5bbeb12a39439eb","5f60e3c0a3b16e07647b2ff9","5f64c2c1c82b0e027153b81e","true","675.9749999910127","./Stimuli/SelectedImages/LM/LM100.bmp","76","","","","test","true","N + M","76","switch","LM","LM100.bmp","forget","","52","3","prime1","right","","","",""
"html-keyboard-response","129","500076","0.0-4.0-1.0-3.3","ppd2zj2l9nyqrq4","prime","5f5d33e0e5bbeb12a39439eb","5f60e3c0a3b16e07647b2ff9","5f64c2c1c82b0e027153b81e","false","null","<div style=""align-items: center; display: flex; color: darkorange; font-size: 90px""><b>ø</b></div>","null","","","","forget_cue","","","","","","","","","","","","","","","",""
"html-keyboard-response","130","500782","0.0-4.0-1.0-0.4","ppd2zj2l9nyqrq4","prime","5f5d33e0e5bbeb12a39439eb","5f60e3c0a3b16e07647b2ff9","5f64c2c1c82b0e027153b81e","false","null","<span style=""color: black; font-size: 48px"">N + M</span>","null","","","","resp_prompt","","","","","","","","","","","","","","","",""
"categorize-image","131","501621","0.0-4.0-1.0-1.4","ppd2zj2l9nyqrq4","prime","5f5d33e0e5bbeb12a39439eb","5f60e3c0a3b16e07647b2ff9","5f64c2c1c82b0e027153b81e","true","833.3099999872502","./Stimuli/SelectedImages/SM/SM200.bmp","76","","","","test","true","N + M","76","repetition","SM","SM200.bmp","forget","","53","3","prime1","right","","","",""
"html-keyboard-response","132","503626","0.0-4.0-1.0-3.4","ppd2zj2l9nyqrq4","prime","5f5d33e0e5bbeb12a39439eb","5f60e3c0a3b16e07647b2ff9","5f64c2c1c82b0e027153b81e","false","null","<div style=""align-items: center; display: flex; color: darkorange; font-size: 90px""><b>ø</b></div>","null","","","","forget_cue","","","","","","","","","","","","","","","",""
"html-keyboard-response","133","504332","0.0-4.0-1.0-0.5","ppd2zj2l9nyqrq4","prime","5f5d33e0e5bbeb12a39439eb","5f60e3c0a3b16e07647b2ff9","5f64c2c1c82b0e027153b81e","false","null","<span style=""color: black; font-size: 48px"">N + M</span>","null","","","","resp_prompt","","","","","","","","","","","","","","","",""
"categorize-image","134","504955","0.0-4.0-1.0-1.5","ppd2zj2l9nyqrq4","prime","5f5d33e0e5bbeb12a39439eb","5f60e3c0a3b16e07647b2ff9","5f64c2c1c82b0e027153b81e","true","618.1799999903888","./Stimuli/SelectedImages/SM/SM205.bmp","76","","","","test","true","N + M","76","repetition","SM","SM205.bmp","forget","","54","3","prime1","right","","","",""
"html-keyboard-response","135","506961","0.0-4.0-1.0-3.5","ppd2zj2l9nyqrq4","prime","5f5d33e0e5bbeb12a39439eb","5f60e3c0a3b16e07647b2ff9","5f64c2c1c82b0e027153b81e","false","null","<div style=""align-items: center; display: flex; color: darkorange; font-size: 90px""><b>ø</b></div>","null","","","","forget_cue","","","","","","","","","","","","","","","",""
"html-keyboard-response","136","507666","0.0-4.0-1.0-0.6","ppd2zj2l9nyqrq4","prime","5f5d33e0e5bbeb12a39439eb","5f60e3c0a3b16e07647b2ff9","5f64c2c1c82b0e027153b81e","false","null","<span style=""color: black; font-size: 48px"">N + M</span>","null","","","","resp_prompt","","","","","","","","","","","","","","","",""
"categorize-image","137","508486","0.0-4.0-1.0-1.6","ppd2zj2l9nyqrq4","prime","5f5d33e0e5bbeb12a39439eb","5f60e3c0a3b16e07647b2ff9","5f64c2c1c82b0e027153b81e","true","814.635000017006","./Stimuli/SelectedImages/LN/LN149.bmp","83","","","","test","true","N + M","83","switch","LN","LN149.bmp","forget","","55","3","prime1","left","","","",""
"html-keyboard-response","138","510494","0.0-4.0-1.0-3.6","ppd2zj2l9nyqrq4","prime","5f5d33e0e5bbeb12a39439eb","5f60e3c0a3b16e07647b2ff9","5f64c2c1c82b0e027153b81e","false","null","<div style=""align-items: center; display: flex; color: darkorange; font-size: 90px""><b>ø</b></div>","null","","","","forget_cue","","","","","","","","","","","","","","","",""
"html-keyboard-response","139","511199","0.0-4.0-1.0-0.7","ppd2zj2l9nyqrq4","prime","5f5d33e0e5bbeb12a39439eb","5f60e3c0a3b16e07647b2ff9","5f64c2c1c82b0e027153b81e","false","null","<span style=""color: black; font-size: 48px"">N + M</span>","null","","","","resp_prompt","","","","","","","","","","","","","","","",""
"categorize-image","140","511916","0.0-4.0-1.0-1.7","ppd2zj2l9nyqrq4","prime","5f5d33e0e5bbeb12a39439eb","5f60e3c0a3b16e07647b2ff9","5f64c2c1c82b0e027153b81e","true","713.0900000047404","./Stimuli/SelectedImages/LM/LM216.bmp","76","","","","test","true","N + M","76","repetition","LM","LM216.bmp","remember","","56","3","prime1","right","","","",""
"html-keyboard-response","141","513921","0.0-4.0-1.0-3.7","ppd2zj2l9nyqrq4","prime","5f5d33e0e5bbeb12a39439eb","5f60e3c0a3b16e07647b2ff9","5f64c2c1c82b0e027153b81e","false","null","<div style=""align-items: center; display: flex; color: dodgerblue; font-size: 90px""><b>o</b></div>","null","","","","forget_cue","","","","","","","","","","","","","","","",""
"html-keyboard-response","142","514627","0.0-4.0-1.0-0.8","ppd2zj2l9nyqrq4","prime","5f5d33e0e5bbeb12a39439eb","5f60e3c0a3b16e07647b2ff9","5f64c2c1c82b0e027153b81e","false","null","<span style=""color: black; font-size: 48px"">N + M</span>","null","","","","resp_prompt","","","","","","","","","","","","","","","",""
"categorize-image","143","515307","0.0-4.0-1.0-1.8","ppd2zj2l9nyqrq4","prime","5f5d33e0e5bbeb12a39439eb","5f60e3c0a3b16e07647b2ff9","5f64c2c1c82b0e027153b81e","true","675.6400000012945","./Stimuli/SelectedImages/SN/SN240.bmp","83","","","","test","true","N + M","83","repetition","SN","SN240.bmp","remember","","57","3","prime1","left","","","",""
"html-keyboard-response","144","517312","0.0-4.0-1.0-3.8","ppd2zj2l9nyqrq4","prime","5f5d33e0e5bbeb12a39439eb","5f60e3c0a3b16e07647b2ff9","5f64c2c1c82b0e027153b81e","false","null","<div style=""align-items: center; display: flex; color: dodgerblue; font-size: 90px""><b>o</b></div>","null","","","","forget_cue","","","","","","","","","","","","","","","",""
"html-keyboard-response","145","518015","0.0-4.0-1.0-0.9","ppd2zj2l9nyqrq4","prime","5f5d33e0e5bbeb12a39439eb","5f60e3c0a3b16e07647b2ff9","5f64c2c1c82b0e027153b81e","false","null","<span style=""color: black; font-size: 48px"">M + N</span>","null","","","","resp_prompt","","","","","","","","","","","","","","","",""
"categorize-image","146","518821","0.0-4.0-1.0-1.9","ppd2zj2l9nyqrq4","prime","5f5d33e0e5bbeb12a39439eb","5f60e3c0a3b16e07647b2ff9","5f64c2c1c82b0e027153b81e","true","798.6050000181422","./Stimuli/SelectedImages/LN/LN166.bmp","76","","","","test","true","M + N","76","repetition","LN","LN166.bmp","forget","","58","3","prime1","right","","","",""
"html-keyboard-response","147","520827","0.0-4.0-1.0-3.9","ppd2zj2l9nyqrq4","prime","5f5d33e0e5bbeb12a39439eb","5f60e3c0a3b16e07647b2ff9","5f64c2c1c82b0e027153b81e","false","null","<div style=""align-items: center; display: flex; color: darkorange; font-size: 90px""><b>ø</b></div>","null","","","","forget_cue","","","","","","","","","","","","","","","",""
"html-keyboard-response","148","521532","0.0-4.0-1.0-0.10","ppd2zj2l9nyqrq4","prime","5f5d33e0e5bbeb12a39439eb","5f60e3c0a3b16e07647b2ff9","5f64c2c1c82b0e027153b81e","false","null","<span style=""color: black; font-size: 48px"">N + M</span>","null","","","","resp_prompt","","","","","","","","","","","","","","","",""
"categorize-image","149","522339","0.0-4.0-1.0-1.10","ppd2zj2l9nyqrq4","prime","5f5d33e0e5bbeb12a39439eb","5f60e3c0a3b16e07647b2ff9","5f64c2c1c82b0e027153b81e","true","801.5749999904074","./Stimuli/SelectedImages/LM/LM103.bmp","76","","","","test","true","N + M","76","repetition","LM","LM103.bmp","forget","","59","3","prime1","right","","","",""
"html-keyboard-response","150","524343","0.0-4.0-1.0-3.10","ppd2zj2l9nyqrq4","prime","5f5d33e0e5bbeb12a39439eb","5f60e3c0a3b16e07647b2ff9","5f64c2c1c82b0e027153b81e","false","null","<div style=""align-items: center; display: flex; color: darkorange; font-size: 90px""><b>ø</b></div>","null","","","","forget_cue","","","","","","","","","","","","","","","",""
"html-keyboard-response","151","525048","0.0-4.0-1.0-0.11","ppd2zj2l9nyqrq4","prime","5f5d33e0e5bbeb12a39439eb","5f60e3c0a3b16e07647b2ff9","5f64c2c1c82b0e027153b81e","false","null","<span style=""color: black; font-size: 48px"">M + N</span>","null","","","","resp_prompt","","","","","","","","","","","","","","","",""
"categorize-image","152","525828","0.0-4.0-1.0-1.11","ppd2zj2l9nyqrq4","prime","5f5d33e0e5bbeb12a39439eb","5f60e3c0a3b16e07647b2ff9","5f64c2c1c82b0e027153b81e","true","773.5450000036508","./Stimuli/SelectedImages/SN/SN111.bmp","76","","","","test","true","M + N","76","switch","SN","SN111.bmp","remember","","60","3","prime1","right","","","",""
"html-keyboard-response","153","527834","0.0-4.0-1.0-3.11","ppd2zj2l9nyqrq4","prime","5f5d33e0e5bbeb12a39439eb","5f60e3c0a3b16e07647b2ff9","5f64c2c1c82b0e027153b81e","false","null","<div style=""align-items: center; display: flex; color: dodgerblue; font-size: 90px""><b>o</b></div>","null","","","","forget_cue","","","","","","","","","","","","","","","",""
"html-keyboard-response","154","528539","0.0-4.0-1.0-0.12","ppd2zj2l9nyqrq4","prime","5f5d33e0e5bbeb12a39439eb","5f60e3c0a3b16e07647b2ff9","5f64c2c1c82b0e027153b81e","false","null","<span style=""color: black; font-size: 48px"">N + M</span>","null","","","","resp_prompt","","","","","","","","","","","","","","","",""
"categorize-image","155","529477","0.0-4.0-1.0-1.12","ppd2zj2l9nyqrq4","prime","5f5d33e0e5bbeb12a39439eb","5f60e3c0a3b16e07647b2ff9","5f64c2c1c82b0e027153b81e","true","933.3100000221748","./Stimuli/SelectedImages/SN/SN64.bmp","83","","","","test","true","N + M","83","repetition","SN","SN64.bmp","remember","","61","3","prime1","left","","","",""
"html-keyboard-response","156","531482","0.0-4.0-1.0-3.12","ppd2zj2l9nyqrq4","prime","5f5d33e0e5bbeb12a39439eb","5f60e3c0a3b16e07647b2ff9","5f64c2c1c82b0e027153b81e","false","null","<div style=""align-items: center; display: flex; color: dodgerblue; font-size: 90px""><b>o</b></div>","null","","","","forget_cue","","","","","","","","","","","","","","","",""
"html-keyboard-response","157","532188","0.0-4.0-1.0-0.13","ppd2zj2l9nyqrq4","prime","5f5d33e0e5bbeb12a39439eb","5f60e3c0a3b16e07647b2ff9","5f64c2c1c82b0e027153b81e","false","null","<span style=""color: black; font-size: 48px"">N + M</span>","null","","","","resp_prompt","","","","","","","","","","","","","","","",""
"categorize-image","158","532963","0.0-4.0-1.0-1.13","ppd2zj2l9nyqrq4","prime","5f5d33e0e5bbeb12a39439eb","5f60e3c0a3b16e07647b2ff9","5f64c2c1c82b0e027153b81e","true","771.0450000013225","./Stimuli/SelectedImages/LM/LM129.bmp","76","","","","test","true","N + M","76","repetition","LM","LM129.bmp","remember","","62","3","prime1","right","","","",""
"html-keyboard-response","159","534968","0.0-4.0-1.0-3.13","ppd2zj2l9nyqrq4","prime","5f5d33e0e5bbeb12a39439eb","5f60e3c0a3b16e07647b2ff9","5f64c2c1c82b0e027153b81e","false","null","<div style=""align-items: center; display: flex; color: dodgerblue; font-size: 90px""><b>o</b></div>","null","","","","forget_cue","","","","","","","","","","","","","","","",""
"html-keyboard-response","160","535674","0.0-4.0-1.0-0.14","ppd2zj2l9nyqrq4","prime","5f5d33e0e5bbeb12a39439eb","5f60e3c0a3b16e07647b2ff9","5f64c2c1c82b0e027153b81e","false","null","<span style=""color: black; font-size: 48px"">M + N</span>","null","","","","resp_prompt","","","","","","","","","","","","","","","",""
"categorize-image","161","536659","0.0-4.0-1.0-1.14","ppd2zj2l9nyqrq4","prime","5f5d33e0e5bbeb12a39439eb","5f60e3c0a3b16e07647b2ff9","5f64c2c1c82b0e027153b81e","true","980.9750000131316","./Stimuli/SelectedImages/LN/LN111.bmp","76","","","","test","true","M + N","76","switch","LN","LN111.bmp","remember","","63","3","prime1","right","","","",""
"html-keyboard-response","162","538666","0.0-4.0-1.0-3.14","ppd2zj2l9nyqrq4","prime","5f5d33e0e5bbeb12a39439eb","5f60e3c0a3b16e07647b2ff9","5f64c2c1c82b0e027153b81e","false","null","<div style=""align-items: center; display: flex; color: dodgerblue; font-size: 90px""><b>o</b></div>","null","","","","forget_cue","","","","","","","","","","","","","","","",""
"html-keyboard-response","163","539372","0.0-4.0-1.0-0.15","ppd2zj2l9nyqrq4","prime","5f5d33e0e5bbeb12a39439eb","5f60e3c0a3b16e07647b2ff9","5f64c2c1c82b0e027153b81e","false","null","<span style=""color: black; font-size: 48px"">M + N</span>","null","","","","resp_prompt","","","","","","","","","","","","","","","",""
"categorize-image","164","540043","0.0-4.0-1.0-1.15","ppd2zj2l9nyqrq4","prime","5f5d33e0e5bbeb12a39439eb","5f60e3c0a3b16e07647b2ff9","5f64c2c1c82b0e027153b81e","true","667.2050000051968","./Stimuli/SelectedImages/SN/SN181.bmp","76","","","","test","true","M + N","76","switch","SN","SN181.bmp","forget","","64","3","prime1","right","","","",""
"html-keyboard-response","165","542050","0.0-4.0-1.0-3.15","ppd2zj2l9nyqrq4","prime","5f5d33e0e5bbeb12a39439eb","5f60e3c0a3b16e07647b2ff9","5f64c2c1c82b0e027153b81e","false","null","<div style=""align-items: center; display: flex; color: darkorange; font-size: 90px""><b>ø</b></div>","null","","","","forget_cue","","","","","","","","","","","","","","","",""
"html-keyboard-response","166","542756","0.0-4.0-1.0-0.16","ppd2zj2l9nyqrq4","prime","5f5d33e0e5bbeb12a39439eb","5f60e3c0a3b16e07647b2ff9","5f64c2c1c82b0e027153b81e","false","null","<span style=""color: black; font-size: 48px"">N + M</span>","null","","","","resp_prompt","","","","","","","","","","","","","","","",""
"categorize-image","167","544115","0.0-4.0-1.0-1.16","ppd2zj2l9nyqrq4","prime","5f5d33e0e5bbeb12a39439eb","5f60e3c0a3b16e07647b2ff9","5f64c2c1c82b0e027153b81e","true","1354.1250000125729","./Stimuli/SelectedImages/SM/SM128.bmp","76","","","","test","true","N + M","76","repetition","SM","SM128.bmp","remember","","65","3","prime1","right","","","",""
"html-keyboard-response","168","546118","0.0-4.0-1.0-3.16","ppd2zj2l9nyqrq4","prime","5f5d33e0e5bbeb12a39439eb","5f60e3c0a3b16e07647b2ff9","5f64c2c1c82b0e027153b81e","false","null","<div style=""align-items: center; display: flex; color: dodgerblue; font-size: 90px""><b>o</b></div>","null","","","","forget_cue","","","","","","","","","","","","","","","",""
"html-keyboard-response","169","546824","0.0-4.0-1.0-0.17","ppd2zj2l9nyqrq4","prime","5f5d33e0e5bbeb12a39439eb","5f60e3c0a3b16e07647b2ff9","5f64c2c1c82b0e027153b81e","false","null","<span style=""color: black; font-size: 48px"">M + N</span>","null","","","","resp_prompt","","","","","","","","","","","","","","","",""
"categorize-image","170","547490","0.0-4.0-1.0-1.17","ppd2zj2l9nyqrq4","prime","5f5d33e0e5bbeb12a39439eb","5f60e3c0a3b16e07647b2ff9","5f64c2c1c82b0e027153b81e","true","661.244999995688","./Stimuli/SelectedImages/LN/LN128.bmp","76","","","","test","true","M + N","76","switch","LN","LN128.bmp","forget","","66","3","prime1","right","","","",""
"html-keyboard-response","171","549496","0.0-4.0-1.0-3.17","ppd2zj2l9nyqrq4","prime","5f5d33e0e5bbeb12a39439eb","5f60e3c0a3b16e07647b2ff9","5f64c2c1c82b0e027153b81e","false","null","<div style=""align-items: center; display: flex; color: darkorange; font-size: 90px""><b>ø</b></div>","null","","","","forget_cue","","","","","","","","","","","","","","","",""
"html-keyboard-response","172","550201","0.0-4.0-1.0-0.18","ppd2zj2l9nyqrq4","prime","5f5d33e0e5bbeb12a39439eb","5f60e3c0a3b16e07647b2ff9","5f64c2c1c82b0e027153b81e","false","null","<span style=""color: black; font-size: 48px"">M + N</span>","null","","","","resp_prompt","","","","","","","","","","","","","","","",""
"categorize-image","173","550971","0.0-4.0-1.0-1.18","ppd2zj2l9nyqrq4","prime","5f5d33e0e5bbeb12a39439eb","5f60e3c0a3b16e07647b2ff9","5f64c2c1c82b0e027153b81e","true","765.5749999976251","./Stimuli/SelectedImages/SN/SN49.bmp","76","","","","test","true","M + N","76","repetition","SN","SN49.bmp","remember","","67","3","prime1","right","","","",""
"html-keyboard-response","174","552979","0.0-4.0-1.0-3.18","ppd2zj2l9nyqrq4","prime","5f5d33e0e5bbeb12a39439eb","5f60e3c0a3b16e07647b2ff9","5f64c2c1c82b0e027153b81e","false","null","<div style=""align-items: center; display: flex; color: dodgerblue; font-size: 90px""><b>o</b></div>","null","","","","forget_cue","","","","","","","","","","","","","","","",""
"html-keyboard-response","175","553684","0.0-4.0-1.0-0.19","ppd2zj2l9nyqrq4","prime","5f5d33e0e5bbeb12a39439eb","5f60e3c0a3b16e07647b2ff9","5f64c2c1c82b0e027153b81e","false","null","<span style=""color: black; font-size: 48px"">M + N</span>","null","","","","resp_prompt","","","","","","","","","","","","","","","",""
"categorize-image","176","554597","0.0-4.0-1.0-1.19","ppd2zj2l9nyqrq4","prime","5f5d33e0e5bbeb12a39439eb","5f60e3c0a3b16e07647b2ff9","5f64c2c1c82b0e027153b81e","true","908.4600000060163","./Stimuli/SelectedImages/LM/LM235.bmp","83","","","","test","true","M + N","83","repetition","LM","LM235.bmp","remember","","68","3","prime1","left","","","",""
"html-keyboard-response","177","556604","0.0-4.0-1.0-3.19","ppd2zj2l9nyqrq4","prime","5f5d33e0e5bbeb12a39439eb","5f60e3c0a3b16e07647b2ff9","5f64c2c1c82b0e027153b81e","false","null","<div style=""align-items: center; display: flex; color: dodgerblue; font-size: 90px""><b>o</b></div>","null","","","","forget_cue","","","","","","","","","","","","","","","",""
"html-keyboard-response","178","557309","0.0-4.0-1.0-0.20","ppd2zj2l9nyqrq4","prime","5f5d33e0e5bbeb12a39439eb","5f60e3c0a3b16e07647b2ff9","5f64c2c1c82b0e027153b81e","false","null","<span style=""color: black; font-size: 48px"">M + N</span>","null","","","","resp_prompt","","","","","","","","","","","","","","","",""
"categorize-image","179","557963","0.0-4.0-1.0-1.20","ppd2zj2l9nyqrq4","prime","5f5d33e0e5bbeb12a39439eb","5f60e3c0a3b16e07647b2ff9","5f64c2c1c82b0e027153b81e","true","647.6200000033714","./Stimuli/SelectedImages/LN/LN59.bmp","76","","","","test","true","M + N","76","repetition","LN","LN59.bmp","remember","","69","3","prime1","right","","","",""
"html-keyboard-response","180","559968","0.0-4.0-1.0-3.20","ppd2zj2l9nyqrq4","prime","5f5d33e0e5bbeb12a39439eb","5f60e3c0a3b16e07647b2ff9","5f64c2c1c82b0e027153b81e","false","null","<div style=""align-items: center; display: flex; color: dodgerblue; font-size: 90px""><b>o</b></div>","null","","","","forget_cue","","","","","","","","","","","","","","","",""
"html-keyboard-response","181","560674","0.0-4.0-1.0-0.21","ppd2zj2l9nyqrq4","prime","5f5d33e0e5bbeb12a39439eb","5f60e3c0a3b16e07647b2ff9","5f64c2c1c82b0e027153b81e","false","null","<span style=""color: black; font-size: 48px"">M + N</span>","null","","","","resp_prompt","","","","","","","","","","","","","","","",""
"categorize-image","182","561341","0.0-4.0-1.0-1.21","ppd2zj2l9nyqrq4","prime","5f5d33e0e5bbeb12a39439eb","5f60e3c0a3b16e07647b2ff9","5f64c2c1c82b0e027153b81e","true","663.4699999995064","./Stimuli/SelectedImages/LM/LM157.bmp","76","","","","test","false","M + N","83","repetition","LM","LM157.bmp","forget","","70","3","prime1","right","","","",""
"html-keyboard-response","183","561843","0.0-4.0-1.0-2.21-0.21","ppd2zj2l9nyqrq4","prime","5f5d33e0e5bbeb12a39439eb","5f60e3c0a3b16e07647b2ff9","5f64c2c1c82b0e027153b81e","false","null","<span style=""color: red; font-size: 48px"">Error!</span>","null","","","","feedback","","","","","","","","","","","","","","","",""
"html-keyboard-response","184","563849","0.0-4.0-1.0-3.21","ppd2zj2l9nyqrq4","prime","5f5d33e0e5bbeb12a39439eb","5f60e3c0a3b16e07647b2ff9","5f64c2c1c82b0e027153b81e","false","null","<div style=""align-items: center; display: flex; color: darkorange; font-size: 90px""><b>ø</b></div>","null","","","","forget_cue","","","","","","","","","","","","","","","",""
"html-keyboard-response","185","564552","0.0-4.0-1.0-0.22","ppd2zj2l9nyqrq4","prime","5f5d33e0e5bbeb12a39439eb","5f60e3c0a3b16e07647b2ff9","5f64c2c1c82b0e027153b81e","false","null","<span style=""color: black; font-size: 48px"">M + N</span>","null","","","","resp_prompt","","","","","","","","","","","","","","","",""
"categorize-image","186","565283","0.0-4.0-1.0-1.22","ppd2zj2l9nyqrq4","prime","5f5d33e0e5bbeb12a39439eb","5f60e3c0a3b16e07647b2ff9","5f64c2c1c82b0e027153b81e","true","723.6050000065006","./Stimuli/SelectedImages/SN/SN128.bmp","76","","","","test","true","M + N","76","repetition","SN","SN128.bmp","forget","","71","3","prime1","right","","","",""
"html-keyboard-response","187","567289","0.0-4.0-1.0-3.22","ppd2zj2l9nyqrq4","prime","5f5d33e0e5bbeb12a39439eb","5f60e3c0a3b16e07647b2ff9","5f64c2c1c82b0e027153b81e","false","null","<div style=""align-items: center; display: flex; color: darkorange; font-size: 90px""><b>ø</b></div>","null","","","","forget_cue","","","","","","","","","","","","","","","",""
"html-keyboard-response","188","567994","0.0-4.0-1.0-0.23","ppd2zj2l9nyqrq4","prime","5f5d33e0e5bbeb12a39439eb","5f60e3c0a3b16e07647b2ff9","5f64c2c1c82b0e027153b81e","false","null","<span style=""color: black; font-size: 48px"">M + N</span>","null","","","","resp_prompt","","","","","","","","","","","","","","","",""
"categorize-image","189","568842","0.0-4.0-1.0-1.23","ppd2zj2l9nyqrq4","prime","5f5d33e0e5bbeb12a39439eb","5f60e3c0a3b16e07647b2ff9","5f64c2c1c82b0e027153b81e","true","843.75","./Stimuli/SelectedImages/LN/LN101.bmp","76","","","","test","true","M + N","76","repetition","LN","LN101.bmp","forget","","72","3","prime1","right","","","",""
"html-keyboard-response","190","570847","0.0-4.0-1.0-3.23","ppd2zj2l9nyqrq4","prime","5f5d33e0e5bbeb12a39439eb","5f60e3c0a3b16e07647b2ff9","5f64c2c1c82b0e027153b81e","false","null","<div style=""align-items: center; display: flex; color: darkorange; font-size: 90px""><b>ø</b></div>","null","","","","forget_cue","","","","","","","","","","","","","","","",""
"html-keyboard-response","191","571553","0.0-4.0-1.0-0.24","ppd2zj2l9nyqrq4","prime","5f5d33e0e5bbeb12a39439eb","5f60e3c0a3b16e07647b2ff9","5f64c2c1c82b0e027153b81e","false","null","<span style=""color: black; font-size: 48px"">N + M</span>","null","","","","resp_prompt","","","","","","","","","","","","","","","",""
"categorize-image","192","572438","0.0-4.0-1.0-1.24","ppd2zj2l9nyqrq4","prime","5f5d33e0e5bbeb12a39439eb","5f60e3c0a3b16e07647b2ff9","5f64c2c1c82b0e027153b81e","true","879.1749999800231","./Stimuli/SelectedImages/LN/LN42.bmp","83","","","","test","true","N + M","83","switch","LN","LN42.bmp","forget","","73","3","prime1","left","","","",""
"html-keyboard-response","193","574443","0.0-4.0-1.0-3.24","ppd2zj2l9nyqrq4","prime","5f5d33e0e5bbeb12a39439eb","5f60e3c0a3b16e07647b2ff9","5f64c2c1c82b0e027153b81e","false","null","<div style=""align-items: center; display: flex; color: darkorange; font-size: 90px""><b>ø</b></div>","null","","","","forget_cue","","","","","","","","","","","","","","","",""
"html-keyboard-response","194","575149","0.0-4.0-1.0-0.25","ppd2zj2l9nyqrq4","prime","5f5d33e0e5bbeb12a39439eb","5f60e3c0a3b16e07647b2ff9","5f64c2c1c82b0e027153b81e","false","null","<span style=""color: black; font-size: 48px"">N + M</span>","null","","","","resp_prompt","","","","","","","","","","","","","","","",""
"categorize-image","195","575948","0.0-4.0-1.0-1.25","ppd2zj2l9nyqrq4","prime","5f5d33e0e5bbeb12a39439eb","5f60e3c0a3b16e07647b2ff9","5f64c2c1c82b0e027153b81e","true","792.5950000062585","./Stimuli/SelectedImages/SN/SN187.bmp","83","","","","test","true","N + M","83","switch","SN","SN187.bmp","forget","","74","3","prime1","left","","","",""
"html-keyboard-response","196","577953","0.0-4.0-1.0-3.25","ppd2zj2l9nyqrq4","prime","5f5d33e0e5bbeb12a39439eb","5f60e3c0a3b16e07647b2ff9","5f64c2c1c82b0e027153b81e","false","null","<div style=""align-items: center; display: flex; color: darkorange; font-size: 90px""><b>ø</b></div>","null","","","","forget_cue","","","","","","","","","","","","","","","",""
"html-keyboard-response","197","578658","0.0-4.0-1.0-0.26","ppd2zj2l9nyqrq4","prime","5f5d33e0e5bbeb12a39439eb","5f60e3c0a3b16e07647b2ff9","5f64c2c1c82b0e027153b81e","false","null","<span style=""color: black; font-size: 48px"">N + M</span>","null","","","","resp_prompt","","","","","","","","","","","","","","","",""
"categorize-image","198","579361","0.0-4.0-1.0-1.26","ppd2zj2l9nyqrq4","prime","5f5d33e0e5bbeb12a39439eb","5f60e3c0a3b16e07647b2ff9","5f64c2c1c82b0e027153b81e","true","699.2749999917578","./Stimuli/SelectedImages/LM/LM75.bmp","76","","","","test","true","N + M","76","repetition","LM","LM75.bmp","forget","","75","3","prime1","right","","","",""
"html-keyboard-response","199","581367","0.0-4.0-1.0-3.26","ppd2zj2l9nyqrq4","prime","5f5d33e0e5bbeb12a39439eb","5f60e3c0a3b16e07647b2ff9","5f64c2c1c82b0e027153b81e","false","null","<div style=""align-items: center; display: flex; color: darkorange; font-size: 90px""><b>ø</b></div>","null","","","","forget_cue","","","","","","","","","","","","","","","",""
"html-keyboard-response","200","582071","0.0-4.0-1.0-0.27","ppd2zj2l9nyqrq4","prime","5f5d33e0e5bbeb12a39439eb","5f60e3c0a3b16e07647b2ff9","5f64c2c1c82b0e027153b81e","false","null","<span style=""color: black; font-size: 48px"">M + N</span>","null","","","","resp_prompt","","","","","","","","","","","","","","","",""
"categorize-image","201","582931","0.0-4.0-1.0-1.27","ppd2zj2l9nyqrq4","prime","5f5d33e0e5bbeb12a39439eb","5f60e3c0a3b16e07647b2ff9","5f64c2c1c82b0e027153b81e","true","855.5400000186637","./Stimuli/SelectedImages/SM/SM184.bmp","83","","","","test","true","M + N","83","switch","SM","SM184.bmp","remember","","76","3","prime1","left","","","",""
"html-keyboard-response","202","584936","0.0-4.0-1.0-3.27","ppd2zj2l9nyqrq4","prime","5f5d33e0e5bbeb12a39439eb","5f60e3c0a3b16e07647b2ff9","5f64c2c1c82b0e027153b81e","false","null","<div style=""align-items: center; display: flex; color: dodgerblue; font-size: 90px""><b>o</b></div>","null","","","","forget_cue","","","","","","","","","","","","","","","",""
"html-keyboard-response","203","585642","0.0-4.0-1.0-0.28","ppd2zj2l9nyqrq4","prime","5f5d33e0e5bbeb12a39439eb","5f60e3c0a3b16e07647b2ff9","5f64c2c1c82b0e027153b81e","false","null","<span style=""color: black; font-size: 48px"">M + N</span>","null","","","","resp_prompt","","","","","","","","","","","","","","","",""
"categorize-image","204","586626","0.0-4.0-1.0-1.28","ppd2zj2l9nyqrq4","prime","5f5d33e0e5bbeb12a39439eb","5f60e3c0a3b16e07647b2ff9","5f64c2c1c82b0e027153b81e","true","979.9750000238419","./Stimuli/SelectedImages/SM/SM17.bmp","83","","","","test","true","M + N","83","repetition","SM","SM17.bmp","forget","","77","3","prime1","left","","","",""
"html-keyboard-response","205","588632","0.0-4.0-1.0-3.28","ppd2zj2l9nyqrq4","prime","5f5d33e0e5bbeb12a39439eb","5f60e3c0a3b16e07647b2ff9","5f64c2c1c82b0e027153b81e","false","null","<div style=""align-items: center; display: flex; color: darkorange; font-size: 90px""><b>ø</b></div>","null","","","","forget_cue","","","","","","","","","","","","","","","",""
"html-keyboard-response","206","589336","0.0-4.0-1.0-0.29","ppd2zj2l9nyqrq4","prime","5f5d33e0e5bbeb12a39439eb","5f60e3c0a3b16e07647b2ff9","5f64c2c1c82b0e027153b81e","false","null","<span style=""color: black; font-size: 48px"">N + M</span>","null","","","","resp_prompt","","","","","","","","","","","","","","","",""
"categorize-image","207","590058","0.0-4.0-1.0-1.29","ppd2zj2l9nyqrq4","prime","5f5d33e0e5bbeb12a39439eb","5f60e3c0a3b16e07647b2ff9","5f64c2c1c82b0e027153b81e","true","716.6300000099","./Stimuli/SelectedImages/LN/LN28.bmp","83","","","","test","true","N + M","83","switch","LN","LN28.bmp","remember","","78","3","prime1","left","","","",""
"html-keyboard-response","208","592062","0.0-4.0-1.0-3.29","ppd2zj2l9nyqrq4","prime","5f5d33e0e5bbeb12a39439eb","5f60e3c0a3b16e07647b2ff9","5f64c2c1c82b0e027153b81e","false","null","<div style=""align-items: center; display: flex; color: dodgerblue; font-size: 90px""><b>o</b></div>","null","","","","forget_cue","","","","","","","","","","","","","","","",""
"html-keyboard-response","209","592768","0.0-4.0-1.0-0.30","ppd2zj2l9nyqrq4","prime","5f5d33e0e5bbeb12a39439eb","5f60e3c0a3b16e07647b2ff9","5f64c2c1c82b0e027153b81e","false","null","<span style=""color: black; font-size: 48px"">N + M</span>","null","","","","resp_prompt","","","","","","","","","","","","","","","",""
"categorize-image","210","593540","0.0-4.0-1.0-1.30","ppd2zj2l9nyqrq4","prime","5f5d33e0e5bbeb12a39439eb","5f60e3c0a3b16e07647b2ff9","5f64c2c1c82b0e027153b81e","true","766.2300000083633","./Stimuli/SelectedImages/SM/SM76.bmp","76","","","","test","true","N + M","76","repetition","SM","SM76.bmp","remember","","79","3","prime1","right","","","",""
"html-keyboard-response","211","595544","0.0-4.0-1.0-3.30","ppd2zj2l9nyqrq4","prime","5f5d33e0e5bbeb12a39439eb","5f60e3c0a3b16e07647b2ff9","5f64c2c1c82b0e027153b81e","false","null","<div style=""align-items: center; display: flex; color: dodgerblue; font-size: 90px""><b>o</b></div>","null","","","","forget_cue","","","","","","","","","","","","","","","",""
"html-keyboard-response","212","596251","0.0-4.0-1.0-0.31","ppd2zj2l9nyqrq4","prime","5f5d33e0e5bbeb12a39439eb","5f60e3c0a3b16e07647b2ff9","5f64c2c1c82b0e027153b81e","false","null","<span style=""color: black; font-size: 48px"">M + N</span>","null","","","","resp_prompt","","","","","","","","","","","","","","","",""
"categorize-image","213","597009","0.0-4.0-1.0-1.31","ppd2zj2l9nyqrq4","prime","5f5d33e0e5bbeb12a39439eb","5f60e3c0a3b16e07647b2ff9","5f64c2c1c82b0e027153b81e","true","754.0000000153668","./Stimuli/SelectedImages/SN/SN93.bmp","83","","","","test","false","M + N","76","switch","SN","SN93.bmp","forget","","80","3","prime1","left","","","",""
"html-keyboard-response","214","597513","0.0-4.0-1.0-2.31-0.31","ppd2zj2l9nyqrq4","prime","5f5d33e0e5bbeb12a39439eb","5f60e3c0a3b16e07647b2ff9","5f64c2c1c82b0e027153b81e","false","null","<span style=""color: red; font-size: 48px"">Error!</span>","null","","","","feedback","","","","","","","","","","","","","","","",""
"html-keyboard-response","215","599519","0.0-4.0-1.0-3.31","ppd2zj2l9nyqrq4","prime","5f5d33e0e5bbeb12a39439eb","5f60e3c0a3b16e07647b2ff9","5f64c2c1c82b0e027153b81e","false","null","<div style=""align-items: center; display: flex; color: darkorange; font-size: 90px""><b>ø</b></div>","null","","","","forget_cue","","","","","","","","","","","","","","","",""
"html-keyboard-response","216","600225","0.0-4.0-1.0-0.32","ppd2zj2l9nyqrq4","prime","5f5d33e0e5bbeb12a39439eb","5f60e3c0a3b16e07647b2ff9","5f64c2c1c82b0e027153b81e","false","null","<span style=""color: black; font-size: 48px"">M + N</span>","null","","","","resp_prompt","","","","","","","","","","","","","","","",""
"categorize-image","217","600913","0.0-4.0-1.0-1.32","ppd2zj2l9nyqrq4","prime","5f5d33e0e5bbeb12a39439eb","5f60e3c0a3b16e07647b2ff9","5f64c2c1c82b0e027153b81e","true","684.6700000169221","./Stimuli/SelectedImages/SM/SM213.bmp","83","","","","test","true","M + N","83","repetition","SM","SM213.bmp","remember","","81","3","prime1","left","","","",""
"html-keyboard-response","218","602919","0.0-4.0-1.0-3.32","ppd2zj2l9nyqrq4","prime","5f5d33e0e5bbeb12a39439eb","5f60e3c0a3b16e07647b2ff9","5f64c2c1c82b0e027153b81e","false","null","<div style=""align-items: center; display: flex; color: dodgerblue; font-size: 90px""><b>o</b></div>","null","","","","forget_cue","","","","","","","","","","","","","","","",""
"html-keyboard-response","219","603623","0.0-4.0-1.0-0.33","ppd2zj2l9nyqrq4","prime","5f5d33e0e5bbeb12a39439eb","5f60e3c0a3b16e07647b2ff9","5f64c2c1c82b0e027153b81e","false","null","<span style=""color: black; font-size: 48px"">N + M</span>","null","","","","resp_prompt","","","","","","","","","","","","","","","",""
"categorize-image","220","604274","0.0-4.0-1.0-1.33","ppd2zj2l9nyqrq4","prime","5f5d33e0e5bbeb12a39439eb","5f60e3c0a3b16e07647b2ff9","5f64c2c1c82b0e027153b81e","true","646.8750000058208","./Stimuli/SelectedImages/LN/LN150.bmp","83","","","","test","true","N + M","83","repetition","LN","LN150.bmp","remember","","82","3","prime1","left","","","",""
"html-keyboard-response","221","606279","0.0-4.0-1.0-3.33","ppd2zj2l9nyqrq4","prime","5f5d33e0e5bbeb12a39439eb","5f60e3c0a3b16e07647b2ff9","5f64c2c1c82b0e027153b81e","false","null","<div style=""align-items: center; display: flex; color: dodgerblue; font-size: 90px""><b>o</b></div>","null","","","","forget_cue","","","","","","","","","","","","","","","",""
"html-keyboard-response","222","606984","0.0-4.0-1.0-0.34","ppd2zj2l9nyqrq4","prime","5f5d33e0e5bbeb12a39439eb","5f60e3c0a3b16e07647b2ff9","5f64c2c1c82b0e027153b81e","false","null","<span style=""color: black; font-size: 48px"">M + N</span>","null","","","","resp_prompt","","","","","","","","","","","","","","","",""
"categorize-image","223","608178","0.0-4.0-1.0-1.34","ppd2zj2l9nyqrq4","prime","5f5d33e0e5bbeb12a39439eb","5f60e3c0a3b16e07647b2ff9","5f64c2c1c82b0e027153b81e","true","1187.6800000027288","./Stimuli/SelectedImages/SM/SM24.bmp","83","","","","test","true","M + N","83","switch","SM","SM24.bmp","forget","","83","3","prime1","left","","","",""
"html-keyboard-response","224","610183","0.0-4.0-1.0-3.34","ppd2zj2l9nyqrq4","prime","5f5d33e0e5bbeb12a39439eb","5f60e3c0a3b16e07647b2ff9","5f64c2c1c82b0e027153b81e","false","null","<div style=""align-items: center; display: flex; color: darkorange; font-size: 90px""><b>ø</b></div>","null","","","","forget_cue","","","","","","","","","","","","","","","",""
"html-keyboard-response","225","610889","0.0-4.0-1.0-0.35","ppd2zj2l9nyqrq4","prime","5f5d33e0e5bbeb12a39439eb","5f60e3c0a3b16e07647b2ff9","5f64c2c1c82b0e027153b81e","false","null","<span style=""color: black; font-size: 48px"">N + M</span>","null","","","","resp_prompt","","","","","","","","","","","","","","","",""
"categorize-image","226","612393","0.0-4.0-1.0-1.35","ppd2zj2l9nyqrq4","prime","5f5d33e0e5bbeb12a39439eb","5f60e3c0a3b16e07647b2ff9","5f64c2c1c82b0e027153b81e","true","1500.0099999888334","./Stimuli/SelectedImages/LM/LM58.bmp","76","","","","test","true","N + M","76","switch","LM","LM58.bmp","remember","","84","3","prime1","right","","","",""
"html-keyboard-response","227","614398","0.0-4.0-1.0-3.35","ppd2zj2l9nyqrq4","prime","5f5d33e0e5bbeb12a39439eb","5f60e3c0a3b16e07647b2ff9","5f64c2c1c82b0e027153b81e","false","null","<div style=""align-items: center; display: flex; color: dodgerblue; font-size: 90px""><b>o</b></div>","null","","","","forget_cue","","","","","","","","","","","","","","","",""
"html-keyboard-response","228","615103","0.0-4.0-1.0-0.36","ppd2zj2l9nyqrq4","prime","5f5d33e0e5bbeb12a39439eb","5f60e3c0a3b16e07647b2ff9","5f64c2c1c82b0e027153b81e","false","null","<span style=""color: black; font-size: 48px"">M + N</span>","null","","","","resp_prompt","","","","","","","","","","","","","","","",""
"categorize-image","229","615795","0.0-4.0-1.0-1.36","ppd2zj2l9nyqrq4","prime","5f5d33e0e5bbeb12a39439eb","5f60e3c0a3b16e07647b2ff9","5f64c2c1c82b0e027153b81e","true","687.6300000003539","./Stimuli/SelectedImages/SM/SM106.bmp","83","","","","test","true","M + N","83","repetition","SM","SM106.bmp","remember","","85","3","prime1","left","","","",""
"html-keyboard-response","230","617800","0.0-4.0-1.0-3.36","ppd2zj2l9nyqrq4","prime","5f5d33e0e5bbeb12a39439eb","5f60e3c0a3b16e07647b2ff9","5f64c2c1c82b0e027153b81e","false","null","<div style=""align-items: center; display: flex; color: dodgerblue; font-size: 90px""><b>o</b></div>","null","","","","forget_cue","","","","","","","","","","","","","","","",""
"html-keyboard-response","231","618505","0.0-4.0-1.0-0.37","ppd2zj2l9nyqrq4","prime","5f5d33e0e5bbeb12a39439eb","5f60e3c0a3b16e07647b2ff9","5f64c2c1c82b0e027153b81e","false","null","<span style=""color: black; font-size: 48px"">M + N</span>","null","","","","resp_prompt","","","","","","","","","","","","","","","",""
"categorize-image","232","619266","0.0-4.0-1.0-1.37","ppd2zj2l9nyqrq4","prime","5f5d33e0e5bbeb12a39439eb","5f60e3c0a3b16e07647b2ff9","5f64c2c1c82b0e027153b81e","true","755.0350000092294","./Stimuli/SelectedImages/LM/LM51.bmp","83","","","","test","true","M + N","83","switch","LM","LM51.bmp","remember","","86","3","prime1","left","","","",""
"html-keyboard-response","233","621271","0.0-4.0-1.0-3.37","ppd2zj2l9nyqrq4","prime","5f5d33e0e5bbeb12a39439eb","5f60e3c0a3b16e07647b2ff9","5f64c2c1c82b0e027153b81e","false","null","<div style=""align-items: center; display: flex; color: dodgerblue; font-size: 90px""><b>o</b></div>","null","","","","forget_cue","","","","","","","","","","","","","","","",""
"html-keyboard-response","234","621975","0.0-4.0-1.0-0.38","ppd2zj2l9nyqrq4","prime","5f5d33e0e5bbeb12a39439eb","5f60e3c0a3b16e07647b2ff9","5f64c2c1c82b0e027153b81e","false","null","<span style=""color: black; font-size: 48px"">N + M</span>","null","","","","resp_prompt","","","","","","","","","","","","","","","",""
"categorize-image","235","622633","0.0-4.0-1.0-1.38","ppd2zj2l9nyqrq4","prime","5f5d33e0e5bbeb12a39439eb","5f60e3c0a3b16e07647b2ff9","5f64c2c1c82b0e027153b81e","true","652.6500000036322","./Stimuli/SelectedImages/SM/SM108.bmp","76","","","","test","true","N + M","76","switch","SM","SM108.bmp","remember","","87","3","prime1","right","","","",""
"html-keyboard-response","236","624638","0.0-4.0-1.0-3.38","ppd2zj2l9nyqrq4","prime","5f5d33e0e5bbeb12a39439eb","5f60e3c0a3b16e07647b2ff9","5f64c2c1c82b0e027153b81e","false","null","<div style=""align-items: center; display: flex; color: dodgerblue; font-size: 90px""><b>o</b></div>","null","","","","forget_cue","","","","","","","","","","","","","","","",""
"html-keyboard-response","237","625343","0.0-4.0-1.0-0.39","ppd2zj2l9nyqrq4","prime","5f5d33e0e5bbeb12a39439eb","5f60e3c0a3b16e07647b2ff9","5f64c2c1c82b0e027153b81e","false","null","<span style=""color: black; font-size: 48px"">M + N</span>","null","","","","resp_prompt","","","","","","","","","","","","","","","",""
"categorize-image","238","625923","0.0-4.0-1.0-1.39","ppd2zj2l9nyqrq4","prime","5f5d33e0e5bbeb12a39439eb","5f60e3c0a3b16e07647b2ff9","5f64c2c1c82b0e027153b81e","true","574.7750000155065","./Stimuli/SelectedImages/SM/SM207.bmp","83","","","","test","true","M + N","83","repetition","SM","SM207.bmp","forget","","88","3","prime1","left","","","",""
"html-keyboard-response","239","627930","0.0-4.0-1.0-3.39","ppd2zj2l9nyqrq4","prime","5f5d33e0e5bbeb12a39439eb","5f60e3c0a3b16e07647b2ff9","5f64c2c1c82b0e027153b81e","false","null","<div style=""align-items: center; display: flex; color: darkorange; font-size: 90px""><b>ø</b></div>","null","","","","forget_cue","","","","","","","","","","","","","","","",""
"html-keyboard-response","240","628633","0.0-4.0-1.0-0.40","ppd2zj2l9nyqrq4","prime","5f5d33e0e5bbeb12a39439eb","5f60e3c0a3b16e07647b2ff9","5f64c2c1c82b0e027153b81e","false","null","<span style=""color: black; font-size: 48px"">N + M</span>","null","","","","resp_prompt","","","","","","","","","","","","","","","",""
"categorize-image","241","629283","0.0-4.0-1.0-1.40","ppd2zj2l9nyqrq4","prime","5f5d33e0e5bbeb12a39439eb","5f60e3c0a3b16e07647b2ff9","5f64c2c1c82b0e027153b81e","true","644.9399999983143","./Stimuli/SelectedImages/SN/SN182.bmp","83","","","","test","true","N + M","83","switch","SN","SN182.bmp","forget","","89","3","prime1","left","","","",""
"html-keyboard-response","242","631288","0.0-4.0-1.0-3.40","ppd2zj2l9nyqrq4","prime","5f5d33e0e5bbeb12a39439eb","5f60e3c0a3b16e07647b2ff9","5f64c2c1c82b0e027153b81e","false","null","<div style=""align-items: center; display: flex; color: darkorange; font-size: 90px""><b>ø</b></div>","null","","","","forget_cue","","","","","","","","","","","","","","","",""
"html-keyboard-response","243","631992","0.0-4.0-1.0-0.41","ppd2zj2l9nyqrq4","prime","5f5d33e0e5bbeb12a39439eb","5f60e3c0a3b16e07647b2ff9","5f64c2c1c82b0e027153b81e","false","null","<span style=""color: black; font-size: 48px"">M + N</span>","null","","","","resp_prompt","","","","","","","","","","","","","","","",""
"categorize-image","244","632649","0.0-4.0-1.0-1.41","ppd2zj2l9nyqrq4","prime","5f5d33e0e5bbeb12a39439eb","5f60e3c0a3b16e07647b2ff9","5f64c2c1c82b0e027153b81e","true","651.0849999904167","./Stimuli/SelectedImages/SN/SN179.bmp","76","","","","test","true","M + N","76","repetition","SN","SN179.bmp","forget","","90","3","prime1","right","","","",""
"html-keyboard-response","245","634654","0.0-4.0-1.0-3.41","ppd2zj2l9nyqrq4","prime","5f5d33e0e5bbeb12a39439eb","5f60e3c0a3b16e07647b2ff9","5f64c2c1c82b0e027153b81e","false","null","<div style=""align-items: center; display: flex; color: darkorange; font-size: 90px""><b>ø</b></div>","null","","","","forget_cue","","","","","","","","","","","","","","","",""
"html-keyboard-response","246","635360","0.0-4.0-1.0-0.42","ppd2zj2l9nyqrq4","prime","5f5d33e0e5bbeb12a39439eb","5f60e3c0a3b16e07647b2ff9","5f64c2c1c82b0e027153b81e","false","null","<span style=""color: black; font-size: 48px"">N + M</span>","null","","","","resp_prompt","","","","","","","","","","","","","","","",""
"categorize-image","247","636131","0.0-4.0-1.0-1.42","ppd2zj2l9nyqrq4","prime","5f5d33e0e5bbeb12a39439eb","5f60e3c0a3b16e07647b2ff9","5f64c2c1c82b0e027153b81e","true","766.2450000061654","./Stimuli/SelectedImages/LM/LM150.bmp","83","","","","test","false","N + M","76","switch","LM","LM150.bmp","forget","","91","3","prime1","left","","","",""
"html-keyboard-response","248","636632","0.0-4.0-1.0-2.42-0.42","ppd2zj2l9nyqrq4","prime","5f5d33e0e5bbeb12a39439eb","5f60e3c0a3b16e07647b2ff9","5f64c2c1c82b0e027153b81e","false","null","<span style=""color: red; font-size: 48px"">Error!</span>","null","","","","feedback","","","","","","","","","","","","","","","",""
"html-keyboard-response","249","638637","0.0-4.0-1.0-3.42","ppd2zj2l9nyqrq4","prime","5f5d33e0e5bbeb12a39439eb","5f60e3c0a3b16e07647b2ff9","5f64c2c1c82b0e027153b81e","false","null","<div style=""align-items: center; display: flex; color: darkorange; font-size: 90px""><b>ø</b></div>","null","","","","forget_cue","","","","","","","","","","","","","","","",""
"html-keyboard-response","250","639341","0.0-4.0-1.0-0.43","ppd2zj2l9nyqrq4","prime","5f5d33e0e5bbeb12a39439eb","5f60e3c0a3b16e07647b2ff9","5f64c2c1c82b0e027153b81e","false","null","<span style=""color: black; font-size: 48px"">N + M</span>","null","","","","resp_prompt","","","","","","","","","","","","","","","",""
"categorize-image","251","640170","0.0-4.0-1.0-1.43","ppd2zj2l9nyqrq4","prime","5f5d33e0e5bbeb12a39439eb","5f60e3c0a3b16e07647b2ff9","5f64c2c1c82b0e027153b81e","true","823.4800000209361","./Stimuli/SelectedImages/SN/SN52.bmp","83","","","","test","true","N + M","83","repetition","SN","SN52.bmp","forget","","92","3","prime1","left","","","",""
"html-keyboard-response","252","642176","0.0-4.0-1.0-3.43","ppd2zj2l9nyqrq4","prime","5f5d33e0e5bbeb12a39439eb","5f60e3c0a3b16e07647b2ff9","5f64c2c1c82b0e027153b81e","false","null","<div style=""align-items: center; display: flex; color: darkorange; font-size: 90px""><b>ø</b></div>","null","","","","forget_cue","","","","","","","","","","","","","","","",""
