"trial_type","trial_index","time_elapsed","internal_node_id","subject","exp_part","prolific_PID","study_ID","session_ID","use","rt","stimulus","key_press","button_pressed","responses","question_order","trial_part","correct","resp_map","correct_resp","probe_condition","category","image","forget_condition","list","trial_num","block_num","block","response","test_part","n_span","sequence","num_spaces"
"pavlovia","0","4","0.0-0.0","rrx5eqfbk0skybz","","5b2387f1a8090c0001e61c78","5f60e3c0a3b16e07647b2ff9","5f60eacd9e53050009e13906","false","","","","","","","","","","","","","","","","","","","","","","",""
"html-keyboard-response","1","9444","0.0-1.0-0.0-0.0","rrx5eqfbk0skybz","welcome","5b2387f1a8090c0001e61c78","5f60e3c0a3b16e07647b2ff9","5f60eacd9e53050009e13906","false","9438.829999999143","<div align=left>Dear participant, <br> thank you for participating in an online study of the Cognition, Action, and Sustainability Unit of the University of Freiburg! <br> <br>The aim of this study is to examine our ability to remember previously learned information. <br>Our goal is to find out, whether our memory improves, when we only remember information that is relevant to us. <br>The experiment will take about 35 minutes to complete. <br> <br>Please, note that you can only participate in this study if you are using a device with a keyboard (PC, Laptop etc.) <br>and not if you are using a mobile device such as a tablet or smartphone.<br> <br>Press 'SPACE' to proceed to the experiment. </div>","32","","","","","","","","","","","","","","","","","","","",""
"html-keyboard-response","2","14120","0.0-1.0-0.0-1.0","rrx5eqfbk0skybz","welcome","5b2387f1a8090c0001e61c78","5f60e3c0a3b16e07647b2ff9","5f60eacd9e53050009e13906","false","4674.654999980703","<div align=left><strong> Time Course of this experiment: </strong> <br><br> <strong> 1.</strong>  First, please fill in some information regarding your demographic data. <br><br> <strong> 2.</strong>  Next, your task will be to classify everyday objects. <br>In addition, you will be asked to remember certain objects and recall them later. <br>Working on these tasks requires your undivided attention and concentration.<br>It is therefore essential that you eliminate any sources of distraction in your  <br>environment and ensure that you will not be disturbed. <br><br><strong> 3.</strong>  At the end of the experiment, you will be asked to answer a few additional questions. <br> <br><strong> Important:</strong> After finishing the experiment, only close the browser window <br> by clicking on the 'end the experiment'-button when you are asked to do so. <br>Closing the browser window prematurely will make the allocation of your participation credit impossible. <br><br> Press 'SPACE' to start the experiment. </div>","32","","","","","","","","","","","","","","","","","","","",""
"html-button-response","3","17798","0.0-1.0-0.0-2.0","rrx5eqfbk0skybz","welcome","5b2387f1a8090c0001e61c78","5f60e3c0a3b16e07647b2ff9","5f60eacd9e53050009e13906","true","3676.244999980554","<div align=left><strong> Informed consent </strong>  <br>The aim of our research is to better understand human behavior and mental processes. <br>In the following study your behavior (e.g. choices, reaction times) will be studied. <br> <br><strong> Voluntariness and Anonymity </strong> <br>Your participation in this study is  <strong> voluntary</strong>.<br>You may withdraw your consent to participate at any time without providing a reason for doing so and without fear of prejudice. <br><br>As no personal data will be collected, <strong>your data and your person cannot be connected after data collection</strong> – the data-set is anonymous. <br>Respectively, deletion of your data will not be possible after data collection has been completed, as we cannot retrace your data-set.<br>The results and anonymized data collected in this study will be published as a scientific publication. <br>This will happen in an <strong>anonymized format</strong>, so that no data can be traced back to a specific person. <br> <br>The anonymized data of this study will be made available to other researchers and/or in a data archive on the Internet as a means of transparency and to enable subsequent re-use. By doing so, this study follows the recommendations of the Deutsche Forschungsgemeinschaft (DFG, German Research Foundation) and Deutsche Gesellschaft für Psychologie (DGPS, German Psychological Society) regarding quality assurance in research.<br>If you have any questions now or after the experiment, please contact our team (experiments@cs.uni-freiburg.de).<br><br><br>I hereby declare, that I understand the above described conditions of participation and I agree to participate under these conditions. <br><br> </div>","","0","","","","","","","","","","","","","","","","","","",""
"html-keyboard-response","4","28307","0.0-1.0-0.0-3.0","rrx5eqfbk0skybz","welcome","5b2387f1a8090c0001e61c78","5f60e3c0a3b16e07647b2ff9","5f60eacd9e53050009e13906","false","10508.109999937005","<div align=left><strong> General information concerning the experiment </strong>  <br> <br>Please follow the instructions:<ol> <li><strong> Do not leave this tab (your browser window) during the experiment and do not reload this tab! </strong>  <br>If you do switch tabs/windows during the experiment (to check your mail or visit another website, for example), <br>the experiment will end automatically and you will <strong>not receive credit</strong> for your participation. <br>Repeated participation or resumption of the experiment is impossible.</li> <br><li>Please close all other programs for the duration of your participation. </li> <br><li>Please mute or turn off your phone and put it out of your reach. </li> <br><li>Please also take off any disturbing accessories (such as wristwatches, bracelets, etc.). </li> <br><li>If you have music playing in the background, please turn it off now. </li> <br></ol>Thank you! <br>Press 'SPACE' to continue. </div>","32","","","","","","","","","","","","","","","","","","","",""
"survey-text","5","34059","0.0-1.0-1.0-0.0","rrx5eqfbk0skybz","demographics","5b2387f1a8090c0001e61c78","5f60e3c0a3b16e07647b2ff9","5f60eacd9e53050009e13906","true","5748.410000000149","","","","{""age"":""29 ""}","","","","","","","","","","","","","","","","","",""
"survey-multi-choice","6","56573","0.0-1.0-1.0-1.0","rrx5eqfbk0skybz","demographics","5b2387f1a8090c0001e61c78","5f60e3c0a3b16e07647b2ff9","5f60eacd9e53050009e13906","true","22511.554999975488","","","","{""gender"":""male"",""school"":""high school"",""education"":""Completed university degree or equivalent""}","[0,1,2]","","","","","","","","","","","","","","","","",""
"html-keyboard-response","7","75026","0.0-1.0-2.0","rrx5eqfbk0skybz","instructions","5b2387f1a8090c0001e61c78","5f60e3c0a3b16e07647b2ff9","5f60eacd9e53050009e13906","false","18448.289999971166","<div align=left> The experiment is now about to start: <br> <br>In the following part, you will be presented pictures of everyday objects. <br>Your first task is to <strong>classify these objects. </strong> <br> <br> You will classify them either as mechanical or non-mechanical objects. <br> <br>Objects that include any kind of technical mechanism (for example, wheels, switches, levers, <br> electronic components) fall under the category of <strong>mechanical</strong> objects. <br>Only objects without any kind of technical mechanism should be classified as <strong>non-mechanical</strong>. <br><br>Press 'SPACE' to continue. </div>","32","","","","","","","","","","","","","","","","","","","",""
"html-keyboard-response","8","107122","0.0-2.0-0.0","rrx5eqfbk0skybz","instructions","5b2387f1a8090c0001e61c78","5f60e3c0a3b16e07647b2ff9","5f60eacd9e53050009e13906","false","32095.32500000205","<div align=justify>You will classify the objects using the <strong>'S'</strong> and the <strong>'L'</strong> keys on your keyboard.<br>For doing so, please place your <strong>left index finger</strong> on the <strong>'S'</strong> key and place your <strong>right index finger</strong> on the <strong>'L'</strong> key. <br><br> Each trial starts with an instruction, indicating which key ('S'/'L') you need to press to classify <br>the object as mechanical (letter M) or non-mechanical (letter N).<br>The instruction <strong>M + N</strong> indicates that, in the current trial, by pressing the left key ('S') you classify the displayed object as mechanical (M) <br> and by pressing the right key ('L') you classify the object as non-mechanical (N). <br>The instruction <strong>N + M</strong> on the other hand indicates that by pressing the left key ('S') you classify the displayed object as non-mechanical (N) <br> and by pressing the right key ('L') you classify the object as mechanical (M). <br><br>Please press the key corresponding to the correct classification as fast as possible as soon as the object is displayed and try to avoid making mistakes.<br>If you do not respond within a 2 second window, a corresponding feedback will be displayed and the next trial will start.<br> The experiment is divided into multiple blocks to give you the opportunity to take a break after each block. <br>First, you can now practice this task. <br><br>Please place your <strong>LEFT INDEX FINGER</strong> on the 'S' key and your <strong>RIGHT INDEX FINGER</strong> on the 'L' key now. <br><br>Press SPACE to continue.</div>","32","","","","","","","","","","","","","","","","","","","",""
"html-keyboard-response","9","110755","0.0-2.0-1.0","rrx5eqfbk0skybz","instructions","5b2387f1a8090c0001e61c78","5f60e3c0a3b16e07647b2ff9","5f60eacd9e53050009e13906","false","3631.664999993518","<div align=left> You will now have time to practice this task.<br><br>Remember: <br> <br><li>Please place your index fingers on the <strong>'S'</strong> and <strong>'L'</strong> keys <br>to respond as fast and accurately as possible.</li><li>Every picture can be classified as either mechanical or non-mechanical.</li><li>If you do not respond in time or commit an error, you will receive a corresponding feedback. </li><li> Please try to respond as <strong> fast </strong> and as <strong> accurately as possible </strong> .<br><li>To ensure optimal results, please minimize distractions and stay focused. </li><br><br>Press SPACE to continue.</div>","32","","","","","","","","","","","","","","","","","","","",""
"html-keyboard-response","10","111457","0.0-2.0-2.0-0.0","rrx5eqfbk0skybz","practice_no_cue","5b2387f1a8090c0001e61c78","5f60e3c0a3b16e07647b2ff9","5f60eacd9e53050009e13906","false","null","<span style=""color: black; font-size: 48px"">N + M</span>","null","","","","resp_prompt","","","","","","","","","","","","","","","",""
"categorize-image","11","113960","0.0-2.0-2.0-1.0","rrx5eqfbk0skybz","practice_no_cue","5b2387f1a8090c0001e61c78","5f60e3c0a3b16e07647b2ff9","5f60eacd9e53050009e13906","true","null","./Stimuli/ImagesPractice/LN4.jpg","null","","","","test","false","N + M","83","","LN","LN4.jpg","forget","old","1","1","start","too_slow","","","",""
"html-keyboard-response","12","114662","0.0-2.0-2.0-0.1","rrx5eqfbk0skybz","practice_no_cue","5b2387f1a8090c0001e61c78","5f60e3c0a3b16e07647b2ff9","5f60eacd9e53050009e13906","false","null","<span style=""color: black; font-size: 48px"">M + N</span>","null","","","","resp_prompt","","","","","","","","","","","","","","","",""
"categorize-image","13","116046","0.0-2.0-2.0-1.1","rrx5eqfbk0skybz","practice_no_cue","5b2387f1a8090c0001e61c78","5f60e3c0a3b16e07647b2ff9","5f60eacd9e53050009e13906","true","883.5749999852851","./Stimuli/ImagesPractice/LM239.jpg","83","","","","test","true","M + N","83","","LM","LM239.jpg","remember","old","2","1","start","left","","","",""
"html-keyboard-response","14","116748","0.0-2.0-2.0-0.2","rrx5eqfbk0skybz","practice_no_cue","5b2387f1a8090c0001e61c78","5f60e3c0a3b16e07647b2ff9","5f60eacd9e53050009e13906","false","null","<span style=""color: black; font-size: 48px"">M + N</span>","null","","","","resp_prompt","","","","","","","","","","","","","","","",""
"categorize-image","15","117955","0.0-2.0-2.0-1.2","rrx5eqfbk0skybz","practice_no_cue","5b2387f1a8090c0001e61c78","5f60e3c0a3b16e07647b2ff9","5f60eacd9e53050009e13906","true","705.7700000004843","./Stimuli/ImagesPractice/LM224.jpg","83","","","","test","true","M + N","83","","LM","LM224.jpg","forget","old","3","1","start","left","","","",""
"html-keyboard-response","16","118656","0.0-2.0-2.0-0.3","rrx5eqfbk0skybz","practice_no_cue","5b2387f1a8090c0001e61c78","5f60e3c0a3b16e07647b2ff9","5f60eacd9e53050009e13906","false","null","<span style=""color: black; font-size: 48px"">N + M</span>","null","","","","resp_prompt","","","","","","","","","","","","","","","",""
"categorize-image","17","119967","0.0-2.0-2.0-1.3","rrx5eqfbk0skybz","practice_no_cue","5b2387f1a8090c0001e61c78","5f60e3c0a3b16e07647b2ff9","5f60eacd9e53050009e13906","true","809.2199999373406","./Stimuli/ImagesPractice/SM35.jpg","83","","","","test","false","N + M","76","","SM","SM35.jpg","remember","old","4","1","start","left","","","",""
"html-keyboard-response","18","120669","0.0-2.0-2.0-0.4","rrx5eqfbk0skybz","practice_no_cue","5b2387f1a8090c0001e61c78","5f60e3c0a3b16e07647b2ff9","5f60eacd9e53050009e13906","false","null","<span style=""color: black; font-size: 48px"">M + N</span>","null","","","","resp_prompt","","","","","","","","","","","","","","","",""
"categorize-image","19","122520","0.0-2.0-2.0-1.4","rrx5eqfbk0skybz","practice_no_cue","5b2387f1a8090c0001e61c78","5f60e3c0a3b16e07647b2ff9","5f60eacd9e53050009e13906","true","1349.4400000199676","./Stimuli/ImagesPractice/LM143.jpg","76","","","","test","false","M + N","83","","LM","LM143.jpg","forget","old","5","1","start","right","","","",""
"html-keyboard-response","20","123221","0.0-2.0-2.0-0.5","rrx5eqfbk0skybz","practice_no_cue","5b2387f1a8090c0001e61c78","5f60e3c0a3b16e07647b2ff9","5f60eacd9e53050009e13906","false","null","<span style=""color: black; font-size: 48px"">N + M</span>","null","","","","resp_prompt","","","","","","","","","","","","","","","",""
"categorize-image","21","124453","0.0-2.0-2.0-1.5","rrx5eqfbk0skybz","practice_no_cue","5b2387f1a8090c0001e61c78","5f60e3c0a3b16e07647b2ff9","5f60eacd9e53050009e13906","true","730.6899999966845","./Stimuli/ImagesPractice/SN76.jpg","76","","","","test","false","N + M","83","","SN","SN76.jpg","forget","old","6","1","start","right","","","",""
"html-keyboard-response","22","125154","0.0-2.0-2.0-0.6","rrx5eqfbk0skybz","practice_no_cue","5b2387f1a8090c0001e61c78","5f60e3c0a3b16e07647b2ff9","5f60eacd9e53050009e13906","false","null","<span style=""color: black; font-size: 48px"">N + M</span>","null","","","","resp_prompt","","","","","","","","","","","","","","","",""
"categorize-image","23","126924","0.0-2.0-2.0-1.6","rrx5eqfbk0skybz","practice_no_cue","5b2387f1a8090c0001e61c78","5f60e3c0a3b16e07647b2ff9","5f60eacd9e53050009e13906","true","1268.489999929443","./Stimuli/ImagesPractice/SM62.jpg","83","","","","test","false","N + M","76","","SM","SM62.jpg","forget","old","7","1","start","left","","","",""
"html-keyboard-response","24","127626","0.0-2.0-2.0-0.7","rrx5eqfbk0skybz","practice_no_cue","5b2387f1a8090c0001e61c78","5f60e3c0a3b16e07647b2ff9","5f60eacd9e53050009e13906","false","null","<span style=""color: black; font-size: 48px"">M + N</span>","null","","","","resp_prompt","","","","","","","","","","","","","","","",""
"categorize-image","25","128969","0.0-2.0-2.0-1.7","rrx5eqfbk0skybz","practice_no_cue","5b2387f1a8090c0001e61c78","5f60e3c0a3b16e07647b2ff9","5f60eacd9e53050009e13906","true","840.8500000368804","./Stimuli/ImagesPractice/SN75.jpg","83","","","","test","false","M + N","76","","SN","SN75.jpg","remember","old","8","1","start","left","","","",""
"html-keyboard-response","26","129670","0.0-2.0-2.0-0.8","rrx5eqfbk0skybz","practice_no_cue","5b2387f1a8090c0001e61c78","5f60e3c0a3b16e07647b2ff9","5f60eacd9e53050009e13906","false","null","<span style=""color: black; font-size: 48px"">N + M</span>","null","","","","resp_prompt","","","","","","","","","","","","","","","",""
"categorize-image","27","131265","0.0-2.0-2.0-1.8","rrx5eqfbk0skybz","practice_no_cue","5b2387f1a8090c0001e61c78","5f60e3c0a3b16e07647b2ff9","5f60eacd9e53050009e13906","true","1092.6350000081584","./Stimuli/ImagesPractice/LN109.jpg","76","","","","test","false","N + M","83","","LN","LN109.jpg","remember","old","9","1","start","right","","","",""
"html-keyboard-response","28","131966","0.0-2.0-2.0-0.9","rrx5eqfbk0skybz","practice_no_cue","5b2387f1a8090c0001e61c78","5f60e3c0a3b16e07647b2ff9","5f60eacd9e53050009e13906","false","null","<span style=""color: black; font-size: 48px"">M + N</span>","null","","","","resp_prompt","","","","","","","","","","","","","","","",""
"categorize-image","29","133238","0.0-2.0-2.0-1.9","rrx5eqfbk0skybz","practice_no_cue","5b2387f1a8090c0001e61c78","5f60e3c0a3b16e07647b2ff9","5f60eacd9e53050009e13906","true","770.1799999922514","./Stimuli/ImagesPractice/SM37.jpg","83","","","","test","true","M + N","83","","SM","SM37.jpg","forget","old","10","1","start","left","","","",""
"html-keyboard-response","30","133939","0.0-2.0-2.0-0.10","rrx5eqfbk0skybz","practice_no_cue","5b2387f1a8090c0001e61c78","5f60e3c0a3b16e07647b2ff9","5f60eacd9e53050009e13906","false","null","<span style=""color: black; font-size: 48px"">M + N</span>","null","","","","resp_prompt","","","","","","","","","","","","","","","",""
"categorize-image","31","135375","0.0-2.0-2.0-1.10","rrx5eqfbk0skybz","practice_no_cue","5b2387f1a8090c0001e61c78","5f60e3c0a3b16e07647b2ff9","5f60eacd9e53050009e13906","true","934.5650000032037","./Stimuli/ImagesPractice/SN205.jpg","76","","","","test","true","M + N","76","","SN","SN205.jpg","remember","old","11","1","start","right","","","",""
"html-keyboard-response","32","136076","0.0-2.0-2.0-0.11","rrx5eqfbk0skybz","practice_no_cue","5b2387f1a8090c0001e61c78","5f60e3c0a3b16e07647b2ff9","5f60eacd9e53050009e13906","false","null","<span style=""color: black; font-size: 48px"">N + M</span>","null","","","","resp_prompt","","","","","","","","","","","","","","","",""
"categorize-image","33","137531","0.0-2.0-2.0-1.11","rrx5eqfbk0skybz","practice_no_cue","5b2387f1a8090c0001e61c78","5f60e3c0a3b16e07647b2ff9","5f60eacd9e53050009e13906","true","953.5100000211969","./Stimuli/ImagesPractice/SM97.jpg","83","","","","test","false","N + M","76","","SM","SM97.jpg","remember","old","12","1","start","left","","","",""
"html-keyboard-response","34","138233","0.0-2.0-2.0-0.12","rrx5eqfbk0skybz","practice_no_cue","5b2387f1a8090c0001e61c78","5f60e3c0a3b16e07647b2ff9","5f60eacd9e53050009e13906","false","null","<span style=""color: black; font-size: 48px"">M + N</span>","null","","","","resp_prompt","","","","","","","","","","","","","","","",""
"categorize-image","35","139822","0.0-2.0-2.0-1.12","rrx5eqfbk0skybz","practice_no_cue","5b2387f1a8090c0001e61c78","5f60e3c0a3b16e07647b2ff9","5f60eacd9e53050009e13906","true","1087.6850000349805","./Stimuli/ImagesPractice/LN17.jpg","76","","","","test","true","M + N","76","","LN","LN17.jpg","remember","old","13","1","start","right","","","",""
"html-keyboard-response","36","140523","0.0-2.0-2.0-0.13","rrx5eqfbk0skybz","practice_no_cue","5b2387f1a8090c0001e61c78","5f60e3c0a3b16e07647b2ff9","5f60eacd9e53050009e13906","false","null","<span style=""color: black; font-size: 48px"">N + M</span>","null","","","","resp_prompt","","","","","","","","","","","","","","","",""
"categorize-image","37","142110","0.0-2.0-2.0-1.13","rrx5eqfbk0skybz","practice_no_cue","5b2387f1a8090c0001e61c78","5f60e3c0a3b16e07647b2ff9","5f60eacd9e53050009e13906","true","1085.9749999362975","./Stimuli/ImagesPractice/LM230.jpg","83","","","","test","false","N + M","76","","LM","LM230.jpg","forget","old","14","1","start","left","","","",""
"html-keyboard-response","38","142812","0.0-2.0-2.0-0.14","rrx5eqfbk0skybz","practice_no_cue","5b2387f1a8090c0001e61c78","5f60e3c0a3b16e07647b2ff9","5f60eacd9e53050009e13906","false","null","<span style=""color: black; font-size: 48px"">M + N</span>","null","","","","resp_prompt","","","","","","","","","","","","","","","",""
"categorize-image","39","144326","0.0-2.0-2.0-1.14","rrx5eqfbk0skybz","practice_no_cue","5b2387f1a8090c0001e61c78","5f60e3c0a3b16e07647b2ff9","5f60eacd9e53050009e13906","true","1012.1899999212474","./Stimuli/ImagesPractice/LN2.jpg","76","","","","test","true","M + N","76","","LN","LN2.jpg","forget","old","15","1","start","right","","","",""
"html-keyboard-response","40","145027","0.0-2.0-2.0-0.15","rrx5eqfbk0skybz","practice_no_cue","5b2387f1a8090c0001e61c78","5f60e3c0a3b16e07647b2ff9","5f60eacd9e53050009e13906","false","null","<span style=""color: black; font-size: 48px"">N + M</span>","null","","","","resp_prompt","","","","","","","","","","","","","","","",""
"categorize-image","41","146125","0.0-2.0-2.0-1.15","rrx5eqfbk0skybz","practice_no_cue","5b2387f1a8090c0001e61c78","5f60e3c0a3b16e07647b2ff9","5f60eacd9e53050009e13906","true","595.8549999631941","./Stimuli/ImagesPractice/SN220.jpg","76","","","","test","false","N + M","83","","SN","SN220.jpg","remember","old","16","1","start","right","","","",""
"html-keyboard-response","42","150063","0.0-2.0-3.0","rrx5eqfbk0skybz","break","5b2387f1a8090c0001e61c78","5f60e3c0a3b16e07647b2ff9","5f60eacd9e53050009e13906","false","3937.3299999861047","<p style='font-size: 32px;'>Break</><br><br><br><br><br><p style='font-size: 24px;'>In the last block, you committed 9 errors and did not respond in time on 1 trials.
</p><p style='font-size: 24px;'>Try to respond as fast and accurately as possible in the next block as well! </p><p style='font-size: 24px;'>Press SPACE to continue.</p>","32","","","","","","","","","","","","","","","","","","","",""
"html-keyboard-response","43","152645","0.0-2.0-4.0","rrx5eqfbk0skybz","instructions","5b2387f1a8090c0001e61c78","5f60e3c0a3b16e07647b2ff9","5f60eacd9e53050009e13906","false","2580.8549999492243","<div align=left> Great!<br><br>Are you ready to continue?<br><br>If you want to reread the instructions and redo the practice trials, <br>please press „Z“. <br><br>Press SPACE to CONTINUE with the experiment when you are ready. </div>","90","","","","","","","","","","","","","","","","","","","",""
"html-keyboard-response","44","167880","0.0-2.1-0.1","rrx5eqfbk0skybz","instructions","5b2387f1a8090c0001e61c78","5f60e3c0a3b16e07647b2ff9","5f60eacd9e53050009e13906","false","15234.10999996122","<div align=justify>You will classify the objects using the <strong>'S'</strong> and the <strong>'L'</strong> keys on your keyboard.<br>For doing so, please place your <strong>left index finger</strong> on the <strong>'S'</strong> key and place your <strong>right index finger</strong> on the <strong>'L'</strong> key. <br><br> Each trial starts with an instruction, indicating which key ('S'/'L') you need to press to classify <br>the object as mechanical (letter M) or non-mechanical (letter N).<br>The instruction <strong>M + N</strong> indicates that, in the current trial, by pressing the left key ('S') you classify the displayed object as mechanical (M) <br> and by pressing the right key ('L') you classify the object as non-mechanical (N). <br>The instruction <strong>N + M</strong> on the other hand indicates that by pressing the left key ('S') you classify the displayed object as non-mechanical (N) <br> and by pressing the right key ('L') you classify the object as mechanical (M). <br><br>Please press the key corresponding to the correct classification as fast as possible as soon as the object is displayed and try to avoid making mistakes.<br>If you do not respond within a 2 second window, a corresponding feedback will be displayed and the next trial will start.<br> The experiment is divided into multiple blocks to give you the opportunity to take a break after each block. <br>First, you can now practice this task. <br><br>Please place your <strong>LEFT INDEX FINGER</strong> on the 'S' key and your <strong>RIGHT INDEX FINGER</strong> on the 'L' key now. <br><br>Press SPACE to continue.</div>","32","","","","","","","","","","","","","","","","","","","",""
"html-keyboard-response","45","169096","0.0-2.1-1.1","rrx5eqfbk0skybz","instructions","5b2387f1a8090c0001e61c78","5f60e3c0a3b16e07647b2ff9","5f60eacd9e53050009e13906","false","1214.8749999469146","<div align=left> You will now have time to practice this task.<br><br>Remember: <br> <br><li>Please place your index fingers on the <strong>'S'</strong> and <strong>'L'</strong> keys <br>to respond as fast and accurately as possible.</li><li>Every picture can be classified as either mechanical or non-mechanical.</li><li>If you do not respond in time or commit an error, you will receive a corresponding feedback. </li><li> Please try to respond as <strong> fast </strong> and as <strong> accurately as possible </strong> .<br><li>To ensure optimal results, please minimize distractions and stay focused. </li><br><br>Press SPACE to continue.</div>","32","","","","","","","","","","","","","","","","","","","",""
"html-keyboard-response","46","169797","0.0-2.1-2.1-0.16","rrx5eqfbk0skybz","practice_no_cue","5b2387f1a8090c0001e61c78","5f60e3c0a3b16e07647b2ff9","5f60eacd9e53050009e13906","false","null","<span style=""color: black; font-size: 48px"">N + M</span>","null","","","","resp_prompt","","","","","","","","","","","","","","","",""
"categorize-image","47","171599","0.0-2.1-2.1-1.16","rrx5eqfbk0skybz","practice_no_cue","5b2387f1a8090c0001e61c78","5f60e3c0a3b16e07647b2ff9","5f60eacd9e53050009e13906","true","1299.269999959506","./Stimuli/ImagesPractice/SN220.jpg","83","","","","test","true","N + M","83","","SN","SN220.jpg","remember","old","17","2","practice_forget","left","","","",""
"html-keyboard-response","48","172300","0.0-2.1-2.1-0.17","rrx5eqfbk0skybz","practice_no_cue","5b2387f1a8090c0001e61c78","5f60e3c0a3b16e07647b2ff9","5f60eacd9e53050009e13906","false","null","<span style=""color: black; font-size: 48px"">N + M</span>","null","","","","resp_prompt","","","","","","","","","","","","","","","",""
"categorize-image","49","173713","0.0-2.1-2.1-1.17","rrx5eqfbk0skybz","practice_no_cue","5b2387f1a8090c0001e61c78","5f60e3c0a3b16e07647b2ff9","5f60eacd9e53050009e13906","true","910.9750000061467","./Stimuli/ImagesPractice/SN76.jpg","83","","","","test","true","N + M","83","","SN","SN76.jpg","forget","old","18","2","practice_forget","left","","","",""
"html-keyboard-response","50","174414","0.0-2.1-2.1-0.18","rrx5eqfbk0skybz","practice_no_cue","5b2387f1a8090c0001e61c78","5f60e3c0a3b16e07647b2ff9","5f60eacd9e53050009e13906","false","null","<span style=""color: black; font-size: 48px"">M + N</span>","null","","","","resp_prompt","","","","","","","","","","","","","","","",""
"categorize-image","51","175583","0.0-2.1-2.1-1.18","rrx5eqfbk0skybz","practice_no_cue","5b2387f1a8090c0001e61c78","5f60e3c0a3b16e07647b2ff9","5f60eacd9e53050009e13906","true","667.2050000634044","./Stimuli/ImagesPractice/LM143.jpg","76","","","","test","false","M + N","83","","LM","LM143.jpg","forget","old","19","2","practice_forget","right","","","",""
"html-keyboard-response","52","176284","0.0-2.1-2.1-0.19","rrx5eqfbk0skybz","practice_no_cue","5b2387f1a8090c0001e61c78","5f60e3c0a3b16e07647b2ff9","5f60eacd9e53050009e13906","false","null","<span style=""color: black; font-size: 48px"">N + M</span>","null","","","","resp_prompt","","","","","","","","","","","","","","","",""
"categorize-image","53","178006","0.0-2.1-2.1-1.19","rrx5eqfbk0skybz","practice_no_cue","5b2387f1a8090c0001e61c78","5f60e3c0a3b16e07647b2ff9","5f60eacd9e53050009e13906","true","1220.024999929592","./Stimuli/ImagesPractice/LN109.jpg","83","","","","test","true","N + M","83","","LN","LN109.jpg","remember","old","20","2","practice_forget","left","","","",""
"html-keyboard-response","54","178707","0.0-2.1-2.1-0.20","rrx5eqfbk0skybz","practice_no_cue","5b2387f1a8090c0001e61c78","5f60e3c0a3b16e07647b2ff9","5f60eacd9e53050009e13906","false","null","<span style=""color: black; font-size: 48px"">M + N</span>","null","","","","resp_prompt","","","","","","","","","","","","","","","",""
"categorize-image","55","180482","0.0-2.1-2.1-1.20","rrx5eqfbk0skybz","practice_no_cue","5b2387f1a8090c0001e61c78","5f60e3c0a3b16e07647b2ff9","5f60eacd9e53050009e13906","true","1273.4450000571087","./Stimuli/ImagesPractice/SN75.jpg","83","","","","test","false","M + N","76","","SN","SN75.jpg","remember","old","21","2","practice_forget","left","","","",""
"html-keyboard-response","56","181183","0.0-2.1-2.1-0.21","rrx5eqfbk0skybz","practice_no_cue","5b2387f1a8090c0001e61c78","5f60e3c0a3b16e07647b2ff9","5f60eacd9e53050009e13906","false","null","<span style=""color: black; font-size: 48px"">N + M</span>","null","","","","resp_prompt","","","","","","","","","","","","","","","",""
"categorize-image","57","182877","0.0-2.1-2.1-1.21","rrx5eqfbk0skybz","practice_no_cue","5b2387f1a8090c0001e61c78","5f60e3c0a3b16e07647b2ff9","5f60eacd9e53050009e13906","true","1191.7400000384077","./Stimuli/ImagesPractice/LM230.jpg","76","","","","test","true","N + M","76","","LM","LM230.jpg","forget","old","22","2","practice_forget","right","","","",""
"html-keyboard-response","58","183578","0.0-2.1-2.1-0.22","rrx5eqfbk0skybz","practice_no_cue","5b2387f1a8090c0001e61c78","5f60e3c0a3b16e07647b2ff9","5f60eacd9e53050009e13906","false","null","<span style=""color: black; font-size: 48px"">M + N</span>","null","","","","resp_prompt","","","","","","","","","","","","","","","",""
"categorize-image","59","185816","0.0-2.1-2.1-1.22","rrx5eqfbk0skybz","practice_no_cue","5b2387f1a8090c0001e61c78","5f60e3c0a3b16e07647b2ff9","5f60eacd9e53050009e13906","true","1735.8150000218302","./Stimuli/ImagesPractice/LN17.jpg","76","","","","test","true","M + N","76","","LN","LN17.jpg","remember","old","23","2","practice_forget","right","","","",""
"html-keyboard-response","60","186517","0.0-2.1-2.1-0.23","rrx5eqfbk0skybz","practice_no_cue","5b2387f1a8090c0001e61c78","5f60e3c0a3b16e07647b2ff9","5f60eacd9e53050009e13906","false","null","<span style=""color: black; font-size: 48px"">M + N</span>","null","","","","resp_prompt","","","","","","","","","","","","","","","",""
"categorize-image","61","187824","0.0-2.1-2.1-1.23","rrx5eqfbk0skybz","practice_no_cue","5b2387f1a8090c0001e61c78","5f60e3c0a3b16e07647b2ff9","5f60eacd9e53050009e13906","true","806.150000076741","./Stimuli/ImagesPractice/SM37.jpg","83","","","","test","true","M + N","83","","SM","SM37.jpg","forget","old","24","2","practice_forget","left","","","",""
"html-keyboard-response","62","188526","0.0-2.1-2.1-0.24","rrx5eqfbk0skybz","practice_no_cue","5b2387f1a8090c0001e61c78","5f60e3c0a3b16e07647b2ff9","5f60eacd9e53050009e13906","false","null","<span style=""color: black; font-size: 48px"">M + N</span>","null","","","","resp_prompt","","","","","","","","","","","","","","","",""
"categorize-image","63","191028","0.0-2.1-2.1-1.24","rrx5eqfbk0skybz","practice_no_cue","5b2387f1a8090c0001e61c78","5f60e3c0a3b16e07647b2ff9","5f60eacd9e53050009e13906","true","null","./Stimuli/ImagesPractice/LM239.jpg","null","","","","test","false","M + N","83","","LM","LM239.jpg","remember","old","25","2","practice_forget","too_slow","","","",""
"html-keyboard-response","64","191729","0.0-2.1-2.1-0.25","rrx5eqfbk0skybz","practice_no_cue","5b2387f1a8090c0001e61c78","5f60e3c0a3b16e07647b2ff9","5f60eacd9e53050009e13906","false","null","<span style=""color: black; font-size: 48px"">M + N</span>","null","","","","resp_prompt","","","","","","","","","","","","","","","",""
"categorize-image","65","193059","0.0-2.1-2.1-1.25","rrx5eqfbk0skybz","practice_no_cue","5b2387f1a8090c0001e61c78","5f60e3c0a3b16e07647b2ff9","5f60eacd9e53050009e13906","true","827.7100000996143","./Stimuli/ImagesPractice/LN2.jpg","76","","","","test","true","M + N","76","","LN","LN2.jpg","forget","old","26","2","practice_forget","right","","","",""
"html-keyboard-response","66","193760","0.0-2.1-2.1-0.26","rrx5eqfbk0skybz","practice_no_cue","5b2387f1a8090c0001e61c78","5f60e3c0a3b16e07647b2ff9","5f60eacd9e53050009e13906","false","null","<span style=""color: black; font-size: 48px"">N + M</span>","null","","","","resp_prompt","","","","","","","","","","","","","","","",""
"categorize-image","67","195332","0.0-2.1-2.1-1.26","rrx5eqfbk0skybz","practice_no_cue","5b2387f1a8090c0001e61c78","5f60e3c0a3b16e07647b2ff9","5f60eacd9e53050009e13906","true","1070.2799999853596","./Stimuli/ImagesPractice/SM35.jpg","83","","","","test","false","N + M","76","","SM","SM35.jpg","remember","old","27","2","practice_forget","left","","","",""
"html-keyboard-response","68","196033","0.0-2.1-2.1-0.27","rrx5eqfbk0skybz","practice_no_cue","5b2387f1a8090c0001e61c78","5f60e3c0a3b16e07647b2ff9","5f60eacd9e53050009e13906","false","null","<span style=""color: black; font-size: 48px"">N + M</span>","null","","","","resp_prompt","","","","","","","","","","","","","","","",""
"categorize-image","69","197560","0.0-2.1-2.1-1.27","rrx5eqfbk0skybz","practice_no_cue","5b2387f1a8090c0001e61c78","5f60e3c0a3b16e07647b2ff9","5f60eacd9e53050009e13906","true","1024.3450000416487","./Stimuli/ImagesPractice/LN4.jpg","83","","","","test","true","N + M","83","","LN","LN4.jpg","forget","old","28","2","practice_forget","left","","","",""
"html-keyboard-response","70","198261","0.0-2.1-2.1-0.28","rrx5eqfbk0skybz","practice_no_cue","5b2387f1a8090c0001e61c78","5f60e3c0a3b16e07647b2ff9","5f60eacd9e53050009e13906","false","null","<span style=""color: black; font-size: 48px"">M + N</span>","null","","","","resp_prompt","","","","","","","","","","","","","","","",""
"categorize-image","71","199595","0.0-2.1-2.1-1.28","rrx5eqfbk0skybz","practice_no_cue","5b2387f1a8090c0001e61c78","5f60e3c0a3b16e07647b2ff9","5f60eacd9e53050009e13906","true","833.1649999599904","./Stimuli/ImagesPractice/LM224.jpg","76","","","","test","false","M + N","83","","LM","LM224.jpg","forget","old","29","2","practice_forget","right","","","",""
"html-keyboard-response","72","200297","0.0-2.1-2.1-0.29","rrx5eqfbk0skybz","practice_no_cue","5b2387f1a8090c0001e61c78","5f60e3c0a3b16e07647b2ff9","5f60eacd9e53050009e13906","false","null","<span style=""color: black; font-size: 48px"">N + M</span>","null","","","","resp_prompt","","","","","","","","","","","","","","","",""
"categorize-image","73","201372","0.0-2.1-2.1-1.29","rrx5eqfbk0skybz","practice_no_cue","5b2387f1a8090c0001e61c78","5f60e3c0a3b16e07647b2ff9","5f60eacd9e53050009e13906","true","574.1350000025705","./Stimuli/ImagesPractice/SM62.jpg","83","","","","test","false","N + M","76","","SM","SM62.jpg","forget","old","30","2","practice_forget","left","","","",""
"html-keyboard-response","74","202073","0.0-2.1-2.1-0.30","rrx5eqfbk0skybz","practice_no_cue","5b2387f1a8090c0001e61c78","5f60e3c0a3b16e07647b2ff9","5f60eacd9e53050009e13906","false","null","<span style=""color: black; font-size: 48px"">M + N</span>","null","","","","resp_prompt","","","","","","","","","","","","","","","",""
"categorize-image","75","203349","0.0-2.1-2.1-1.30","rrx5eqfbk0skybz","practice_no_cue","5b2387f1a8090c0001e61c78","5f60e3c0a3b16e07647b2ff9","5f60eacd9e53050009e13906","true","773.6799999838695","./Stimuli/ImagesPractice/SN205.jpg","76","","","","test","true","M + N","76","","SN","SN205.jpg","remember","old","31","2","practice_forget","right","","","",""
"html-keyboard-response","76","204050","0.0-2.1-2.1-0.31","rrx5eqfbk0skybz","practice_no_cue","5b2387f1a8090c0001e61c78","5f60e3c0a3b16e07647b2ff9","5f60eacd9e53050009e13906","false","null","<span style=""color: black; font-size: 48px"">N + M</span>","null","","","","resp_prompt","","","","","","","","","","","","","","","",""
"categorize-image","77","205756","0.0-2.1-2.1-1.31","rrx5eqfbk0skybz","practice_no_cue","5b2387f1a8090c0001e61c78","5f60e3c0a3b16e07647b2ff9","5f60eacd9e53050009e13906","true","1204.0399999823421","./Stimuli/ImagesPractice/SM97.jpg","83","","","","test","false","N + M","76","","SM","SM97.jpg","remember","old","32","2","practice_forget","left","","","",""
"html-keyboard-response","78","208655","0.0-2.1-3.1","rrx5eqfbk0skybz","break","5b2387f1a8090c0001e61c78","5f60e3c0a3b16e07647b2ff9","5f60eacd9e53050009e13906","false","2897.1899999305606","<p style='font-size: 32px;'>Break</><br><br><br><br><br><p style='font-size: 24px;'>In the last block, you committed 6 errors and did not respond in time on 1 trials.
</p><p style='font-size: 24px;'>Try to respond as fast and accurately as possible in the next block as well! </p><p style='font-size: 24px;'>Press SPACE to continue.</p>","32","","","","","","","","","","","","","","","","","","","",""
"html-keyboard-response","79","210677","0.0-2.1-4.1","rrx5eqfbk0skybz","instructions","5b2387f1a8090c0001e61c78","5f60e3c0a3b16e07647b2ff9","5f60eacd9e53050009e13906","false","2021.1200000485405","<div align=left> Great!<br><br>Are you ready to continue?<br><br>If you want to reread the instructions and redo the practice trials, <br>please press „Z“. <br><br>Press SPACE to CONTINUE with the experiment when you are ready. </div>","32","","","","","","","","","","","","","","","","","","","",""
"html-keyboard-response","80","220002","0.0-3.0-0.0","rrx5eqfbk0skybz","instructions","5b2387f1a8090c0001e61c78","5f60e3c0a3b16e07647b2ff9","5f60eacd9e53050009e13906","false","9324.774999986403","<div align=left>Great!<br> <strong>Attention</strong>! You will now receive a second, additional task! <br><br>To this point it was you <strong>first task</strong> to correctly <strong>classify objects</strong>. <br><br>As mentioned in the beginning, we aim to examine how well humans can remember previously learned information.<br>We would like to find out whether our memory improves if we only remember information that is relevant to us. <br><br>Therefore, your <strong>second task</strong> will be to <strong>remember</strong> the pictures you are to categorize. <br> After the learning phase, there will be a memory test phase, in which you will be asked to indicate whether you have seen a picture before or not. <br>Some, but not all pictures shown in the learning phase will appear in the memory test phase.<br>After classifying a picture, you will be told whether you should remember it for the memory test phase or not. <br>Thus, some pictures can be forgotten, whereas others have to be remembered. <br><br>Note: From now on, feedback will only be displayed if you responded incorrectly or not in time.<br><br>Press SPACE to continue.</div>","32","","","","","","","","","","","","","","","","","","","",""
"html-keyboard-response","81","224755","0.0-3.0-1.0","rrx5eqfbk0skybz","instructions","5b2387f1a8090c0001e61c78","5f60e3c0a3b16e07647b2ff9","5f60eacd9e53050009e13906","false","4751.965000061318","<div align=left>In the following part, you will thus have to remember only some pictures. <br>Immediately after seeing and classifying the picture, a symbol will be displayed, indicating whether you should remember or forget the previous picture. <br><br>A <span style='color: dodgerblue; font-size: 28px'>O</span> indicates REMEMBER. That means, you have to remember this picture, because it will be tested later. <br><br>A <span style='color: darkorange; font-size:28px'>Ø</span> indicates FORGET. You do not have to remember this picture. <br><br> As you will have to remember a lot of pictures, it will be hard for you to remember all of them. <br>It will put you at an advantage if you instantly forget the pictures you are not asked to remember. <br> This will make it easier for you to remember the pictures that will be tested afterwards. <br><br>Press SPACE to continue.</div>","32","","","","","","","","","","","","","","","","","","","",""
"html-keyboard-response","82","228150","0.0-3.0-2.0","rrx5eqfbk0skybz","instructions","5b2387f1a8090c0001e61c78","5f60e3c0a3b16e07647b2ff9","5f60eacd9e53050009e13906","false","3394.190000020899","<div align=left> Now you have the chance to practice both tasks together.<br><br>Remember: <br> <br><li>Please place your index fingers on the <strong>'S'</strong> and <strong>'L'</strong> keys <br>to respond as fast and accurately as possible.</li><li>Every picture can be classified as either mechanical or non-mechanical.</li><li>If you do not respond in time or commit an error, you will receive a corresponding feedback. <br>Please try to respond as <strong> fast </strong> and as <strong> accurately as possible </strong>.</li><li> Please remember only the to-be-remembered <span style='color: dodgerblue; font-size: 28px'>O</span> pictures. <br></li><li> Please minimize distractions and stay focused. </li><br><br>Press SPACE to START</div>","32","","","","","","","","","","","","","","","","","","","",""
"html-keyboard-response","83","228852","0.0-3.0-3.0-0.0","rrx5eqfbk0skybz","practice_cue","5b2387f1a8090c0001e61c78","5f60e3c0a3b16e07647b2ff9","5f60eacd9e53050009e13906","false","null","<span style=""color: black; font-size: 48px"">M + N</span>","null","","","","resp_prompt","","","","","","","","","","","","","","","",""
"categorize-image","84","229930","0.0-3.0-3.0-1.0","rrx5eqfbk0skybz","practice_cue","5b2387f1a8090c0001e61c78","5f60e3c0a3b16e07647b2ff9","5f60eacd9e53050009e13906","true","1075.1200000522658","./Stimuli/ImagesPractice/LN2.jpg","83","","","","test","false","M + N","76","","LN","LN2.jpg","forget","old","33","3","practice_forget","left","","","",""
"html-keyboard-response","85","230432","0.0-3.0-3.0-2.0-0.0","rrx5eqfbk0skybz","practice_cue","5b2387f1a8090c0001e61c78","5f60e3c0a3b16e07647b2ff9","5f60eacd9e53050009e13906","false","null","<span style=""color: red; font-size: 48px"">Error!</span>","null","","","","feedback","","","","","","","","","","","","","","","",""
"html-keyboard-response","86","232434","0.0-3.0-3.0-3.0","rrx5eqfbk0skybz","practice_cue","5b2387f1a8090c0001e61c78","5f60e3c0a3b16e07647b2ff9","5f60eacd9e53050009e13906","false","null","<div style=""align-items: center; display: flex; color: darkorange; font-size: 90px""><b>ø</b></div>","null","","","","forget_cue","","","","","","","","","","","","","","","",""
"html-keyboard-response","87","233135","0.0-3.0-3.0-0.1","rrx5eqfbk0skybz","practice_cue","5b2387f1a8090c0001e61c78","5f60e3c0a3b16e07647b2ff9","5f60eacd9e53050009e13906","false","null","<span style=""color: black; font-size: 48px"">N + M</span>","null","","","","resp_prompt","","","","","","","","","","","","","","","",""
"categorize-image","88","234700","0.0-3.0-3.0-1.1","rrx5eqfbk0skybz","practice_cue","5b2387f1a8090c0001e61c78","5f60e3c0a3b16e07647b2ff9","5f60eacd9e53050009e13906","true","1562.315000104718","./Stimuli/ImagesPractice/SM62.jpg","76","","","","test","true","N + M","76","","SM","SM62.jpg","forget","old","34","3","practice_forget","right","","","",""
"html-keyboard-response","89","236701","0.0-3.0-3.0-3.1","rrx5eqfbk0skybz","practice_cue","5b2387f1a8090c0001e61c78","5f60e3c0a3b16e07647b2ff9","5f60eacd9e53050009e13906","false","null","<div style=""align-items: center; display: flex; color: darkorange; font-size: 90px""><b>ø</b></div>","null","","","","forget_cue","","","","","","","","","","","","","","","",""
"html-keyboard-response","90","237402","0.0-3.0-3.0-0.2","rrx5eqfbk0skybz","practice_cue","5b2387f1a8090c0001e61c78","5f60e3c0a3b16e07647b2ff9","5f60eacd9e53050009e13906","false","null","<span style=""color: black; font-size: 48px"">N + M</span>","null","","","","resp_prompt","","","","","","","","","","","","","","","",""
"categorize-image","91","238504","0.0-3.0-3.0-1.2","rrx5eqfbk0skybz","practice_cue","5b2387f1a8090c0001e61c78","5f60e3c0a3b16e07647b2ff9","5f60eacd9e53050009e13906","true","1099.2099998984486","./Stimuli/ImagesPractice/LN109.jpg","83","","","","test","true","N + M","83","","LN","LN109.jpg","remember","old","35","3","practice_forget","left","","","",""
"html-keyboard-response","92","240504","0.0-3.0-3.0-3.2","rrx5eqfbk0skybz","practice_cue","5b2387f1a8090c0001e61c78","5f60e3c0a3b16e07647b2ff9","5f60eacd9e53050009e13906","false","null","<div style=""align-items: center; display: flex; color: dodgerblue; font-size: 90px""><b>o</b></div>","null","","","","forget_cue","","","","","","","","","","","","","","","",""
"html-keyboard-response","93","241206","0.0-3.0-3.0-0.3","rrx5eqfbk0skybz","practice_cue","5b2387f1a8090c0001e61c78","5f60e3c0a3b16e07647b2ff9","5f60eacd9e53050009e13906","false","null","<span style=""color: black; font-size: 48px"">M + N</span>","null","","","","resp_prompt","","","","","","","","","","","","","","","",""
"categorize-image","94","241898","0.0-3.0-3.0-1.3","rrx5eqfbk0skybz","practice_cue","5b2387f1a8090c0001e61c78","5f60e3c0a3b16e07647b2ff9","5f60eacd9e53050009e13906","true","689.4149999134243","./Stimuli/ImagesPractice/LM224.jpg","83","","","","test","true","M + N","83","","LM","LM224.jpg","forget","old","36","3","practice_forget","left","","","",""
"html-keyboard-response","95","243899","0.0-3.0-3.0-3.3","rrx5eqfbk0skybz","practice_cue","5b2387f1a8090c0001e61c78","5f60e3c0a3b16e07647b2ff9","5f60eacd9e53050009e13906","false","null","<div style=""align-items: center; display: flex; color: darkorange; font-size: 90px""><b>ø</b></div>","null","","","","forget_cue","","","","","","","","","","","","","","","",""
"html-keyboard-response","96","244600","0.0-3.0-3.0-0.4","rrx5eqfbk0skybz","practice_cue","5b2387f1a8090c0001e61c78","5f60e3c0a3b16e07647b2ff9","5f60eacd9e53050009e13906","false","null","<span style=""color: black; font-size: 48px"">N + M</span>","null","","","","resp_prompt","","","","","","","","","","","","","","","",""
"categorize-image","97","245636","0.0-3.0-3.0-1.4","rrx5eqfbk0skybz","practice_cue","5b2387f1a8090c0001e61c78","5f60e3c0a3b16e07647b2ff9","5f60eacd9e53050009e13906","true","1033.3600000012666","./Stimuli/ImagesPractice/LM230.jpg","83","","","","test","false","N + M","76","","LM","LM230.jpg","forget","old","37","3","practice_forget","left","","","",""
"html-keyboard-response","98","246137","0.0-3.0-3.0-2.4-0.4","rrx5eqfbk0skybz","practice_cue","5b2387f1a8090c0001e61c78","5f60e3c0a3b16e07647b2ff9","5f60eacd9e53050009e13906","false","null","<span style=""color: red; font-size: 48px"">Error!</span>","null","","","","feedback","","","","","","","","","","","","","","","",""
"html-keyboard-response","99","248139","0.0-3.0-3.0-3.4","rrx5eqfbk0skybz","practice_cue","5b2387f1a8090c0001e61c78","5f60e3c0a3b16e07647b2ff9","5f60eacd9e53050009e13906","false","null","<div style=""align-items: center; display: flex; color: darkorange; font-size: 90px""><b>ø</b></div>","null","","","","forget_cue","","","","","","","","","","","","","","","",""
"html-keyboard-response","100","248840","0.0-3.0-3.0-0.5","rrx5eqfbk0skybz","practice_cue","5b2387f1a8090c0001e61c78","5f60e3c0a3b16e07647b2ff9","5f60eacd9e53050009e13906","false","null","<span style=""color: black; font-size: 48px"">M + N</span>","null","","","","resp_prompt","","","","","","","","","","","","","","","",""
"categorize-image","101","249657","0.0-3.0-3.0-1.5","rrx5eqfbk0skybz","practice_cue","5b2387f1a8090c0001e61c78","5f60e3c0a3b16e07647b2ff9","5f60eacd9e53050009e13906","true","813.8200000394136","./Stimuli/ImagesPractice/LM143.jpg","76","","","","test","false","M + N","83","","LM","LM143.jpg","forget","old","38","3","practice_forget","right","","","",""
"html-keyboard-response","102","250157","0.0-3.0-3.0-2.5-0.5","rrx5eqfbk0skybz","practice_cue","5b2387f1a8090c0001e61c78","5f60e3c0a3b16e07647b2ff9","5f60eacd9e53050009e13906","false","null","<span style=""color: red; font-size: 48px"">Error!</span>","null","","","","feedback","","","","","","","","","","","","","","","",""
"html-keyboard-response","103","252158","0.0-3.0-3.0-3.5","rrx5eqfbk0skybz","practice_cue","5b2387f1a8090c0001e61c78","5f60e3c0a3b16e07647b2ff9","5f60eacd9e53050009e13906","false","null","<div style=""align-items: center; display: flex; color: darkorange; font-size: 90px""><b>ø</b></div>","null","","","","forget_cue","","","","","","","","","","","","","","","",""
"html-keyboard-response","104","252859","0.0-3.0-3.0-0.6","rrx5eqfbk0skybz","practice_cue","5b2387f1a8090c0001e61c78","5f60e3c0a3b16e07647b2ff9","5f60eacd9e53050009e13906","false","null","<span style=""color: black; font-size: 48px"">M + N</span>","null","","","","resp_prompt","","","","","","","","","","","","","","","",""
"categorize-image","105","253031","0.0-3.0-3.0-1.6","rrx5eqfbk0skybz","practice_cue","5b2387f1a8090c0001e61c78","5f60e3c0a3b16e07647b2ff9","5f60eacd9e53050009e13906","true","168.75499999150634","./Stimuli/ImagesPractice/SM37.jpg","83","","","","test","true","M + N","83","","SM","SM37.jpg","forget","old","39","3","practice_forget","left","","","",""
"html-keyboard-response","106","255032","0.0-3.0-3.0-3.6","rrx5eqfbk0skybz","practice_cue","5b2387f1a8090c0001e61c78","5f60e3c0a3b16e07647b2ff9","5f60eacd9e53050009e13906","false","null","<div style=""align-items: center; display: flex; color: darkorange; font-size: 90px""><b>ø</b></div>","null","","","","forget_cue","","","","","","","","","","","","","","","",""
"html-keyboard-response","107","255734","0.0-3.0-3.0-0.7","rrx5eqfbk0skybz","practice_cue","5b2387f1a8090c0001e61c78","5f60e3c0a3b16e07647b2ff9","5f60eacd9e53050009e13906","false","null","<span style=""color: black; font-size: 48px"">N + M</span>","null","","","","resp_prompt","","","","","","","","","","","","","","","",""
"categorize-image","108","256278","0.0-3.0-3.0-1.7","rrx5eqfbk0skybz","practice_cue","5b2387f1a8090c0001e61c78","5f60e3c0a3b16e07647b2ff9","5f60eacd9e53050009e13906","true","540.9449998987839","./Stimuli/ImagesPractice/LN4.jpg","83","","","","test","true","N + M","83","","LN","LN4.jpg","forget","old","40","3","practice_forget","left","","","",""
"html-keyboard-response","109","258279","0.0-3.0-3.0-3.7","rrx5eqfbk0skybz","practice_cue","5b2387f1a8090c0001e61c78","5f60e3c0a3b16e07647b2ff9","5f60eacd9e53050009e13906","false","null","<div style=""align-items: center; display: flex; color: darkorange; font-size: 90px""><b>ø</b></div>","null","","","","forget_cue","","","","","","","","","","","","","","","",""
"html-keyboard-response","110","258980","0.0-3.0-3.0-0.8","rrx5eqfbk0skybz","practice_cue","5b2387f1a8090c0001e61c78","5f60e3c0a3b16e07647b2ff9","5f60eacd9e53050009e13906","false","null","<span style=""color: black; font-size: 48px"">M + N</span>","null","","","","resp_prompt","","","","","","","","","","","","","","","",""
"categorize-image","111","260432","0.0-3.0-3.0-1.8","rrx5eqfbk0skybz","practice_cue","5b2387f1a8090c0001e61c78","5f60e3c0a3b16e07647b2ff9","5f60eacd9e53050009e13906","true","1448.51999997627","./Stimuli/ImagesPractice/SN75.jpg","76","","","","test","true","M + N","76","","SN","SN75.jpg","remember","old","41","3","practice_forget","right","","","",""
"html-keyboard-response","112","262433","0.0-3.0-3.0-3.8","rrx5eqfbk0skybz","practice_cue","5b2387f1a8090c0001e61c78","5f60e3c0a3b16e07647b2ff9","5f60eacd9e53050009e13906","false","null","<div style=""align-items: center; display: flex; color: dodgerblue; font-size: 90px""><b>o</b></div>","null","","","","forget_cue","","","","","","","","","","","","","","","",""
"html-keyboard-response","113","263134","0.0-3.0-3.0-0.9","rrx5eqfbk0skybz","practice_cue","5b2387f1a8090c0001e61c78","5f60e3c0a3b16e07647b2ff9","5f60eacd9e53050009e13906","false","null","<span style=""color: black; font-size: 48px"">N + M</span>","null","","","","resp_prompt","","","","","","","","","","","","","","","",""
"categorize-image","114","264087","0.0-3.0-3.0-1.9","rrx5eqfbk0skybz","practice_cue","5b2387f1a8090c0001e61c78","5f60e3c0a3b16e07647b2ff9","5f60eacd9e53050009e13906","true","950.0600000610575","./Stimuli/ImagesPractice/SN76.jpg","83","","","","test","true","N + M","83","","SN","SN76.jpg","forget","old","42","3","practice_forget","left","","","",""
"html-keyboard-response","115","266088","0.0-3.0-3.0-3.9","rrx5eqfbk0skybz","practice_cue","5b2387f1a8090c0001e61c78","5f60e3c0a3b16e07647b2ff9","5f60eacd9e53050009e13906","false","null","<div style=""align-items: center; display: flex; color: darkorange; font-size: 90px""><b>ø</b></div>","null","","","","forget_cue","","","","","","","","","","","","","","","",""
"html-keyboard-response","116","266789","0.0-3.0-3.0-0.10","rrx5eqfbk0skybz","practice_cue","5b2387f1a8090c0001e61c78","5f60e3c0a3b16e07647b2ff9","5f60eacd9e53050009e13906","false","null","<span style=""color: black; font-size: 48px"">N + M</span>","null","","","","resp_prompt","","","","","","","","","","","","","","","",""
"categorize-image","117","267578","0.0-3.0-3.0-1.10","rrx5eqfbk0skybz","practice_cue","5b2387f1a8090c0001e61c78","5f60e3c0a3b16e07647b2ff9","5f60eacd9e53050009e13906","true","785.8949999790639","./Stimuli/ImagesPractice/SN220.jpg","83","","","","test","true","N + M","83","","SN","SN220.jpg","remember","old","43","3","practice_forget","left","","","",""
"html-keyboard-response","118","269579","0.0-3.0-3.0-3.10","rrx5eqfbk0skybz","practice_cue","5b2387f1a8090c0001e61c78","5f60e3c0a3b16e07647b2ff9","5f60eacd9e53050009e13906","false","null","<div style=""align-items: center; display: flex; color: dodgerblue; font-size: 90px""><b>o</b></div>","null","","","","forget_cue","","","","","","","","","","","","","","","",""
"html-keyboard-response","119","270280","0.0-3.0-3.0-0.11","rrx5eqfbk0skybz","practice_cue","5b2387f1a8090c0001e61c78","5f60e3c0a3b16e07647b2ff9","5f60eacd9e53050009e13906","false","null","<span style=""color: black; font-size: 48px"">M + N</span>","null","","","","resp_prompt","","","","","","","","","","","","","","","",""
"categorize-image","120","271236","0.0-3.0-3.0-1.11","rrx5eqfbk0skybz","practice_cue","5b2387f1a8090c0001e61c78","5f60e3c0a3b16e07647b2ff9","5f60eacd9e53050009e13906","true","953.1100000021979","./Stimuli/ImagesPractice/LN17.jpg","76","","","","test","true","M + N","76","","LN","LN17.jpg","remember","old","44","3","practice_forget","right","","","",""
"html-keyboard-response","121","273238","0.0-3.0-3.0-3.11","rrx5eqfbk0skybz","practice_cue","5b2387f1a8090c0001e61c78","5f60e3c0a3b16e07647b2ff9","5f60eacd9e53050009e13906","false","null","<div style=""align-items: center; display: flex; color: dodgerblue; font-size: 90px""><b>o</b></div>","null","","","","forget_cue","","","","","","","","","","","","","","","",""
"html-keyboard-response","122","273939","0.0-3.0-3.0-0.12","rrx5eqfbk0skybz","practice_cue","5b2387f1a8090c0001e61c78","5f60e3c0a3b16e07647b2ff9","5f60eacd9e53050009e13906","false","null","<span style=""color: black; font-size: 48px"">M + N</span>","null","","","","resp_prompt","","","","","","","","","","","","","","","",""
"categorize-image","123","275946","0.0-3.0-3.0-1.12","rrx5eqfbk0skybz","practice_cue","5b2387f1a8090c0001e61c78","5f60e3c0a3b16e07647b2ff9","5f60eacd9e53050009e13906","true","null","./Stimuli/ImagesPractice/SN205.jpg","null","","","","test","false","M + N","76","","SN","SN205.jpg","remember","old","45","3","practice_forget","too_slow","","","",""
"html-keyboard-response","124","276446","0.0-3.0-3.0-2.12-0.12","rrx5eqfbk0skybz","practice_cue","5b2387f1a8090c0001e61c78","5f60e3c0a3b16e07647b2ff9","5f60eacd9e53050009e13906","false","null","<span style=""color: red; font-size: 48px"">Too slow!</span>","null","","","","feedback","","","","","","","","","","","","","","","",""
"html-keyboard-response","125","278448","0.0-3.0-3.0-3.12","rrx5eqfbk0skybz","practice_cue","5b2387f1a8090c0001e61c78","5f60e3c0a3b16e07647b2ff9","5f60eacd9e53050009e13906","false","null","<div style=""align-items: center; display: flex; color: dodgerblue; font-size: 90px""><b>o</b></div>","null","","","","forget_cue","","","","","","","","","","","","","","","",""
"html-keyboard-response","126","279149","0.0-3.0-3.0-0.13","rrx5eqfbk0skybz","practice_cue","5b2387f1a8090c0001e61c78","5f60e3c0a3b16e07647b2ff9","5f60eacd9e53050009e13906","false","null","<span style=""color: black; font-size: 48px"">M + N</span>","null","","","","resp_prompt","","","","","","","","","","","","","","","",""
"categorize-image","127","280564","0.0-3.0-3.0-1.13","rrx5eqfbk0skybz","practice_cue","5b2387f1a8090c0001e61c78","5f60e3c0a3b16e07647b2ff9","5f60eacd9e53050009e13906","true","1412.0499999262393","./Stimuli/ImagesPractice/LM239.jpg","83","","","","test","true","M + N","83","","LM","LM239.jpg","remember","old","46","3","practice_forget","left","","","",""
"html-keyboard-response","128","282565","0.0-3.0-3.0-3.13","rrx5eqfbk0skybz","practice_cue","5b2387f1a8090c0001e61c78","5f60e3c0a3b16e07647b2ff9","5f60eacd9e53050009e13906","false","null","<div style=""align-items: center; display: flex; color: dodgerblue; font-size: 90px""><b>o</b></div>","null","","","","forget_cue","","","","","","","","","","","","","","","",""
"html-keyboard-response","129","283266","0.0-3.0-3.0-0.14","rrx5eqfbk0skybz","practice_cue","5b2387f1a8090c0001e61c78","5f60e3c0a3b16e07647b2ff9","5f60eacd9e53050009e13906","false","null","<span style=""color: black; font-size: 48px"">N + M</span>","null","","","","resp_prompt","","","","","","","","","","","","","","","",""
"categorize-image","130","283893","0.0-3.0-3.0-1.14","rrx5eqfbk0skybz","practice_cue","5b2387f1a8090c0001e61c78","5f60e3c0a3b16e07647b2ff9","5f60eacd9e53050009e13906","true","624.3550000945106","./Stimuli/ImagesPractice/SM97.jpg","76","","","","test","true","N + M","76","","SM","SM97.jpg","remember","old","47","3","practice_forget","right","","","",""
"html-keyboard-response","131","285894","0.0-3.0-3.0-3.14","rrx5eqfbk0skybz","practice_cue","5b2387f1a8090c0001e61c78","5f60e3c0a3b16e07647b2ff9","5f60eacd9e53050009e13906","false","null","<div style=""align-items: center; display: flex; color: dodgerblue; font-size: 90px""><b>o</b></div>","null","","","","forget_cue","","","","","","","","","","","","","","","",""
"html-keyboard-response","132","286595","0.0-3.0-3.0-0.15","rrx5eqfbk0skybz","practice_cue","5b2387f1a8090c0001e61c78","5f60e3c0a3b16e07647b2ff9","5f60eacd9e53050009e13906","false","null","<span style=""color: black; font-size: 48px"">N + M</span>","null","","","","resp_prompt","","","","","","","","","","","","","","","",""
"categorize-image","133","287911","0.0-3.0-3.0-1.15","rrx5eqfbk0skybz","practice_cue","5b2387f1a8090c0001e61c78","5f60e3c0a3b16e07647b2ff9","5f60eacd9e53050009e13906","true","1314.185000024736","./Stimuli/ImagesPractice/SM35.jpg","76","","","","test","true","N + M","76","","SM","SM35.jpg","remember","old","48","3","practice_forget","right","","","",""
"html-keyboard-response","134","289913","0.0-3.0-3.0-3.15","rrx5eqfbk0skybz","practice_cue","5b2387f1a8090c0001e61c78","5f60e3c0a3b16e07647b2ff9","5f60eacd9e53050009e13906","false","null","<div style=""align-items: center; display: flex; color: dodgerblue; font-size: 90px""><b>o</b></div>","null","","","","forget_cue","","","","","","","","","","","","","","","",""
"html-keyboard-response","135","292098","0.0-3.0-4.0","rrx5eqfbk0skybz","break","5b2387f1a8090c0001e61c78","5f60e3c0a3b16e07647b2ff9","5f60eacd9e53050009e13906","false","2184.7399999387562","<p style='font-size: 32px;'>Break</><br><br><br><br><br><p style='font-size: 24px;'>In the last block, you committed 3 errors and did not respond in time on 1 trials.
</p><p style='font-size: 24px;'>Try to respond as fast and accurately as possible in the next block as well! </p><p style='font-size: 24px;'>Press SPACE to continue.</p>","32","","","","","","","","","","","","","","","","","","","",""
"html-keyboard-response","136","293589","0.0-3.0-5.0","rrx5eqfbk0skybz","instructions","5b2387f1a8090c0001e61c78","5f60e3c0a3b16e07647b2ff9","5f60eacd9e53050009e13906","false","1489.835000014864","<div align=left> Now, to practice, we kindly ask you to remember as many of the to-be-remembered pictures<br>of the previous learning phase as possible.<br><br>The pictures you were instructed to remember were the pictures followed by a <span style='color: dodgerblue; font-size: 28px'>O</span>.<br><br>In this memory test phase, you will also see some new pictures.<br>It is your task to remember whether you were presented with this specific picture in this study so far or not.<br>If you recognize an object (you have already seen it in this study), it is an OLD object. <br>If you do not recognize an object (you have NOT seen it in this study), it is a NEW object. <br><strong> Attention</strong>: As already mentioned, <span style='color: darkorange; font-size:28px'>Ø</span>-pictures will <strong>never</strong> appear in this memory test (neither as new objects). <br><br>Press SPACE to continue. </div>","32","","","","","","","","","","","","","","","","","","","",""
"html-keyboard-response","137","304148","0.0-3.0-6.0","rrx5eqfbk0skybz","instructions","5b2387f1a8090c0001e61c78","5f60e3c0a3b16e07647b2ff9","5f60eacd9e53050009e13906","false","10558.515000040643","<div align=left> M and N no longer will appear on the left/right of the fixation cross. <br>Instead there will be a note at the bottom of the left or right side  <br>indicating which key you should press for an old or new object:  <br> <br>Press the <strong>right</strong> key to classify an object as <strong>old</strong> and press the <strong>left</strong>, to classify an object as <strong>new</strong>.<br>Please classify the objects as new/old by again placing your index finger on the 'S' and 'L' keys <br>and press them accordingly.<br><br><strong>Old:</strong> This object has been presented before. <br><strong>New:</strong> This object has <strong>not</strong> been presented.<br><br>Now please put your right and left index fingers on the 'S' and 'L' keys of your keyboard. <br>Please respond as fast and as accurately as possible!<br><br>Press SPACE to continue. </div>","32","","","","","","","","","","","","","","","","","","","",""
"categorize-image","138","306207","0.0-3.0-7.0-0.0","rrx5eqfbk0skybz","practice_recog","5b2387f1a8090c0001e61c78","5f60e3c0a3b16e07647b2ff9","5f60eacd9e53050009e13906","true","1555.724999983795","./Stimuli/ImagesPractice/LM239.jpg","76","","","","test","true","","76","","LM","LM239.jpg","","old","49","4","practice_recog","right","","","",""
"categorize-image","139","307937","0.0-3.0-7.0-0.1","rrx5eqfbk0skybz","practice_recog","5b2387f1a8090c0001e61c78","5f60e3c0a3b16e07647b2ff9","5f60eacd9e53050009e13906","true","1229.2199999792501","./Stimuli/ImagesPractice/LN17.jpg","76","","","","test","true","","76","","LN","LN17.jpg","","old","50","4","practice_recog","right","","","",""
"categorize-image","140","309150","0.0-3.0-7.0-0.2","rrx5eqfbk0skybz","practice_recog","5b2387f1a8090c0001e61c78","5f60e3c0a3b16e07647b2ff9","5f60eacd9e53050009e13906","true","711.7500000167638","./Stimuli/ImagesPractice/LN72.jpg","83","","","","test","true","","83","","LN","LN72.jpg","","new","51","4","practice_recog","left","","","",""
"categorize-image","141","310461","0.0-3.0-7.0-0.3","rrx5eqfbk0skybz","practice_recog","5b2387f1a8090c0001e61c78","5f60e3c0a3b16e07647b2ff9","5f60eacd9e53050009e13906","true","808.4950000047684","./Stimuli/ImagesPractice/LN109.jpg","76","","","","test","true","","76","","LN","LN109.jpg","","old","52","4","practice_recog","right","","","",""
"categorize-image","142","311609","0.0-3.0-7.0-0.4","rrx5eqfbk0skybz","practice_recog","5b2387f1a8090c0001e61c78","5f60e3c0a3b16e07647b2ff9","5f60eacd9e53050009e13906","true","647.1349999774247","./Stimuli/ImagesPractice/SM97.jpg","76","","","","test","true","","76","","SM","SM97.jpg","","old","53","4","practice_recog","right","","","",""
"categorize-image","143","312716","0.0-3.0-7.0-0.5","rrx5eqfbk0skybz","practice_recog","5b2387f1a8090c0001e61c78","5f60e3c0a3b16e07647b2ff9","5f60eacd9e53050009e13906","true","604.605000000447","./Stimuli/ImagesPractice/SN75.jpg","76","","","","test","true","","76","","SN","SN75.jpg","","old","54","4","practice_recog","right","","","",""
"categorize-image","144","313794","0.0-3.0-7.0-0.6","rrx5eqfbk0skybz","practice_recog","5b2387f1a8090c0001e61c78","5f60e3c0a3b16e07647b2ff9","5f60eacd9e53050009e13906","true","575.940000009723","./Stimuli/ImagesPractice/SM35.jpg","76","","","","test","true","","76","","SM","SM35.jpg","","old","55","4","practice_recog","right","","","",""
"categorize-image","145","314955","0.0-3.0-7.0-0.7","rrx5eqfbk0skybz","practice_recog","5b2387f1a8090c0001e61c78","5f60e3c0a3b16e07647b2ff9","5f60eacd9e53050009e13906","true","659.5599999418482","./Stimuli/ImagesPractice/SN221.jpg","83","","","","test","true","","83","","SN","SN221.jpg","","new","56","4","practice_recog","left","","","",""
"categorize-image","146","316127","0.0-3.0-7.0-0.8","rrx5eqfbk0skybz","practice_recog","5b2387f1a8090c0001e61c78","5f60e3c0a3b16e07647b2ff9","5f60eacd9e53050009e13906","true","671.570000005886","./Stimuli/ImagesPractice/SM61.jpg","83","","","","test","true","","83","","SM","SM61.jpg","","new","57","4","practice_recog","left","","","",""
"categorize-image","147","317343","0.0-3.0-7.0-0.9","rrx5eqfbk0skybz","practice_recog","5b2387f1a8090c0001e61c78","5f60e3c0a3b16e07647b2ff9","5f60eacd9e53050009e13906","true","714.659999939613","./Stimuli/ImagesPractice/SN205.jpg","76","","","","test","true","","76","","SN","SN205.jpg","","old","58","4","practice_recog","right","","","",""
"categorize-image","148","318624","0.0-3.0-7.0-0.10","rrx5eqfbk0skybz","practice_recog","5b2387f1a8090c0001e61c78","5f60e3c0a3b16e07647b2ff9","5f60eacd9e53050009e13906","true","778.35999999661","./Stimuli/ImagesPractice/SN222.jpg","83","","","","test","true","","83","","SN","SN222.jpg","","new","59","4","practice_recog","left","","","",""
"categorize-image","149","319828","0.0-3.0-7.0-0.11","rrx5eqfbk0skybz","practice_recog","5b2387f1a8090c0001e61c78","5f60e3c0a3b16e07647b2ff9","5f60eacd9e53050009e13906","true","702.3700000718236","./Stimuli/ImagesPractice/LM147.jpg","76","","","","test","false","","83","","LM","LM147.jpg","","new","60","4","practice_recog","right","","","",""
"categorize-image","150","321248","0.0-3.0-7.0-0.12","rrx5eqfbk0skybz","practice_recog","5b2387f1a8090c0001e61c78","5f60e3c0a3b16e07647b2ff9","5f60eacd9e53050009e13906","true","919.120000093244","./Stimuli/ImagesPractice/SN220.jpg","76","","","","test","true","","76","","SN","SN220.jpg","","old","61","4","practice_recog","right","","","",""
"categorize-image","151","322552","0.0-3.0-7.0-0.13","rrx5eqfbk0skybz","practice_recog","5b2387f1a8090c0001e61c78","5f60e3c0a3b16e07647b2ff9","5f60eacd9e53050009e13906","true","801.7049999907613","./Stimuli/ImagesPractice/SM98.jpg","83","","","","test","true","","83","","SM","SM98.jpg","","new","62","4","practice_recog","left","","","",""
"categorize-image","152","323890","0.0-3.0-7.0-0.14","rrx5eqfbk0skybz","practice_recog","5b2387f1a8090c0001e61c78","5f60e3c0a3b16e07647b2ff9","5f60eacd9e53050009e13906","true","837.1250000782311","./Stimuli/ImagesPractice/LN15.jpg","83","","","","test","true","","83","","LN","LN15.jpg","","new","63","4","practice_recog","left","","","",""
"categorize-image","153","325123","0.0-3.0-7.0-0.15","rrx5eqfbk0skybz","practice_recog","5b2387f1a8090c0001e61c78","5f60e3c0a3b16e07647b2ff9","5f60eacd9e53050009e13906","true","731.1099999351427","./Stimuli/ImagesPractice/LM55.jpg","83","","","","test","true","","83","","LM","LM55.jpg","","new","64","4","practice_recog","left","","","",""
"html-keyboard-response","154","327137","0.0-3.0-8.0","rrx5eqfbk0skybz","instructions","5b2387f1a8090c0001e61c78","5f60e3c0a3b16e07647b2ff9","5f60eacd9e53050009e13906","false","2013.1300000939518","<div align=left> Great!<br><br>Are you ready to continue?<br>If you want to reread the instructions and redo the practice trials, please <br>press „Z“.<br><br>You can proceed when you are ready.<br><br>After the presentation of each object, you will receive an instruction whether to <br>remember or to forget the object.<br>We will test your memory of the following pictures only at the very end of <br>the experiment after all learning blocks are completed. <br><br>Press SPACE to CONTINUE when you are ready. </div>","32","","","","","","","","","","","","","","","","","","","",""
"html-keyboard-response","155","328059","0.0-4.0-0.0","rrx5eqfbk0skybz","instructions","5b2387f1a8090c0001e61c78","5f60e3c0a3b16e07647b2ff9","5f60eacd9e53050009e13906","false","921.1600000271574","<div align=left> The actual experiment is about to start.<br>The practice trials are over!<br><br>Please always respond both fast and accurately!<br><br>Remember: <br> <br><li> Please place your index fingers on the <strong>'S'</strong> and <strong>'L'</strong> keys <br>to respond as fast and accurately as possible.</li><li> Every picture can be classified as either mechanical or non-mechanical.</li><li> If you do not respond in time or commit an error, you will receive a corresponding feedback.<br> Please try to respond as <strong> fast </strong> and as <strong> accurately as possible </strong>.</li><li> Remember the <span style='color: dodgerblue; font-size: 28px'>O</span> pictures. <br></li><li> Please minimize distractions and stay focused. </li><br><br>Press SPACE to START.</div>","32","","","","","","","","","","","","","","","","","","","",""
"html-keyboard-response","156","328760","0.0-4.0-1.0-0.0","rrx5eqfbk0skybz","prime","5b2387f1a8090c0001e61c78","5f60e3c0a3b16e07647b2ff9","5f60eacd9e53050009e13906","false","null","<span style=""color: black; font-size: 48px"">N + M</span>","null","","","","resp_prompt","","","","","","","","","","","","","","","",""
"categorize-image","157","330077","0.0-4.0-1.0-1.0","rrx5eqfbk0skybz","prime","5b2387f1a8090c0001e61c78","5f60e3c0a3b16e07647b2ff9","5f60eacd9e53050009e13906","true","1313.5950000723824","./Stimuli/SelectedImages/LM/LM209.bmp","76","","","","test","true","N + M","76","switch","LM","LM209.bmp","forget","","65","4","prime1","right","","","",""
"html-keyboard-response","158","332078","0.0-4.0-1.0-3.0","rrx5eqfbk0skybz","prime","5b2387f1a8090c0001e61c78","5f60e3c0a3b16e07647b2ff9","5f60eacd9e53050009e13906","false","null","<div style=""align-items: center; display: flex; color: darkorange; font-size: 90px""><b>ø</b></div>","null","","","","forget_cue","","","","","","","","","","","","","","","",""
"html-keyboard-response","159","332779","0.0-4.0-1.0-0.1","rrx5eqfbk0skybz","prime","5b2387f1a8090c0001e61c78","5f60e3c0a3b16e07647b2ff9","5f60eacd9e53050009e13906","false","null","<span style=""color: black; font-size: 48px"">N + M</span>","null","","","","resp_prompt","","","","","","","","","","","","","","","",""
"categorize-image","160","334786","0.0-4.0-1.0-1.1","rrx5eqfbk0skybz","prime","5b2387f1a8090c0001e61c78","5f60e3c0a3b16e07647b2ff9","5f60eacd9e53050009e13906","true","null","./Stimuli/SelectedImages/SN/SN111.bmp","null","","","","test","false","N + M","83","switch","SN","SN111.bmp","forget","","66","4","prime1","too_slow","","","",""
"html-keyboard-response","161","335287","0.0-4.0-1.0-2.1-0.1","rrx5eqfbk0skybz","prime","5b2387f1a8090c0001e61c78","5f60e3c0a3b16e07647b2ff9","5f60eacd9e53050009e13906","false","null","<span style=""color: red; font-size: 48px"">Too slow!</span>","null","","","","feedback","","","","","","","","","","","","","","","",""
"html-keyboard-response","162","337287","0.0-4.0-1.0-3.1","rrx5eqfbk0skybz","prime","5b2387f1a8090c0001e61c78","5f60e3c0a3b16e07647b2ff9","5f60eacd9e53050009e13906","false","null","<div style=""align-items: center; display: flex; color: darkorange; font-size: 90px""><b>ø</b></div>","null","","","","forget_cue","","","","","","","","","","","","","","","",""
"html-keyboard-response","163","337989","0.0-4.0-1.0-0.2","rrx5eqfbk0skybz","prime","5b2387f1a8090c0001e61c78","5f60e3c0a3b16e07647b2ff9","5f60eacd9e53050009e13906","false","null","<span style=""color: black; font-size: 48px"">N + M</span>","null","","","","resp_prompt","","","","","","","","","","","","","","","",""
"categorize-image","164","338654","0.0-4.0-1.0-1.2","rrx5eqfbk0skybz","prime","5b2387f1a8090c0001e61c78","5f60e3c0a3b16e07647b2ff9","5f60eacd9e53050009e13906","true","662.4150000279769","./Stimuli/SelectedImages/LN/LN128.bmp","83","","","","test","true","N + M","83","switch","LN","LN128.bmp","remember","","67","4","prime1","left","","","",""
"html-keyboard-response","165","340656","0.0-4.0-1.0-3.2","rrx5eqfbk0skybz","prime","5b2387f1a8090c0001e61c78","5f60e3c0a3b16e07647b2ff9","5f60eacd9e53050009e13906","false","null","<div style=""align-items: center; display: flex; color: dodgerblue; font-size: 90px""><b>o</b></div>","null","","","","forget_cue","","","","","","","","","","","","","","","",""
"html-keyboard-response","166","341357","0.0-4.0-1.0-0.3","rrx5eqfbk0skybz","prime","5b2387f1a8090c0001e61c78","5f60e3c0a3b16e07647b2ff9","5f60eacd9e53050009e13906","false","null","<span style=""color: black; font-size: 48px"">N + M</span>","null","","","","resp_prompt","","","","","","","","","","","","","","","",""
"categorize-image","167","342714","0.0-4.0-1.0-1.3","rrx5eqfbk0skybz","prime","5b2387f1a8090c0001e61c78","5f60e3c0a3b16e07647b2ff9","5f60eacd9e53050009e13906","true","1353.9899999741465","./Stimuli/SelectedImages/LN/LN131.bmp","83","","","","test","true","N + M","83","switch","LN","LN131.bmp","forget","","68","4","prime1","left","","","",""
"html-keyboard-response","168","344714","0.0-4.0-1.0-3.3","rrx5eqfbk0skybz","prime","5b2387f1a8090c0001e61c78","5f60e3c0a3b16e07647b2ff9","5f60eacd9e53050009e13906","false","null","<div style=""align-items: center; display: flex; color: darkorange; font-size: 90px""><b>ø</b></div>","null","","","","forget_cue","","","","","","","","","","","","","","","",""
"html-keyboard-response","169","345415","0.0-4.0-1.0-0.4","rrx5eqfbk0skybz","prime","5b2387f1a8090c0001e61c78","5f60e3c0a3b16e07647b2ff9","5f60eacd9e53050009e13906","false","null","<span style=""color: black; font-size: 48px"">M + N</span>","null","","","","resp_prompt","","","","","","","","","","","","","","","",""
"categorize-image","170","346302","0.0-4.0-1.0-1.4","rrx5eqfbk0skybz","prime","5b2387f1a8090c0001e61c78","5f60e3c0a3b16e07647b2ff9","5f60eacd9e53050009e13906","true","882.964999997057","./Stimuli/SelectedImages/SM/SM128.bmp","83","","","","test","true","M + N","83","repetition","SM","SM128.bmp","forget","","69","4","prime1","left","","","",""
"html-keyboard-response","171","348303","0.0-4.0-1.0-3.4","rrx5eqfbk0skybz","prime","5b2387f1a8090c0001e61c78","5f60e3c0a3b16e07647b2ff9","5f60eacd9e53050009e13906","false","null","<div style=""align-items: center; display: flex; color: darkorange; font-size: 90px""><b>ø</b></div>","null","","","","forget_cue","","","","","","","","","","","","","","","",""
"html-keyboard-response","172","349004","0.0-4.0-1.0-0.5","rrx5eqfbk0skybz","prime","5b2387f1a8090c0001e61c78","5f60e3c0a3b16e07647b2ff9","5f60eacd9e53050009e13906","false","null","<span style=""color: black; font-size: 48px"">N + M</span>","null","","","","resp_prompt","","","","","","","","","","","","","","","",""
"categorize-image","173","349934","0.0-4.0-1.0-1.5","rrx5eqfbk0skybz","prime","5b2387f1a8090c0001e61c78","5f60e3c0a3b16e07647b2ff9","5f60eacd9e53050009e13906","true","926.9199999980628","./Stimuli/SelectedImages/LM/LM150.bmp","76","","","","test","true","N + M","76","repetition","LM","LM150.bmp","remember","","70","4","prime1","right","","","",""
"html-keyboard-response","174","351935","0.0-4.0-1.0-3.5","rrx5eqfbk0skybz","prime","5b2387f1a8090c0001e61c78","5f60e3c0a3b16e07647b2ff9","5f60eacd9e53050009e13906","false","null","<div style=""align-items: center; display: flex; color: dodgerblue; font-size: 90px""><b>o</b></div>","null","","","","forget_cue","","","","","","","","","","","","","","","",""
"html-keyboard-response","175","352636","0.0-4.0-1.0-0.6","rrx5eqfbk0skybz","prime","5b2387f1a8090c0001e61c78","5f60e3c0a3b16e07647b2ff9","5f60eacd9e53050009e13906","false","null","<span style=""color: black; font-size: 48px"">N + M</span>","null","","","","resp_prompt","","","","","","","","","","","","","","","",""
"categorize-image","176","353588","0.0-4.0-1.0-1.6","rrx5eqfbk0skybz","prime","5b2387f1a8090c0001e61c78","5f60e3c0a3b16e07647b2ff9","5f60eacd9e53050009e13906","true","948.6549999564886","./Stimuli/SelectedImages/LN/LN42.bmp","83","","","","test","true","N + M","83","switch","LN","LN42.bmp","forget","","71","4","prime1","left","","","",""
"html-keyboard-response","177","355588","0.0-4.0-1.0-3.6","rrx5eqfbk0skybz","prime","5b2387f1a8090c0001e61c78","5f60e3c0a3b16e07647b2ff9","5f60eacd9e53050009e13906","false","null","<div style=""align-items: center; display: flex; color: darkorange; font-size: 90px""><b>ø</b></div>","null","","","","forget_cue","","","","","","","","","","","","","","","",""
"html-keyboard-response","178","356290","0.0-4.0-1.0-0.7","rrx5eqfbk0skybz","prime","5b2387f1a8090c0001e61c78","5f60e3c0a3b16e07647b2ff9","5f60eacd9e53050009e13906","false","null","<span style=""color: black; font-size: 48px"">N + M</span>","null","","","","resp_prompt","","","","","","","","","","","","","","","",""
"categorize-image","179","356925","0.0-4.0-1.0-1.7","rrx5eqfbk0skybz","prime","5b2387f1a8090c0001e61c78","5f60e3c0a3b16e07647b2ff9","5f60eacd9e53050009e13906","true","632.7249999158084","./Stimuli/SelectedImages/SM/SM74.bmp","76","","","","test","true","N + M","76","repetition","SM","SM74.bmp","forget","","72","4","prime1","right","","","",""
"html-keyboard-response","180","358926","0.0-4.0-1.0-3.7","rrx5eqfbk0skybz","prime","5b2387f1a8090c0001e61c78","5f60e3c0a3b16e07647b2ff9","5f60eacd9e53050009e13906","false","null","<div style=""align-items: center; display: flex; color: darkorange; font-size: 90px""><b>ø</b></div>","null","","","","forget_cue","","","","","","","","","","","","","","","",""
"html-keyboard-response","181","359628","0.0-4.0-1.0-0.8","rrx5eqfbk0skybz","prime","5b2387f1a8090c0001e61c78","5f60e3c0a3b16e07647b2ff9","5f60eacd9e53050009e13906","false","null","<span style=""color: black; font-size: 48px"">M + N</span>","null","","","","resp_prompt","","","","","","","","","","","","","","","",""
"categorize-image","182","360329","0.0-4.0-1.0-1.8","rrx5eqfbk0skybz","prime","5b2387f1a8090c0001e61c78","5f60e3c0a3b16e07647b2ff9","5f60eacd9e53050009e13906","true","698.1650000670925","./Stimuli/SelectedImages/LM/LM59.bmp","83","","","","test","true","M + N","83","repetition","LM","LM59.bmp","forget","","73","4","prime1","left","","","",""
"html-keyboard-response","183","362330","0.0-4.0-1.0-3.8","rrx5eqfbk0skybz","prime","5b2387f1a8090c0001e61c78","5f60e3c0a3b16e07647b2ff9","5f60eacd9e53050009e13906","false","null","<div style=""align-items: center; display: flex; color: darkorange; font-size: 90px""><b>ø</b></div>","null","","","","forget_cue","","","","","","","","","","","","","","","",""
"html-keyboard-response","184","363031","0.0-4.0-1.0-0.9","rrx5eqfbk0skybz","prime","5b2387f1a8090c0001e61c78","5f60e3c0a3b16e07647b2ff9","5f60eacd9e53050009e13906","false","null","<span style=""color: black; font-size: 48px"">N + M</span>","null","","","","resp_prompt","","","","","","","","","","","","","","","",""
"categorize-image","185","363777","0.0-4.0-1.0-1.9","rrx5eqfbk0skybz","prime","5b2387f1a8090c0001e61c78","5f60e3c0a3b16e07647b2ff9","5f60eacd9e53050009e13906","true","743.224999983795","./Stimuli/SelectedImages/SN/SN60.bmp","83","","","","test","true","N + M","83","repetition","SN","SN60.bmp","forget","","74","4","prime1","left","","","",""
"html-keyboard-response","186","365779","0.0-4.0-1.0-3.9","rrx5eqfbk0skybz","prime","5b2387f1a8090c0001e61c78","5f60e3c0a3b16e07647b2ff9","5f60eacd9e53050009e13906","false","null","<div style=""align-items: center; display: flex; color: darkorange; font-size: 90px""><b>ø</b></div>","null","","","","forget_cue","","","","","","","","","","","","","","","",""
"html-keyboard-response","187","366481","0.0-4.0-1.0-0.10","rrx5eqfbk0skybz","prime","5b2387f1a8090c0001e61c78","5f60e3c0a3b16e07647b2ff9","5f60eacd9e53050009e13906","false","null","<span style=""color: black; font-size: 48px"">N + M</span>","null","","","","resp_prompt","","","","","","","","","","","","","","","",""
"categorize-image","188","367098","0.0-4.0-1.0-1.10","rrx5eqfbk0skybz","prime","5b2387f1a8090c0001e61c78","5f60e3c0a3b16e07647b2ff9","5f60eacd9e53050009e13906","true","614.7450000280514","./Stimuli/SelectedImages/SM/SM213.bmp","76","","","","test","true","N + M","76","switch","SM","SM213.bmp","remember","","75","4","prime1","right","","","",""
"html-keyboard-response","189","369099","0.0-4.0-1.0-3.10","rrx5eqfbk0skybz","prime","5b2387f1a8090c0001e61c78","5f60e3c0a3b16e07647b2ff9","5f60eacd9e53050009e13906","false","null","<div style=""align-items: center; display: flex; color: dodgerblue; font-size: 90px""><b>o</b></div>","null","","","","forget_cue","","","","","","","","","","","","","","","",""
"html-keyboard-response","190","369800","0.0-4.0-1.0-0.11","rrx5eqfbk0skybz","prime","5b2387f1a8090c0001e61c78","5f60e3c0a3b16e07647b2ff9","5f60eacd9e53050009e13906","false","null","<span style=""color: black; font-size: 48px"">N + M</span>","null","","","","resp_prompt","","","","","","","","","","","","","","","",""
"categorize-image","191","370463","0.0-4.0-1.0-1.11","rrx5eqfbk0skybz","prime","5b2387f1a8090c0001e61c78","5f60e3c0a3b16e07647b2ff9","5f60eacd9e53050009e13906","true","659.455000073649","./Stimuli/SelectedImages/LN/LN101.bmp","83","","","","test","true","N + M","83","repetition","LN","LN101.bmp","forget","","76","4","prime1","left","","","",""
"html-keyboard-response","192","372464","0.0-4.0-1.0-3.11","rrx5eqfbk0skybz","prime","5b2387f1a8090c0001e61c78","5f60e3c0a3b16e07647b2ff9","5f60eacd9e53050009e13906","false","null","<div style=""align-items: center; display: flex; color: darkorange; font-size: 90px""><b>ø</b></div>","null","","","","forget_cue","","","","","","","","","","","","","","","",""
"html-keyboard-response","193","373166","0.0-4.0-1.0-0.12","rrx5eqfbk0skybz","prime","5b2387f1a8090c0001e61c78","5f60e3c0a3b16e07647b2ff9","5f60eacd9e53050009e13906","false","null","<span style=""color: black; font-size: 48px"">M + N</span>","null","","","","resp_prompt","","","","","","","","","","","","","","","",""
"categorize-image","194","374063","0.0-4.0-1.0-1.12","rrx5eqfbk0skybz","prime","5b2387f1a8090c0001e61c78","5f60e3c0a3b16e07647b2ff9","5f60eacd9e53050009e13906","true","893.7699999660254","./Stimuli/SelectedImages/LM/LM75.bmp","83","","","","test","true","M + N","83","repetition","LM","LM75.bmp","remember","","77","4","prime1","left","","","",""
"html-keyboard-response","195","376064","0.0-4.0-1.0-3.12","rrx5eqfbk0skybz","prime","5b2387f1a8090c0001e61c78","5f60e3c0a3b16e07647b2ff9","5f60eacd9e53050009e13906","false","null","<div style=""align-items: center; display: flex; color: dodgerblue; font-size: 90px""><b>o</b></div>","null","","","","forget_cue","","","","","","","","","","","","","","","",""
"html-keyboard-response","196","376765","0.0-4.0-1.0-0.13","rrx5eqfbk0skybz","prime","5b2387f1a8090c0001e61c78","5f60e3c0a3b16e07647b2ff9","5f60eacd9e53050009e13906","false","null","<span style=""color: black; font-size: 48px"">N + M</span>","null","","","","resp_prompt","","","","","","","","","","","","","","","",""
"categorize-image","197","378553","0.0-4.0-1.0-1.13","rrx5eqfbk0skybz","prime","5b2387f1a8090c0001e61c78","5f60e3c0a3b16e07647b2ff9","5f60eacd9e53050009e13906","true","1785.0750000216067","./Stimuli/SelectedImages/SN/SN52.bmp","83","","","","test","true","N + M","83","repetition","SN","SN52.bmp","remember","","78","4","prime1","left","","","",""
"html-keyboard-response","198","380555","0.0-4.0-1.0-3.13","rrx5eqfbk0skybz","prime","5b2387f1a8090c0001e61c78","5f60e3c0a3b16e07647b2ff9","5f60eacd9e53050009e13906","false","null","<div style=""align-items: center; display: flex; color: dodgerblue; font-size: 90px""><b>o</b></div>","null","","","","forget_cue","","","","","","","","","","","","","","","",""
"html-keyboard-response","199","381256","0.0-4.0-1.0-0.14","rrx5eqfbk0skybz","prime","5b2387f1a8090c0001e61c78","5f60e3c0a3b16e07647b2ff9","5f60eacd9e53050009e13906","false","null","<span style=""color: black; font-size: 48px"">M + N</span>","null","","","","resp_prompt","","","","","","","","","","","","","","","",""
"categorize-image","200","382314","0.0-4.0-1.0-1.14","rrx5eqfbk0skybz","prime","5b2387f1a8090c0001e61c78","5f60e3c0a3b16e07647b2ff9","5f60eacd9e53050009e13906","true","1055.1800000248477","./Stimuli/SelectedImages/LN/LN12.bmp","76","","","","test","true","M + N","76","repetition","LN","LN12.bmp","forget","","79","4","prime1","right","","","",""
"html-keyboard-response","201","384316","0.0-4.0-1.0-3.14","rrx5eqfbk0skybz","prime","5b2387f1a8090c0001e61c78","5f60e3c0a3b16e07647b2ff9","5f60eacd9e53050009e13906","false","null","<div style=""align-items: center; display: flex; color: darkorange; font-size: 90px""><b>ø</b></div>","null","","","","forget_cue","","","","","","","","","","","","","","","",""
"html-keyboard-response","202","385017","0.0-4.0-1.0-0.15","rrx5eqfbk0skybz","prime","5b2387f1a8090c0001e61c78","5f60e3c0a3b16e07647b2ff9","5f60eacd9e53050009e13906","false","null","<span style=""color: black; font-size: 48px"">N + M</span>","null","","","","resp_prompt","","","","","","","","","","","","","","","",""
"categorize-image","203","386278","0.0-4.0-1.0-1.15","rrx5eqfbk0skybz","prime","5b2387f1a8090c0001e61c78","5f60e3c0a3b16e07647b2ff9","5f60eacd9e53050009e13906","true","1258.265000069514","./Stimuli/SelectedImages/SN/SN49.bmp","83","","","","test","true","N + M","83","switch","SN","SN49.bmp","remember","","80","4","prime1","left","","","",""
"html-keyboard-response","204","388279","0.0-4.0-1.0-3.15","rrx5eqfbk0skybz","prime","5b2387f1a8090c0001e61c78","5f60e3c0a3b16e07647b2ff9","5f60eacd9e53050009e13906","false","null","<div style=""align-items: center; display: flex; color: dodgerblue; font-size: 90px""><b>o</b></div>","null","","","","forget_cue","","","","","","","","","","","","","","","",""
"html-keyboard-response","205","388981","0.0-4.0-1.0-0.16","rrx5eqfbk0skybz","prime","5b2387f1a8090c0001e61c78","5f60e3c0a3b16e07647b2ff9","5f60eacd9e53050009e13906","false","null","<span style=""color: black; font-size: 48px"">M + N</span>","null","","","","resp_prompt","","","","","","","","","","","","","","","",""
"categorize-image","206","390291","0.0-4.0-1.0-1.16","rrx5eqfbk0skybz","prime","5b2387f1a8090c0001e61c78","5f60e3c0a3b16e07647b2ff9","5f60eacd9e53050009e13906","true","1307.6449999352917","./Stimuli/SelectedImages/LN/LN177.bmp","76","","","","test","true","M + N","76","switch","LN","LN177.bmp","forget","","81","4","prime1","right","","","",""
"html-keyboard-response","207","392292","0.0-4.0-1.0-3.16","rrx5eqfbk0skybz","prime","5b2387f1a8090c0001e61c78","5f60e3c0a3b16e07647b2ff9","5f60eacd9e53050009e13906","false","null","<div style=""align-items: center; display: flex; color: darkorange; font-size: 90px""><b>ø</b></div>","null","","","","forget_cue","","","","","","","","","","","","","","","",""
"html-keyboard-response","208","392994","0.0-4.0-1.0-0.17","rrx5eqfbk0skybz","prime","5b2387f1a8090c0001e61c78","5f60e3c0a3b16e07647b2ff9","5f60eacd9e53050009e13906","false","null","<span style=""color: black; font-size: 48px"">N + M</span>","null","","","","resp_prompt","","","","","","","","","","","","","","","",""
"categorize-image","209","394471","0.0-4.0-1.0-1.17","rrx5eqfbk0skybz","prime","5b2387f1a8090c0001e61c78","5f60e3c0a3b16e07647b2ff9","5f60eacd9e53050009e13906","true","1474.915000027977","./Stimuli/SelectedImages/LM/LM157.bmp","76","","","","test","true","N + M","76","switch","LM","LM157.bmp","forget","","82","4","prime1","right","","","",""
"html-keyboard-response","210","396473","0.0-4.0-1.0-3.17","rrx5eqfbk0skybz","prime","5b2387f1a8090c0001e61c78","5f60e3c0a3b16e07647b2ff9","5f60eacd9e53050009e13906","false","null","<div style=""align-items: center; display: flex; color: darkorange; font-size: 90px""><b>ø</b></div>","null","","","","forget_cue","","","","","","","","","","","","","","","",""
"html-keyboard-response","211","397174","0.0-4.0-1.0-0.18","rrx5eqfbk0skybz","prime","5b2387f1a8090c0001e61c78","5f60e3c0a3b16e07647b2ff9","5f60eacd9e53050009e13906","false","null","<span style=""color: black; font-size: 48px"">M + N</span>","null","","","","resp_prompt","","","","","","","","","","","","","","","",""
"categorize-image","212","397784","0.0-4.0-1.0-1.18","rrx5eqfbk0skybz","prime","5b2387f1a8090c0001e61c78","5f60e3c0a3b16e07647b2ff9","5f60eacd9e53050009e13906","true","606.9199999328703","./Stimuli/SelectedImages/SM/SM76.bmp","83","","","","test","true","M + N","83","switch","SM","SM76.bmp","remember","","83","4","prime1","left","","","",""
"html-keyboard-response","213","399786","0.0-4.0-1.0-3.18","rrx5eqfbk0skybz","prime","5b2387f1a8090c0001e61c78","5f60e3c0a3b16e07647b2ff9","5f60eacd9e53050009e13906","false","null","<div style=""align-items: center; display: flex; color: dodgerblue; font-size: 90px""><b>o</b></div>","null","","","","forget_cue","","","","","","","","","","","","","","","",""
"html-keyboard-response","214","400487","0.0-4.0-1.0-0.19","rrx5eqfbk0skybz","prime","5b2387f1a8090c0001e61c78","5f60e3c0a3b16e07647b2ff9","5f60eacd9e53050009e13906","false","null","<span style=""color: black; font-size: 48px"">M + N</span>","null","","","","resp_prompt","","","","","","","","","","","","","","","",""
"categorize-image","215","401123","0.0-4.0-1.0-1.19","rrx5eqfbk0skybz","prime","5b2387f1a8090c0001e61c78","5f60e3c0a3b16e07647b2ff9","5f60eacd9e53050009e13906","true","633.3150001009926","./Stimuli/SelectedImages/LM/LM100.bmp","83","","","","test","true","M + N","83","switch","LM","LM100.bmp","remember","","84","4","prime1","left","","","",""
"html-keyboard-response","216","403124","0.0-4.0-1.0-3.19","rrx5eqfbk0skybz","prime","5b2387f1a8090c0001e61c78","5f60e3c0a3b16e07647b2ff9","5f60eacd9e53050009e13906","false","null","<div style=""align-items: center; display: flex; color: dodgerblue; font-size: 90px""><b>o</b></div>","null","","","","forget_cue","","","","","","","","","","","","","","","",""
"html-keyboard-response","217","403825","0.0-4.0-1.0-0.20","rrx5eqfbk0skybz","prime","5b2387f1a8090c0001e61c78","5f60e3c0a3b16e07647b2ff9","5f60eacd9e53050009e13906","false","null","<span style=""color: black; font-size: 48px"">N + M</span>","null","","","","resp_prompt","","","","","","","","","","","","","","","",""
"categorize-image","218","404961","0.0-4.0-1.0-1.20","rrx5eqfbk0skybz","prime","5b2387f1a8090c0001e61c78","5f60e3c0a3b16e07647b2ff9","5f60eacd9e53050009e13906","true","1132.6400000834838","./Stimuli/SelectedImages/LM/LM58.bmp","76","","","","test","true","N + M","76","switch","LM","LM58.bmp","remember","","85","4","prime1","right","","","",""
"html-keyboard-response","219","406963","0.0-4.0-1.0-3.20","rrx5eqfbk0skybz","prime","5b2387f1a8090c0001e61c78","5f60e3c0a3b16e07647b2ff9","5f60eacd9e53050009e13906","false","null","<div style=""align-items: center; display: flex; color: dodgerblue; font-size: 90px""><b>o</b></div>","null","","","","forget_cue","","","","","","","","","","","","","","","",""
"html-keyboard-response","220","407664","0.0-4.0-1.0-0.21","rrx5eqfbk0skybz","prime","5b2387f1a8090c0001e61c78","5f60e3c0a3b16e07647b2ff9","5f60eacd9e53050009e13906","false","null","<span style=""color: black; font-size: 48px"">N + M</span>","null","","","","resp_prompt","","","","","","","","","","","","","","","",""
"categorize-image","221","408967","0.0-4.0-1.0-1.21","rrx5eqfbk0skybz","prime","5b2387f1a8090c0001e61c78","5f60e3c0a3b16e07647b2ff9","5f60eacd9e53050009e13906","true","1300.0300000421703","./Stimuli/SelectedImages/SM/SM148.bmp","76","","","","test","true","N + M","76","repetition","SM","SM148.bmp","remember","","86","4","prime1","right","","","",""
"html-keyboard-response","222","410968","0.0-4.0-1.0-3.21","rrx5eqfbk0skybz","prime","5b2387f1a8090c0001e61c78","5f60e3c0a3b16e07647b2ff9","5f60eacd9e53050009e13906","false","null","<div style=""align-items: center; display: flex; color: dodgerblue; font-size: 90px""><b>o</b></div>","null","","","","forget_cue","","","","","","","","","","","","","","","",""
"html-keyboard-response","223","411669","0.0-4.0-1.0-0.22","rrx5eqfbk0skybz","prime","5b2387f1a8090c0001e61c78","5f60e3c0a3b16e07647b2ff9","5f60eacd9e53050009e13906","false","null","<span style=""color: black; font-size: 48px"">M + N</span>","null","","","","resp_prompt","","","","","","","","","","","","","","","",""
"categorize-image","224","412809","0.0-4.0-1.0-1.22","rrx5eqfbk0skybz","prime","5b2387f1a8090c0001e61c78","5f60e3c0a3b16e07647b2ff9","5f60eacd9e53050009e13906","true","1136.8849999271333","./Stimuli/SelectedImages/SN/SN128.bmp","76","","","","test","true","M + N","76","repetition","SN","SN128.bmp","forget","","87","4","prime1","right","","","",""
"html-keyboard-response","225","414810","0.0-4.0-1.0-3.22","rrx5eqfbk0skybz","prime","5b2387f1a8090c0001e61c78","5f60e3c0a3b16e07647b2ff9","5f60eacd9e53050009e13906","false","null","<div style=""align-items: center; display: flex; color: darkorange; font-size: 90px""><b>ø</b></div>","null","","","","forget_cue","","","","","","","","","","","","","","","",""
"html-keyboard-response","226","415512","0.0-4.0-1.0-0.23","rrx5eqfbk0skybz","prime","5b2387f1a8090c0001e61c78","5f60e3c0a3b16e07647b2ff9","5f60eacd9e53050009e13906","false","null","<span style=""color: black; font-size: 48px"">N + M</span>","null","","","","resp_prompt","","","","","","","","","","","","","","","",""
"categorize-image","227","416388","0.0-4.0-1.0-1.23","rrx5eqfbk0skybz","prime","5b2387f1a8090c0001e61c78","5f60e3c0a3b16e07647b2ff9","5f60eacd9e53050009e13906","true","872.3200000822544","./Stimuli/SelectedImages/SN/SN181.bmp","76","","","","test","false","N + M","83","switch","SN","SN181.bmp","remember","","88","4","prime1","right","","","",""
"html-keyboard-response","228","416888","0.0-4.0-1.0-2.23-0.23","rrx5eqfbk0skybz","prime","5b2387f1a8090c0001e61c78","5f60e3c0a3b16e07647b2ff9","5f60eacd9e53050009e13906","false","null","<span style=""color: red; font-size: 48px"">Error!</span>","null","","","","feedback","","","","","","","","","","","","","","","",""
"html-keyboard-response","229","418889","0.0-4.0-1.0-3.23","rrx5eqfbk0skybz","prime","5b2387f1a8090c0001e61c78","5f60e3c0a3b16e07647b2ff9","5f60eacd9e53050009e13906","false","null","<div style=""align-items: center; display: flex; color: dodgerblue; font-size: 90px""><b>o</b></div>","null","","","","forget_cue","","","","","","","","","","","","","","","",""
"html-keyboard-response","230","419590","0.0-4.0-1.0-0.24","rrx5eqfbk0skybz","prime","5b2387f1a8090c0001e61c78","5f60e3c0a3b16e07647b2ff9","5f60eacd9e53050009e13906","false","null","<span style=""color: black; font-size: 48px"">N + M</span>","null","","","","resp_prompt","","","","","","","","","","","","","","","",""
"categorize-image","231","420609","0.0-4.0-1.0-1.24","rrx5eqfbk0skybz","prime","5b2387f1a8090c0001e61c78","5f60e3c0a3b16e07647b2ff9","5f60eacd9e53050009e13906","true","1015.6549999956042","./Stimuli/SelectedImages/SM/SM17.bmp","76","","","","test","true","N + M","76","switch","SM","SM17.bmp","remember","","89","4","prime1","right","","","",""
"html-keyboard-response","232","422609","0.0-4.0-1.0-3.24","rrx5eqfbk0skybz","prime","5b2387f1a8090c0001e61c78","5f60e3c0a3b16e07647b2ff9","5f60eacd9e53050009e13906","false","null","<div style=""align-items: center; display: flex; color: dodgerblue; font-size: 90px""><b>o</b></div>","null","","","","forget_cue","","","","","","","","","","","","","","","",""
"html-keyboard-response","233","423311","0.0-4.0-1.0-0.25","rrx5eqfbk0skybz","prime","5b2387f1a8090c0001e61c78","5f60e3c0a3b16e07647b2ff9","5f60eacd9e53050009e13906","false","null","<span style=""color: black; font-size: 48px"">N + M</span>","null","","","","resp_prompt","","","","","","","","","","","","","","","",""
"categorize-image","234","423859","0.0-4.0-1.0-1.25","rrx5eqfbk0skybz","prime","5b2387f1a8090c0001e61c78","5f60e3c0a3b16e07647b2ff9","5f60eacd9e53050009e13906","true","545.4349999781698","./Stimuli/SelectedImages/SN/SN18.bmp","83","","","","test","true","N + M","83","repetition","SN","SN18.bmp","forget","","90","4","prime1","left","","","",""
"html-keyboard-response","235","425861","0.0-4.0-1.0-3.25","rrx5eqfbk0skybz","prime","5b2387f1a8090c0001e61c78","5f60e3c0a3b16e07647b2ff9","5f60eacd9e53050009e13906","false","null","<div style=""align-items: center; display: flex; color: darkorange; font-size: 90px""><b>ø</b></div>","null","","","","forget_cue","","","","","","","","","","","","","","","",""
"html-keyboard-response","236","426562","0.0-4.0-1.0-0.26","rrx5eqfbk0skybz","prime","5b2387f1a8090c0001e61c78","5f60e3c0a3b16e07647b2ff9","5f60eacd9e53050009e13906","false","null","<span style=""color: black; font-size: 48px"">M + N</span>","null","","","","resp_prompt","","","","","","","","","","","","","","","",""
"categorize-image","237","427733","0.0-4.0-1.0-1.26","rrx5eqfbk0skybz","prime","5b2387f1a8090c0001e61c78","5f60e3c0a3b16e07647b2ff9","5f60eacd9e53050009e13906","true","1168.110000086017","./Stimuli/SelectedImages/SN/SN155.bmp","76","","","","test","true","M + N","76","switch","SN","SN155.bmp","remember","","91","4","prime1","right","","","",""
"html-keyboard-response","238","429734","0.0-4.0-1.0-3.26","rrx5eqfbk0skybz","prime","5b2387f1a8090c0001e61c78","5f60e3c0a3b16e07647b2ff9","5f60eacd9e53050009e13906","false","null","<div style=""align-items: center; display: flex; color: dodgerblue; font-size: 90px""><b>o</b></div>","null","","","","forget_cue","","","","","","","","","","","","","","","",""
"html-keyboard-response","239","430436","0.0-4.0-1.0-0.27","rrx5eqfbk0skybz","prime","5b2387f1a8090c0001e61c78","5f60e3c0a3b16e07647b2ff9","5f60eacd9e53050009e13906","false","null","<span style=""color: black; font-size: 48px"">M + N</span>","null","","","","resp_prompt","","","","","","","","","","","","","","","",""
"categorize-image","240","431553","0.0-4.0-1.0-1.27","rrx5eqfbk0skybz","prime","5b2387f1a8090c0001e61c78","5f60e3c0a3b16e07647b2ff9","5f60eacd9e53050009e13906","true","1114.6350000053644","./Stimuli/SelectedImages/LM/LM167.bmp","83","","","","test","true","M + N","83","switch","LM","LM167.bmp","remember","","92","4","prime1","left","","","",""
"html-keyboard-response","241","433554","0.0-4.0-1.0-3.27","rrx5eqfbk0skybz","prime","5b2387f1a8090c0001e61c78","5f60e3c0a3b16e07647b2ff9","5f60eacd9e53050009e13906","false","null","<div style=""align-items: center; display: flex; color: dodgerblue; font-size: 90px""><b>o</b></div>","null","","","","forget_cue","","","","","","","","","","","","","","","",""
"html-keyboard-response","242","434256","0.0-4.0-1.0-0.28","rrx5eqfbk0skybz","prime","5b2387f1a8090c0001e61c78","5f60e3c0a3b16e07647b2ff9","5f60eacd9e53050009e13906","false","null","<span style=""color: black; font-size: 48px"">M + N</span>","null","","","","resp_prompt","","","","","","","","","","","","","","","",""
"categorize-image","243","435487","0.0-4.0-1.0-1.28","rrx5eqfbk0skybz","prime","5b2387f1a8090c0001e61c78","5f60e3c0a3b16e07647b2ff9","5f60eacd9e53050009e13906","true","1228.2250000862405","./Stimuli/SelectedImages/SM/SM108.bmp","83","","","","test","true","M + N","83","repetition","SM","SM108.bmp","forget","","93","4","prime1","left","","","",""
"html-keyboard-response","244","437488","0.0-4.0-1.0-3.28","rrx5eqfbk0skybz","prime","5b2387f1a8090c0001e61c78","5f60e3c0a3b16e07647b2ff9","5f60eacd9e53050009e13906","false","null","<div style=""align-items: center; display: flex; color: darkorange; font-size: 90px""><b>ø</b></div>","null","","","","forget_cue","","","","","","","","","","","","","","","",""
"html-keyboard-response","245","438189","0.0-4.0-1.0-0.29","rrx5eqfbk0skybz","prime","5b2387f1a8090c0001e61c78","5f60e3c0a3b16e07647b2ff9","5f60eacd9e53050009e13906","false","null","<span style=""color: black; font-size: 48px"">N + M</span>","null","","","","resp_prompt","","","","","","","","","","","","","","","",""
