"trial_type","trial_index","time_elapsed","internal_node_id","subject","exp_part","prolific_PID","study_ID","session_ID","use","rt","stimulus","key_press","button_pressed","responses","question_order","trial_part","correct","resp_map","correct_resp","probe_condition","category","image","forget_condition","list","trial_num","block_num","block","response","test_part","n_span","sequence","num_spaces"
"pavlovia","0","5","0.0-0.0","52pet1mlo7bbkqp","","5ef39889a60ba311a96059ed","5f60e3c0a3b16e07647b2ff9","5f64c934046781031cfb54a4","false","","","","","","","","","","","","","","","","","","","","","","",""
"html-keyboard-response","1","60923","0.0-1.0-0.0-0.0","52pet1mlo7bbkqp","welcome","5ef39889a60ba311a96059ed","5f60e3c0a3b16e07647b2ff9","5f64c934046781031cfb54a4","false","60917.574999970384","<div align=left>Dear participant, <br> thank you for participating in an online study of the Cognition, Action, and Sustainability Unit of the University of Freiburg! <br> <br>The aim of this study is to examine our ability to remember previously learned information. <br>Our goal is to find out, whether our memory improves, when we only remember information that is relevant to us. <br>The experiment will take about 35 minutes to complete. <br> <br>Please, note that you can only participate in this study if you are using a device with a keyboard (PC, Laptop etc.) <br>and not if you are using a mobile device such as a tablet or smartphone.<br> <br>Press 'SPACE' to proceed to the experiment. </div>","32","","","","","","","","","","","","","","","","","","","",""
"html-keyboard-response","2","85337","0.0-1.0-0.0-1.0","52pet1mlo7bbkqp","welcome","5ef39889a60ba311a96059ed","5f60e3c0a3b16e07647b2ff9","5f64c934046781031cfb54a4","false","24412.810000008903","<div align=left><strong> Time Course of this experiment: </strong> <br><br> <strong> 1.</strong>  First, please fill in some information regarding your demographic data. <br><br> <strong> 2.</strong>  Next, your task will be to classify everyday objects. <br>In addition, you will be asked to remember certain objects and recall them later. <br>Working on these tasks requires your undivided attention and concentration.<br>It is therefore essential that you eliminate any sources of distraction in your  <br>environment and ensure that you will not be disturbed. <br><br><strong> 3.</strong>  At the end of the experiment, you will be asked to answer a few additional questions. <br> <br><strong> Important:</strong> After finishing the experiment, only close the browser window <br> by clicking on the 'end the experiment'-button when you are asked to do so. <br>Closing the browser window prematurely will make the allocation of your participation credit impossible. <br><br> Press 'SPACE' to start the experiment. </div>","32","","","","","","","","","","","","","","","","","","","",""
"html-button-response","3","96221","0.0-1.0-0.0-2.0","52pet1mlo7bbkqp","welcome","5ef39889a60ba311a96059ed","5f60e3c0a3b16e07647b2ff9","5f64c934046781031cfb54a4","true","10882.184999994934","<div align=left><strong> Informed consent </strong>  <br>The aim of our research is to better understand human behavior and mental processes. <br>In the following study your behavior (e.g. choices, reaction times) will be studied. <br> <br><strong> Voluntariness and Anonymity </strong> <br>Your participation in this study is  <strong> voluntary</strong>.<br>You may withdraw your consent to participate at any time without providing a reason for doing so and without fear of prejudice. <br><br>As no personal data will be collected, <strong>your data and your person cannot be connected after data collection</strong> – the data-set is anonymous. <br>Respectively, deletion of your data will not be possible after data collection has been completed, as we cannot retrace your data-set.<br>The results and anonymized data collected in this study will be published as a scientific publication. <br>This will happen in an <strong>anonymized format</strong>, so that no data can be traced back to a specific person. <br> <br>The anonymized data of this study will be made available to other researchers and/or in a data archive on the Internet as a means of transparency and to enable subsequent re-use. By doing so, this study follows the recommendations of the Deutsche Forschungsgemeinschaft (DFG, German Research Foundation) and Deutsche Gesellschaft für Psychologie (DGPS, German Psychological Society) regarding quality assurance in research.<br>If you have any questions now or after the experiment, please contact our team (experiments@cs.uni-freiburg.de).<br><br><br>I hereby declare, that I understand the above described conditions of participation and I agree to participate under these conditions. <br><br> </div>","","0","","","","","","","","","","","","","","","","","","",""
"html-keyboard-response","4","123902","0.0-1.0-0.0-3.0","52pet1mlo7bbkqp","welcome","5ef39889a60ba311a96059ed","5f60e3c0a3b16e07647b2ff9","5f64c934046781031cfb54a4","false","27679.359999950975","<div align=left><strong> General information concerning the experiment </strong>  <br> <br>Please follow the instructions:<ol> <li><strong> Do not leave this tab (your browser window) during the experiment and do not reload this tab! </strong>  <br>If you do switch tabs/windows during the experiment (to check your mail or visit another website, for example), <br>the experiment will end automatically and you will <strong>not receive credit</strong> for your participation. <br>Repeated participation or resumption of the experiment is impossible.</li> <br><li>Please close all other programs for the duration of your participation. </li> <br><li>Please mute or turn off your phone and put it out of your reach. </li> <br><li>Please also take off any disturbing accessories (such as wristwatches, bracelets, etc.). </li> <br><li>If you have music playing in the background, please turn it off now. </li> <br></ol>Thank you! <br>Press 'SPACE' to continue. </div>","32","","","","","","","","","","","","","","","","","","","",""
"survey-text","5","126808","0.0-1.0-1.0-0.0","52pet1mlo7bbkqp","demographics","5ef39889a60ba311a96059ed","5f60e3c0a3b16e07647b2ff9","5f64c934046781031cfb54a4","true","2898.2100000139326","","","","{""age"":""18""}","","","","","","","","","","","","","","","","","",""
"survey-multi-choice","6","177535","0.0-1.0-1.0-1.0","52pet1mlo7bbkqp","demographics","5ef39889a60ba311a96059ed","5f60e3c0a3b16e07647b2ff9","5f64c934046781031cfb54a4","true","50725.384999997914","","","","{""gender"":""female"",""school"":""high school"",""education"":""High school graduate, diploma or equivalent""}","[0,1,2]","","","","","","","","","","","","","","","","",""
"html-keyboard-response","7","263983","0.0-1.0-2.0","52pet1mlo7bbkqp","instructions","5ef39889a60ba311a96059ed","5f60e3c0a3b16e07647b2ff9","5f64c934046781031cfb54a4","false","86443.22499993723","<div align=left> The experiment is now about to start: <br> <br>In the following part, you will be presented pictures of everyday objects. <br>Your first task is to <strong>classify these objects. </strong> <br> <br> You will classify them either as mechanical or non-mechanical objects. <br> <br>Objects that include any kind of technical mechanism (for example, wheels, switches, levers, <br> electronic components) fall under the category of <strong>mechanical</strong> objects. <br>Only objects without any kind of technical mechanism should be classified as <strong>non-mechanical</strong>. <br><br>Press 'SPACE' to continue. </div>","32","","","","","","","","","","","","","","","","","","","",""
"html-keyboard-response","8","302134","0.0-2.0-0.0","52pet1mlo7bbkqp","instructions","5ef39889a60ba311a96059ed","5f60e3c0a3b16e07647b2ff9","5f64c934046781031cfb54a4","false","38151.05500002392","<div align=justify>You will classify the objects using the <strong>'S'</strong> and the <strong>'L'</strong> keys on your keyboard.<br>For doing so, please place your <strong>left index finger</strong> on the <strong>'S'</strong> key and place your <strong>right index finger</strong> on the <strong>'L'</strong> key. <br><br> Each trial starts with an instruction, indicating which key ('S'/'L') you need to press to classify <br>the object as mechanical (letter M) or non-mechanical (letter N).<br>The instruction <strong>M + N</strong> indicates that, in the current trial, by pressing the left key ('S') you classify the displayed object as mechanical (M) <br> and by pressing the right key ('L') you classify the object as non-mechanical (N). <br>The instruction <strong>N + M</strong> on the other hand indicates that by pressing the left key ('S') you classify the displayed object as non-mechanical (N) <br> and by pressing the right key ('L') you classify the object as mechanical (M). <br><br>Please press the key corresponding to the correct classification as fast as possible as soon as the object is displayed and try to avoid making mistakes.<br>If you do not respond within a 2 second window, a corresponding feedback will be displayed and the next trial will start.<br> The experiment is divided into multiple blocks to give you the opportunity to take a break after each block. <br>First, you can now practice this task. <br><br>Please place your <strong>LEFT INDEX FINGER</strong> on the 'S' key and your <strong>RIGHT INDEX FINGER</strong> on the 'L' key now. <br><br>Press SPACE to continue.</div>","32","","","","","","","","","","","","","","","","","","","",""
"html-keyboard-response","9","312779","0.0-2.0-1.0","52pet1mlo7bbkqp","instructions","5ef39889a60ba311a96059ed","5f60e3c0a3b16e07647b2ff9","5f64c934046781031cfb54a4","false","10643.475000048056","<div align=left> You will now have time to practice this task.<br><br>Remember: <br> <br><li>Please place your index fingers on the <strong>'S'</strong> and <strong>'L'</strong> keys <br>to respond as fast and accurately as possible.</li><li>Every picture can be classified as either mechanical or non-mechanical.</li><li>If you do not respond in time or commit an error, you will receive a corresponding feedback. </li><li> Please try to respond as <strong> fast </strong> and as <strong> accurately as possible </strong> .<br><li>To ensure optimal results, please minimize distractions and stay focused. </li><br><br>Press SPACE to continue.</div>","32","","","","","","","","","","","","","","","","","","","",""
"html-keyboard-response","10","313483","0.0-2.0-2.0-0.0","52pet1mlo7bbkqp","practice_no_cue","5ef39889a60ba311a96059ed","5f60e3c0a3b16e07647b2ff9","5f64c934046781031cfb54a4","false","null","<span style=""color: black; font-size: 48px"">M + N</span>","null","","","","resp_prompt","","","","","","","","","","","","","","","",""
"categorize-image","11","315269","0.0-2.0-2.0-1.0","52pet1mlo7bbkqp","practice_no_cue","5ef39889a60ba311a96059ed","5f60e3c0a3b16e07647b2ff9","5f64c934046781031cfb54a4","true","1282.0700000738725","./Stimuli/ImagesPractice/SM61.jpg","83","","","","test","true","M + N","83","","SM","SM61.jpg","remember","old","1","1","start","left","","","",""
"html-keyboard-response","12","315975","0.0-2.0-2.0-0.1","52pet1mlo7bbkqp","practice_no_cue","5ef39889a60ba311a96059ed","5f60e3c0a3b16e07647b2ff9","5f64c934046781031cfb54a4","false","null","<span style=""color: black; font-size: 48px"">N + M</span>","null","","","","resp_prompt","","","","","","","","","","","","","","","",""
"categorize-image","13","317979","0.0-2.0-2.0-1.1","52pet1mlo7bbkqp","practice_no_cue","5ef39889a60ba311a96059ed","5f60e3c0a3b16e07647b2ff9","5f64c934046781031cfb54a4","true","1501.6450000694022","./Stimuli/ImagesPractice/LN15.jpg","83","","","","test","true","N + M","83","","LN","LN15.jpg","remember","old","2","1","start","left","","","",""
"html-keyboard-response","14","318685","0.0-2.0-2.0-0.2","52pet1mlo7bbkqp","practice_no_cue","5ef39889a60ba311a96059ed","5f60e3c0a3b16e07647b2ff9","5f64c934046781031cfb54a4","false","null","<span style=""color: black; font-size: 48px"">N + M</span>","null","","","","resp_prompt","","","","","","","","","","","","","","","",""
"categorize-image","15","320322","0.0-2.0-2.0-1.2","52pet1mlo7bbkqp","practice_no_cue","5ef39889a60ba311a96059ed","5f60e3c0a3b16e07647b2ff9","5f64c934046781031cfb54a4","true","1131.4750000601634","./Stimuli/ImagesPractice/SM97.jpg","76","","","","test","true","N + M","76","","SM","SM97.jpg","forget","old","3","1","start","right","","","",""
"html-keyboard-response","16","321026","0.0-2.0-2.0-0.3","52pet1mlo7bbkqp","practice_no_cue","5ef39889a60ba311a96059ed","5f60e3c0a3b16e07647b2ff9","5f64c934046781031cfb54a4","false","null","<span style=""color: black; font-size: 48px"">N + M</span>","null","","","","resp_prompt","","","","","","","","","","","","","","","",""
"categorize-image","17","322658","0.0-2.0-2.0-1.3","52pet1mlo7bbkqp","practice_no_cue","5ef39889a60ba311a96059ed","5f60e3c0a3b16e07647b2ff9","5f64c934046781031cfb54a4","true","1125.5299999611452","./Stimuli/ImagesPractice/SN221.jpg","83","","","","test","true","N + M","83","","SN","SN221.jpg","remember","old","4","1","start","left","","","",""
"html-keyboard-response","18","323365","0.0-2.0-2.0-0.4","52pet1mlo7bbkqp","practice_no_cue","5ef39889a60ba311a96059ed","5f60e3c0a3b16e07647b2ff9","5f64c934046781031cfb54a4","false","null","<span style=""color: black; font-size: 48px"">M + N</span>","null","","","","resp_prompt","","","","","","","","","","","","","","","",""
"categorize-image","19","324885","0.0-2.0-2.0-1.4","52pet1mlo7bbkqp","practice_no_cue","5ef39889a60ba311a96059ed","5f60e3c0a3b16e07647b2ff9","5f64c934046781031cfb54a4","true","1013.0699999863282","./Stimuli/ImagesPractice/SM37.jpg","83","","","","test","true","M + N","83","","SM","SM37.jpg","remember","old","5","1","start","left","","","",""
"html-keyboard-response","20","325591","0.0-2.0-2.0-0.5","52pet1mlo7bbkqp","practice_no_cue","5ef39889a60ba311a96059ed","5f60e3c0a3b16e07647b2ff9","5f64c934046781031cfb54a4","false","null","<span style=""color: black; font-size: 48px"">M + N</span>","null","","","","resp_prompt","","","","","","","","","","","","","","","",""
"categorize-image","21","327094","0.0-2.0-2.0-1.5","52pet1mlo7bbkqp","practice_no_cue","5ef39889a60ba311a96059ed","5f60e3c0a3b16e07647b2ff9","5f64c934046781031cfb54a4","true","997.1549999900162","./Stimuli/ImagesPractice/SN205.jpg","76","","","","test","true","M + N","76","","SN","SN205.jpg","forget","old","6","1","start","right","","","",""
"html-keyboard-response","22","327800","0.0-2.0-2.0-0.6","52pet1mlo7bbkqp","practice_no_cue","5ef39889a60ba311a96059ed","5f60e3c0a3b16e07647b2ff9","5f64c934046781031cfb54a4","false","null","<span style=""color: black; font-size: 48px"">N + M</span>","null","","","","resp_prompt","","","","","","","","","","","","","","","",""
"categorize-image","23","329595","0.0-2.0-2.0-1.6","52pet1mlo7bbkqp","practice_no_cue","5ef39889a60ba311a96059ed","5f60e3c0a3b16e07647b2ff9","5f64c934046781031cfb54a4","true","1288.74500002712","./Stimuli/ImagesPractice/LN109.jpg","83","","","","test","true","N + M","83","","LN","LN109.jpg","forget","old","7","1","start","left","","","",""
"html-keyboard-response","24","330298","0.0-2.0-2.0-0.7","52pet1mlo7bbkqp","practice_no_cue","5ef39889a60ba311a96059ed","5f60e3c0a3b16e07647b2ff9","5f64c934046781031cfb54a4","false","null","<span style=""color: black; font-size: 48px"">M + N</span>","null","","","","resp_prompt","","","","","","","","","","","","","","","",""
"categorize-image","25","332176","0.0-2.0-2.0-1.7","52pet1mlo7bbkqp","practice_no_cue","5ef39889a60ba311a96059ed","5f60e3c0a3b16e07647b2ff9","5f64c934046781031cfb54a4","true","1371.3299999944866","./Stimuli/ImagesPractice/LM147.jpg","83","","","","test","true","M + N","83","","LM","LM147.jpg","remember","old","8","1","start","left","","","",""
"html-keyboard-response","26","332882","0.0-2.0-2.0-0.8","52pet1mlo7bbkqp","practice_no_cue","5ef39889a60ba311a96059ed","5f60e3c0a3b16e07647b2ff9","5f64c934046781031cfb54a4","false","null","<span style=""color: black; font-size: 48px"">M + N</span>","null","","","","resp_prompt","","","","","","","","","","","","","","","",""
"categorize-image","27","334180","0.0-2.0-2.0-1.8","52pet1mlo7bbkqp","practice_no_cue","5ef39889a60ba311a96059ed","5f60e3c0a3b16e07647b2ff9","5f64c934046781031cfb54a4","true","794.5299999555573","./Stimuli/ImagesPractice/LM230.jpg","83","","","","test","true","M + N","83","","LM","LM230.jpg","forget","old","9","1","start","left","","","",""
"html-keyboard-response","28","334883","0.0-2.0-2.0-0.9","52pet1mlo7bbkqp","practice_no_cue","5ef39889a60ba311a96059ed","5f60e3c0a3b16e07647b2ff9","5f64c934046781031cfb54a4","false","null","<span style=""color: black; font-size: 48px"">N + M</span>","null","","","","resp_prompt","","","","","","","","","","","","","","","",""
"categorize-image","29","336626","0.0-2.0-2.0-1.9","52pet1mlo7bbkqp","practice_no_cue","5ef39889a60ba311a96059ed","5f60e3c0a3b16e07647b2ff9","5f64c934046781031cfb54a4","true","1237.7350000897422","./Stimuli/ImagesPractice/LN4.jpg","83","","","","test","true","N + M","83","","LN","LN4.jpg","remember","old","10","1","start","left","","","",""
"html-keyboard-response","30","337331","0.0-2.0-2.0-0.10","52pet1mlo7bbkqp","practice_no_cue","5ef39889a60ba311a96059ed","5f60e3c0a3b16e07647b2ff9","5f64c934046781031cfb54a4","false","null","<span style=""color: black; font-size: 48px"">M + N</span>","null","","","","resp_prompt","","","","","","","","","","","","","","","",""
"categorize-image","31","338620","0.0-2.0-2.0-1.10","52pet1mlo7bbkqp","practice_no_cue","5ef39889a60ba311a96059ed","5f60e3c0a3b16e07647b2ff9","5f64c934046781031cfb54a4","true","782.7899999683723","./Stimuli/ImagesPractice/SN220.jpg","76","","","","test","true","M + N","76","","SN","SN220.jpg","remember","old","11","1","start","right","","","",""
"html-keyboard-response","32","339324","0.0-2.0-2.0-0.11","52pet1mlo7bbkqp","practice_no_cue","5ef39889a60ba311a96059ed","5f60e3c0a3b16e07647b2ff9","5f64c934046781031cfb54a4","false","null","<span style=""color: black; font-size: 48px"">M + N</span>","null","","","","resp_prompt","","","","","","","","","","","","","","","",""
"categorize-image","33","340656","0.0-2.0-2.0-1.11","52pet1mlo7bbkqp","practice_no_cue","5ef39889a60ba311a96059ed","5f60e3c0a3b16e07647b2ff9","5f64c934046781031cfb54a4","true","827.1749999839813","./Stimuli/ImagesPractice/SM98.jpg","83","","","","test","true","M + N","83","","SM","SM98.jpg","forget","old","12","1","start","left","","","",""
"html-keyboard-response","34","341362","0.0-2.0-2.0-0.12","52pet1mlo7bbkqp","practice_no_cue","5ef39889a60ba311a96059ed","5f60e3c0a3b16e07647b2ff9","5f64c934046781031cfb54a4","false","null","<span style=""color: black; font-size: 48px"">N + M</span>","null","","","","resp_prompt","","","","","","","","","","","","","","","",""
"categorize-image","35","342782","0.0-2.0-2.0-1.12","52pet1mlo7bbkqp","practice_no_cue","5ef39889a60ba311a96059ed","5f60e3c0a3b16e07647b2ff9","5f64c934046781031cfb54a4","true","912.8250000067055","./Stimuli/ImagesPractice/SN76.jpg","76","","","","test","false","N + M","83","","SN","SN76.jpg","remember","old","13","1","start","right","","","",""
"html-keyboard-response","36","343487","0.0-2.0-2.0-0.13","52pet1mlo7bbkqp","practice_no_cue","5ef39889a60ba311a96059ed","5f60e3c0a3b16e07647b2ff9","5f64c934046781031cfb54a4","false","null","<span style=""color: black; font-size: 48px"">N + M</span>","null","","","","resp_prompt","","","","","","","","","","","","","","","",""
"categorize-image","37","345296","0.0-2.0-2.0-1.13","52pet1mlo7bbkqp","practice_no_cue","5ef39889a60ba311a96059ed","5f60e3c0a3b16e07647b2ff9","5f64c934046781031cfb54a4","true","1306.4849999500439","./Stimuli/ImagesPractice/LN17.jpg","83","","","","test","true","N + M","83","","LN","LN17.jpg","forget","old","14","1","start","left","","","",""
"html-keyboard-response","38","345998","0.0-2.0-2.0-0.14","52pet1mlo7bbkqp","practice_no_cue","5ef39889a60ba311a96059ed","5f60e3c0a3b16e07647b2ff9","5f64c934046781031cfb54a4","false","null","<span style=""color: black; font-size: 48px"">M + N</span>","null","","","","resp_prompt","","","","","","","","","","","","","","","",""
"categorize-image","39","347335","0.0-2.0-2.0-1.14","52pet1mlo7bbkqp","practice_no_cue","5ef39889a60ba311a96059ed","5f60e3c0a3b16e07647b2ff9","5f64c934046781031cfb54a4","true","833.3750000456348","./Stimuli/ImagesPractice/SN222.jpg","76","","","","test","true","M + N","76","","SN","SN222.jpg","forget","old","15","1","start","right","","","",""
"html-keyboard-response","40","348037","0.0-2.0-2.0-0.15","52pet1mlo7bbkqp","practice_no_cue","5ef39889a60ba311a96059ed","5f60e3c0a3b16e07647b2ff9","5f64c934046781031cfb54a4","false","null","<span style=""color: black; font-size: 48px"">N + M</span>","null","","","","resp_prompt","","","","","","","","","","","","","","","",""
"categorize-image","41","349860","0.0-2.0-2.0-1.15","52pet1mlo7bbkqp","practice_no_cue","5ef39889a60ba311a96059ed","5f60e3c0a3b16e07647b2ff9","5f64c934046781031cfb54a4","true","1316.8150000274181","./Stimuli/ImagesPractice/LM239.jpg","76","","","","test","true","N + M","76","","LM","LM239.jpg","forget","old","16","1","start","right","","","",""
"html-keyboard-response","42","383998","0.0-2.0-3.0","52pet1mlo7bbkqp","break","5ef39889a60ba311a96059ed","5f60e3c0a3b16e07647b2ff9","5f64c934046781031cfb54a4","false","34137.080000014976","<p style='font-size: 32px;'>Break</><br><br><br><br><br><p style='font-size: 24px;'>In the last block, you committed 1 errors and did not respond in time on 0 trials.
</p><p style='font-size: 24px;'>Try to respond as fast and accurately as possible in the next block as well! </p><p style='font-size: 24px;'>Press SPACE to continue.</p>","32","","","","","","","","","","","","","","","","","","","",""
"html-keyboard-response","43","389372","0.0-2.0-4.0","52pet1mlo7bbkqp","instructions","5ef39889a60ba311a96059ed","5f60e3c0a3b16e07647b2ff9","5f64c934046781031cfb54a4","false","5372.679999913089","<div align=left> Great!<br><br>Are you ready to continue?<br><br>If you want to reread the instructions and redo the practice trials, <br>please press „Z“. <br><br>Press SPACE to CONTINUE with the experiment when you are ready. </div>","32","","","","","","","","","","","","","","","","","","","",""
"html-keyboard-response","44","426760","0.0-3.0-0.0","52pet1mlo7bbkqp","instructions","5ef39889a60ba311a96059ed","5f60e3c0a3b16e07647b2ff9","5f64c934046781031cfb54a4","false","37386.99999998789","<div align=left>Great!<br> <strong>Attention</strong>! You will now receive a second, additional task! <br><br>To this point it was you <strong>first task</strong> to correctly <strong>classify objects</strong>. <br><br>As mentioned in the beginning, we aim to examine how well humans can remember previously learned information.<br>We would like to find out whether our memory improves if we only remember information that is relevant to us. <br><br>Therefore, your <strong>second task</strong> will be to <strong>remember</strong> the pictures you are to categorize. <br> After the learning phase, there will be a memory test phase, in which you will be asked to indicate whether you have seen a picture before or not. <br>Some, but not all pictures shown in the learning phase will appear in the memory test phase.<br>After classifying a picture, you will be told whether you should remember it for the memory test phase or not. <br>Thus, some pictures can be forgotten, whereas others have to be remembered. <br><br>Note: From now on, feedback will only be displayed if you responded incorrectly or not in time.<br><br>Press SPACE to continue.</div>","32","","","","","","","","","","","","","","","","","","","",""
"html-keyboard-response","45","445475","0.0-3.0-1.0","52pet1mlo7bbkqp","instructions","5ef39889a60ba311a96059ed","5f60e3c0a3b16e07647b2ff9","5f64c934046781031cfb54a4","false","18714.095000061207","<div align=left>In the following part, you will thus have to remember only some pictures. <br>Immediately after seeing and classifying the picture, a symbol will be displayed, indicating whether you should remember or forget the previous picture. <br><br>A <span style='color: dodgerblue; font-size: 28px'>O</span> indicates REMEMBER. That means, you have to remember this picture, because it will be tested later. <br><br>A <span style='color: darkorange; font-size:28px'>Ø</span> indicates FORGET. You do not have to remember this picture. <br><br> As you will have to remember a lot of pictures, it will be hard for you to remember all of them. <br>It will put you at an advantage if you instantly forget the pictures you are not asked to remember. <br> This will make it easier for you to remember the pictures that will be tested afterwards. <br><br>Press SPACE to continue.</div>","32","","","","","","","","","","","","","","","","","","","",""
"html-keyboard-response","46","455166","0.0-3.0-2.0","52pet1mlo7bbkqp","instructions","5ef39889a60ba311a96059ed","5f60e3c0a3b16e07647b2ff9","5f64c934046781031cfb54a4","false","9690.029999939725","<div align=left> Now you have the chance to practice both tasks together.<br><br>Remember: <br> <br><li>Please place your index fingers on the <strong>'S'</strong> and <strong>'L'</strong> keys <br>to respond as fast and accurately as possible.</li><li>Every picture can be classified as either mechanical or non-mechanical.</li><li>If you do not respond in time or commit an error, you will receive a corresponding feedback. <br>Please try to respond as <strong> fast </strong> and as <strong> accurately as possible </strong>.</li><li> Please remember only the to-be-remembered <span style='color: dodgerblue; font-size: 28px'>O</span> pictures. <br></li><li> Please minimize distractions and stay focused. </li><br><br>Press SPACE to START</div>","32","","","","","","","","","","","","","","","","","","","",""
"html-keyboard-response","47","455871","0.0-3.0-3.0-0.0","52pet1mlo7bbkqp","practice_cue","5ef39889a60ba311a96059ed","5f60e3c0a3b16e07647b2ff9","5f64c934046781031cfb54a4","false","null","<span style=""color: black; font-size: 48px"">N + M</span>","null","","","","resp_prompt","","","","","","","","","","","","","","","",""
"categorize-image","48","456697","0.0-3.0-3.0-1.0","52pet1mlo7bbkqp","practice_cue","5ef39889a60ba311a96059ed","5f60e3c0a3b16e07647b2ff9","5f64c934046781031cfb54a4","true","822.359999991022","./Stimuli/ImagesPractice/LN17.jpg","76","","","","test","false","N + M","83","","LN","LN17.jpg","forget","old","17","2","practice_forget","right","","","",""
"html-keyboard-response","49","457199","0.0-3.0-3.0-2.0-0.0","52pet1mlo7bbkqp","practice_cue","5ef39889a60ba311a96059ed","5f60e3c0a3b16e07647b2ff9","5f64c934046781031cfb54a4","false","null","<span style=""color: red; font-size: 48px"">Error!</span>","null","","","","feedback","","","","","","","","","","","","","","","",""
"html-keyboard-response","50","459203","0.0-3.0-3.0-3.0","52pet1mlo7bbkqp","practice_cue","5ef39889a60ba311a96059ed","5f60e3c0a3b16e07647b2ff9","5f64c934046781031cfb54a4","false","null","<div style=""align-items: center; display: flex; color: darkorange; font-size: 90px""><b>ø</b></div>","null","","","","forget_cue","","","","","","","","","","","","","","","",""
"html-keyboard-response","51","459904","0.0-3.0-3.0-0.1","52pet1mlo7bbkqp","practice_cue","5ef39889a60ba311a96059ed","5f60e3c0a3b16e07647b2ff9","5f64c934046781031cfb54a4","false","null","<span style=""color: black; font-size: 48px"">M + N</span>","null","","","","resp_prompt","","","","","","","","","","","","","","","",""
"categorize-image","52","460727","0.0-3.0-3.0-1.1","52pet1mlo7bbkqp","practice_cue","5ef39889a60ba311a96059ed","5f60e3c0a3b16e07647b2ff9","5f64c934046781031cfb54a4","true","818.7350000953302","./Stimuli/ImagesPractice/SM98.jpg","83","","","","test","true","M + N","83","","SM","SM98.jpg","forget","old","18","2","practice_forget","left","","","",""
"html-keyboard-response","53","462733","0.0-3.0-3.0-3.1","52pet1mlo7bbkqp","practice_cue","5ef39889a60ba311a96059ed","5f60e3c0a3b16e07647b2ff9","5f64c934046781031cfb54a4","false","null","<div style=""align-items: center; display: flex; color: darkorange; font-size: 90px""><b>ø</b></div>","null","","","","forget_cue","","","","","","","","","","","","","","","",""
"html-keyboard-response","54","463438","0.0-3.0-3.0-0.2","52pet1mlo7bbkqp","practice_cue","5ef39889a60ba311a96059ed","5f60e3c0a3b16e07647b2ff9","5f64c934046781031cfb54a4","false","null","<span style=""color: black; font-size: 48px"">M + N</span>","null","","","","resp_prompt","","","","","","","","","","","","","","","",""
"categorize-image","55","464446","0.0-3.0-3.0-1.2","52pet1mlo7bbkqp","practice_cue","5ef39889a60ba311a96059ed","5f60e3c0a3b16e07647b2ff9","5f64c934046781031cfb54a4","true","1003.9450000040233","./Stimuli/ImagesPractice/SN205.jpg","76","","","","test","true","M + N","76","","SN","SN205.jpg","forget","old","19","2","practice_forget","right","","","",""
"html-keyboard-response","56","466453","0.0-3.0-3.0-3.2","52pet1mlo7bbkqp","practice_cue","5ef39889a60ba311a96059ed","5f60e3c0a3b16e07647b2ff9","5f64c934046781031cfb54a4","false","null","<div style=""align-items: center; display: flex; color: darkorange; font-size: 90px""><b>ø</b></div>","null","","","","forget_cue","","","","","","","","","","","","","","","",""
"html-keyboard-response","57","467155","0.0-3.0-3.0-0.3","52pet1mlo7bbkqp","practice_cue","5ef39889a60ba311a96059ed","5f60e3c0a3b16e07647b2ff9","5f64c934046781031cfb54a4","false","null","<span style=""color: black; font-size: 48px"">M + N</span>","null","","","","resp_prompt","","","","","","","","","","","","","","","",""
"categorize-image","58","468003","0.0-3.0-3.0-1.3","52pet1mlo7bbkqp","practice_cue","5ef39889a60ba311a96059ed","5f60e3c0a3b16e07647b2ff9","5f64c934046781031cfb54a4","true","844.054999994114","./Stimuli/ImagesPractice/SM61.jpg","83","","","","test","true","M + N","83","","SM","SM61.jpg","remember","old","20","2","practice_forget","left","","","",""
"html-keyboard-response","59","470009","0.0-3.0-3.0-3.3","52pet1mlo7bbkqp","practice_cue","5ef39889a60ba311a96059ed","5f60e3c0a3b16e07647b2ff9","5f64c934046781031cfb54a4","false","null","<div style=""align-items: center; display: flex; color: dodgerblue; font-size: 90px""><b>o</b></div>","null","","","","forget_cue","","","","","","","","","","","","","","","",""
"html-keyboard-response","60","470713","0.0-3.0-3.0-0.4","52pet1mlo7bbkqp","practice_cue","5ef39889a60ba311a96059ed","5f60e3c0a3b16e07647b2ff9","5f64c934046781031cfb54a4","false","null","<span style=""color: black; font-size: 48px"">N + M</span>","null","","","","resp_prompt","","","","","","","","","","","","","","","",""
"categorize-image","61","471868","0.0-3.0-3.0-1.4","52pet1mlo7bbkqp","practice_cue","5ef39889a60ba311a96059ed","5f60e3c0a3b16e07647b2ff9","5f64c934046781031cfb54a4","true","1150.7350000320002","./Stimuli/ImagesPractice/SM97.jpg","76","","","","test","true","N + M","76","","SM","SM97.jpg","forget","old","21","2","practice_forget","right","","","",""
"html-keyboard-response","62","473874","0.0-3.0-3.0-3.4","52pet1mlo7bbkqp","practice_cue","5ef39889a60ba311a96059ed","5f60e3c0a3b16e07647b2ff9","5f64c934046781031cfb54a4","false","null","<div style=""align-items: center; display: flex; color: darkorange; font-size: 90px""><b>ø</b></div>","null","","","","forget_cue","","","","","","","","","","","","","","","",""
"html-keyboard-response","63","474581","0.0-3.0-3.0-0.5","52pet1mlo7bbkqp","practice_cue","5ef39889a60ba311a96059ed","5f60e3c0a3b16e07647b2ff9","5f64c934046781031cfb54a4","false","null","<span style=""color: black; font-size: 48px"">M + N</span>","null","","","","resp_prompt","","","","","","","","","","","","","","","",""
"categorize-image","64","475544","0.0-3.0-3.0-1.5","52pet1mlo7bbkqp","practice_cue","5ef39889a60ba311a96059ed","5f60e3c0a3b16e07647b2ff9","5f64c934046781031cfb54a4","true","958.8500000536442","./Stimuli/ImagesPractice/LM147.jpg","83","","","","test","true","M + N","83","","LM","LM147.jpg","remember","old","22","2","practice_forget","left","","","",""
"html-keyboard-response","65","477546","0.0-3.0-3.0-3.5","52pet1mlo7bbkqp","practice_cue","5ef39889a60ba311a96059ed","5f60e3c0a3b16e07647b2ff9","5f64c934046781031cfb54a4","false","null","<div style=""align-items: center; display: flex; color: dodgerblue; font-size: 90px""><b>o</b></div>","null","","","","forget_cue","","","","","","","","","","","","","","","",""
"html-keyboard-response","66","478249","0.0-3.0-3.0-0.6","52pet1mlo7bbkqp","practice_cue","5ef39889a60ba311a96059ed","5f60e3c0a3b16e07647b2ff9","5f64c934046781031cfb54a4","false","null","<span style=""color: black; font-size: 48px"">N + M</span>","null","","","","resp_prompt","","","","","","","","","","","","","","","",""
"categorize-image","67","479150","0.0-3.0-3.0-1.6","52pet1mlo7bbkqp","practice_cue","5ef39889a60ba311a96059ed","5f60e3c0a3b16e07647b2ff9","5f64c934046781031cfb54a4","true","896.4549999218434","./Stimuli/ImagesPractice/SN76.jpg","83","","","","test","true","N + M","83","","SN","SN76.jpg","remember","old","23","2","practice_forget","left","","","",""
"html-keyboard-response","68","481152","0.0-3.0-3.0-3.6","52pet1mlo7bbkqp","practice_cue","5ef39889a60ba311a96059ed","5f60e3c0a3b16e07647b2ff9","5f64c934046781031cfb54a4","false","null","<div style=""align-items: center; display: flex; color: dodgerblue; font-size: 90px""><b>o</b></div>","null","","","","forget_cue","","","","","","","","","","","","","","","",""
"html-keyboard-response","69","481855","0.0-3.0-3.0-0.7","52pet1mlo7bbkqp","practice_cue","5ef39889a60ba311a96059ed","5f60e3c0a3b16e07647b2ff9","5f64c934046781031cfb54a4","false","null","<span style=""color: black; font-size: 48px"">N + M</span>","null","","","","resp_prompt","","","","","","","","","","","","","","","",""
"categorize-image","70","482993","0.0-3.0-3.0-1.7","52pet1mlo7bbkqp","practice_cue","5ef39889a60ba311a96059ed","5f60e3c0a3b16e07647b2ff9","5f64c934046781031cfb54a4","true","1133.780000032857","./Stimuli/ImagesPractice/LN4.jpg","83","","","","test","true","N + M","83","","LN","LN4.jpg","remember","old","24","2","practice_forget","left","","","",""
"html-keyboard-response","71","484999","0.0-3.0-3.0-3.7","52pet1mlo7bbkqp","practice_cue","5ef39889a60ba311a96059ed","5f60e3c0a3b16e07647b2ff9","5f64c934046781031cfb54a4","false","null","<div style=""align-items: center; display: flex; color: dodgerblue; font-size: 90px""><b>o</b></div>","null","","","","forget_cue","","","","","","","","","","","","","","","",""
"html-keyboard-response","72","485704","0.0-3.0-3.0-0.8","52pet1mlo7bbkqp","practice_cue","5ef39889a60ba311a96059ed","5f60e3c0a3b16e07647b2ff9","5f64c934046781031cfb54a4","false","null","<span style=""color: black; font-size: 48px"">N + M</span>","null","","","","resp_prompt","","","","","","","","","","","","","","","",""
"categorize-image","73","487344","0.0-3.0-3.0-1.8","52pet1mlo7bbkqp","practice_cue","5ef39889a60ba311a96059ed","5f60e3c0a3b16e07647b2ff9","5f64c934046781031cfb54a4","true","1636.214999947697","./Stimuli/ImagesPractice/LM239.jpg","83","","","","test","false","N + M","76","","LM","LM239.jpg","forget","old","25","2","practice_forget","left","","","",""
"html-keyboard-response","74","487846","0.0-3.0-3.0-2.8-0.8","52pet1mlo7bbkqp","practice_cue","5ef39889a60ba311a96059ed","5f60e3c0a3b16e07647b2ff9","5f64c934046781031cfb54a4","false","null","<span style=""color: red; font-size: 48px"">Error!</span>","null","","","","feedback","","","","","","","","","","","","","","","",""
"html-keyboard-response","75","489848","0.0-3.0-3.0-3.8","52pet1mlo7bbkqp","practice_cue","5ef39889a60ba311a96059ed","5f60e3c0a3b16e07647b2ff9","5f64c934046781031cfb54a4","false","null","<div style=""align-items: center; display: flex; color: darkorange; font-size: 90px""><b>ø</b></div>","null","","","","forget_cue","","","","","","","","","","","","","","","",""
"html-keyboard-response","76","490551","0.0-3.0-3.0-0.9","52pet1mlo7bbkqp","practice_cue","5ef39889a60ba311a96059ed","5f60e3c0a3b16e07647b2ff9","5f64c934046781031cfb54a4","false","null","<span style=""color: black; font-size: 48px"">N + M</span>","null","","","","resp_prompt","","","","","","","","","","","","","","","",""
"categorize-image","77","491628","0.0-3.0-3.0-1.9","52pet1mlo7bbkqp","practice_cue","5ef39889a60ba311a96059ed","5f60e3c0a3b16e07647b2ff9","5f64c934046781031cfb54a4","true","1072.4649999756366","./Stimuli/ImagesPractice/LN109.jpg","83","","","","test","true","N + M","83","","LN","LN109.jpg","forget","old","26","2","practice_forget","left","","","",""
"html-keyboard-response","78","493636","0.0-3.0-3.0-3.9","52pet1mlo7bbkqp","practice_cue","5ef39889a60ba311a96059ed","5f60e3c0a3b16e07647b2ff9","5f64c934046781031cfb54a4","false","null","<div style=""align-items: center; display: flex; color: darkorange; font-size: 90px""><b>ø</b></div>","null","","","","forget_cue","","","","","","","","","","","","","","","",""
"html-keyboard-response","79","494338","0.0-3.0-3.0-0.10","52pet1mlo7bbkqp","practice_cue","5ef39889a60ba311a96059ed","5f60e3c0a3b16e07647b2ff9","5f64c934046781031cfb54a4","false","null","<span style=""color: black; font-size: 48px"">M + N</span>","null","","","","resp_prompt","","","","","","","","","","","","","","","",""
"categorize-image","80","495521","0.0-3.0-3.0-1.10","52pet1mlo7bbkqp","practice_cue","5ef39889a60ba311a96059ed","5f60e3c0a3b16e07647b2ff9","5f64c934046781031cfb54a4","true","1178.7999999942258","./Stimuli/ImagesPractice/SN222.jpg","76","","","","test","true","M + N","76","","SN","SN222.jpg","forget","old","27","2","practice_forget","right","","","",""
"html-keyboard-response","81","497527","0.0-3.0-3.0-3.10","52pet1mlo7bbkqp","practice_cue","5ef39889a60ba311a96059ed","5f60e3c0a3b16e07647b2ff9","5f64c934046781031cfb54a4","false","null","<div style=""align-items: center; display: flex; color: darkorange; font-size: 90px""><b>ø</b></div>","null","","","","forget_cue","","","","","","","","","","","","","","","",""
"html-keyboard-response","82","498232","0.0-3.0-3.0-0.11","52pet1mlo7bbkqp","practice_cue","5ef39889a60ba311a96059ed","5f60e3c0a3b16e07647b2ff9","5f64c934046781031cfb54a4","false","null","<span style=""color: black; font-size: 48px"">N + M</span>","null","","","","resp_prompt","","","","","","","","","","","","","","","",""
"categorize-image","83","499354","0.0-3.0-3.0-1.11","52pet1mlo7bbkqp","practice_cue","5ef39889a60ba311a96059ed","5f60e3c0a3b16e07647b2ff9","5f64c934046781031cfb54a4","true","1118.0250000907108","./Stimuli/ImagesPractice/SN221.jpg","83","","","","test","true","N + M","83","","SN","SN221.jpg","remember","old","28","2","practice_forget","left","","","",""
"html-keyboard-response","84","501355","0.0-3.0-3.0-3.11","52pet1mlo7bbkqp","practice_cue","5ef39889a60ba311a96059ed","5f60e3c0a3b16e07647b2ff9","5f64c934046781031cfb54a4","false","null","<div style=""align-items: center; display: flex; color: dodgerblue; font-size: 90px""><b>o</b></div>","null","","","","forget_cue","","","","","","","","","","","","","","","",""
"html-keyboard-response","85","502061","0.0-3.0-3.0-0.12","52pet1mlo7bbkqp","practice_cue","5ef39889a60ba311a96059ed","5f60e3c0a3b16e07647b2ff9","5f64c934046781031cfb54a4","false","null","<span style=""color: black; font-size: 48px"">M + N</span>","null","","","","resp_prompt","","","","","","","","","","","","","","","",""
"categorize-image","86","503551","0.0-3.0-3.0-1.12","52pet1mlo7bbkqp","practice_cue","5ef39889a60ba311a96059ed","5f60e3c0a3b16e07647b2ff9","5f64c934046781031cfb54a4","true","1485.3750000474975","./Stimuli/ImagesPractice/LM230.jpg","83","","","","test","true","M + N","83","","LM","LM230.jpg","forget","old","29","2","practice_forget","left","","","",""
"html-keyboard-response","87","505556","0.0-3.0-3.0-3.12","52pet1mlo7bbkqp","practice_cue","5ef39889a60ba311a96059ed","5f60e3c0a3b16e07647b2ff9","5f64c934046781031cfb54a4","false","null","<div style=""align-items: center; display: flex; color: darkorange; font-size: 90px""><b>ø</b></div>","null","","","","forget_cue","","","","","","","","","","","","","","","",""
"html-keyboard-response","88","506257","0.0-3.0-3.0-0.13","52pet1mlo7bbkqp","practice_cue","5ef39889a60ba311a96059ed","5f60e3c0a3b16e07647b2ff9","5f64c934046781031cfb54a4","false","null","<span style=""color: black; font-size: 48px"">M + N</span>","null","","","","resp_prompt","","","","","","","","","","","","","","","",""
"categorize-image","89","507894","0.0-3.0-3.0-1.13","52pet1mlo7bbkqp","practice_cue","5ef39889a60ba311a96059ed","5f60e3c0a3b16e07647b2ff9","5f64c934046781031cfb54a4","true","1632.1999999927357","./Stimuli/ImagesPractice/SM37.jpg","83","","","","test","true","M + N","83","","SM","SM37.jpg","remember","old","30","2","practice_forget","left","","","",""
"html-keyboard-response","90","509897","0.0-3.0-3.0-3.13","52pet1mlo7bbkqp","practice_cue","5ef39889a60ba311a96059ed","5f60e3c0a3b16e07647b2ff9","5f64c934046781031cfb54a4","false","null","<div style=""align-items: center; display: flex; color: dodgerblue; font-size: 90px""><b>o</b></div>","null","","","","forget_cue","","","","","","","","","","","","","","","",""
"html-keyboard-response","91","510603","0.0-3.0-3.0-0.14","52pet1mlo7bbkqp","practice_cue","5ef39889a60ba311a96059ed","5f60e3c0a3b16e07647b2ff9","5f64c934046781031cfb54a4","false","null","<span style=""color: black; font-size: 48px"">N + M</span>","null","","","","resp_prompt","","","","","","","","","","","","","","","",""
"categorize-image","92","511898","0.0-3.0-3.0-1.14","52pet1mlo7bbkqp","practice_cue","5ef39889a60ba311a96059ed","5f60e3c0a3b16e07647b2ff9","5f64c934046781031cfb54a4","true","1290.6550000188872","./Stimuli/ImagesPractice/LN15.jpg","83","","","","test","true","N + M","83","","LN","LN15.jpg","remember","old","31","2","practice_forget","left","","","",""
"html-keyboard-response","93","513905","0.0-3.0-3.0-3.14","52pet1mlo7bbkqp","practice_cue","5ef39889a60ba311a96059ed","5f60e3c0a3b16e07647b2ff9","5f64c934046781031cfb54a4","false","null","<div style=""align-items: center; display: flex; color: dodgerblue; font-size: 90px""><b>o</b></div>","null","","","","forget_cue","","","","","","","","","","","","","","","",""
"html-keyboard-response","94","514611","0.0-3.0-3.0-0.15","52pet1mlo7bbkqp","practice_cue","5ef39889a60ba311a96059ed","5f60e3c0a3b16e07647b2ff9","5f64c934046781031cfb54a4","false","null","<span style=""color: black; font-size: 48px"">M + N</span>","null","","","","resp_prompt","","","","","","","","","","","","","","","",""
"categorize-image","95","515435","0.0-3.0-3.0-1.15","52pet1mlo7bbkqp","practice_cue","5ef39889a60ba311a96059ed","5f60e3c0a3b16e07647b2ff9","5f64c934046781031cfb54a4","true","819.4000000366941","./Stimuli/ImagesPractice/SN220.jpg","76","","","","test","true","M + N","76","","SN","SN220.jpg","remember","old","32","2","practice_forget","right","","","",""
"html-keyboard-response","96","517437","0.0-3.0-3.0-3.15","52pet1mlo7bbkqp","practice_cue","5ef39889a60ba311a96059ed","5f60e3c0a3b16e07647b2ff9","5f64c934046781031cfb54a4","false","null","<div style=""align-items: center; display: flex; color: dodgerblue; font-size: 90px""><b>o</b></div>","null","","","","forget_cue","","","","","","","","","","","","","","","",""
"html-keyboard-response","97","561535","0.0-3.0-4.0","52pet1mlo7bbkqp","break","5ef39889a60ba311a96059ed","5f60e3c0a3b16e07647b2ff9","5f64c934046781031cfb54a4","false","44098.82000007201","<p style='font-size: 32px;'>Break</><br><br><br><br><br><p style='font-size: 24px;'>In the last block, you committed 2 errors and did not respond in time on 0 trials.
</p><p style='font-size: 24px;'>Try to respond as fast and accurately as possible in the next block as well! </p><p style='font-size: 24px;'>Press SPACE to continue.</p>","32","","","","","","","","","","","","","","","","","","","",""
"html-keyboard-response","98","571273","0.0-3.0-5.0","52pet1mlo7bbkqp","instructions","5ef39889a60ba311a96059ed","5f60e3c0a3b16e07647b2ff9","5f64c934046781031cfb54a4","false","9736.470000003465","<div align=left> Now, to practice, we kindly ask you to remember as many of the to-be-remembered pictures<br>of the previous learning phase as possible.<br><br>The pictures you were instructed to remember were the pictures followed by a <span style='color: dodgerblue; font-size: 28px'>O</span>.<br><br>In this memory test phase, you will also see some new pictures.<br>It is your task to remember whether you were presented with this specific picture in this study so far or not.<br>If you recognize an object (you have already seen it in this study), it is an OLD object. <br>If you do not recognize an object (you have NOT seen it in this study), it is a NEW object. <br><strong> Attention</strong>: As already mentioned, <span style='color: darkorange; font-size:28px'>Ø</span>-pictures will <strong>never</strong> appear in this memory test (neither as new objects). <br><br>Press SPACE to continue. </div>","32","","","","","","","","","","","","","","","","","","","",""
"html-keyboard-response","99","602815","0.0-3.0-6.0","52pet1mlo7bbkqp","instructions","5ef39889a60ba311a96059ed","5f60e3c0a3b16e07647b2ff9","5f64c934046781031cfb54a4","false","31541.740000015125","<div align=left> M and N no longer will appear on the left/right of the fixation cross. <br>Instead there will be a note at the bottom of the left or right side  <br>indicating which key you should press for an old or new object:  <br> <br>Press the <strong>right</strong> key to classify an object as <strong>old</strong> and press the <strong>left</strong>, to classify an object as <strong>new</strong>.<br>Please classify the objects as new/old by again placing your index finger on the 'S' and 'L' keys <br>and press them accordingly.<br><br><strong>Old:</strong> This object has been presented before. <br><strong>New:</strong> This object has <strong>not</strong> been presented.<br><br>Now please put your right and left index fingers on the 'S' and 'L' keys of your keyboard. <br>Please respond as fast and as accurately as possible!<br><br>Press SPACE to continue. </div>","32","","","","","","","","","","","","","","","","","","","",""
"categorize-image","100","605071","0.0-3.0-7.0-0.0","52pet1mlo7bbkqp","practice_recog","5ef39889a60ba311a96059ed","5f60e3c0a3b16e07647b2ff9","5f64c934046781031cfb54a4","true","1750.2349999267608","./Stimuli/ImagesPractice/SN221.jpg","83","","","","test","true","","83","","SN","SN221.jpg","","old","33","3","practice_recog","left","","","",""
"categorize-image","101","607064","0.0-3.0-7.0-0.1","52pet1mlo7bbkqp","practice_recog","5ef39889a60ba311a96059ed","5f60e3c0a3b16e07647b2ff9","5f64c934046781031cfb54a4","true","1487.819999922067","./Stimuli/ImagesPractice/LM147.jpg","83","","","","test","true","","83","","LM","LM147.jpg","","old","34","3","practice_recog","left","","","",""
"categorize-image","102","608520","0.0-3.0-7.0-0.2","52pet1mlo7bbkqp","practice_recog","5ef39889a60ba311a96059ed","5f60e3c0a3b16e07647b2ff9","5f64c934046781031cfb54a4","true","950.8500000229105","./Stimuli/ImagesPractice/LM55.jpg","76","","","","test","true","","76","","LM","LM55.jpg","","new","35","3","practice_recog","right","","","",""
"categorize-image","103","609773","0.0-3.0-7.0-0.3","52pet1mlo7bbkqp","practice_recog","5ef39889a60ba311a96059ed","5f60e3c0a3b16e07647b2ff9","5f64c934046781031cfb54a4","true","745.384999900125","./Stimuli/ImagesPractice/LN4.jpg","83","","","","test","true","","83","","LN","LN4.jpg","","old","36","3","practice_recog","left","","","",""
"categorize-image","104","611195","0.0-3.0-7.0-0.4","52pet1mlo7bbkqp","practice_recog","5ef39889a60ba311a96059ed","5f60e3c0a3b16e07647b2ff9","5f64c934046781031cfb54a4","true","919.1250000149012","./Stimuli/ImagesPractice/SM35.jpg","76","","","","test","true","","76","","SM","SM35.jpg","","new","37","3","practice_recog","right","","","",""
"categorize-image","105","612932","0.0-3.0-7.0-0.5","52pet1mlo7bbkqp","practice_recog","5ef39889a60ba311a96059ed","5f60e3c0a3b16e07647b2ff9","5f64c934046781031cfb54a4","true","1230.9949999907985","./Stimuli/ImagesPractice/SM62.jpg","76","","","","test","true","","76","","SM","SM62.jpg","","new","38","3","practice_recog","right","","","",""
"categorize-image","106","614264","0.0-3.0-7.0-0.6","52pet1mlo7bbkqp","practice_recog","5ef39889a60ba311a96059ed","5f60e3c0a3b16e07647b2ff9","5f64c934046781031cfb54a4","true","829.520000028424","./Stimuli/ImagesPractice/SN220.jpg","83","","","","test","true","","83","","SN","SN220.jpg","","old","39","3","practice_recog","left","","","",""
"categorize-image","107","615785","0.0-3.0-7.0-0.7","52pet1mlo7bbkqp","practice_recog","5ef39889a60ba311a96059ed","5f60e3c0a3b16e07647b2ff9","5f64c934046781031cfb54a4","true","1017.725000041537","./Stimuli/ImagesPractice/LN72.jpg","76","","","","test","true","","76","","LN","LN72.jpg","","new","40","3","practice_recog","right","","","",""
"categorize-image","108","617091","0.0-3.0-7.0-0.8","52pet1mlo7bbkqp","practice_recog","5ef39889a60ba311a96059ed","5f60e3c0a3b16e07647b2ff9","5f64c934046781031cfb54a4","true","801.9649999914691","./Stimuli/ImagesPractice/LN15.jpg","83","","","","test","true","","83","","LN","LN15.jpg","","old","41","3","practice_recog","left","","","",""
"categorize-image","109","618262","0.0-3.0-7.0-0.9","52pet1mlo7bbkqp","practice_recog","5ef39889a60ba311a96059ed","5f60e3c0a3b16e07647b2ff9","5f64c934046781031cfb54a4","true","666.7899999301881","./Stimuli/ImagesPractice/SN75.jpg","76","","","","test","true","","76","","SN","SN75.jpg","","new","42","3","practice_recog","right","","","",""
"categorize-image","110","619674","0.0-3.0-7.0-0.10","52pet1mlo7bbkqp","practice_recog","5ef39889a60ba311a96059ed","5f60e3c0a3b16e07647b2ff9","5f64c934046781031cfb54a4","true","909.9849999183789","./Stimuli/ImagesPractice/LM143.jpg","76","","","","test","true","","76","","LM","LM143.jpg","","new","43","3","practice_recog","right","","","",""
"categorize-image","111","621030","0.0-3.0-7.0-0.11","52pet1mlo7bbkqp","practice_recog","5ef39889a60ba311a96059ed","5f60e3c0a3b16e07647b2ff9","5f64c934046781031cfb54a4","true","852.6500000152737","./Stimuli/ImagesPractice/SN76.jpg","83","","","","test","true","","83","","SN","SN76.jpg","","old","44","3","practice_recog","left","","","",""
"categorize-image","112","622289","0.0-3.0-7.0-0.12","52pet1mlo7bbkqp","practice_recog","5ef39889a60ba311a96059ed","5f60e3c0a3b16e07647b2ff9","5f64c934046781031cfb54a4","true","754.7299999278039","./Stimuli/ImagesPractice/SM37.jpg","83","","","","test","true","","83","","SM","SM37.jpg","","old","45","3","practice_recog","left","","","",""
"categorize-image","113","623554","0.0-3.0-7.0-0.13","52pet1mlo7bbkqp","practice_recog","5ef39889a60ba311a96059ed","5f60e3c0a3b16e07647b2ff9","5f64c934046781031cfb54a4","true","761.6050000069663","./Stimuli/ImagesPractice/LM224.jpg","76","","","","test","true","","76","","LM","LM224.jpg","","new","46","3","practice_recog","right","","","",""
"categorize-image","114","624946","0.0-3.0-7.0-0.14","52pet1mlo7bbkqp","practice_recog","5ef39889a60ba311a96059ed","5f60e3c0a3b16e07647b2ff9","5f64c934046781031cfb54a4","true","888.1449999753386","./Stimuli/ImagesPractice/SM61.jpg","83","","","","test","true","","83","","SM","SM61.jpg","","old","47","3","practice_recog","left","","","",""
"categorize-image","115","626291","0.0-3.0-7.0-0.15","52pet1mlo7bbkqp","practice_recog","5ef39889a60ba311a96059ed","5f60e3c0a3b16e07647b2ff9","5f64c934046781031cfb54a4","true","838.8050000648946","./Stimuli/ImagesPractice/LN2.jpg","76","","","","test","true","","76","","LN","LN2.jpg","","new","48","3","practice_recog","right","","","",""
"html-keyboard-response","116","640833","0.0-3.0-8.0","52pet1mlo7bbkqp","instructions","5ef39889a60ba311a96059ed","5f60e3c0a3b16e07647b2ff9","5f64c934046781031cfb54a4","false","14540.7450000057","<div align=left> Great!<br><br>Are you ready to continue?<br>If you want to reread the instructions and redo the practice trials, please <br>press „Z“.<br><br>You can proceed when you are ready.<br><br>After the presentation of each object, you will receive an instruction whether to <br>remember or to forget the object.<br>We will test your memory of the following pictures only at the very end of <br>the experiment after all learning blocks are completed. <br><br>Press SPACE to CONTINUE when you are ready. </div>","32","","","","","","","","","","","","","","","","","","","",""
"html-keyboard-response","117","678376","0.0-4.0-0.0","52pet1mlo7bbkqp","instructions","5ef39889a60ba311a96059ed","5f60e3c0a3b16e07647b2ff9","5f64c934046781031cfb54a4","false","37543.235000106506","<div align=left> The actual experiment is about to start.<br>The practice trials are over!<br><br>Please always respond both fast and accurately!<br><br>Remember: <br> <br><li> Please place your index fingers on the <strong>'S'</strong> and <strong>'L'</strong> keys <br>to respond as fast and accurately as possible.</li><li> Every picture can be classified as either mechanical or non-mechanical.</li><li> If you do not respond in time or commit an error, you will receive a corresponding feedback.<br> Please try to respond as <strong> fast </strong> and as <strong> accurately as possible </strong>.</li><li> Remember the <span style='color: dodgerblue; font-size: 28px'>O</span> pictures. <br></li><li> Please minimize distractions and stay focused. </li><br><br>Press SPACE to START.</div>","32","","","","","","","","","","","","","","","","","","","",""
"html-keyboard-response","118","679078","0.0-4.0-1.0-0.0","52pet1mlo7bbkqp","prime","5ef39889a60ba311a96059ed","5f60e3c0a3b16e07647b2ff9","5f64c934046781031cfb54a4","false","null","<span style=""color: black; font-size: 48px"">M + N</span>","null","","","","resp_prompt","","","","","","","","","","","","","","","",""
"categorize-image","119","679976","0.0-4.0-1.0-1.0","52pet1mlo7bbkqp","prime","5ef39889a60ba311a96059ed","5f60e3c0a3b16e07647b2ff9","5f64c934046781031cfb54a4","true","894.2699999315664","./Stimuli/SelectedImages/LM/LM48.bmp","83","","","","test","true","M + N","83","switch","LM","LM48.bmp","forget","","49","3","prime1","left","","","",""
"html-keyboard-response","120","681982","0.0-4.0-1.0-3.0","52pet1mlo7bbkqp","prime","5ef39889a60ba311a96059ed","5f60e3c0a3b16e07647b2ff9","5f64c934046781031cfb54a4","false","null","<div style=""align-items: center; display: flex; color: darkorange; font-size: 90px""><b>ø</b></div>","null","","","","forget_cue","","","","","","","","","","","","","","","",""
"html-keyboard-response","121","682683","0.0-4.0-1.0-0.1","52pet1mlo7bbkqp","prime","5ef39889a60ba311a96059ed","5f60e3c0a3b16e07647b2ff9","5f64c934046781031cfb54a4","false","null","<span style=""color: black; font-size: 48px"">M + N</span>","null","","","","resp_prompt","","","","","","","","","","","","","","","",""
"categorize-image","122","683543","0.0-4.0-1.0-1.1","52pet1mlo7bbkqp","prime","5ef39889a60ba311a96059ed","5f60e3c0a3b16e07647b2ff9","5f64c934046781031cfb54a4","true","855.4550000699237","./Stimuli/SelectedImages/SN/SN155.bmp","76","","","","test","true","M + N","76","switch","SN","SN155.bmp","forget","","50","3","prime1","right","","","",""
"html-keyboard-response","123","685549","0.0-4.0-1.0-3.1","52pet1mlo7bbkqp","prime","5ef39889a60ba311a96059ed","5f60e3c0a3b16e07647b2ff9","5f64c934046781031cfb54a4","false","null","<div style=""align-items: center; display: flex; color: darkorange; font-size: 90px""><b>ø</b></div>","null","","","","forget_cue","","","","","","","","","","","","","","","",""
"html-keyboard-response","124","686252","0.0-4.0-1.0-0.2","52pet1mlo7bbkqp","prime","5ef39889a60ba311a96059ed","5f60e3c0a3b16e07647b2ff9","5f64c934046781031cfb54a4","false","null","<span style=""color: black; font-size: 48px"">N + M</span>","null","","","","resp_prompt","","","","","","","","","","","","","","","",""
"categorize-image","125","687459","0.0-4.0-1.0-1.2","52pet1mlo7bbkqp","prime","5ef39889a60ba311a96059ed","5f60e3c0a3b16e07647b2ff9","5f64c934046781031cfb54a4","true","1195.4949999926612","./Stimuli/SelectedImages/LN/LN59.bmp","83","","","","test","true","N + M","83","switch","LN","LN59.bmp","remember","","51","3","prime1","left","","","",""
"html-keyboard-response","126","689465","0.0-4.0-1.0-3.2","52pet1mlo7bbkqp","prime","5ef39889a60ba311a96059ed","5f60e3c0a3b16e07647b2ff9","5f64c934046781031cfb54a4","false","null","<div style=""align-items: center; display: flex; color: dodgerblue; font-size: 90px""><b>o</b></div>","null","","","","forget_cue","","","","","","","","","","","","","","","",""
"html-keyboard-response","127","690169","0.0-4.0-1.0-0.3","52pet1mlo7bbkqp","prime","5ef39889a60ba311a96059ed","5f60e3c0a3b16e07647b2ff9","5f64c934046781031cfb54a4","false","null","<span style=""color: black; font-size: 48px"">N + M</span>","null","","","","resp_prompt","","","","","","","","","","","","","","","",""
"categorize-image","128","691434","0.0-4.0-1.0-1.3","52pet1mlo7bbkqp","prime","5ef39889a60ba311a96059ed","5f60e3c0a3b16e07647b2ff9","5f64c934046781031cfb54a4","true","1261.545000015758","./Stimuli/SelectedImages/SM/SM195.bmp","76","","","","test","true","N + M","76","switch","SM","SM195.bmp","remember","","52","3","prime1","right","","","",""
"html-keyboard-response","129","693439","0.0-4.0-1.0-3.3","52pet1mlo7bbkqp","prime","5ef39889a60ba311a96059ed","5f60e3c0a3b16e07647b2ff9","5f64c934046781031cfb54a4","false","null","<div style=""align-items: center; display: flex; color: dodgerblue; font-size: 90px""><b>o</b></div>","null","","","","forget_cue","","","","","","","","","","","","","","","",""
"html-keyboard-response","130","694145","0.0-4.0-1.0-0.4","52pet1mlo7bbkqp","prime","5ef39889a60ba311a96059ed","5f60e3c0a3b16e07647b2ff9","5f64c934046781031cfb54a4","false","null","<span style=""color: black; font-size: 48px"">N + M</span>","null","","","","resp_prompt","","","","","","","","","","","","","","","",""
"categorize-image","131","695035","0.0-4.0-1.0-1.4","52pet1mlo7bbkqp","prime","5ef39889a60ba311a96059ed","5f60e3c0a3b16e07647b2ff9","5f64c934046781031cfb54a4","true","885.3099999250844","./Stimuli/SelectedImages/SN/SN49.bmp","83","","","","test","true","N + M","83","switch","SN","SN49.bmp","forget","","53","3","prime1","left","","","",""
"html-keyboard-response","132","697036","0.0-4.0-1.0-3.4","52pet1mlo7bbkqp","prime","5ef39889a60ba311a96059ed","5f60e3c0a3b16e07647b2ff9","5f64c934046781031cfb54a4","false","null","<div style=""align-items: center; display: flex; color: darkorange; font-size: 90px""><b>ø</b></div>","null","","","","forget_cue","","","","","","","","","","","","","","","",""
"html-keyboard-response","133","697739","0.0-4.0-1.0-0.5","52pet1mlo7bbkqp","prime","5ef39889a60ba311a96059ed","5f60e3c0a3b16e07647b2ff9","5f64c934046781031cfb54a4","false","null","<span style=""color: black; font-size: 48px"">M + N</span>","null","","","","resp_prompt","","","","","","","","","","","","","","","",""
"categorize-image","134","699231","0.0-4.0-1.0-1.5","52pet1mlo7bbkqp","prime","5ef39889a60ba311a96059ed","5f60e3c0a3b16e07647b2ff9","5f64c934046781031cfb54a4","true","1487.5900000333786","./Stimuli/SelectedImages/LN/LN166.bmp","76","","","","test","true","M + N","76","repetition","LN","LN166.bmp","remember","","54","3","prime1","right","","","",""
"html-keyboard-response","135","701233","0.0-4.0-1.0-3.5","52pet1mlo7bbkqp","prime","5ef39889a60ba311a96059ed","5f60e3c0a3b16e07647b2ff9","5f64c934046781031cfb54a4","false","null","<div style=""align-items: center; display: flex; color: dodgerblue; font-size: 90px""><b>o</b></div>","null","","","","forget_cue","","","","","","","","","","","","","","","",""
"html-keyboard-response","136","701936","0.0-4.0-1.0-0.6","52pet1mlo7bbkqp","prime","5ef39889a60ba311a96059ed","5f60e3c0a3b16e07647b2ff9","5f64c934046781031cfb54a4","false","null","<span style=""color: black; font-size: 48px"">M + N</span>","null","","","","resp_prompt","","","","","","","","","","","","","","","",""
"categorize-image","137","703044","0.0-4.0-1.0-1.6","52pet1mlo7bbkqp","prime","5ef39889a60ba311a96059ed","5f60e3c0a3b16e07647b2ff9","5f64c934046781031cfb54a4","true","1103.8549999939278","./Stimuli/SelectedImages/SM/SM148.bmp","83","","","","test","true","M + N","83","repetition","SM","SM148.bmp","remember","","55","3","prime1","left","","","",""
"html-keyboard-response","138","705047","0.0-4.0-1.0-3.6","52pet1mlo7bbkqp","prime","5ef39889a60ba311a96059ed","5f60e3c0a3b16e07647b2ff9","5f64c934046781031cfb54a4","false","null","<div style=""align-items: center; display: flex; color: dodgerblue; font-size: 90px""><b>o</b></div>","null","","","","forget_cue","","","","","","","","","","","","","","","",""
"html-keyboard-response","139","705753","0.0-4.0-1.0-0.7","52pet1mlo7bbkqp","prime","5ef39889a60ba311a96059ed","5f60e3c0a3b16e07647b2ff9","5f64c934046781031cfb54a4","false","null","<span style=""color: black; font-size: 48px"">N + M</span>","null","","","","resp_prompt","","","","","","","","","","","","","","","",""
"categorize-image","140","707210","0.0-4.0-1.0-1.7","52pet1mlo7bbkqp","prime","5ef39889a60ba311a96059ed","5f60e3c0a3b16e07647b2ff9","5f64c934046781031cfb54a4","true","1452.4449999444187","./Stimuli/SelectedImages/SM/SM108.bmp","76","","","","test","true","N + M","76","repetition","SM","SM108.bmp","remember","","56","3","prime1","right","","","",""
"html-keyboard-response","141","709213","0.0-4.0-1.0-3.7","52pet1mlo7bbkqp","prime","5ef39889a60ba311a96059ed","5f60e3c0a3b16e07647b2ff9","5f64c934046781031cfb54a4","false","null","<div style=""align-items: center; display: flex; color: dodgerblue; font-size: 90px""><b>o</b></div>","null","","","","forget_cue","","","","","","","","","","","","","","","",""
"html-keyboard-response","142","709915","0.0-4.0-1.0-0.8","52pet1mlo7bbkqp","prime","5ef39889a60ba311a96059ed","5f60e3c0a3b16e07647b2ff9","5f64c934046781031cfb54a4","false","null","<span style=""color: black; font-size: 48px"">N + M</span>","null","","","","resp_prompt","","","","","","","","","","","","","","","",""
"categorize-image","143","711410","0.0-4.0-1.0-1.8","52pet1mlo7bbkqp","prime","5ef39889a60ba311a96059ed","5f60e3c0a3b16e07647b2ff9","5f64c934046781031cfb54a4","true","1490.4200000455603","./Stimuli/SelectedImages/LN/LN92.bmp","83","","","","test","true","N + M","83","repetition","LN","LN92.bmp","remember","","57","3","prime1","left","","","",""
"html-keyboard-response","144","713414","0.0-4.0-1.0-3.8","52pet1mlo7bbkqp","prime","5ef39889a60ba311a96059ed","5f60e3c0a3b16e07647b2ff9","5f64c934046781031cfb54a4","false","null","<div style=""align-items: center; display: flex; color: dodgerblue; font-size: 90px""><b>o</b></div>","null","","","","forget_cue","","","","","","","","","","","","","","","",""
"html-keyboard-response","145","714118","0.0-4.0-1.0-0.9","52pet1mlo7bbkqp","prime","5ef39889a60ba311a96059ed","5f60e3c0a3b16e07647b2ff9","5f64c934046781031cfb54a4","false","null","<span style=""color: black; font-size: 48px"">M + N</span>","null","","","","resp_prompt","","","","","","","","","","","","","","","",""
"categorize-image","146","716072","0.0-4.0-1.0-1.9","52pet1mlo7bbkqp","prime","5ef39889a60ba311a96059ed","5f60e3c0a3b16e07647b2ff9","5f64c934046781031cfb54a4","true","1949.8250000178814","./Stimuli/SelectedImages/LN/LN9.bmp","76","","","","test","true","M + N","76","switch","LN","LN9.bmp","remember","","58","3","prime1","right","","","",""
"html-keyboard-response","147","718074","0.0-4.0-1.0-3.9","52pet1mlo7bbkqp","prime","5ef39889a60ba311a96059ed","5f60e3c0a3b16e07647b2ff9","5f64c934046781031cfb54a4","false","null","<div style=""align-items: center; display: flex; color: dodgerblue; font-size: 90px""><b>o</b></div>","null","","","","forget_cue","","","","","","","","","","","","","","","",""
"html-keyboard-response","148","718778","0.0-4.0-1.0-0.10","52pet1mlo7bbkqp","prime","5ef39889a60ba311a96059ed","5f60e3c0a3b16e07647b2ff9","5f64c934046781031cfb54a4","false","null","<span style=""color: black; font-size: 48px"">N + M</span>","null","","","","resp_prompt","","","","","","","","","","","","","","","",""
"categorize-image","149","719781","0.0-4.0-1.0-1.10","52pet1mlo7bbkqp","prime","5ef39889a60ba311a96059ed","5f60e3c0a3b16e07647b2ff9","5f64c934046781031cfb54a4","true","998.4199999598786","./Stimuli/SelectedImages/LM/LM59.bmp","76","","","","test","true","N + M","76","repetition","LM","LM59.bmp","forget","","59","3","prime1","right","","","",""
"html-keyboard-response","150","721786","0.0-4.0-1.0-3.10","52pet1mlo7bbkqp","prime","5ef39889a60ba311a96059ed","5f60e3c0a3b16e07647b2ff9","5f64c934046781031cfb54a4","false","null","<div style=""align-items: center; display: flex; color: darkorange; font-size: 90px""><b>ø</b></div>","null","","","","forget_cue","","","","","","","","","","","","","","","",""
"html-keyboard-response","151","722488","0.0-4.0-1.0-0.11","52pet1mlo7bbkqp","prime","5ef39889a60ba311a96059ed","5f60e3c0a3b16e07647b2ff9","5f64c934046781031cfb54a4","false","null","<span style=""color: black; font-size: 48px"">M + N</span>","null","","","","resp_prompt","","","","","","","","","","","","","","","",""
"categorize-image","152","724068","0.0-4.0-1.0-1.11","52pet1mlo7bbkqp","prime","5ef39889a60ba311a96059ed","5f60e3c0a3b16e07647b2ff9","5f64c934046781031cfb54a4","true","1575.8349999086931","./Stimuli/SelectedImages/SN/SN140.bmp","76","","","","test","true","M + N","76","switch","SN","SN140.bmp","forget","","60","3","prime1","right","","","",""
"html-keyboard-response","153","726069","0.0-4.0-1.0-3.11","52pet1mlo7bbkqp","prime","5ef39889a60ba311a96059ed","5f60e3c0a3b16e07647b2ff9","5f64c934046781031cfb54a4","false","null","<div style=""align-items: center; display: flex; color: darkorange; font-size: 90px""><b>ø</b></div>","null","","","","forget_cue","","","","","","","","","","","","","","","",""
"html-keyboard-response","154","726773","0.0-4.0-1.0-0.12","52pet1mlo7bbkqp","prime","5ef39889a60ba311a96059ed","5f60e3c0a3b16e07647b2ff9","5f64c934046781031cfb54a4","false","null","<span style=""color: black; font-size: 48px"">N + M</span>","null","","","","resp_prompt","","","","","","","","","","","","","","","",""
"categorize-image","155","727611","0.0-4.0-1.0-1.12","52pet1mlo7bbkqp","prime","5ef39889a60ba311a96059ed","5f60e3c0a3b16e07647b2ff9","5f64c934046781031cfb54a4","true","832.784999976866","./Stimuli/SelectedImages/LM/LM51.bmp","76","","","","test","true","N + M","76","repetition","LM","LM51.bmp","forget","","61","3","prime1","right","","","",""
"html-keyboard-response","156","729615","0.0-4.0-1.0-3.12","52pet1mlo7bbkqp","prime","5ef39889a60ba311a96059ed","5f60e3c0a3b16e07647b2ff9","5f64c934046781031cfb54a4","false","null","<div style=""align-items: center; display: flex; color: darkorange; font-size: 90px""><b>ø</b></div>","null","","","","forget_cue","","","","","","","","","","","","","","","",""
"html-keyboard-response","157","730320","0.0-4.0-1.0-0.13","52pet1mlo7bbkqp","prime","5ef39889a60ba311a96059ed","5f60e3c0a3b16e07647b2ff9","5f64c934046781031cfb54a4","false","null","<span style=""color: black; font-size: 48px"">M + N</span>","null","","","","resp_prompt","","","","","","","","","","","","","","","",""
"categorize-image","158","731614","0.0-4.0-1.0-1.13","52pet1mlo7bbkqp","prime","5ef39889a60ba311a96059ed","5f60e3c0a3b16e07647b2ff9","5f64c934046781031cfb54a4","true","1290.225000004284","./Stimuli/SelectedImages/LN/LN150.bmp","76","","","","test","true","M + N","76","switch","LN","LN150.bmp","forget","","62","3","prime1","right","","","",""
"html-keyboard-response","159","733621","0.0-4.0-1.0-3.13","52pet1mlo7bbkqp","prime","5ef39889a60ba311a96059ed","5f60e3c0a3b16e07647b2ff9","5f64c934046781031cfb54a4","false","null","<div style=""align-items: center; display: flex; color: darkorange; font-size: 90px""><b>ø</b></div>","null","","","","forget_cue","","","","","","","","","","","","","","","",""
"html-keyboard-response","160","734323","0.0-4.0-1.0-0.14","52pet1mlo7bbkqp","prime","5ef39889a60ba311a96059ed","5f60e3c0a3b16e07647b2ff9","5f64c934046781031cfb54a4","false","null","<span style=""color: black; font-size: 48px"">M + N</span>","null","","","","resp_prompt","","","","","","","","","","","","","","","",""
"categorize-image","161","735463","0.0-4.0-1.0-1.14","52pet1mlo7bbkqp","prime","5ef39889a60ba311a96059ed","5f60e3c0a3b16e07647b2ff9","5f64c934046781031cfb54a4","true","1134.2850000364706","./Stimuli/SelectedImages/SN/SN181.bmp","76","","","","test","true","M + N","76","repetition","SN","SN181.bmp","remember","","63","3","prime1","right","","","",""
"html-keyboard-response","162","737468","0.0-4.0-1.0-3.14","52pet1mlo7bbkqp","prime","5ef39889a60ba311a96059ed","5f60e3c0a3b16e07647b2ff9","5f64c934046781031cfb54a4","false","null","<div style=""align-items: center; display: flex; color: dodgerblue; font-size: 90px""><b>o</b></div>","null","","","","forget_cue","","","","","","","","","","","","","","","",""
"html-keyboard-response","163","738170","0.0-4.0-1.0-0.15","52pet1mlo7bbkqp","prime","5ef39889a60ba311a96059ed","5f60e3c0a3b16e07647b2ff9","5f64c934046781031cfb54a4","false","null","<span style=""color: black; font-size: 48px"">N + M</span>","null","","","","resp_prompt","","","","","","","","","","","","","","","",""
"categorize-image","164","738804","0.0-4.0-1.0-1.15","52pet1mlo7bbkqp","prime","5ef39889a60ba311a96059ed","5f60e3c0a3b16e07647b2ff9","5f64c934046781031cfb54a4","true","630.0000000046566","./Stimuli/SelectedImages/SN/SN182.bmp","83","","","","test","true","N + M","83","repetition","SN","SN182.bmp","forget","","64","3","prime1","left","","","",""
"html-keyboard-response","165","740806","0.0-4.0-1.0-3.15","52pet1mlo7bbkqp","prime","5ef39889a60ba311a96059ed","5f60e3c0a3b16e07647b2ff9","5f64c934046781031cfb54a4","false","null","<div style=""align-items: center; display: flex; color: darkorange; font-size: 90px""><b>ø</b></div>","null","","","","forget_cue","","","","","","","","","","","","","","","",""
"html-keyboard-response","166","741507","0.0-4.0-1.0-0.16","52pet1mlo7bbkqp","prime","5ef39889a60ba311a96059ed","5f60e3c0a3b16e07647b2ff9","5f64c934046781031cfb54a4","false","null","<span style=""color: black; font-size: 48px"">N + M</span>","null","","","","resp_prompt","","","","","","","","","","","","","","","",""
"categorize-image","167","742591","0.0-4.0-1.0-1.16","52pet1mlo7bbkqp","prime","5ef39889a60ba311a96059ed","5f60e3c0a3b16e07647b2ff9","5f64c934046781031cfb54a4","true","1079.524999950081","./Stimuli/SelectedImages/SN/SN179.bmp","83","","","","test","true","N + M","83","repetition","SN","SN179.bmp","remember","","65","3","prime1","left","","","",""
"html-keyboard-response","168","744597","0.0-4.0-1.0-3.16","52pet1mlo7bbkqp","prime","5ef39889a60ba311a96059ed","5f60e3c0a3b16e07647b2ff9","5f64c934046781031cfb54a4","false","null","<div style=""align-items: center; display: flex; color: dodgerblue; font-size: 90px""><b>o</b></div>","null","","","","forget_cue","","","","","","","","","","","","","","","",""
"html-keyboard-response","169","745303","0.0-4.0-1.0-0.17","52pet1mlo7bbkqp","prime","5ef39889a60ba311a96059ed","5f60e3c0a3b16e07647b2ff9","5f64c934046781031cfb54a4","false","null","<span style=""color: black; font-size: 48px"">N + M</span>","null","","","","resp_prompt","","","","","","","","","","","","","","","",""
"categorize-image","170","746762","0.0-4.0-1.0-1.17","52pet1mlo7bbkqp","prime","5ef39889a60ba311a96059ed","5f60e3c0a3b16e07647b2ff9","5f64c934046781031cfb54a4","true","1454.784999950789","./Stimuli/SelectedImages/SN/SN64.bmp","83","","","","test","true","N + M","83","switch","SN","SN64.bmp","remember","","66","3","prime1","left","","","",""
"html-keyboard-response","171","748768","0.0-4.0-1.0-3.17","52pet1mlo7bbkqp","prime","5ef39889a60ba311a96059ed","5f60e3c0a3b16e07647b2ff9","5f64c934046781031cfb54a4","false","null","<div style=""align-items: center; display: flex; color: dodgerblue; font-size: 90px""><b>o</b></div>","null","","","","forget_cue","","","","","","","","","","","","","","","",""
"html-keyboard-response","172","749470","0.0-4.0-1.0-0.18","52pet1mlo7bbkqp","prime","5ef39889a60ba311a96059ed","5f60e3c0a3b16e07647b2ff9","5f64c934046781031cfb54a4","false","null","<span style=""color: black; font-size: 48px"">M + N</span>","null","","","","resp_prompt","","","","","","","","","","","","","","","",""
"categorize-image","173","750474","0.0-4.0-1.0-1.18","52pet1mlo7bbkqp","prime","5ef39889a60ba311a96059ed","5f60e3c0a3b16e07647b2ff9","5f64c934046781031cfb54a4","true","998.810000019148","./Stimuli/SelectedImages/LM/LM157.bmp","83","","","","test","true","M + N","83","switch","LM","LM157.bmp","forget","","67","3","prime1","left","","","",""
"html-keyboard-response","174","752478","0.0-4.0-1.0-3.18","52pet1mlo7bbkqp","prime","5ef39889a60ba311a96059ed","5f60e3c0a3b16e07647b2ff9","5f64c934046781031cfb54a4","false","null","<div style=""align-items: center; display: flex; color: darkorange; font-size: 90px""><b>ø</b></div>","null","","","","forget_cue","","","","","","","","","","","","","","","",""
"html-keyboard-response","175","753185","0.0-4.0-1.0-0.19","52pet1mlo7bbkqp","prime","5ef39889a60ba311a96059ed","5f60e3c0a3b16e07647b2ff9","5f64c934046781031cfb54a4","false","null","<span style=""color: black; font-size: 48px"">N + M</span>","null","","","","resp_prompt","","","","","","","","","","","","","","","",""
"categorize-image","176","754499","0.0-4.0-1.0-1.19","52pet1mlo7bbkqp","prime","5ef39889a60ba311a96059ed","5f60e3c0a3b16e07647b2ff9","5f64c934046781031cfb54a4","true","1309.679999947548","./Stimuli/SelectedImages/LN/LN42.bmp","83","","","","test","true","N + M","83","switch","LN","LN42.bmp","forget","","68","3","prime1","left","","","",""
"html-keyboard-response","177","756502","0.0-4.0-1.0-3.19","52pet1mlo7bbkqp","prime","5ef39889a60ba311a96059ed","5f60e3c0a3b16e07647b2ff9","5f64c934046781031cfb54a4","false","null","<div style=""align-items: center; display: flex; color: darkorange; font-size: 90px""><b>ø</b></div>","null","","","","forget_cue","","","","","","","","","","","","","","","",""
"html-keyboard-response","178","757207","0.0-4.0-1.0-0.20","52pet1mlo7bbkqp","prime","5ef39889a60ba311a96059ed","5f60e3c0a3b16e07647b2ff9","5f64c934046781031cfb54a4","false","null","<span style=""color: black; font-size: 48px"">M + N</span>","null","","","","resp_prompt","","","","","","","","","","","","","","","",""
"categorize-image","179","758238","0.0-4.0-1.0-1.20","52pet1mlo7bbkqp","prime","5ef39889a60ba311a96059ed","5f60e3c0a3b16e07647b2ff9","5f64c934046781031cfb54a4","true","1026.6399999381974","./Stimuli/SelectedImages/LM/LM167.bmp","83","","","","test","true","M + N","83","repetition","LM","LM167.bmp","forget","","69","3","prime1","left","","","",""
"html-keyboard-response","180","760244","0.0-4.0-1.0-3.20","52pet1mlo7bbkqp","prime","5ef39889a60ba311a96059ed","5f60e3c0a3b16e07647b2ff9","5f64c934046781031cfb54a4","false","null","<div style=""align-items: center; display: flex; color: darkorange; font-size: 90px""><b>ø</b></div>","null","","","","forget_cue","","","","","","","","","","","","","","","",""
"html-keyboard-response","181","760946","0.0-4.0-1.0-0.21","52pet1mlo7bbkqp","prime","5ef39889a60ba311a96059ed","5f60e3c0a3b16e07647b2ff9","5f64c934046781031cfb54a4","false","null","<span style=""color: black; font-size: 48px"">N + M</span>","null","","","","resp_prompt","","","","","","","","","","","","","","","",""
"categorize-image","182","762347","0.0-4.0-1.0-1.21","52pet1mlo7bbkqp","prime","5ef39889a60ba311a96059ed","5f60e3c0a3b16e07647b2ff9","5f64c934046781031cfb54a4","true","1396.2850000243634","./Stimuli/SelectedImages/SM/SM200.bmp","76","","","","test","true","N + M","76","switch","SM","SM200.bmp","forget","","70","3","prime1","right","","","",""
"html-keyboard-response","183","764350","0.0-4.0-1.0-3.21","52pet1mlo7bbkqp","prime","5ef39889a60ba311a96059ed","5f60e3c0a3b16e07647b2ff9","5f64c934046781031cfb54a4","false","null","<div style=""align-items: center; display: flex; color: darkorange; font-size: 90px""><b>ø</b></div>","null","","","","forget_cue","","","","","","","","","","","","","","","",""
"html-keyboard-response","184","765056","0.0-4.0-1.0-0.22","52pet1mlo7bbkqp","prime","5ef39889a60ba311a96059ed","5f60e3c0a3b16e07647b2ff9","5f64c934046781031cfb54a4","false","null","<span style=""color: black; font-size: 48px"">M + N</span>","null","","","","resp_prompt","","","","","","","","","","","","","","","",""
"categorize-image","185","766192","0.0-4.0-1.0-1.22","52pet1mlo7bbkqp","prime","5ef39889a60ba311a96059ed","5f60e3c0a3b16e07647b2ff9","5f64c934046781031cfb54a4","true","1132.6249999692664","./Stimuli/SelectedImages/SM/SM207.bmp","83","","","","test","true","M + N","83","repetition","SM","SM207.bmp","forget","","71","3","prime1","left","","","",""
"html-keyboard-response","186","768194","0.0-4.0-1.0-3.22","52pet1mlo7bbkqp","prime","5ef39889a60ba311a96059ed","5f60e3c0a3b16e07647b2ff9","5f64c934046781031cfb54a4","false","null","<div style=""align-items: center; display: flex; color: darkorange; font-size: 90px""><b>ø</b></div>","null","","","","forget_cue","","","","","","","","","","","","","","","",""
"html-keyboard-response","187","768899","0.0-4.0-1.0-0.23","52pet1mlo7bbkqp","prime","5ef39889a60ba311a96059ed","5f60e3c0a3b16e07647b2ff9","5f64c934046781031cfb54a4","false","null","<span style=""color: black; font-size: 48px"">N + M</span>","null","","","","resp_prompt","","","","","","","","","","","","","","","",""
"categorize-image","188","770233","0.0-4.0-1.0-1.23","52pet1mlo7bbkqp","prime","5ef39889a60ba311a96059ed","5f60e3c0a3b16e07647b2ff9","5f64c934046781031cfb54a4","true","1328.8249999750406","./Stimuli/SelectedImages/LN/LN28.bmp","83","","","","test","true","N + M","83","switch","LN","LN28.bmp","forget","","72","3","prime1","left","","","",""
"html-keyboard-response","189","772238","0.0-4.0-1.0-3.23","52pet1mlo7bbkqp","prime","5ef39889a60ba311a96059ed","5f60e3c0a3b16e07647b2ff9","5f64c934046781031cfb54a4","false","null","<div style=""align-items: center; display: flex; color: darkorange; font-size: 90px""><b>ø</b></div>","null","","","","forget_cue","","","","","","","","","","","","","","","",""
"html-keyboard-response","190","772943","0.0-4.0-1.0-0.24","52pet1mlo7bbkqp","prime","5ef39889a60ba311a96059ed","5f60e3c0a3b16e07647b2ff9","5f64c934046781031cfb54a4","false","null","<span style=""color: black; font-size: 48px"">N + M</span>","null","","","","resp_prompt","","","","","","","","","","","","","","","",""
"categorize-image","191","774077","0.0-4.0-1.0-1.24","52pet1mlo7bbkqp","prime","5ef39889a60ba311a96059ed","5f60e3c0a3b16e07647b2ff9","5f64c934046781031cfb54a4","true","1129.2250000406057","./Stimuli/SelectedImages/LM/LM103.bmp","76","","","","test","true","N + M","76","switch","LM","LM103.bmp","forget","","73","3","prime1","right","","","",""
"html-keyboard-response","192","776083","0.0-4.0-1.0-3.24","52pet1mlo7bbkqp","prime","5ef39889a60ba311a96059ed","5f60e3c0a3b16e07647b2ff9","5f64c934046781031cfb54a4","false","null","<div style=""align-items: center; display: flex; color: darkorange; font-size: 90px""><b>ø</b></div>","null","","","","forget_cue","","","","","","","","","","","","","","","",""
"html-keyboard-response","193","776786","0.0-4.0-1.0-0.25","52pet1mlo7bbkqp","prime","5ef39889a60ba311a96059ed","5f60e3c0a3b16e07647b2ff9","5f64c934046781031cfb54a4","false","null","<span style=""color: black; font-size: 48px"">N + M</span>","null","","","","resp_prompt","","","","","","","","","","","","","","","",""
"categorize-image","194","777576","0.0-4.0-1.0-1.25","52pet1mlo7bbkqp","prime","5ef39889a60ba311a96059ed","5f60e3c0a3b16e07647b2ff9","5f64c934046781031cfb54a4","true","785.4900000384077","./Stimuli/SelectedImages/LN/LN131.bmp","83","","","","test","true","N + M","83","repetition","LN","LN131.bmp","forget","","74","3","prime1","left","","","",""
"html-keyboard-response","195","779578","0.0-4.0-1.0-3.25","52pet1mlo7bbkqp","prime","5ef39889a60ba311a96059ed","5f60e3c0a3b16e07647b2ff9","5f64c934046781031cfb54a4","false","null","<div style=""align-items: center; display: flex; color: darkorange; font-size: 90px""><b>ø</b></div>","null","","","","forget_cue","","","","","","","","","","","","","","","",""
"html-keyboard-response","196","780282","0.0-4.0-1.0-0.26","52pet1mlo7bbkqp","prime","5ef39889a60ba311a96059ed","5f60e3c0a3b16e07647b2ff9","5f64c934046781031cfb54a4","false","null","<span style=""color: black; font-size: 48px"">N + M</span>","null","","","","resp_prompt","","","","","","","","","","","","","","","",""
"categorize-image","197","781504","0.0-4.0-1.0-1.26","52pet1mlo7bbkqp","prime","5ef39889a60ba311a96059ed","5f60e3c0a3b16e07647b2ff9","5f64c934046781031cfb54a4","true","1217.769999988377","./Stimuli/SelectedImages/LM/LM209.bmp","76","","","","test","true","N + M","76","switch","LM","LM209.bmp","forget","","75","3","prime1","right","","","",""
"html-keyboard-response","198","783507","0.0-4.0-1.0-3.26","52pet1mlo7bbkqp","prime","5ef39889a60ba311a96059ed","5f60e3c0a3b16e07647b2ff9","5f64c934046781031cfb54a4","false","null","<div style=""align-items: center; display: flex; color: darkorange; font-size: 90px""><b>ø</b></div>","null","","","","forget_cue","","","","","","","","","","","","","","","",""
"html-keyboard-response","199","784213","0.0-4.0-1.0-0.27","52pet1mlo7bbkqp","prime","5ef39889a60ba311a96059ed","5f60e3c0a3b16e07647b2ff9","5f64c934046781031cfb54a4","false","null","<span style=""color: black; font-size: 48px"">M + N</span>","null","","","","resp_prompt","","","","","","","","","","","","","","","",""
"categorize-image","200","786052","0.0-4.0-1.0-1.27","52pet1mlo7bbkqp","prime","5ef39889a60ba311a96059ed","5f60e3c0a3b16e07647b2ff9","5f64c934046781031cfb54a4","true","1834.6250000176951","./Stimuli/SelectedImages/LM/LM129.bmp","83","","","","test","true","M + N","83","switch","LM","LM129.bmp","remember","","76","3","prime1","left","","","",""
"html-keyboard-response","201","788056","0.0-4.0-1.0-3.27","52pet1mlo7bbkqp","prime","5ef39889a60ba311a96059ed","5f60e3c0a3b16e07647b2ff9","5f64c934046781031cfb54a4","false","null","<div style=""align-items: center; display: flex; color: dodgerblue; font-size: 90px""><b>o</b></div>","null","","","","forget_cue","","","","","","","","","","","","","","","",""
"html-keyboard-response","202","788762","0.0-4.0-1.0-0.28","52pet1mlo7bbkqp","prime","5ef39889a60ba311a96059ed","5f60e3c0a3b16e07647b2ff9","5f64c934046781031cfb54a4","false","null","<span style=""color: black; font-size: 48px"">N + M</span>","null","","","","resp_prompt","","","","","","","","","","","","","","","",""
"categorize-image","203","789929","0.0-4.0-1.0-1.28","52pet1mlo7bbkqp","prime","5ef39889a60ba311a96059ed","5f60e3c0a3b16e07647b2ff9","5f64c934046781031cfb54a4","true","1161.9250000221655","./Stimuli/SelectedImages/LM/LM179.bmp","76","","","","test","true","N + M","76","repetition","LM","LM179.bmp","remember","","77","3","prime1","right","","","",""
"html-keyboard-response","204","791935","0.0-4.0-1.0-3.28","52pet1mlo7bbkqp","prime","5ef39889a60ba311a96059ed","5f60e3c0a3b16e07647b2ff9","5f64c934046781031cfb54a4","false","null","<div style=""align-items: center; display: flex; color: dodgerblue; font-size: 90px""><b>o</b></div>","null","","","","forget_cue","","","","","","","","","","","","","","","",""
"html-keyboard-response","205","792637","0.0-4.0-1.0-0.29","52pet1mlo7bbkqp","prime","5ef39889a60ba311a96059ed","5f60e3c0a3b16e07647b2ff9","5f64c934046781031cfb54a4","false","null","<span style=""color: black; font-size: 48px"">M + N</span>","null","","","","resp_prompt","","","","","","","","","","","","","","","",""
"categorize-image","206","793526","0.0-4.0-1.0-1.29","52pet1mlo7bbkqp","prime","5ef39889a60ba311a96059ed","5f60e3c0a3b16e07647b2ff9","5f64c934046781031cfb54a4","true","884.5699999947101","./Stimuli/SelectedImages/LM/LM216.bmp","83","","","","test","true","M + N","83","repetition","LM","LM216.bmp","forget","","78","3","prime1","left","","","",""
"html-keyboard-response","207","795528","0.0-4.0-1.0-3.29","52pet1mlo7bbkqp","prime","5ef39889a60ba311a96059ed","5f60e3c0a3b16e07647b2ff9","5f64c934046781031cfb54a4","false","null","<div style=""align-items: center; display: flex; color: darkorange; font-size: 90px""><b>ø</b></div>","null","","","","forget_cue","","","","","","","","","","","","","","","",""
"html-keyboard-response","208","796234","0.0-4.0-1.0-0.30","52pet1mlo7bbkqp","prime","5ef39889a60ba311a96059ed","5f60e3c0a3b16e07647b2ff9","5f64c934046781031cfb54a4","false","null","<span style=""color: black; font-size: 48px"">M + N</span>","null","","","","resp_prompt","","","","","","","","","","","","","","","",""
"categorize-image","209","797804","0.0-4.0-1.0-1.30","52pet1mlo7bbkqp","prime","5ef39889a60ba311a96059ed","5f60e3c0a3b16e07647b2ff9","5f64c934046781031cfb54a4","true","1567.1249999431893","./Stimuli/SelectedImages/LN/LN82.bmp","76","","","","test","true","M + N","76","switch","LN","LN82.bmp","forget","","79","3","prime1","right","","","",""
"html-keyboard-response","210","799810","0.0-4.0-1.0-3.30","52pet1mlo7bbkqp","prime","5ef39889a60ba311a96059ed","5f60e3c0a3b16e07647b2ff9","5f64c934046781031cfb54a4","false","null","<div style=""align-items: center; display: flex; color: darkorange; font-size: 90px""><b>ø</b></div>","null","","","","forget_cue","","","","","","","","","","","","","","","",""
"html-keyboard-response","211","800514","0.0-4.0-1.0-0.31","52pet1mlo7bbkqp","prime","5ef39889a60ba311a96059ed","5f60e3c0a3b16e07647b2ff9","5f64c934046781031cfb54a4","false","null","<span style=""color: black; font-size: 48px"">M + N</span>","null","","","","resp_prompt","","","","","","","","","","","","","","","",""
"categorize-image","212","801227","0.0-4.0-1.0-1.31","52pet1mlo7bbkqp","prime","5ef39889a60ba311a96059ed","5f60e3c0a3b16e07647b2ff9","5f64c934046781031cfb54a4","true","708.5949999745935","./Stimuli/SelectedImages/LM/LM58.bmp","83","","","","test","true","M + N","83","switch","LM","LM58.bmp","remember","","80","3","prime1","left","","","",""
"html-keyboard-response","213","803229","0.0-4.0-1.0-3.31","52pet1mlo7bbkqp","prime","5ef39889a60ba311a96059ed","5f60e3c0a3b16e07647b2ff9","5f64c934046781031cfb54a4","false","null","<div style=""align-items: center; display: flex; color: dodgerblue; font-size: 90px""><b>o</b></div>","null","","","","forget_cue","","","","","","","","","","","","","","","",""
"html-keyboard-response","214","803934","0.0-4.0-1.0-0.32","52pet1mlo7bbkqp","prime","5ef39889a60ba311a96059ed","5f60e3c0a3b16e07647b2ff9","5f64c934046781031cfb54a4","false","null","<span style=""color: black; font-size: 48px"">M + N</span>","null","","","","resp_prompt","","","","","","","","","","","","","","","",""
"categorize-image","215","804879","0.0-4.0-1.0-1.32","52pet1mlo7bbkqp","prime","5ef39889a60ba311a96059ed","5f60e3c0a3b16e07647b2ff9","5f64c934046781031cfb54a4","true","941.0149999894202","./Stimuli/SelectedImages/LN/LN101.bmp","76","","","","test","true","M + N","76","repetition","LN","LN101.bmp","forget","","81","3","prime1","right","","","",""
"html-keyboard-response","216","806884","0.0-4.0-1.0-3.32","52pet1mlo7bbkqp","prime","5ef39889a60ba311a96059ed","5f60e3c0a3b16e07647b2ff9","5f64c934046781031cfb54a4","false","null","<div style=""align-items: center; display: flex; color: darkorange; font-size: 90px""><b>ø</b></div>","null","","","","forget_cue","","","","","","","","","","","","","","","",""
"html-keyboard-response","217","807587","0.0-4.0-1.0-0.33","52pet1mlo7bbkqp","prime","5ef39889a60ba311a96059ed","5f60e3c0a3b16e07647b2ff9","5f64c934046781031cfb54a4","false","null","<span style=""color: black; font-size: 48px"">M + N</span>","null","","","","resp_prompt","","","","","","","","","","","","","","","",""
"categorize-image","218","808653","0.0-4.0-1.0-1.33","52pet1mlo7bbkqp","prime","5ef39889a60ba311a96059ed","5f60e3c0a3b16e07647b2ff9","5f64c934046781031cfb54a4","true","1061.4550000755116","./Stimuli/SelectedImages/SM/SM24.bmp","83","","","","test","true","M + N","83","switch","SM","SM24.bmp","forget","","82","3","prime1","left","","","",""
"html-keyboard-response","219","810655","0.0-4.0-1.0-3.33","52pet1mlo7bbkqp","prime","5ef39889a60ba311a96059ed","5f60e3c0a3b16e07647b2ff9","5f64c934046781031cfb54a4","false","null","<div style=""align-items: center; display: flex; color: darkorange; font-size: 90px""><b>ø</b></div>","null","","","","forget_cue","","","","","","","","","","","","","","","",""
"html-keyboard-response","220","811361","0.0-4.0-1.0-0.34","52pet1mlo7bbkqp","prime","5ef39889a60ba311a96059ed","5f60e3c0a3b16e07647b2ff9","5f64c934046781031cfb54a4","false","null","<span style=""color: black; font-size: 48px"">N + M</span>","null","","","","resp_prompt","","","","","","","","","","","","","","","",""
"categorize-image","221","812802","0.0-4.0-1.0-1.34","52pet1mlo7bbkqp","prime","5ef39889a60ba311a96059ed","5f60e3c0a3b16e07647b2ff9","5f64c934046781031cfb54a4","true","1437.3149999883026","./Stimuli/SelectedImages/SM/SM205.bmp","76","","","","test","true","N + M","76","repetition","SM","SM205.bmp","forget","","83","3","prime1","right","","","",""
"html-keyboard-response","222","814805","0.0-4.0-1.0-3.34","52pet1mlo7bbkqp","prime","5ef39889a60ba311a96059ed","5f60e3c0a3b16e07647b2ff9","5f64c934046781031cfb54a4","false","null","<div style=""align-items: center; display: flex; color: darkorange; font-size: 90px""><b>ø</b></div>","null","","","","forget_cue","","","","","","","","","","","","","","","",""
"html-keyboard-response","223","815510","0.0-4.0-1.0-0.35","52pet1mlo7bbkqp","prime","5ef39889a60ba311a96059ed","5f60e3c0a3b16e07647b2ff9","5f64c934046781031cfb54a4","false","null","<span style=""color: black; font-size: 48px"">N + M</span>","null","","","","resp_prompt","","","","","","","","","","","","","","","",""
"categorize-image","224","816309","0.0-4.0-1.0-1.35","52pet1mlo7bbkqp","prime","5ef39889a60ba311a96059ed","5f60e3c0a3b16e07647b2ff9","5f64c934046781031cfb54a4","true","794.9500000104308","./Stimuli/SelectedImages/SN/SN111.bmp","83","","","","test","true","N + M","83","repetition","SN","SN111.bmp","forget","","84","3","prime1","left","","","",""
"html-keyboard-response","225","818314","0.0-4.0-1.0-3.35","52pet1mlo7bbkqp","prime","5ef39889a60ba311a96059ed","5f60e3c0a3b16e07647b2ff9","5f64c934046781031cfb54a4","false","null","<div style=""align-items: center; display: flex; color: darkorange; font-size: 90px""><b>ø</b></div>","null","","","","forget_cue","","","","","","","","","","","","","","","",""
"html-keyboard-response","226","819019","0.0-4.0-1.0-0.36","52pet1mlo7bbkqp","prime","5ef39889a60ba311a96059ed","5f60e3c0a3b16e07647b2ff9","5f64c934046781031cfb54a4","false","null","<span style=""color: black; font-size: 48px"">N + M</span>","null","","","","resp_prompt","","","","","","","","","","","","","","","",""
"categorize-image","227","819761","0.0-4.0-1.0-1.36","52pet1mlo7bbkqp","prime","5ef39889a60ba311a96059ed","5f60e3c0a3b16e07647b2ff9","5f64c934046781031cfb54a4","true","737.9100000252947","./Stimuli/SelectedImages/SN/SN240.bmp","83","","","","test","true","N + M","83","repetition","SN","SN240.bmp","remember","","85","3","prime1","left","","","",""
"html-keyboard-response","228","821767","0.0-4.0-1.0-3.36","52pet1mlo7bbkqp","prime","5ef39889a60ba311a96059ed","5f60e3c0a3b16e07647b2ff9","5f64c934046781031cfb54a4","false","null","<div style=""align-items: center; display: flex; color: dodgerblue; font-size: 90px""><b>o</b></div>","null","","","","forget_cue","","","","","","","","","","","","","","","",""
"html-keyboard-response","229","822469","0.0-4.0-1.0-0.37","52pet1mlo7bbkqp","prime","5ef39889a60ba311a96059ed","5f60e3c0a3b16e07647b2ff9","5f64c934046781031cfb54a4","false","null","<span style=""color: black; font-size: 48px"">M + N</span>","null","","","","resp_prompt","","","","","","","","","","","","","","","",""
"categorize-image","230","823605","0.0-4.0-1.0-1.37","52pet1mlo7bbkqp","prime","5ef39889a60ba311a96059ed","5f60e3c0a3b16e07647b2ff9","5f64c934046781031cfb54a4","true","1132.8499999362975","./Stimuli/SelectedImages/SN/SN93.bmp","76","","","","test","true","M + N","76","repetition","SN","SN93.bmp","forget","","86","3","prime1","right","","","",""
"html-keyboard-response","231","825610","0.0-4.0-1.0-3.37","52pet1mlo7bbkqp","prime","5ef39889a60ba311a96059ed","5f60e3c0a3b16e07647b2ff9","5f64c934046781031cfb54a4","false","null","<div style=""align-items: center; display: flex; color: darkorange; font-size: 90px""><b>ø</b></div>","null","","","","forget_cue","","","","","","","","","","","","","","","",""
"html-keyboard-response","232","826315","0.0-4.0-1.0-0.38","52pet1mlo7bbkqp","prime","5ef39889a60ba311a96059ed","5f60e3c0a3b16e07647b2ff9","5f64c934046781031cfb54a4","false","null","<span style=""color: black; font-size: 48px"">N + M</span>","null","","","","resp_prompt","","","","","","","","","","","","","","","",""
"categorize-image","233","827216","0.0-4.0-1.0-1.38","52pet1mlo7bbkqp","prime","5ef39889a60ba311a96059ed","5f60e3c0a3b16e07647b2ff9","5f64c934046781031cfb54a4","true","896.7750000301749","./Stimuli/SelectedImages/LN/LN111.bmp","83","","","","test","true","N + M","83","switch","LN","LN111.bmp","remember","","87","3","prime1","left","","","",""
"html-keyboard-response","234","829222","0.0-4.0-1.0-3.38","52pet1mlo7bbkqp","prime","5ef39889a60ba311a96059ed","5f60e3c0a3b16e07647b2ff9","5f64c934046781031cfb54a4","false","null","<div style=""align-items: center; display: flex; color: dodgerblue; font-size: 90px""><b>o</b></div>","null","","","","forget_cue","","","","","","","","","","","","","","","",""
"html-keyboard-response","235","829925","0.0-4.0-1.0-0.39","52pet1mlo7bbkqp","prime","5ef39889a60ba311a96059ed","5f60e3c0a3b16e07647b2ff9","5f64c934046781031cfb54a4","false","null","<span style=""color: black; font-size: 48px"">M + N</span>","null","","","","resp_prompt","","","","","","","","","","","","","","","",""
"categorize-image","236","830921","0.0-4.0-1.0-1.39","52pet1mlo7bbkqp","prime","5ef39889a60ba311a96059ed","5f60e3c0a3b16e07647b2ff9","5f64c934046781031cfb54a4","true","991.4349999744445","./Stimuli/SelectedImages/SM/SM184.bmp","83","","","","test","true","M + N","83","switch","SM","SM184.bmp","forget","","88","3","prime1","left","","","",""
"html-keyboard-response","237","832927","0.0-4.0-1.0-3.39","52pet1mlo7bbkqp","prime","5ef39889a60ba311a96059ed","5f60e3c0a3b16e07647b2ff9","5f64c934046781031cfb54a4","false","null","<div style=""align-items: center; display: flex; color: darkorange; font-size: 90px""><b>ø</b></div>","null","","","","forget_cue","","","","","","","","","","","","","","","",""
"html-keyboard-response","238","833633","0.0-4.0-1.0-0.40","52pet1mlo7bbkqp","prime","5ef39889a60ba311a96059ed","5f60e3c0a3b16e07647b2ff9","5f64c934046781031cfb54a4","false","null","<span style=""color: black; font-size: 48px"">M + N</span>","null","","","","resp_prompt","","","","","","","","","","","","","","","",""
"categorize-image","239","834514","0.0-4.0-1.0-1.40","52pet1mlo7bbkqp","prime","5ef39889a60ba311a96059ed","5f60e3c0a3b16e07647b2ff9","5f64c934046781031cfb54a4","true","876.6549999127164","./Stimuli/SelectedImages/SM/SM78.bmp","83","","","","test","true","M + N","83","switch","SM","SM78.bmp","remember","","89","3","prime1","left","","","",""
"html-keyboard-response","240","836515","0.0-4.0-1.0-3.40","52pet1mlo7bbkqp","prime","5ef39889a60ba311a96059ed","5f60e3c0a3b16e07647b2ff9","5f64c934046781031cfb54a4","false","null","<div style=""align-items: center; display: flex; color: dodgerblue; font-size: 90px""><b>o</b></div>","null","","","","forget_cue","","","","","","","","","","","","","","","",""
"html-keyboard-response","241","837220","0.0-4.0-1.0-0.41","52pet1mlo7bbkqp","prime","5ef39889a60ba311a96059ed","5f60e3c0a3b16e07647b2ff9","5f64c934046781031cfb54a4","false","null","<span style=""color: black; font-size: 48px"">N + M</span>","null","","","","resp_prompt","","","","","","","","","","","","","","","",""
"categorize-image","242","838467","0.0-4.0-1.0-1.41","52pet1mlo7bbkqp","prime","5ef39889a60ba311a96059ed","5f60e3c0a3b16e07647b2ff9","5f64c934046781031cfb54a4","true","1243.460000026971","./Stimuli/SelectedImages/LM/LM57.bmp","76","","","","test","true","N + M","76","switch","LM","LM57.bmp","remember","","90","3","prime1","right","","","",""
"html-keyboard-response","243","840474","0.0-4.0-1.0-3.41","52pet1mlo7bbkqp","prime","5ef39889a60ba311a96059ed","5f60e3c0a3b16e07647b2ff9","5f64c934046781031cfb54a4","false","null","<div style=""align-items: center; display: flex; color: dodgerblue; font-size: 90px""><b>o</b></div>","null","","","","forget_cue","","","","","","","","","","","","","","","",""
"html-keyboard-response","244","841176","0.0-4.0-1.0-0.42","52pet1mlo7bbkqp","prime","5ef39889a60ba311a96059ed","5f60e3c0a3b16e07647b2ff9","5f64c934046781031cfb54a4","false","null","<span style=""color: black; font-size: 48px"">M + N</span>","null","","","","resp_prompt","","","","","","","","","","","","","","","",""
"categorize-image","245","842173","0.0-4.0-1.0-1.42","52pet1mlo7bbkqp","prime","5ef39889a60ba311a96059ed","5f60e3c0a3b16e07647b2ff9","5f64c934046781031cfb54a4","true","992.4900000914931","./Stimuli/SelectedImages/SN/SN128.bmp","76","","","","test","true","M + N","76","repetition","SN","SN128.bmp","forget","","91","3","prime1","right","","","",""
"html-keyboard-response","246","844180","0.0-4.0-1.0-3.42","52pet1mlo7bbkqp","prime","5ef39889a60ba311a96059ed","5f60e3c0a3b16e07647b2ff9","5f64c934046781031cfb54a4","false","null","<div style=""align-items: center; display: flex; color: darkorange; font-size: 90px""><b>ø</b></div>","null","","","","forget_cue","","","","","","","","","","","","","","","",""
"html-keyboard-response","247","844885","0.0-4.0-1.0-0.43","52pet1mlo7bbkqp","prime","5ef39889a60ba311a96059ed","5f60e3c0a3b16e07647b2ff9","5f64c934046781031cfb54a4","false","null","<span style=""color: black; font-size: 48px"">M + N</span>","null","","","","resp_prompt","","","","","","","","","","","","","","","",""
"categorize-image","248","845711","0.0-4.0-1.0-1.43","52pet1mlo7bbkqp","prime","5ef39889a60ba311a96059ed","5f60e3c0a3b16e07647b2ff9","5f64c934046781031cfb54a4","true","821.4150000130758","./Stimuli/SelectedImages/SN/SN18.bmp","76","","","","test","true","M + N","76","switch","SN","SN18.bmp","remember","","92","3","prime1","right","","","",""
"html-keyboard-response","249","847715","0.0-4.0-1.0-3.43","52pet1mlo7bbkqp","prime","5ef39889a60ba311a96059ed","5f60e3c0a3b16e07647b2ff9","5f64c934046781031cfb54a4","false","null","<div style=""align-items: center; display: flex; color: dodgerblue; font-size: 90px""><b>o</b></div>","null","","","","forget_cue","","","","","","","","","","","","","","","",""
"html-keyboard-response","250","848419","0.0-4.0-1.0-0.44","52pet1mlo7bbkqp","prime","5ef39889a60ba311a96059ed","5f60e3c0a3b16e07647b2ff9","5f64c934046781031cfb54a4","false","null","<span style=""color: black; font-size: 48px"">N + M</span>","null","","","","resp_prompt","","","","","","","","","","","","","","","",""
"categorize-image","251","849374","0.0-4.0-1.0-1.44","52pet1mlo7bbkqp","prime","5ef39889a60ba311a96059ed","5f60e3c0a3b16e07647b2ff9","5f64c934046781031cfb54a4","true","950.8650000207126","./Stimuli/SelectedImages/SM/SM73.bmp","76","","","","test","true","N + M","76","repetition","SM","SM73.bmp","remember","","93","3","prime1","right","","","",""
"html-keyboard-response","252","851377","0.0-4.0-1.0-3.44","52pet1mlo7bbkqp","prime","5ef39889a60ba311a96059ed","5f60e3c0a3b16e07647b2ff9","5f64c934046781031cfb54a4","false","null","<div style=""align-items: center; display: flex; color: dodgerblue; font-size: 90px""><b>o</b></div>","null","","","","forget_cue","","","","","","","","","","","","","","","",""
