"trial_type","trial_index","time_elapsed","internal_node_id","subject","exp_part","prolific_PID","study_ID","session_ID","use","rt","stimulus","key_press","button_pressed","responses","question_order","trial_part","correct","resp_map","correct_resp","probe_condition","category","image","forget_condition","list","trial_num","block_num","block","response","test_part","n_span","sequence","num_spaces"
"pavlovia","0","5","0.0-0.0","vdmh8f38faqz1kf","","5f22b315707c8a01e0ca7dc5","5f60e3c0a3b16e07647b2ff9","5f60ee139bbe2501bb76a207","false","","","","","","","","","","","","","","","","","","","","","","",""
"html-keyboard-response","1","20821","0.0-1.0-0.0-0.0","vdmh8f38faqz1kf","welcome","5f22b315707c8a01e0ca7dc5","5f60e3c0a3b16e07647b2ff9","5f60ee139bbe2501bb76a207","false","20812.989999999958","<div align=left>Dear participant, <br> thank you for participating in an online study of the Cognition, Action, and Sustainability Unit of the University of Freiburg! <br> <br>The aim of this study is to examine our ability to remember previously learned information. <br>Our goal is to find out, whether our memory improves, when we only remember information that is relevant to us. <br>The experiment will take about 35 minutes to complete. <br> <br>Please, note that you can only participate in this study if you are using a device with a keyboard (PC, Laptop etc.) <br>and not if you are using a mobile device such as a tablet or smartphone.<br> <br>Press 'SPACE' to proceed to the experiment. </div>","32","","","","","","","","","","","","","","","","","","","",""
"html-keyboard-response","2","22861","0.0-1.0-0.0-1.0","vdmh8f38faqz1kf","welcome","5f22b315707c8a01e0ca7dc5","5f60e3c0a3b16e07647b2ff9","5f60ee139bbe2501bb76a207","false","2038.2399999999725","<div align=left><strong> Time Course of this experiment: </strong> <br><br> <strong> 1.</strong>  First, please fill in some information regarding your demographic data. <br><br> <strong> 2.</strong>  Next, your task will be to classify everyday objects. <br>In addition, you will be asked to remember certain objects and recall them later. <br>Working on these tasks requires your undivided attention and concentration.<br>It is therefore essential that you eliminate any sources of distraction in your  <br>environment and ensure that you will not be disturbed. <br><br><strong> 3.</strong>  At the end of the experiment, you will be asked to answer a few additional questions. <br> <br><strong> Important:</strong> After finishing the experiment, only close the browser window <br> by clicking on the 'end the experiment'-button when you are asked to do so. <br>Closing the browser window prematurely will make the allocation of your participation credit impossible. <br><br> Press 'SPACE' to start the experiment. </div>","32","","","","","","","","","","","","","","","","","","","",""
"html-button-response","3","24756","0.0-1.0-0.0-2.0","vdmh8f38faqz1kf","welcome","5f22b315707c8a01e0ca7dc5","5f60e3c0a3b16e07647b2ff9","5f60ee139bbe2501bb76a207","true","1893.3250000000044","<div align=left><strong> Informed consent </strong>  <br>The aim of our research is to better understand human behavior and mental processes. <br>In the following study your behavior (e.g. choices, reaction times) will be studied. <br> <br><strong> Voluntariness and Anonymity </strong> <br>Your participation in this study is  <strong> voluntary</strong>.<br>You may withdraw your consent to participate at any time without providing a reason for doing so and without fear of prejudice. <br><br>As no personal data will be collected, <strong>your data and your person cannot be connected after data collection</strong> – the data-set is anonymous. <br>Respectively, deletion of your data will not be possible after data collection has been completed, as we cannot retrace your data-set.<br>The results and anonymized data collected in this study will be published as a scientific publication. <br>This will happen in an <strong>anonymized format</strong>, so that no data can be traced back to a specific person. <br> <br>The anonymized data of this study will be made available to other researchers and/or in a data archive on the Internet as a means of transparency and to enable subsequent re-use. By doing so, this study follows the recommendations of the Deutsche Forschungsgemeinschaft (DFG, German Research Foundation) and Deutsche Gesellschaft für Psychologie (DGPS, German Psychological Society) regarding quality assurance in research.<br>If you have any questions now or after the experiment, please contact our team (experiments@cs.uni-freiburg.de).<br><br><br>I hereby declare, that I understand the above described conditions of participation and I agree to participate under these conditions. <br><br> </div>","","0","","","","","","","","","","","","","","","","","","",""
"html-keyboard-response","4","26693","0.0-1.0-0.0-3.0","vdmh8f38faqz1kf","welcome","5f22b315707c8a01e0ca7dc5","5f60e3c0a3b16e07647b2ff9","5f60ee139bbe2501bb76a207","false","1935.564999999995","<div align=left><strong> General information concerning the experiment </strong>  <br> <br>Please follow the instructions:<ol> <li><strong> Do not leave this tab (your browser window) during the experiment and do not reload this tab! </strong>  <br>If you do switch tabs/windows during the experiment (to check your mail or visit another website, for example), <br>the experiment will end automatically and you will <strong>not receive credit</strong> for your participation. <br>Repeated participation or resumption of the experiment is impossible.</li> <br><li>Please close all other programs for the duration of your participation. </li> <br><li>Please mute or turn off your phone and put it out of your reach. </li> <br><li>Please also take off any disturbing accessories (such as wristwatches, bracelets, etc.). </li> <br><li>If you have music playing in the background, please turn it off now. </li> <br></ol>Thank you! <br>Press 'SPACE' to continue. </div>","32","","","","","","","","","","","","","","","","","","","",""
"survey-text","5","29518","0.0-1.0-1.0-0.0","vdmh8f38faqz1kf","demographics","5f22b315707c8a01e0ca7dc5","5f60e3c0a3b16e07647b2ff9","5f60ee139bbe2501bb76a207","true","2820.0949999999248","","","","{""age"":""32""}","","","","","","","","","","","","","","","","","",""
"survey-multi-choice","6","57523","0.0-1.0-1.0-1.0","vdmh8f38faqz1kf","demographics","5f22b315707c8a01e0ca7dc5","5f60e3c0a3b16e07647b2ff9","5f60ee139bbe2501bb76a207","true","28002.359999999957","","","","{""gender"":""male"",""school"":""others"",""education"":""Completed university degree or equivalent""}","[0,1,2]","","","","","","","","","","","","","","","","",""
"html-keyboard-response","7","75829","0.0-1.0-2.0","vdmh8f38faqz1kf","instructions","5f22b315707c8a01e0ca7dc5","5f60e3c0a3b16e07647b2ff9","5f60ee139bbe2501bb76a207","false","18299.309999999998","<div align=left> The experiment is now about to start: <br> <br>In the following part, you will be presented pictures of everyday objects. <br>Your first task is to <strong>classify these objects. </strong> <br> <br> You will classify them either as mechanical or non-mechanical objects. <br> <br>Objects that include any kind of technical mechanism (for example, wheels, switches, levers, <br> electronic components) fall under the category of <strong>mechanical</strong> objects. <br>Only objects without any kind of technical mechanism should be classified as <strong>non-mechanical</strong>. <br><br>Press 'SPACE' to continue. </div>","32","","","","","","","","","","","","","","","","","","","",""
"html-keyboard-response","8","100151","0.0-2.0-0.0","vdmh8f38faqz1kf","instructions","5f22b315707c8a01e0ca7dc5","5f60e3c0a3b16e07647b2ff9","5f60ee139bbe2501bb76a207","false","24319.934999999983","<div align=justify>You will classify the objects using the <strong>'S'</strong> and the <strong>'L'</strong> keys on your keyboard.<br>For doing so, please place your <strong>left index finger</strong> on the <strong>'S'</strong> key and place your <strong>right index finger</strong> on the <strong>'L'</strong> key. <br><br> Each trial starts with an instruction, indicating which key ('S'/'L') you need to press to classify <br>the object as mechanical (letter M) or non-mechanical (letter N).<br>The instruction <strong>M + N</strong> indicates that, in the current trial, by pressing the left key ('S') you classify the displayed object as mechanical (M) <br> and by pressing the right key ('L') you classify the object as non-mechanical (N). <br>The instruction <strong>N + M</strong> on the other hand indicates that by pressing the left key ('S') you classify the displayed object as non-mechanical (N) <br> and by pressing the right key ('L') you classify the object as mechanical (M). <br><br>Please press the key corresponding to the correct classification as fast as possible as soon as the object is displayed and try to avoid making mistakes.<br>If you do not respond within a 2 second window, a corresponding feedback will be displayed and the next trial will start.<br> The experiment is divided into multiple blocks to give you the opportunity to take a break after each block. <br>First, you can now practice this task. <br><br>Please place your <strong>LEFT INDEX FINGER</strong> on the 'S' key and your <strong>RIGHT INDEX FINGER</strong> on the 'L' key now. <br><br>Press SPACE to continue.</div>","32","","","","","","","","","","","","","","","","","","","",""
"html-keyboard-response","9","101461","0.0-2.0-1.0","vdmh8f38faqz1kf","instructions","5f22b315707c8a01e0ca7dc5","5f60e3c0a3b16e07647b2ff9","5f60ee139bbe2501bb76a207","false","1309.6549999999115","<div align=left> You will now have time to practice this task.<br><br>Remember: <br> <br><li>Please place your index fingers on the <strong>'S'</strong> and <strong>'L'</strong> keys <br>to respond as fast and accurately as possible.</li><li>Every picture can be classified as either mechanical or non-mechanical.</li><li>If you do not respond in time or commit an error, you will receive a corresponding feedback. </li><li> Please try to respond as <strong> fast </strong> and as <strong> accurately as possible </strong> .<br><li>To ensure optimal results, please minimize distractions and stay focused. </li><br><br>Press SPACE to continue.</div>","32","","","","","","","","","","","","","","","","","","","",""
"html-keyboard-response","10","102165","0.0-2.0-2.0-0.0","vdmh8f38faqz1kf","practice_no_cue","5f22b315707c8a01e0ca7dc5","5f60e3c0a3b16e07647b2ff9","5f60ee139bbe2501bb76a207","false","null","<span style=""color: black; font-size: 48px"">N + M</span>","null","","","","resp_prompt","","","","","","","","","","","","","","","",""
"categorize-image","11","104670","0.0-2.0-2.0-1.0","vdmh8f38faqz1kf","practice_no_cue","5f22b315707c8a01e0ca7dc5","5f60e3c0a3b16e07647b2ff9","5f60ee139bbe2501bb76a207","true","null","./Stimuli/ImagesPractice/SM98.jpg","null","","","","test","false","N + M","76","","SM","SM98.jpg","remember","old","1","1","start","too_slow","","","",""
"html-keyboard-response","12","105371","0.0-2.0-2.0-0.1","vdmh8f38faqz1kf","practice_no_cue","5f22b315707c8a01e0ca7dc5","5f60e3c0a3b16e07647b2ff9","5f60ee139bbe2501bb76a207","false","null","<span style=""color: black; font-size: 48px"">N + M</span>","null","","","","resp_prompt","","","","","","","","","","","","","","","",""
"categorize-image","13","106650","0.0-2.0-2.0-1.1","vdmh8f38faqz1kf","practice_no_cue","5f22b315707c8a01e0ca7dc5","5f60e3c0a3b16e07647b2ff9","5f60ee139bbe2501bb76a207","true","776.8850000001112","./Stimuli/ImagesPractice/LM224.jpg","83","","","","test","false","N + M","76","","LM","LM224.jpg","remember","old","2","1","start","left","","","",""
"html-keyboard-response","14","107352","0.0-2.0-2.0-0.2","vdmh8f38faqz1kf","practice_no_cue","5f22b315707c8a01e0ca7dc5","5f60e3c0a3b16e07647b2ff9","5f60ee139bbe2501bb76a207","false","null","<span style=""color: black; font-size: 48px"">M + N</span>","null","","","","resp_prompt","","","","","","","","","","","","","","","",""
"categorize-image","15","108627","0.0-2.0-2.0-1.2","vdmh8f38faqz1kf","practice_no_cue","5f22b315707c8a01e0ca7dc5","5f60e3c0a3b16e07647b2ff9","5f60ee139bbe2501bb76a207","true","772.6149999999761","./Stimuli/ImagesPractice/SM62.jpg","76","","","","test","false","M + N","83","","SM","SM62.jpg","forget","old","3","1","start","right","","","",""
"html-keyboard-response","16","109330","0.0-2.0-2.0-0.3","vdmh8f38faqz1kf","practice_no_cue","5f22b315707c8a01e0ca7dc5","5f60e3c0a3b16e07647b2ff9","5f60ee139bbe2501bb76a207","false","null","<span style=""color: black; font-size: 48px"">M + N</span>","null","","","","resp_prompt","","","","","","","","","","","","","","","",""
"categorize-image","17","110515","0.0-2.0-2.0-1.3","vdmh8f38faqz1kf","practice_no_cue","5f22b315707c8a01e0ca7dc5","5f60e3c0a3b16e07647b2ff9","5f60ee139bbe2501bb76a207","true","682.7399999999616","./Stimuli/ImagesPractice/LN109.jpg","76","","","","test","true","M + N","76","","LN","LN109.jpg","remember","old","4","1","start","right","","","",""
"html-keyboard-response","18","111216","0.0-2.0-2.0-0.4","vdmh8f38faqz1kf","practice_no_cue","5f22b315707c8a01e0ca7dc5","5f60e3c0a3b16e07647b2ff9","5f60ee139bbe2501bb76a207","false","null","<span style=""color: black; font-size: 48px"">N + M</span>","null","","","","resp_prompt","","","","","","","","","","","","","","","",""
"categorize-image","19","112706","0.0-2.0-2.0-1.4","vdmh8f38faqz1kf","practice_no_cue","5f22b315707c8a01e0ca7dc5","5f60e3c0a3b16e07647b2ff9","5f60ee139bbe2501bb76a207","true","988.7650000000576","./Stimuli/ImagesPractice/SN205.jpg","76","","","","test","false","N + M","83","","SN","SN205.jpg","remember","old","5","1","start","right","","","",""
"html-keyboard-response","20","113408","0.0-2.0-2.0-0.5","vdmh8f38faqz1kf","practice_no_cue","5f22b315707c8a01e0ca7dc5","5f60e3c0a3b16e07647b2ff9","5f60ee139bbe2501bb76a207","false","null","<span style=""color: black; font-size: 48px"">N + M</span>","null","","","","resp_prompt","","","","","","","","","","","","","","","",""
"categorize-image","21","114618","0.0-2.0-2.0-1.5","vdmh8f38faqz1kf","practice_no_cue","5f22b315707c8a01e0ca7dc5","5f60e3c0a3b16e07647b2ff9","5f60ee139bbe2501bb76a207","true","708.2850000000326","./Stimuli/ImagesPractice/LN2.jpg","83","","","","test","true","N + M","83","","LN","LN2.jpg","remember","old","6","1","start","left","","","",""
"html-keyboard-response","22","115320","0.0-2.0-2.0-0.6","vdmh8f38faqz1kf","practice_no_cue","5f22b315707c8a01e0ca7dc5","5f60e3c0a3b16e07647b2ff9","5f60ee139bbe2501bb76a207","false","null","<span style=""color: black; font-size: 48px"">M + N</span>","null","","","","resp_prompt","","","","","","","","","","","","","","","",""
"categorize-image","23","116539","0.0-2.0-2.0-1.6","vdmh8f38faqz1kf","practice_no_cue","5f22b315707c8a01e0ca7dc5","5f60e3c0a3b16e07647b2ff9","5f60ee139bbe2501bb76a207","true","716.7050000000454","./Stimuli/ImagesPractice/LM147.jpg","76","","","","test","false","M + N","83","","LM","LM147.jpg","remember","old","7","1","start","right","","","",""
"html-keyboard-response","24","117241","0.0-2.0-2.0-0.7","vdmh8f38faqz1kf","practice_no_cue","5f22b315707c8a01e0ca7dc5","5f60e3c0a3b16e07647b2ff9","5f60ee139bbe2501bb76a207","false","null","<span style=""color: black; font-size: 48px"">N + M</span>","null","","","","resp_prompt","","","","","","","","","","","","","","","",""
"categorize-image","25","118586","0.0-2.0-2.0-1.7","vdmh8f38faqz1kf","practice_no_cue","5f22b315707c8a01e0ca7dc5","5f60e3c0a3b16e07647b2ff9","5f60ee139bbe2501bb76a207","true","843.424999999901","./Stimuli/ImagesPractice/LM239.jpg","83","","","","test","false","N + M","76","","LM","LM239.jpg","forget","old","8","1","start","left","","","",""
"html-keyboard-response","26","119288","0.0-2.0-2.0-0.8","vdmh8f38faqz1kf","practice_no_cue","5f22b315707c8a01e0ca7dc5","5f60e3c0a3b16e07647b2ff9","5f60ee139bbe2501bb76a207","false","null","<span style=""color: black; font-size: 48px"">M + N</span>","null","","","","resp_prompt","","","","","","","","","","","","","","","",""
"categorize-image","27","120963","0.0-2.0-2.0-1.8","vdmh8f38faqz1kf","practice_no_cue","5f22b315707c8a01e0ca7dc5","5f60e3c0a3b16e07647b2ff9","5f60ee139bbe2501bb76a207","true","1173.385000000053","./Stimuli/ImagesPractice/SM35.jpg","76","","","","test","false","M + N","83","","SM","SM35.jpg","forget","old","9","1","start","right","","","",""
"html-keyboard-response","28","121664","0.0-2.0-2.0-0.9","vdmh8f38faqz1kf","practice_no_cue","5f22b315707c8a01e0ca7dc5","5f60e3c0a3b16e07647b2ff9","5f60ee139bbe2501bb76a207","false","null","<span style=""color: black; font-size: 48px"">M + N</span>","null","","","","resp_prompt","","","","","","","","","","","","","","","",""
"categorize-image","29","123027","0.0-2.0-2.0-1.9","vdmh8f38faqz1kf","practice_no_cue","5f22b315707c8a01e0ca7dc5","5f60e3c0a3b16e07647b2ff9","5f60ee139bbe2501bb76a207","true","861.5350000000035","./Stimuli/ImagesPractice/LN15.jpg","76","","","","test","true","M + N","76","","LN","LN15.jpg","remember","old","10","1","start","right","","","",""
"html-keyboard-response","30","123728","0.0-2.0-2.0-0.10","vdmh8f38faqz1kf","practice_no_cue","5f22b315707c8a01e0ca7dc5","5f60e3c0a3b16e07647b2ff9","5f60ee139bbe2501bb76a207","false","null","<span style=""color: black; font-size: 48px"">M + N</span>","null","","","","resp_prompt","","","","","","","","","","","","","","","",""
"categorize-image","31","125082","0.0-2.0-2.0-1.10","vdmh8f38faqz1kf","practice_no_cue","5f22b315707c8a01e0ca7dc5","5f60e3c0a3b16e07647b2ff9","5f60ee139bbe2501bb76a207","true","852.5350000001054","./Stimuli/ImagesPractice/SM97.jpg","83","","","","test","true","M + N","83","","SM","SM97.jpg","forget","old","11","1","start","left","","","",""
"html-keyboard-response","32","125783","0.0-2.0-2.0-0.11","vdmh8f38faqz1kf","practice_no_cue","5f22b315707c8a01e0ca7dc5","5f60e3c0a3b16e07647b2ff9","5f60ee139bbe2501bb76a207","false","null","<span style=""color: black; font-size: 48px"">M + N</span>","null","","","","resp_prompt","","","","","","","","","","","","","","","",""
"categorize-image","33","126946","0.0-2.0-2.0-1.11","vdmh8f38faqz1kf","practice_no_cue","5f22b315707c8a01e0ca7dc5","5f60e3c0a3b16e07647b2ff9","5f60ee139bbe2501bb76a207","true","661.2850000000326","./Stimuli/ImagesPractice/SN221.jpg","76","","","","test","true","M + N","76","","SN","SN221.jpg","forget","old","12","1","start","right","","","",""
"html-keyboard-response","34","127647","0.0-2.0-2.0-0.12","vdmh8f38faqz1kf","practice_no_cue","5f22b315707c8a01e0ca7dc5","5f60e3c0a3b16e07647b2ff9","5f60ee139bbe2501bb76a207","false","null","<span style=""color: black; font-size: 48px"">N + M</span>","null","","","","resp_prompt","","","","","","","","","","","","","","","",""
"categorize-image","35","128898","0.0-2.0-2.0-1.12","vdmh8f38faqz1kf","practice_no_cue","5f22b315707c8a01e0ca7dc5","5f60e3c0a3b16e07647b2ff9","5f60ee139bbe2501bb76a207","true","749.5999999999913","./Stimuli/ImagesPractice/SN76.jpg","83","","","","test","true","N + M","83","","SN","SN76.jpg","forget","old","13","1","start","left","","","",""
"html-keyboard-response","36","129599","0.0-2.0-2.0-0.13","vdmh8f38faqz1kf","practice_no_cue","5f22b315707c8a01e0ca7dc5","5f60e3c0a3b16e07647b2ff9","5f60ee139bbe2501bb76a207","false","null","<span style=""color: black; font-size: 48px"">N + M</span>","null","","","","resp_prompt","","","","","","","","","","","","","","","",""
"categorize-image","37","131227","0.0-2.0-2.0-1.13","vdmh8f38faqz1kf","practice_no_cue","5f22b315707c8a01e0ca7dc5","5f60e3c0a3b16e07647b2ff9","5f60ee139bbe2501bb76a207","true","1125.414999999979","./Stimuli/ImagesPractice/LN4.jpg","76","","","","test","false","N + M","83","","LN","LN4.jpg","forget","old","14","1","start","right","","","",""
"html-keyboard-response","38","131929","0.0-2.0-2.0-0.14","vdmh8f38faqz1kf","practice_no_cue","5f22b315707c8a01e0ca7dc5","5f60e3c0a3b16e07647b2ff9","5f60ee139bbe2501bb76a207","false","null","<span style=""color: black; font-size: 48px"">N + M</span>","null","","","","resp_prompt","","","","","","","","","","","","","","","",""
"categorize-image","39","133244","0.0-2.0-2.0-1.14","vdmh8f38faqz1kf","practice_no_cue","5f22b315707c8a01e0ca7dc5","5f60e3c0a3b16e07647b2ff9","5f60ee139bbe2501bb76a207","true","812.8750000000873","./Stimuli/ImagesPractice/LM143.jpg","76","","","","test","true","N + M","76","","LM","LM143.jpg","forget","old","15","1","start","right","","","",""
"html-keyboard-response","40","133945","0.0-2.0-2.0-0.15","vdmh8f38faqz1kf","practice_no_cue","5f22b315707c8a01e0ca7dc5","5f60e3c0a3b16e07647b2ff9","5f60ee139bbe2501bb76a207","false","null","<span style=""color: black; font-size: 48px"">M + N</span>","null","","","","resp_prompt","","","","","","","","","","","","","","","",""
"categorize-image","41","135101","0.0-2.0-2.0-1.15","vdmh8f38faqz1kf","practice_no_cue","5f22b315707c8a01e0ca7dc5","5f60e3c0a3b16e07647b2ff9","5f60ee139bbe2501bb76a207","true","652.9200000000128","./Stimuli/ImagesPractice/SN220.jpg","83","","","","test","false","M + N","76","","SN","SN220.jpg","remember","old","16","1","start","left","","","",""
"html-keyboard-response","42","138624","0.0-2.0-3.0","vdmh8f38faqz1kf","break","5f22b315707c8a01e0ca7dc5","5f60e3c0a3b16e07647b2ff9","5f60ee139bbe2501bb76a207","false","3517.164999999979","<p style='font-size: 32px;'>Break</><br><br><br><br><br><p style='font-size: 24px;'>In the last block, you committed 8 errors and did not respond in time on 1 trials.
</p><p style='font-size: 24px;'>Try to respond as fast and accurately as possible in the next block as well! </p><p style='font-size: 24px;'>Press SPACE to continue.</p>","32","","","","","","","","","","","","","","","","","","","",""
"html-keyboard-response","43","139854","0.0-2.0-4.0","vdmh8f38faqz1kf","instructions","5f22b315707c8a01e0ca7dc5","5f60e3c0a3b16e07647b2ff9","5f60ee139bbe2501bb76a207","false","1228.8949999999895","<div align=left> Great!<br><br>Are you ready to continue?<br><br>If you want to reread the instructions and redo the practice trials, <br>please press „Z“. <br><br>Press SPACE to CONTINUE with the experiment when you are ready. </div>","32","","","","","","","","","","","","","","","","","","","",""
"html-keyboard-response","44","143807","0.0-3.0-0.0","vdmh8f38faqz1kf","instructions","5f22b315707c8a01e0ca7dc5","5f60e3c0a3b16e07647b2ff9","5f60ee139bbe2501bb76a207","false","3951.484999999928","<div align=left>Great!<br> <strong>Attention</strong>! You will now receive a second, additional task! <br><br>To this point it was you <strong>first task</strong> to correctly <strong>classify objects</strong>. <br><br>As mentioned in the beginning, we aim to examine how well humans can remember previously learned information.<br>We would like to find out whether our memory improves if we only remember information that is relevant to us. <br><br>Therefore, your <strong>second task</strong> will be to <strong>remember</strong> the pictures you are to categorize. <br> After the learning phase, there will be a memory test phase, in which you will be asked to indicate whether you have seen a picture before or not. <br>Some, but not all pictures shown in the learning phase will appear in the memory test phase.<br>After classifying a picture, you will be told whether you should remember it for the memory test phase or not. <br>Thus, some pictures can be forgotten, whereas others have to be remembered. <br><br>Note: From now on, feedback will only be displayed if you responded incorrectly or not in time.<br><br>Press SPACE to continue.</div>","32","","","","","","","","","","","","","","","","","","","",""
"html-keyboard-response","45","148398","0.0-3.0-1.0","vdmh8f38faqz1kf","instructions","5f22b315707c8a01e0ca7dc5","5f60e3c0a3b16e07647b2ff9","5f60ee139bbe2501bb76a207","false","4589.330000000016","<div align=left>In the following part, you will thus have to remember only some pictures. <br>Immediately after seeing and classifying the picture, a symbol will be displayed, indicating whether you should remember or forget the previous picture. <br><br>A <span style='color: dodgerblue; font-size: 28px'>O</span> indicates REMEMBER. That means, you have to remember this picture, because it will be tested later. <br><br>A <span style='color: darkorange; font-size:28px'>Ø</span> indicates FORGET. You do not have to remember this picture. <br><br> As you will have to remember a lot of pictures, it will be hard for you to remember all of them. <br>It will put you at an advantage if you instantly forget the pictures you are not asked to remember. <br> This will make it easier for you to remember the pictures that will be tested afterwards. <br><br>Press SPACE to continue.</div>","32","","","","","","","","","","","","","","","","","","","",""
"html-keyboard-response","46","149903","0.0-3.0-2.0","vdmh8f38faqz1kf","instructions","5f22b315707c8a01e0ca7dc5","5f60e3c0a3b16e07647b2ff9","5f60ee139bbe2501bb76a207","false","1503.719999999943","<div align=left> Now you have the chance to practice both tasks together.<br><br>Remember: <br> <br><li>Please place your index fingers on the <strong>'S'</strong> and <strong>'L'</strong> keys <br>to respond as fast and accurately as possible.</li><li>Every picture can be classified as either mechanical or non-mechanical.</li><li>If you do not respond in time or commit an error, you will receive a corresponding feedback. <br>Please try to respond as <strong> fast </strong> and as <strong> accurately as possible </strong>.</li><li> Please remember only the to-be-remembered <span style='color: dodgerblue; font-size: 28px'>O</span> pictures. <br></li><li> Please minimize distractions and stay focused. </li><br><br>Press SPACE to START</div>","32","","","","","","","","","","","","","","","","","","","",""
"html-keyboard-response","47","150606","0.0-3.0-3.0-0.0","vdmh8f38faqz1kf","practice_cue","5f22b315707c8a01e0ca7dc5","5f60e3c0a3b16e07647b2ff9","5f60ee139bbe2501bb76a207","false","null","<span style=""color: black; font-size: 48px"">N + M</span>","null","","","","resp_prompt","","","","","","","","","","","","","","","",""
"categorize-image","48","151672","0.0-3.0-3.0-1.0","vdmh8f38faqz1kf","practice_cue","5f22b315707c8a01e0ca7dc5","5f60e3c0a3b16e07647b2ff9","5f60ee139bbe2501bb76a207","true","1062.7350000001024","./Stimuli/ImagesPractice/LM239.jpg","83","","","","test","false","N + M","76","","LM","LM239.jpg","forget","old","17","2","practice_forget","left","","","",""
"html-keyboard-response","49","152174","0.0-3.0-3.0-2.0-0.0","vdmh8f38faqz1kf","practice_cue","5f22b315707c8a01e0ca7dc5","5f60e3c0a3b16e07647b2ff9","5f60ee139bbe2501bb76a207","false","null","<span style=""color: red; font-size: 48px"">Error!</span>","null","","","","feedback","","","","","","","","","","","","","","","",""
"html-keyboard-response","50","154176","0.0-3.0-3.0-3.0","vdmh8f38faqz1kf","practice_cue","5f22b315707c8a01e0ca7dc5","5f60e3c0a3b16e07647b2ff9","5f60ee139bbe2501bb76a207","false","null","<div style=""align-items: center; display: flex; color: darkorange; font-size: 90px""><b>ø</b></div>","null","","","","forget_cue","","","","","","","","","","","","","","","",""
"html-keyboard-response","51","154877","0.0-3.0-3.0-0.1","vdmh8f38faqz1kf","practice_cue","5f22b315707c8a01e0ca7dc5","5f60e3c0a3b16e07647b2ff9","5f60ee139bbe2501bb76a207","false","null","<span style=""color: black; font-size: 48px"">M + N</span>","null","","","","resp_prompt","","","","","","","","","","","","","","","",""
"categorize-image","52","155530","0.0-3.0-3.0-1.1","vdmh8f38faqz1kf","practice_cue","5f22b315707c8a01e0ca7dc5","5f60e3c0a3b16e07647b2ff9","5f60ee139bbe2501bb76a207","true","648.8050000000221","./Stimuli/ImagesPractice/SM35.jpg","83","","","","test","true","M + N","83","","SM","SM35.jpg","forget","old","18","2","practice_forget","left","","","",""
"html-keyboard-response","53","157532","0.0-3.0-3.0-3.1","vdmh8f38faqz1kf","practice_cue","5f22b315707c8a01e0ca7dc5","5f60e3c0a3b16e07647b2ff9","5f60ee139bbe2501bb76a207","false","null","<div style=""align-items: center; display: flex; color: darkorange; font-size: 90px""><b>ø</b></div>","null","","","","forget_cue","","","","","","","","","","","","","","","",""
"html-keyboard-response","54","158234","0.0-3.0-3.0-0.2","vdmh8f38faqz1kf","practice_cue","5f22b315707c8a01e0ca7dc5","5f60e3c0a3b16e07647b2ff9","5f60ee139bbe2501bb76a207","false","null","<span style=""color: black; font-size: 48px"">N + M</span>","null","","","","resp_prompt","","","","","","","","","","","","","","","",""
"categorize-image","55","158932","0.0-3.0-3.0-1.2","vdmh8f38faqz1kf","practice_cue","5f22b315707c8a01e0ca7dc5","5f60e3c0a3b16e07647b2ff9","5f60ee139bbe2501bb76a207","true","690.1600000000035","./Stimuli/ImagesPractice/LN4.jpg","83","","","","test","true","N + M","83","","LN","LN4.jpg","forget","old","19","2","practice_forget","left","","","",""
"html-keyboard-response","56","160935","0.0-3.0-3.0-3.2","vdmh8f38faqz1kf","practice_cue","5f22b315707c8a01e0ca7dc5","5f60e3c0a3b16e07647b2ff9","5f60ee139bbe2501bb76a207","false","null","<div style=""align-items: center; display: flex; color: darkorange; font-size: 90px""><b>ø</b></div>","null","","","","forget_cue","","","","","","","","","","","","","","","",""
"html-keyboard-response","57","161636","0.0-3.0-3.0-0.3","vdmh8f38faqz1kf","practice_cue","5f22b315707c8a01e0ca7dc5","5f60e3c0a3b16e07647b2ff9","5f60ee139bbe2501bb76a207","false","null","<span style=""color: black; font-size: 48px"">N + M</span>","null","","","","resp_prompt","","","","","","","","","","","","","","","",""
"categorize-image","58","162280","0.0-3.0-3.0-1.3","vdmh8f38faqz1kf","practice_cue","5f22b315707c8a01e0ca7dc5","5f60e3c0a3b16e07647b2ff9","5f60ee139bbe2501bb76a207","true","640.3850000000384","./Stimuli/ImagesPractice/LM143.jpg","76","","","","test","true","N + M","76","","LM","LM143.jpg","forget","old","20","2","practice_forget","right","","","",""
"html-keyboard-response","59","164282","0.0-3.0-3.0-3.3","vdmh8f38faqz1kf","practice_cue","5f22b315707c8a01e0ca7dc5","5f60e3c0a3b16e07647b2ff9","5f60ee139bbe2501bb76a207","false","null","<div style=""align-items: center; display: flex; color: darkorange; font-size: 90px""><b>ø</b></div>","null","","","","forget_cue","","","","","","","","","","","","","","","",""
"html-keyboard-response","60","164984","0.0-3.0-3.0-0.4","vdmh8f38faqz1kf","practice_cue","5f22b315707c8a01e0ca7dc5","5f60e3c0a3b16e07647b2ff9","5f60ee139bbe2501bb76a207","false","null","<span style=""color: black; font-size: 48px"">M + N</span>","null","","","","resp_prompt","","","","","","","","","","","","","","","",""
"categorize-image","61","165777","0.0-3.0-3.0-1.4","vdmh8f38faqz1kf","practice_cue","5f22b315707c8a01e0ca7dc5","5f60e3c0a3b16e07647b2ff9","5f60ee139bbe2501bb76a207","true","789.4800000000105","./Stimuli/ImagesPractice/LN15.jpg","76","","","","test","true","M + N","76","","LN","LN15.jpg","remember","old","21","2","practice_forget","right","","","",""
"html-keyboard-response","62","167779","0.0-3.0-3.0-3.4","vdmh8f38faqz1kf","practice_cue","5f22b315707c8a01e0ca7dc5","5f60e3c0a3b16e07647b2ff9","5f60ee139bbe2501bb76a207","false","null","<div style=""align-items: center; display: flex; color: dodgerblue; font-size: 90px""><b>o</b></div>","null","","","","forget_cue","","","","","","","","","","","","","","","",""
"html-keyboard-response","63","168481","0.0-3.0-3.0-0.5","vdmh8f38faqz1kf","practice_cue","5f22b315707c8a01e0ca7dc5","5f60e3c0a3b16e07647b2ff9","5f60ee139bbe2501bb76a207","false","null","<span style=""color: black; font-size: 48px"">N + M</span>","null","","","","resp_prompt","","","","","","","","","","","","","","","",""
"categorize-image","64","169602","0.0-3.0-3.0-1.5","vdmh8f38faqz1kf","practice_cue","5f22b315707c8a01e0ca7dc5","5f60e3c0a3b16e07647b2ff9","5f60ee139bbe2501bb76a207","true","1115.5049999999756","./Stimuli/ImagesPractice/LN2.jpg","83","","","","test","true","N + M","83","","LN","LN2.jpg","remember","old","22","2","practice_forget","left","","","",""
"html-keyboard-response","65","171605","0.0-3.0-3.0-3.5","vdmh8f38faqz1kf","practice_cue","5f22b315707c8a01e0ca7dc5","5f60e3c0a3b16e07647b2ff9","5f60ee139bbe2501bb76a207","false","null","<div style=""align-items: center; display: flex; color: dodgerblue; font-size: 90px""><b>o</b></div>","null","","","","forget_cue","","","","","","","","","","","","","","","",""
"html-keyboard-response","66","172307","0.0-3.0-3.0-0.6","vdmh8f38faqz1kf","practice_cue","5f22b315707c8a01e0ca7dc5","5f60e3c0a3b16e07647b2ff9","5f60ee139bbe2501bb76a207","false","null","<span style=""color: black; font-size: 48px"">M + N</span>","null","","","","resp_prompt","","","","","","","","","","","","","","","",""
"categorize-image","67","173289","0.0-3.0-3.0-1.6","vdmh8f38faqz1kf","practice_cue","5f22b315707c8a01e0ca7dc5","5f60e3c0a3b16e07647b2ff9","5f60ee139bbe2501bb76a207","true","976.1049999999523","./Stimuli/ImagesPractice/LN109.jpg","76","","","","test","true","M + N","76","","LN","LN109.jpg","remember","old","23","2","practice_forget","right","","","",""
"html-keyboard-response","68","175292","0.0-3.0-3.0-3.6","vdmh8f38faqz1kf","practice_cue","5f22b315707c8a01e0ca7dc5","5f60e3c0a3b16e07647b2ff9","5f60ee139bbe2501bb76a207","false","null","<div style=""align-items: center; display: flex; color: dodgerblue; font-size: 90px""><b>o</b></div>","null","","","","forget_cue","","","","","","","","","","","","","","","",""
"html-keyboard-response","69","175994","0.0-3.0-3.0-0.7","vdmh8f38faqz1kf","practice_cue","5f22b315707c8a01e0ca7dc5","5f60e3c0a3b16e07647b2ff9","5f60ee139bbe2501bb76a207","false","null","<span style=""color: black; font-size: 48px"">M + N</span>","null","","","","resp_prompt","","","","","","","","","","","","","","","",""
"categorize-image","70","176621","0.0-3.0-3.0-1.7","vdmh8f38faqz1kf","practice_cue","5f22b315707c8a01e0ca7dc5","5f60e3c0a3b16e07647b2ff9","5f60ee139bbe2501bb76a207","true","620.2399999999907","./Stimuli/ImagesPractice/SN220.jpg","76","","","","test","true","M + N","76","","SN","SN220.jpg","remember","old","24","2","practice_forget","right","","","",""
"html-keyboard-response","71","178625","0.0-3.0-3.0-3.7","vdmh8f38faqz1kf","practice_cue","5f22b315707c8a01e0ca7dc5","5f60e3c0a3b16e07647b2ff9","5f60ee139bbe2501bb76a207","false","null","<div style=""align-items: center; display: flex; color: dodgerblue; font-size: 90px""><b>o</b></div>","null","","","","forget_cue","","","","","","","","","","","","","","","",""
"html-keyboard-response","72","179327","0.0-3.0-3.0-0.8","vdmh8f38faqz1kf","practice_cue","5f22b315707c8a01e0ca7dc5","5f60e3c0a3b16e07647b2ff9","5f60ee139bbe2501bb76a207","false","null","<span style=""color: black; font-size: 48px"">N + M</span>","null","","","","resp_prompt","","","","","","","","","","","","","","","",""
"categorize-image","73","180457","0.0-3.0-3.0-1.8","vdmh8f38faqz1kf","practice_cue","5f22b315707c8a01e0ca7dc5","5f60e3c0a3b16e07647b2ff9","5f60ee139bbe2501bb76a207","true","1126.8699999999371","./Stimuli/ImagesPractice/SN205.jpg","83","","","","test","true","N + M","83","","SN","SN205.jpg","remember","old","25","2","practice_forget","left","","","",""
"html-keyboard-response","74","182459","0.0-3.0-3.0-3.8","vdmh8f38faqz1kf","practice_cue","5f22b315707c8a01e0ca7dc5","5f60e3c0a3b16e07647b2ff9","5f60ee139bbe2501bb76a207","false","null","<div style=""align-items: center; display: flex; color: dodgerblue; font-size: 90px""><b>o</b></div>","null","","","","forget_cue","","","","","","","","","","","","","","","",""
"html-keyboard-response","75","183160","0.0-3.0-3.0-0.9","vdmh8f38faqz1kf","practice_cue","5f22b315707c8a01e0ca7dc5","5f60e3c0a3b16e07647b2ff9","5f60ee139bbe2501bb76a207","false","null","<span style=""color: black; font-size: 48px"">N + M</span>","null","","","","resp_prompt","","","","","","","","","","","","","","","",""
"categorize-image","76","183850","0.0-3.0-3.0-1.9","vdmh8f38faqz1kf","practice_cue","5f22b315707c8a01e0ca7dc5","5f60e3c0a3b16e07647b2ff9","5f60ee139bbe2501bb76a207","true","684.1600000000326","./Stimuli/ImagesPractice/SN76.jpg","83","","","","test","true","N + M","83","","SN","SN76.jpg","forget","old","26","2","practice_forget","left","","","",""
"html-keyboard-response","77","185853","0.0-3.0-3.0-3.9","vdmh8f38faqz1kf","practice_cue","5f22b315707c8a01e0ca7dc5","5f60e3c0a3b16e07647b2ff9","5f60ee139bbe2501bb76a207","false","null","<div style=""align-items: center; display: flex; color: darkorange; font-size: 90px""><b>ø</b></div>","null","","","","forget_cue","","","","","","","","","","","","","","","",""
"html-keyboard-response","78","186558","0.0-3.0-3.0-0.10","vdmh8f38faqz1kf","practice_cue","5f22b315707c8a01e0ca7dc5","5f60e3c0a3b16e07647b2ff9","5f60ee139bbe2501bb76a207","false","null","<span style=""color: black; font-size: 48px"">N + M</span>","null","","","","resp_prompt","","","","","","","","","","","","","","","",""
"categorize-image","79","187364","0.0-3.0-3.0-1.10","vdmh8f38faqz1kf","practice_cue","5f22b315707c8a01e0ca7dc5","5f60e3c0a3b16e07647b2ff9","5f60ee139bbe2501bb76a207","true","799.4599999999627","./Stimuli/ImagesPractice/SM98.jpg","76","","","","test","true","N + M","76","","SM","SM98.jpg","remember","old","27","2","practice_forget","right","","","",""
"html-keyboard-response","80","189367","0.0-3.0-3.0-3.10","vdmh8f38faqz1kf","practice_cue","5f22b315707c8a01e0ca7dc5","5f60e3c0a3b16e07647b2ff9","5f60ee139bbe2501bb76a207","false","null","<div style=""align-items: center; display: flex; color: dodgerblue; font-size: 90px""><b>o</b></div>","null","","","","forget_cue","","","","","","","","","","","","","","","",""
"html-keyboard-response","81","190068","0.0-3.0-3.0-0.11","vdmh8f38faqz1kf","practice_cue","5f22b315707c8a01e0ca7dc5","5f60e3c0a3b16e07647b2ff9","5f60ee139bbe2501bb76a207","false","null","<span style=""color: black; font-size: 48px"">M + N</span>","null","","","","resp_prompt","","","","","","","","","","","","","","","",""
"categorize-image","82","191178","0.0-3.0-3.0-1.11","vdmh8f38faqz1kf","practice_cue","5f22b315707c8a01e0ca7dc5","5f60e3c0a3b16e07647b2ff9","5f60ee139bbe2501bb76a207","true","1106.1100000000442","./Stimuli/ImagesPractice/SM62.jpg","76","","","","test","false","M + N","83","","SM","SM62.jpg","forget","old","28","2","practice_forget","right","","","",""
"html-keyboard-response","83","191682","0.0-3.0-3.0-2.11-0.11","vdmh8f38faqz1kf","practice_cue","5f22b315707c8a01e0ca7dc5","5f60e3c0a3b16e07647b2ff9","5f60ee139bbe2501bb76a207","false","null","<span style=""color: red; font-size: 48px"">Error!</span>","null","","","","feedback","","","","","","","","","","","","","","","",""
"html-keyboard-response","84","193683","0.0-3.0-3.0-3.11","vdmh8f38faqz1kf","practice_cue","5f22b315707c8a01e0ca7dc5","5f60e3c0a3b16e07647b2ff9","5f60ee139bbe2501bb76a207","false","null","<div style=""align-items: center; display: flex; color: darkorange; font-size: 90px""><b>ø</b></div>","null","","","","forget_cue","","","","","","","","","","","","","","","",""
"html-keyboard-response","85","194386","0.0-3.0-3.0-0.12","vdmh8f38faqz1kf","practice_cue","5f22b315707c8a01e0ca7dc5","5f60e3c0a3b16e07647b2ff9","5f60ee139bbe2501bb76a207","false","null","<span style=""color: black; font-size: 48px"">M + N</span>","null","","","","resp_prompt","","","","","","","","","","","","","","","",""
"categorize-image","86","195057","0.0-3.0-3.0-1.12","vdmh8f38faqz1kf","practice_cue","5f22b315707c8a01e0ca7dc5","5f60e3c0a3b16e07647b2ff9","5f60ee139bbe2501bb76a207","true","667.4249999999593","./Stimuli/ImagesPractice/SM97.jpg","83","","","","test","true","M + N","83","","SM","SM97.jpg","forget","old","29","2","practice_forget","left","","","",""
"html-keyboard-response","87","197060","0.0-3.0-3.0-3.12","vdmh8f38faqz1kf","practice_cue","5f22b315707c8a01e0ca7dc5","5f60e3c0a3b16e07647b2ff9","5f60ee139bbe2501bb76a207","false","null","<div style=""align-items: center; display: flex; color: darkorange; font-size: 90px""><b>ø</b></div>","null","","","","forget_cue","","","","","","","","","","","","","","","",""
"html-keyboard-response","88","197762","0.0-3.0-3.0-0.13","vdmh8f38faqz1kf","practice_cue","5f22b315707c8a01e0ca7dc5","5f60e3c0a3b16e07647b2ff9","5f60ee139bbe2501bb76a207","false","null","<span style=""color: black; font-size: 48px"">N + M</span>","null","","","","resp_prompt","","","","","","","","","","","","","","","",""
"categorize-image","89","198553","0.0-3.0-3.0-1.13","vdmh8f38faqz1kf","practice_cue","5f22b315707c8a01e0ca7dc5","5f60e3c0a3b16e07647b2ff9","5f60ee139bbe2501bb76a207","true","785.6749999999884","./Stimuli/ImagesPractice/LM224.jpg","76","","","","test","true","N + M","76","","LM","LM224.jpg","remember","old","30","2","practice_forget","right","","","",""
"html-keyboard-response","90","200555","0.0-3.0-3.0-3.13","vdmh8f38faqz1kf","practice_cue","5f22b315707c8a01e0ca7dc5","5f60e3c0a3b16e07647b2ff9","5f60ee139bbe2501bb76a207","false","null","<div style=""align-items: center; display: flex; color: dodgerblue; font-size: 90px""><b>o</b></div>","null","","","","forget_cue","","","","","","","","","","","","","","","",""
"html-keyboard-response","91","201258","0.0-3.0-3.0-0.14","vdmh8f38faqz1kf","practice_cue","5f22b315707c8a01e0ca7dc5","5f60e3c0a3b16e07647b2ff9","5f60ee139bbe2501bb76a207","false","null","<span style=""color: black; font-size: 48px"">M + N</span>","null","","","","resp_prompt","","","","","","","","","","","","","","","",""
"categorize-image","92","202064","0.0-3.0-3.0-1.14","vdmh8f38faqz1kf","practice_cue","5f22b315707c8a01e0ca7dc5","5f60e3c0a3b16e07647b2ff9","5f60ee139bbe2501bb76a207","true","800.4200000000128","./Stimuli/ImagesPractice/LM147.jpg","83","","","","test","true","M + N","83","","LM","LM147.jpg","remember","old","31","2","practice_forget","left","","","",""
"html-keyboard-response","93","204065","0.0-3.0-3.0-3.14","vdmh8f38faqz1kf","practice_cue","5f22b315707c8a01e0ca7dc5","5f60e3c0a3b16e07647b2ff9","5f60ee139bbe2501bb76a207","false","null","<div style=""align-items: center; display: flex; color: dodgerblue; font-size: 90px""><b>o</b></div>","null","","","","forget_cue","","","","","","","","","","","","","","","",""
"html-keyboard-response","94","204769","0.0-3.0-3.0-0.15","vdmh8f38faqz1kf","practice_cue","5f22b315707c8a01e0ca7dc5","5f60e3c0a3b16e07647b2ff9","5f60ee139bbe2501bb76a207","false","null","<span style=""color: black; font-size: 48px"">M + N</span>","null","","","","resp_prompt","","","","","","","","","","","","","","","",""
"categorize-image","95","205625","0.0-3.0-3.0-1.15","vdmh8f38faqz1kf","practice_cue","5f22b315707c8a01e0ca7dc5","5f60e3c0a3b16e07647b2ff9","5f60ee139bbe2501bb76a207","true","850.8199999999779","./Stimuli/ImagesPractice/SN221.jpg","76","","","","test","true","M + N","76","","SN","SN221.jpg","forget","old","32","2","practice_forget","right","","","",""
"html-keyboard-response","96","207627","0.0-3.0-3.0-3.15","vdmh8f38faqz1kf","practice_cue","5f22b315707c8a01e0ca7dc5","5f60e3c0a3b16e07647b2ff9","5f60ee139bbe2501bb76a207","false","null","<div style=""align-items: center; display: flex; color: darkorange; font-size: 90px""><b>ø</b></div>","null","","","","forget_cue","","","","","","","","","","","","","","","",""
"html-keyboard-response","97","210703","0.0-3.0-4.0","vdmh8f38faqz1kf","break","5f22b315707c8a01e0ca7dc5","5f60e3c0a3b16e07647b2ff9","5f60ee139bbe2501bb76a207","false","3072.1849999999977","<p style='font-size: 32px;'>Break</><br><br><br><br><br><p style='font-size: 24px;'>In the last block, you committed 2 errors and did not respond in time on 0 trials.
</p><p style='font-size: 24px;'>Try to respond as fast and accurately as possible in the next block as well! </p><p style='font-size: 24px;'>Press SPACE to continue.</p>","32","","","","","","","","","","","","","","","","","","","",""
"html-keyboard-response","98","219839","0.0-3.0-5.0","vdmh8f38faqz1kf","instructions","5f22b315707c8a01e0ca7dc5","5f60e3c0a3b16e07647b2ff9","5f60ee139bbe2501bb76a207","false","9134.950000000012","<div align=left> Now, to practice, we kindly ask you to remember as many of the to-be-remembered pictures<br>of the previous learning phase as possible.<br><br>The pictures you were instructed to remember were the pictures followed by a <span style='color: dodgerblue; font-size: 28px'>O</span>.<br><br>In this memory test phase, you will also see some new pictures.<br>It is your task to remember whether you were presented with this specific picture in this study so far or not.<br>If you recognize an object (you have already seen it in this study), it is an OLD object. <br>If you do not recognize an object (you have NOT seen it in this study), it is a NEW object. <br><strong> Attention</strong>: As already mentioned, <span style='color: darkorange; font-size:28px'>Ø</span>-pictures will <strong>never</strong> appear in this memory test (neither as new objects). <br><br>Press SPACE to continue. </div>","32","","","","","","","","","","","","","","","","","","","",""
"html-keyboard-response","99","222183","0.0-3.0-6.0","vdmh8f38faqz1kf","instructions","5f22b315707c8a01e0ca7dc5","5f60e3c0a3b16e07647b2ff9","5f60ee139bbe2501bb76a207","false","2342.085000000021","<div align=left> M and N no longer will appear on the left/right of the fixation cross. <br>Instead there will be a note at the bottom of the left or right side  <br>indicating which key you should press for an old or new object:  <br> <br>Press the <strong>right</strong> key to classify an object as <strong>old</strong> and press the <strong>left</strong>, to classify an object as <strong>new</strong>.<br>Please classify the objects as new/old by again placing your index finger on the 'S' and 'L' keys <br>and press them accordingly.<br><br><strong>Old:</strong> This object has been presented before. <br><strong>New:</strong> This object has <strong>not</strong> been presented.<br><br>Now please put your right and left index fingers on the 'S' and 'L' keys of your keyboard. <br>Please respond as fast and as accurately as possible!<br><br>Press SPACE to continue. </div>","32","","","","","","","","","","","","","","","","","","","",""
"categorize-image","100","225116","0.0-3.0-7.0-0.0","vdmh8f38faqz1kf","practice_recog","5f22b315707c8a01e0ca7dc5","5f60e3c0a3b16e07647b2ff9","5f60ee139bbe2501bb76a207","true","2429.6450000000477","./Stimuli/ImagesPractice/LN72.jpg","83","","","","test","false","","76","","LN","LN72.jpg","","new","33","3","practice_recog","left","","","",""
"categorize-image","101","226998","0.0-3.0-7.0-0.1","vdmh8f38faqz1kf","practice_recog","5f22b315707c8a01e0ca7dc5","5f60e3c0a3b16e07647b2ff9","5f60ee139bbe2501bb76a207","true","1376.5600000000268","./Stimuli/ImagesPractice/LM224.jpg","76","","","","test","false","","83","","LM","LM224.jpg","","old","34","3","practice_recog","right","","","",""
"categorize-image","102","229421","0.0-3.0-7.0-0.2","vdmh8f38faqz1kf","practice_recog","5f22b315707c8a01e0ca7dc5","5f60e3c0a3b16e07647b2ff9","5f60ee139bbe2501bb76a207","true","1917.8499999999476","./Stimuli/ImagesPractice/LM147.jpg","83","","","","test","true","","83","","LM","LM147.jpg","","old","35","3","practice_recog","left","","","",""
"categorize-image","103","230996","0.0-3.0-7.0-0.3","vdmh8f38faqz1kf","practice_recog","5f22b315707c8a01e0ca7dc5","5f60e3c0a3b16e07647b2ff9","5f60ee139bbe2501bb76a207","true","1071.0350000000326","./Stimuli/ImagesPractice/LN15.jpg","83","","","","test","true","","83","","LN","LN15.jpg","","old","36","3","practice_recog","left","","","",""
"categorize-image","104","232405","0.0-3.0-7.0-0.4","vdmh8f38faqz1kf","practice_recog","5f22b315707c8a01e0ca7dc5","5f60e3c0a3b16e07647b2ff9","5f60ee139bbe2501bb76a207","true","906.484999999986","./Stimuli/ImagesPractice/SN205.jpg","83","","","","test","true","","83","","SN","SN205.jpg","","old","37","3","practice_recog","left","","","",""
"categorize-image","105","233494","0.0-3.0-7.0-0.5","vdmh8f38faqz1kf","practice_recog","5f22b315707c8a01e0ca7dc5","5f60e3c0a3b16e07647b2ff9","5f60ee139bbe2501bb76a207","true","586.1499999999651","./Stimuli/ImagesPractice/SM61.jpg","76","","","","test","true","","76","","SM","SM61.jpg","","new","38","3","practice_recog","right","","","",""
"categorize-image","106","234550","0.0-3.0-7.0-0.6","vdmh8f38faqz1kf","practice_recog","5f22b315707c8a01e0ca7dc5","5f60e3c0a3b16e07647b2ff9","5f60ee139bbe2501bb76a207","true","552.4849999999569","./Stimuli/ImagesPractice/SN222.jpg","76","","","","test","true","","76","","SN","SN222.jpg","","new","39","3","practice_recog","right","","","",""
"categorize-image","107","235621","0.0-3.0-7.0-0.7","vdmh8f38faqz1kf","practice_recog","5f22b315707c8a01e0ca7dc5","5f60e3c0a3b16e07647b2ff9","5f60ee139bbe2501bb76a207","true","567.1200000000536","./Stimuli/ImagesPractice/SN75.jpg","76","","","","test","true","","76","","SN","SN75.jpg","","new","40","3","practice_recog","right","","","",""
"categorize-image","108","236661","0.0-3.0-7.0-0.8","vdmh8f38faqz1kf","practice_recog","5f22b315707c8a01e0ca7dc5","5f60e3c0a3b16e07647b2ff9","5f60ee139bbe2501bb76a207","true","536.8300000000163","./Stimuli/ImagesPractice/SM37.jpg","76","","","","test","true","","76","","SM","SM37.jpg","","new","41","3","practice_recog","right","","","",""
"categorize-image","109","237843","0.0-3.0-7.0-0.9","vdmh8f38faqz1kf","practice_recog","5f22b315707c8a01e0ca7dc5","5f60e3c0a3b16e07647b2ff9","5f60ee139bbe2501bb76a207","true","679.5999999999476","./Stimuli/ImagesPractice/LM230.jpg","76","","","","test","true","","76","","LM","LM230.jpg","","new","42","3","practice_recog","right","","","",""
"categorize-image","110","238908","0.0-3.0-7.0-0.10","vdmh8f38faqz1kf","practice_recog","5f22b315707c8a01e0ca7dc5","5f60e3c0a3b16e07647b2ff9","5f60ee139bbe2501bb76a207","true","561.8150000000314","./Stimuli/ImagesPractice/LN2.jpg","83","","","","test","true","","83","","LN","LN2.jpg","","old","43","3","practice_recog","left","","","",""
"categorize-image","111","239972","0.0-3.0-7.0-0.11","vdmh8f38faqz1kf","practice_recog","5f22b315707c8a01e0ca7dc5","5f60e3c0a3b16e07647b2ff9","5f60ee139bbe2501bb76a207","true","558.6049999999232","./Stimuli/ImagesPractice/LM55.jpg","76","","","","test","true","","76","","LM","LM55.jpg","","new","44","3","practice_recog","right","","","",""
"categorize-image","112","241115","0.0-3.0-7.0-0.12","vdmh8f38faqz1kf","practice_recog","5f22b315707c8a01e0ca7dc5","5f60e3c0a3b16e07647b2ff9","5f60ee139bbe2501bb76a207","true","639.859999999986","./Stimuli/ImagesPractice/SN220.jpg","83","","","","test","true","","83","","SN","SN220.jpg","","old","45","3","practice_recog","left","","","",""
"categorize-image","113","242187","0.0-3.0-7.0-0.13","vdmh8f38faqz1kf","practice_recog","5f22b315707c8a01e0ca7dc5","5f60e3c0a3b16e07647b2ff9","5f60ee139bbe2501bb76a207","true","569.6350000000384","./Stimuli/ImagesPractice/SM98.jpg","83","","","","test","true","","83","","SM","SM98.jpg","","old","46","3","practice_recog","left","","","",""
"categorize-image","114","243316","0.0-3.0-7.0-0.14","vdmh8f38faqz1kf","practice_recog","5f22b315707c8a01e0ca7dc5","5f60e3c0a3b16e07647b2ff9","5f60ee139bbe2501bb76a207","true","624.2850000000035","./Stimuli/ImagesPractice/LN17.jpg","76","","","","test","true","","76","","LN","LN17.jpg","","new","47","3","practice_recog","right","","","",""
"categorize-image","115","244483","0.0-3.0-7.0-0.15","vdmh8f38faqz1kf","practice_recog","5f22b315707c8a01e0ca7dc5","5f60e3c0a3b16e07647b2ff9","5f60ee139bbe2501bb76a207","true","662.6999999999534","./Stimuli/ImagesPractice/LN109.jpg","83","","","","test","true","","83","","LN","LN109.jpg","","old","48","3","practice_recog","left","","","",""
"html-keyboard-response","116","265904","0.0-3.0-8.0","vdmh8f38faqz1kf","instructions","5f22b315707c8a01e0ca7dc5","5f60e3c0a3b16e07647b2ff9","5f60ee139bbe2501bb76a207","false","21419","<div align=left> Great!<br><br>Are you ready to continue?<br>If you want to reread the instructions and redo the practice trials, please <br>press „Z“.<br><br>You can proceed when you are ready.<br><br>After the presentation of each object, you will receive an instruction whether to <br>remember or to forget the object.<br>We will test your memory of the following pictures only at the very end of <br>the experiment after all learning blocks are completed. <br><br>Press SPACE to CONTINUE when you are ready. </div>","32","","","","","","","","","","","","","","","","","","","",""
"html-keyboard-response","117","267350","0.0-4.0-0.0","vdmh8f38faqz1kf","instructions","5f22b315707c8a01e0ca7dc5","5f60e3c0a3b16e07647b2ff9","5f60ee139bbe2501bb76a207","false","1444.4799999999814","<div align=left> The actual experiment is about to start.<br>The practice trials are over!<br><br>Please always respond both fast and accurately!<br><br>Remember: <br> <br><li> Please place your index fingers on the <strong>'S'</strong> and <strong>'L'</strong> keys <br>to respond as fast and accurately as possible.</li><li> Every picture can be classified as either mechanical or non-mechanical.</li><li> If you do not respond in time or commit an error, you will receive a corresponding feedback.<br> Please try to respond as <strong> fast </strong> and as <strong> accurately as possible </strong>.</li><li> Remember the <span style='color: dodgerblue; font-size: 28px'>O</span> pictures. <br></li><li> Please minimize distractions and stay focused. </li><br><br>Press SPACE to START.</div>","32","","","","","","","","","","","","","","","","","","","",""
"html-keyboard-response","118","268052","0.0-4.0-1.0-0.0","vdmh8f38faqz1kf","prime","5f22b315707c8a01e0ca7dc5","5f60e3c0a3b16e07647b2ff9","5f60ee139bbe2501bb76a207","false","null","<span style=""color: black; font-size: 48px"">M + N</span>","null","","","","resp_prompt","","","","","","","","","","","","","","","",""
"categorize-image","119","268648","0.0-4.0-1.0-1.0","vdmh8f38faqz1kf","prime","5f22b315707c8a01e0ca7dc5","5f60e3c0a3b16e07647b2ff9","5f60ee139bbe2501bb76a207","true","589.960000000021","./Stimuli/SelectedImages/LN/LN9.bmp","76","","","","test","true","M + N","76","switch","LN","LN9.bmp","remember","","49","3","prime1","right","","","",""
"html-keyboard-response","120","270649","0.0-4.0-1.0-3.0","vdmh8f38faqz1kf","prime","5f22b315707c8a01e0ca7dc5","5f60e3c0a3b16e07647b2ff9","5f60ee139bbe2501bb76a207","false","null","<div style=""align-items: center; display: flex; color: dodgerblue; font-size: 90px""><b>o</b></div>","null","","","","forget_cue","","","","","","","","","","","","","","","",""
"html-keyboard-response","121","271350","0.0-4.0-1.0-0.1","vdmh8f38faqz1kf","prime","5f22b315707c8a01e0ca7dc5","5f60e3c0a3b16e07647b2ff9","5f60ee139bbe2501bb76a207","false","null","<span style=""color: black; font-size: 48px"">M + N</span>","null","","","","resp_prompt","","","","","","","","","","","","","","","",""
"categorize-image","122","272096","0.0-4.0-1.0-1.1","vdmh8f38faqz1kf","prime","5f22b315707c8a01e0ca7dc5","5f60e3c0a3b16e07647b2ff9","5f60ee139bbe2501bb76a207","true","741.9750000000349","./Stimuli/SelectedImages/LN/LN128.bmp","76","","","","test","true","M + N","76","repetition","LN","LN128.bmp","remember","","50","3","prime1","right","","","",""
"html-keyboard-response","123","274097","0.0-4.0-1.0-3.1","vdmh8f38faqz1kf","prime","5f22b315707c8a01e0ca7dc5","5f60e3c0a3b16e07647b2ff9","5f60ee139bbe2501bb76a207","false","null","<div style=""align-items: center; display: flex; color: dodgerblue; font-size: 90px""><b>o</b></div>","null","","","","forget_cue","","","","","","","","","","","","","","","",""
"html-keyboard-response","124","274798","0.0-4.0-1.0-0.2","vdmh8f38faqz1kf","prime","5f22b315707c8a01e0ca7dc5","5f60e3c0a3b16e07647b2ff9","5f60ee139bbe2501bb76a207","false","null","<span style=""color: black; font-size: 48px"">N + M</span>","null","","","","resp_prompt","","","","","","","","","","","","","","","",""
"categorize-image","125","275401","0.0-4.0-1.0-1.2","vdmh8f38faqz1kf","prime","5f22b315707c8a01e0ca7dc5","5f60e3c0a3b16e07647b2ff9","5f60ee139bbe2501bb76a207","true","598.3549999999814","./Stimuli/SelectedImages/LN/LN13.bmp","76","","","","test","false","N + M","83","repetition","LN","LN13.bmp","remember","","51","3","prime1","right","","","",""
"html-keyboard-response","126","275902","0.0-4.0-1.0-2.2-0.2","vdmh8f38faqz1kf","prime","5f22b315707c8a01e0ca7dc5","5f60e3c0a3b16e07647b2ff9","5f60ee139bbe2501bb76a207","false","null","<span style=""color: red; font-size: 48px"">Error!</span>","null","","","","feedback","","","","","","","","","","","","","","","",""
"html-keyboard-response","127","277904","0.0-4.0-1.0-3.2","vdmh8f38faqz1kf","prime","5f22b315707c8a01e0ca7dc5","5f60e3c0a3b16e07647b2ff9","5f60ee139bbe2501bb76a207","false","null","<div style=""align-items: center; display: flex; color: dodgerblue; font-size: 90px""><b>o</b></div>","null","","","","forget_cue","","","","","","","","","","","","","","","",""
"html-keyboard-response","128","278607","0.0-4.0-1.0-0.3","vdmh8f38faqz1kf","prime","5f22b315707c8a01e0ca7dc5","5f60e3c0a3b16e07647b2ff9","5f60ee139bbe2501bb76a207","false","null","<span style=""color: black; font-size: 48px"">M + N</span>","null","","","","resp_prompt","","","","","","","","","","","","","","","",""
"categorize-image","129","279200","0.0-4.0-1.0-1.3","vdmh8f38faqz1kf","prime","5f22b315707c8a01e0ca7dc5","5f60e3c0a3b16e07647b2ff9","5f60ee139bbe2501bb76a207","true","588.804999999993","./Stimuli/SelectedImages/SN/SN155.bmp","76","","","","test","true","M + N","76","repetition","SN","SN155.bmp","remember","","52","3","prime1","right","","","",""
"html-keyboard-response","130","281203","0.0-4.0-1.0-3.3","vdmh8f38faqz1kf","prime","5f22b315707c8a01e0ca7dc5","5f60e3c0a3b16e07647b2ff9","5f60ee139bbe2501bb76a207","false","null","<div style=""align-items: center; display: flex; color: dodgerblue; font-size: 90px""><b>o</b></div>","null","","","","forget_cue","","","","","","","","","","","","","","","",""
"html-keyboard-response","131","281905","0.0-4.0-1.0-0.4","vdmh8f38faqz1kf","prime","5f22b315707c8a01e0ca7dc5","5f60e3c0a3b16e07647b2ff9","5f60ee139bbe2501bb76a207","false","null","<span style=""color: black; font-size: 48px"">M + N</span>","null","","","","resp_prompt","","","","","","","","","","","","","","","",""
"categorize-image","132","282625","0.0-4.0-1.0-1.4","vdmh8f38faqz1kf","prime","5f22b315707c8a01e0ca7dc5","5f60e3c0a3b16e07647b2ff9","5f60ee139bbe2501bb76a207","true","715.015000000014","./Stimuli/SelectedImages/SN/SN140.bmp","76","","","","test","true","M + N","76","repetition","SN","SN140.bmp","forget","","53","3","prime1","right","","","",""
"html-keyboard-response","133","284628","0.0-4.0-1.0-3.4","vdmh8f38faqz1kf","prime","5f22b315707c8a01e0ca7dc5","5f60e3c0a3b16e07647b2ff9","5f60ee139bbe2501bb76a207","false","null","<div style=""align-items: center; display: flex; color: darkorange; font-size: 90px""><b>ø</b></div>","null","","","","forget_cue","","","","","","","","","","","","","","","",""
"html-keyboard-response","134","285331","0.0-4.0-1.0-0.5","vdmh8f38faqz1kf","prime","5f22b315707c8a01e0ca7dc5","5f60e3c0a3b16e07647b2ff9","5f60ee139bbe2501bb76a207","false","null","<span style=""color: black; font-size: 48px"">M + N</span>","null","","","","resp_prompt","","","","","","","","","","","","","","","",""
"categorize-image","135","285874","0.0-4.0-1.0-1.5","vdmh8f38faqz1kf","prime","5f22b315707c8a01e0ca7dc5","5f60e3c0a3b16e07647b2ff9","5f60ee139bbe2501bb76a207","true","536.2949999999837","./Stimuli/SelectedImages/SM/SM108.bmp","83","","","","test","true","M + N","83","switch","SM","SM108.bmp","remember","","54","3","prime1","left","","","",""
"html-keyboard-response","136","287877","0.0-4.0-1.0-3.5","vdmh8f38faqz1kf","prime","5f22b315707c8a01e0ca7dc5","5f60e3c0a3b16e07647b2ff9","5f60ee139bbe2501bb76a207","false","null","<div style=""align-items: center; display: flex; color: dodgerblue; font-size: 90px""><b>o</b></div>","null","","","","forget_cue","","","","","","","","","","","","","","","",""
"html-keyboard-response","137","288579","0.0-4.0-1.0-0.6","vdmh8f38faqz1kf","prime","5f22b315707c8a01e0ca7dc5","5f60e3c0a3b16e07647b2ff9","5f60ee139bbe2501bb76a207","false","null","<span style=""color: black; font-size: 48px"">N + M</span>","null","","","","resp_prompt","","","","","","","","","","","","","","","",""
"categorize-image","138","289329","0.0-4.0-1.0-1.6","vdmh8f38faqz1kf","prime","5f22b315707c8a01e0ca7dc5","5f60e3c0a3b16e07647b2ff9","5f60ee139bbe2501bb76a207","true","746.7400000000489","./Stimuli/SelectedImages/LM/LM59.bmp","76","","","","test","true","N + M","76","switch","LM","LM59.bmp","forget","","55","3","prime1","right","","","",""
"html-keyboard-response","139","291332","0.0-4.0-1.0-3.6","vdmh8f38faqz1kf","prime","5f22b315707c8a01e0ca7dc5","5f60e3c0a3b16e07647b2ff9","5f60ee139bbe2501bb76a207","false","null","<div style=""align-items: center; display: flex; color: darkorange; font-size: 90px""><b>ø</b></div>","null","","","","forget_cue","","","","","","","","","","","","","","","",""
"html-keyboard-response","140","292034","0.0-4.0-1.0-0.7","vdmh8f38faqz1kf","prime","5f22b315707c8a01e0ca7dc5","5f60e3c0a3b16e07647b2ff9","5f60ee139bbe2501bb76a207","false","null","<span style=""color: black; font-size: 48px"">M + N</span>","null","","","","resp_prompt","","","","","","","","","","","","","","","",""
"categorize-image","141","293177","0.0-4.0-1.0-1.7","vdmh8f38faqz1kf","prime","5f22b315707c8a01e0ca7dc5","5f60e3c0a3b16e07647b2ff9","5f60ee139bbe2501bb76a207","true","1137.2050000000163","./Stimuli/SelectedImages/SN/SN60.bmp","76","","","","test","true","M + N","76","switch","SN","SN60.bmp","forget","","56","3","prime1","right","","","",""
"html-keyboard-response","142","295179","0.0-4.0-1.0-3.7","vdmh8f38faqz1kf","prime","5f22b315707c8a01e0ca7dc5","5f60e3c0a3b16e07647b2ff9","5f60ee139bbe2501bb76a207","false","null","<div style=""align-items: center; display: flex; color: darkorange; font-size: 90px""><b>ø</b></div>","null","","","","forget_cue","","","","","","","","","","","","","","","",""
"html-keyboard-response","143","295882","0.0-4.0-1.0-0.8","vdmh8f38faqz1kf","prime","5f22b315707c8a01e0ca7dc5","5f60e3c0a3b16e07647b2ff9","5f60ee139bbe2501bb76a207","false","null","<span style=""color: black; font-size: 48px"">N + M</span>","null","","","","resp_prompt","","","","","","","","","","","","","","","",""
"categorize-image","144","296490","0.0-4.0-1.0-1.8","vdmh8f38faqz1kf","prime","5f22b315707c8a01e0ca7dc5","5f60e3c0a3b16e07647b2ff9","5f60ee139bbe2501bb76a207","true","603.6149999999907","./Stimuli/SelectedImages/SM/SM207.bmp","83","","","","test","false","N + M","76","switch","SM","SM207.bmp","remember","","57","3","prime1","left","","","",""
"html-keyboard-response","145","296993","0.0-4.0-1.0-2.8-0.8","vdmh8f38faqz1kf","prime","5f22b315707c8a01e0ca7dc5","5f60e3c0a3b16e07647b2ff9","5f60ee139bbe2501bb76a207","false","null","<span style=""color: red; font-size: 48px"">Error!</span>","null","","","","feedback","","","","","","","","","","","","","","","",""
"html-keyboard-response","146","298996","0.0-4.0-1.0-3.8","vdmh8f38faqz1kf","prime","5f22b315707c8a01e0ca7dc5","5f60e3c0a3b16e07647b2ff9","5f60ee139bbe2501bb76a207","false","null","<div style=""align-items: center; display: flex; color: dodgerblue; font-size: 90px""><b>o</b></div>","null","","","","forget_cue","","","","","","","","","","","","","","","",""
"html-keyboard-response","147","299698","0.0-4.0-1.0-0.9","vdmh8f38faqz1kf","prime","5f22b315707c8a01e0ca7dc5","5f60e3c0a3b16e07647b2ff9","5f60ee139bbe2501bb76a207","false","null","<span style=""color: black; font-size: 48px"">N + M</span>","null","","","","resp_prompt","","","","","","","","","","","","","","","",""
"categorize-image","148","300464","0.0-4.0-1.0-1.9","vdmh8f38faqz1kf","prime","5f22b315707c8a01e0ca7dc5","5f60e3c0a3b16e07647b2ff9","5f60ee139bbe2501bb76a207","true","763.4699999999721","./Stimuli/SelectedImages/SN/SN187.bmp","83","","","","test","true","N + M","83","switch","SN","SN187.bmp","forget","","58","3","prime1","left","","","",""
"html-keyboard-response","149","302466","0.0-4.0-1.0-3.9","vdmh8f38faqz1kf","prime","5f22b315707c8a01e0ca7dc5","5f60e3c0a3b16e07647b2ff9","5f60ee139bbe2501bb76a207","false","null","<div style=""align-items: center; display: flex; color: darkorange; font-size: 90px""><b>ø</b></div>","null","","","","forget_cue","","","","","","","","","","","","","","","",""
"html-keyboard-response","150","303167","0.0-4.0-1.0-0.10","vdmh8f38faqz1kf","prime","5f22b315707c8a01e0ca7dc5","5f60e3c0a3b16e07647b2ff9","5f60ee139bbe2501bb76a207","false","null","<span style=""color: black; font-size: 48px"">N + M</span>","null","","","","resp_prompt","","","","","","","","","","","","","","","",""
"categorize-image","151","303890","0.0-4.0-1.0-1.10","vdmh8f38faqz1kf","prime","5f22b315707c8a01e0ca7dc5","5f60e3c0a3b16e07647b2ff9","5f60ee139bbe2501bb76a207","true","715.7749999999069","./Stimuli/SelectedImages/LM/LM58.bmp","76","","","","test","true","N + M","76","switch","LM","LM58.bmp","remember","","59","3","prime1","right","","","",""
"html-keyboard-response","152","305893","0.0-4.0-1.0-3.10","vdmh8f38faqz1kf","prime","5f22b315707c8a01e0ca7dc5","5f60e3c0a3b16e07647b2ff9","5f60ee139bbe2501bb76a207","false","null","<div style=""align-items: center; display: flex; color: dodgerblue; font-size: 90px""><b>o</b></div>","null","","","","forget_cue","","","","","","","","","","","","","","","",""
"html-keyboard-response","153","306595","0.0-4.0-1.0-0.11","vdmh8f38faqz1kf","prime","5f22b315707c8a01e0ca7dc5","5f60e3c0a3b16e07647b2ff9","5f60ee139bbe2501bb76a207","false","null","<span style=""color: black; font-size: 48px"">N + M</span>","null","","","","resp_prompt","","","","","","","","","","","","","","","",""
"categorize-image","154","307580","0.0-4.0-1.0-1.11","vdmh8f38faqz1kf","prime","5f22b315707c8a01e0ca7dc5","5f60e3c0a3b16e07647b2ff9","5f60ee139bbe2501bb76a207","true","978.2299999999814","./Stimuli/SelectedImages/SM/SM106.bmp","76","","","","test","true","N + M","76","repetition","SM","SM106.bmp","forget","","60","3","prime1","right","","","",""
"html-keyboard-response","155","309583","0.0-4.0-1.0-3.11","vdmh8f38faqz1kf","prime","5f22b315707c8a01e0ca7dc5","5f60e3c0a3b16e07647b2ff9","5f60ee139bbe2501bb76a207","false","null","<div style=""align-items: center; display: flex; color: darkorange; font-size: 90px""><b>ø</b></div>","null","","","","forget_cue","","","","","","","","","","","","","","","",""
"html-keyboard-response","156","310284","0.0-4.0-1.0-0.12","vdmh8f38faqz1kf","prime","5f22b315707c8a01e0ca7dc5","5f60e3c0a3b16e07647b2ff9","5f60ee139bbe2501bb76a207","false","null","<span style=""color: black; font-size: 48px"">N + M</span>","null","","","","resp_prompt","","","","","","","","","","","","","","","",""
"categorize-image","157","311066","0.0-4.0-1.0-1.12","vdmh8f38faqz1kf","prime","5f22b315707c8a01e0ca7dc5","5f60e3c0a3b16e07647b2ff9","5f60ee139bbe2501bb76a207","true","776.9650000000256","./Stimuli/SelectedImages/LN/LN149.bmp","83","","","","test","true","N + M","83","switch","LN","LN149.bmp","forget","","61","3","prime1","left","","","",""
"html-keyboard-response","158","313068","0.0-4.0-1.0-3.12","vdmh8f38faqz1kf","prime","5f22b315707c8a01e0ca7dc5","5f60e3c0a3b16e07647b2ff9","5f60ee139bbe2501bb76a207","false","null","<div style=""align-items: center; display: flex; color: darkorange; font-size: 90px""><b>ø</b></div>","null","","","","forget_cue","","","","","","","","","","","","","","","",""
"html-keyboard-response","159","313770","0.0-4.0-1.0-0.13","vdmh8f38faqz1kf","prime","5f22b315707c8a01e0ca7dc5","5f60e3c0a3b16e07647b2ff9","5f60ee139bbe2501bb76a207","false","null","<span style=""color: black; font-size: 48px"">M + N</span>","null","","","","resp_prompt","","","","","","","","","","","","","","","",""
"categorize-image","160","315348","0.0-4.0-1.0-1.13","vdmh8f38faqz1kf","prime","5f22b315707c8a01e0ca7dc5","5f60e3c0a3b16e07647b2ff9","5f60ee139bbe2501bb76a207","true","1573.0750000000116","./Stimuli/SelectedImages/SM/SM205.bmp","83","","","","test","true","M + N","83","repetition","SM","SM205.bmp","forget","","62","3","prime1","left","","","",""
"html-keyboard-response","161","317350","0.0-4.0-1.0-3.13","vdmh8f38faqz1kf","prime","5f22b315707c8a01e0ca7dc5","5f60e3c0a3b16e07647b2ff9","5f60ee139bbe2501bb76a207","false","null","<div style=""align-items: center; display: flex; color: darkorange; font-size: 90px""><b>ø</b></div>","null","","","","forget_cue","","","","","","","","","","","","","","","",""
"html-keyboard-response","162","318052","0.0-4.0-1.0-0.14","vdmh8f38faqz1kf","prime","5f22b315707c8a01e0ca7dc5","5f60e3c0a3b16e07647b2ff9","5f60ee139bbe2501bb76a207","false","null","<span style=""color: black; font-size: 48px"">M + N</span>","null","","","","resp_prompt","","","","","","","","","","","","","","","",""
"categorize-image","163","318687","0.0-4.0-1.0-1.14","vdmh8f38faqz1kf","prime","5f22b315707c8a01e0ca7dc5","5f60e3c0a3b16e07647b2ff9","5f60ee139bbe2501bb76a207","true","632.7800000000279","./Stimuli/SelectedImages/LM/LM51.bmp","83","","","","test","true","M + N","83","switch","LM","LM51.bmp","remember","","63","3","prime1","left","","","",""
"html-keyboard-response","164","320689","0.0-4.0-1.0-3.14","vdmh8f38faqz1kf","prime","5f22b315707c8a01e0ca7dc5","5f60e3c0a3b16e07647b2ff9","5f60ee139bbe2501bb76a207","false","null","<div style=""align-items: center; display: flex; color: dodgerblue; font-size: 90px""><b>o</b></div>","null","","","","forget_cue","","","","","","","","","","","","","","","",""
"html-keyboard-response","165","321391","0.0-4.0-1.0-0.15","vdmh8f38faqz1kf","prime","5f22b315707c8a01e0ca7dc5","5f60e3c0a3b16e07647b2ff9","5f60ee139bbe2501bb76a207","false","null","<span style=""color: black; font-size: 48px"">M + N</span>","null","","","","resp_prompt","","","","","","","","","","","","","","","",""
"categorize-image","166","321934","0.0-4.0-1.0-1.15","vdmh8f38faqz1kf","prime","5f22b315707c8a01e0ca7dc5","5f60e3c0a3b16e07647b2ff9","5f60ee139bbe2501bb76a207","true","534.1500000000815","./Stimuli/SelectedImages/SM/SM78.bmp","83","","","","test","true","M + N","83","repetition","SM","SM78.bmp","remember","","64","3","prime1","left","","","",""
"html-keyboard-response","167","323937","0.0-4.0-1.0-3.15","vdmh8f38faqz1kf","prime","5f22b315707c8a01e0ca7dc5","5f60e3c0a3b16e07647b2ff9","5f60ee139bbe2501bb76a207","false","null","<div style=""align-items: center; display: flex; color: dodgerblue; font-size: 90px""><b>o</b></div>","null","","","","forget_cue","","","","","","","","","","","","","","","",""
"html-keyboard-response","168","324640","0.0-4.0-1.0-0.16","vdmh8f38faqz1kf","prime","5f22b315707c8a01e0ca7dc5","5f60e3c0a3b16e07647b2ff9","5f60ee139bbe2501bb76a207","false","null","<span style=""color: black; font-size: 48px"">N + M</span>","null","","","","resp_prompt","","","","","","","","","","","","","","","",""
"categorize-image","169","325528","0.0-4.0-1.0-1.16","vdmh8f38faqz1kf","prime","5f22b315707c8a01e0ca7dc5","5f60e3c0a3b16e07647b2ff9","5f60ee139bbe2501bb76a207","true","885.6899999999441","./Stimuli/SelectedImages/LN/LN166.bmp","83","","","","test","true","N + M","83","repetition","LN","LN166.bmp","forget","","65","3","prime1","left","","","",""
"html-keyboard-response","170","327529","0.0-4.0-1.0-3.16","vdmh8f38faqz1kf","prime","5f22b315707c8a01e0ca7dc5","5f60e3c0a3b16e07647b2ff9","5f60ee139bbe2501bb76a207","false","null","<div style=""align-items: center; display: flex; color: darkorange; font-size: 90px""><b>ø</b></div>","null","","","","forget_cue","","","","","","","","","","","","","","","",""
"html-keyboard-response","171","328232","0.0-4.0-1.0-0.17","vdmh8f38faqz1kf","prime","5f22b315707c8a01e0ca7dc5","5f60e3c0a3b16e07647b2ff9","5f60ee139bbe2501bb76a207","false","null","<span style=""color: black; font-size: 48px"">N + M</span>","null","","","","resp_prompt","","","","","","","","","","","","","","","",""
"categorize-image","172","328916","0.0-4.0-1.0-1.17","vdmh8f38faqz1kf","prime","5f22b315707c8a01e0ca7dc5","5f60e3c0a3b16e07647b2ff9","5f60ee139bbe2501bb76a207","true","676.9699999999721","./Stimuli/SelectedImages/SN/SN182.bmp","83","","","","test","true","N + M","83","repetition","SN","SN182.bmp","remember","","66","3","prime1","left","","","",""
"html-keyboard-response","173","330918","0.0-4.0-1.0-3.17","vdmh8f38faqz1kf","prime","5f22b315707c8a01e0ca7dc5","5f60e3c0a3b16e07647b2ff9","5f60ee139bbe2501bb76a207","false","null","<div style=""align-items: center; display: flex; color: dodgerblue; font-size: 90px""><b>o</b></div>","null","","","","forget_cue","","","","","","","","","","","","","","","",""
"html-keyboard-response","174","331620","0.0-4.0-1.0-0.18","vdmh8f38faqz1kf","prime","5f22b315707c8a01e0ca7dc5","5f60e3c0a3b16e07647b2ff9","5f60ee139bbe2501bb76a207","false","null","<span style=""color: black; font-size: 48px"">M + N</span>","null","","","","resp_prompt","","","","","","","","","","","","","","","",""
"categorize-image","175","332395","0.0-4.0-1.0-1.18","vdmh8f38faqz1kf","prime","5f22b315707c8a01e0ca7dc5","5f60e3c0a3b16e07647b2ff9","5f60ee139bbe2501bb76a207","true","770.0249999999069","./Stimuli/SelectedImages/SM/SM213.bmp","83","","","","test","true","M + N","83","repetition","SM","SM213.bmp","forget","","67","3","prime1","left","","","",""
"html-keyboard-response","176","334397","0.0-4.0-1.0-3.18","vdmh8f38faqz1kf","prime","5f22b315707c8a01e0ca7dc5","5f60e3c0a3b16e07647b2ff9","5f60ee139bbe2501bb76a207","false","null","<div style=""align-items: center; display: flex; color: darkorange; font-size: 90px""><b>ø</b></div>","null","","","","forget_cue","","","","","","","","","","","","","","","",""
"html-keyboard-response","177","335099","0.0-4.0-1.0-0.19","vdmh8f38faqz1kf","prime","5f22b315707c8a01e0ca7dc5","5f60e3c0a3b16e07647b2ff9","5f60ee139bbe2501bb76a207","false","null","<span style=""color: black; font-size: 48px"">N + M</span>","null","","","","resp_prompt","","","","","","","","","","","","","","","",""
"categorize-image","178","335899","0.0-4.0-1.0-1.19","vdmh8f38faqz1kf","prime","5f22b315707c8a01e0ca7dc5","5f60e3c0a3b16e07647b2ff9","5f60ee139bbe2501bb76a207","true","793.140000000014","./Stimuli/SelectedImages/LN/LN131.bmp","76","","","","test","false","N + M","83","switch","LN","LN131.bmp","remember","","68","3","prime1","right","","","",""
"html-keyboard-response","179","336402","0.0-4.0-1.0-2.19-0.19","vdmh8f38faqz1kf","prime","5f22b315707c8a01e0ca7dc5","5f60e3c0a3b16e07647b2ff9","5f60ee139bbe2501bb76a207","false","null","<span style=""color: red; font-size: 48px"">Error!</span>","null","","","","feedback","","","","","","","","","","","","","","","",""
"html-keyboard-response","180","338404","0.0-4.0-1.0-3.19","vdmh8f38faqz1kf","prime","5f22b315707c8a01e0ca7dc5","5f60e3c0a3b16e07647b2ff9","5f60ee139bbe2501bb76a207","false","null","<div style=""align-items: center; display: flex; color: dodgerblue; font-size: 90px""><b>o</b></div>","null","","","","forget_cue","","","","","","","","","","","","","","","",""
"html-keyboard-response","181","339106","0.0-4.0-1.0-0.20","vdmh8f38faqz1kf","prime","5f22b315707c8a01e0ca7dc5","5f60e3c0a3b16e07647b2ff9","5f60ee139bbe2501bb76a207","false","null","<span style=""color: black; font-size: 48px"">M + N</span>","null","","","","resp_prompt","","","","","","","","","","","","","","","",""
"categorize-image","182","339946","0.0-4.0-1.0-1.20","vdmh8f38faqz1kf","prime","5f22b315707c8a01e0ca7dc5","5f60e3c0a3b16e07647b2ff9","5f60ee139bbe2501bb76a207","true","833.3850000000093","./Stimuli/SelectedImages/LN/LN177.bmp","76","","","","test","true","M + N","76","switch","LN","LN177.bmp","forget","","69","3","prime1","right","","","",""
"html-keyboard-response","183","341949","0.0-4.0-1.0-3.20","vdmh8f38faqz1kf","prime","5f22b315707c8a01e0ca7dc5","5f60e3c0a3b16e07647b2ff9","5f60ee139bbe2501bb76a207","false","null","<div style=""align-items: center; display: flex; color: darkorange; font-size: 90px""><b>ø</b></div>","null","","","","forget_cue","","","","","","","","","","","","","","","",""
"html-keyboard-response","184","342651","0.0-4.0-1.0-0.21","vdmh8f38faqz1kf","prime","5f22b315707c8a01e0ca7dc5","5f60e3c0a3b16e07647b2ff9","5f60ee139bbe2501bb76a207","false","null","<span style=""color: black; font-size: 48px"">M + N</span>","null","","","","resp_prompt","","","","","","","","","","","","","","","",""
"categorize-image","185","343149","0.0-4.0-1.0-1.21","vdmh8f38faqz1kf","prime","5f22b315707c8a01e0ca7dc5","5f60e3c0a3b16e07647b2ff9","5f60ee139bbe2501bb76a207","true","492.22999999992317","./Stimuli/SelectedImages/LM/LM150.bmp","83","","","","test","true","M + N","83","switch","LM","LM150.bmp","remember","","70","3","prime1","left","","","",""
"html-keyboard-response","186","345152","0.0-4.0-1.0-3.21","vdmh8f38faqz1kf","prime","5f22b315707c8a01e0ca7dc5","5f60e3c0a3b16e07647b2ff9","5f60ee139bbe2501bb76a207","false","null","<div style=""align-items: center; display: flex; color: dodgerblue; font-size: 90px""><b>o</b></div>","null","","","","forget_cue","","","","","","","","","","","","","","","",""
"html-keyboard-response","187","345854","0.0-4.0-1.0-0.22","vdmh8f38faqz1kf","prime","5f22b315707c8a01e0ca7dc5","5f60e3c0a3b16e07647b2ff9","5f60ee139bbe2501bb76a207","false","null","<span style=""color: black; font-size: 48px"">N + M</span>","null","","","","resp_prompt","","","","","","","","","","","","","","","",""
"categorize-image","188","346465","0.0-4.0-1.0-1.22","vdmh8f38faqz1kf","prime","5f22b315707c8a01e0ca7dc5","5f60e3c0a3b16e07647b2ff9","5f60ee139bbe2501bb76a207","true","607.164999999979","./Stimuli/SelectedImages/SM/SM73.bmp","83","","","","test","false","N + M","76","repetition","SM","SM73.bmp","forget","","71","3","prime1","left","","","",""
"html-keyboard-response","189","346967","0.0-4.0-1.0-2.22-0.22","vdmh8f38faqz1kf","prime","5f22b315707c8a01e0ca7dc5","5f60e3c0a3b16e07647b2ff9","5f60ee139bbe2501bb76a207","false","null","<span style=""color: red; font-size: 48px"">Error!</span>","null","","","","feedback","","","","","","","","","","","","","","","",""
"html-keyboard-response","190","348969","0.0-4.0-1.0-3.22","vdmh8f38faqz1kf","prime","5f22b315707c8a01e0ca7dc5","5f60e3c0a3b16e07647b2ff9","5f60ee139bbe2501bb76a207","false","null","<div style=""align-items: center; display: flex; color: darkorange; font-size: 90px""><b>ø</b></div>","null","","","","forget_cue","","","","","","","","","","","","","","","",""
"html-keyboard-response","191","349670","0.0-4.0-1.0-0.23","vdmh8f38faqz1kf","prime","5f22b315707c8a01e0ca7dc5","5f60e3c0a3b16e07647b2ff9","5f60ee139bbe2501bb76a207","false","null","<span style=""color: black; font-size: 48px"">N + M</span>","null","","","","resp_prompt","","","","","","","","","","","","","","","",""
"categorize-image","192","351208","0.0-4.0-1.0-1.23","vdmh8f38faqz1kf","prime","5f22b315707c8a01e0ca7dc5","5f60e3c0a3b16e07647b2ff9","5f60ee139bbe2501bb76a207","true","1534.7800000000861","./Stimuli/SelectedImages/SM/SM17.bmp","76","","","","test","true","N + M","76","switch","SM","SM17.bmp","forget","","72","3","prime1","right","","","",""
"html-keyboard-response","193","353210","0.0-4.0-1.0-3.23","vdmh8f38faqz1kf","prime","5f22b315707c8a01e0ca7dc5","5f60e3c0a3b16e07647b2ff9","5f60ee139bbe2501bb76a207","false","null","<div style=""align-items: center; display: flex; color: darkorange; font-size: 90px""><b>ø</b></div>","null","","","","forget_cue","","","","","","","","","","","","","","","",""
"html-keyboard-response","194","353911","0.0-4.0-1.0-0.24","vdmh8f38faqz1kf","prime","5f22b315707c8a01e0ca7dc5","5f60e3c0a3b16e07647b2ff9","5f60ee139bbe2501bb76a207","false","null","<span style=""color: black; font-size: 48px"">N + M</span>","null","","","","resp_prompt","","","","","","","","","","","","","","","",""
"categorize-image","195","354934","0.0-4.0-1.0-1.24","vdmh8f38faqz1kf","prime","5f22b315707c8a01e0ca7dc5","5f60e3c0a3b16e07647b2ff9","5f60ee139bbe2501bb76a207","true","1017.0100000000093","./Stimuli/SelectedImages/LM/LM75.bmp","76","","","","test","true","N + M","76","switch","LM","LM75.bmp","forget","","73","3","prime1","right","","","",""
"html-keyboard-response","196","356936","0.0-4.0-1.0-3.24","vdmh8f38faqz1kf","prime","5f22b315707c8a01e0ca7dc5","5f60e3c0a3b16e07647b2ff9","5f60ee139bbe2501bb76a207","false","null","<div style=""align-items: center; display: flex; color: darkorange; font-size: 90px""><b>ø</b></div>","null","","","","forget_cue","","","","","","","","","","","","","","","",""
"html-keyboard-response","197","357638","0.0-4.0-1.0-0.25","vdmh8f38faqz1kf","prime","5f22b315707c8a01e0ca7dc5","5f60e3c0a3b16e07647b2ff9","5f60ee139bbe2501bb76a207","false","null","<span style=""color: black; font-size: 48px"">N + M</span>","null","","","","resp_prompt","","","","","","","","","","","","","","","",""
"categorize-image","198","358204","0.0-4.0-1.0-1.25","vdmh8f38faqz1kf","prime","5f22b315707c8a01e0ca7dc5","5f60e3c0a3b16e07647b2ff9","5f60ee139bbe2501bb76a207","true","560.4799999999814","./Stimuli/SelectedImages/LN/LN59.bmp","83","","","","test","true","N + M","83","switch","LN","LN59.bmp","remember","","74","3","prime1","left","","","",""
"html-keyboard-response","199","360206","0.0-4.0-1.0-3.25","vdmh8f38faqz1kf","prime","5f22b315707c8a01e0ca7dc5","5f60e3c0a3b16e07647b2ff9","5f60ee139bbe2501bb76a207","false","null","<div style=""align-items: center; display: flex; color: dodgerblue; font-size: 90px""><b>o</b></div>","null","","","","forget_cue","","","","","","","","","","","","","","","",""
"html-keyboard-response","200","360909","0.0-4.0-1.0-0.26","vdmh8f38faqz1kf","prime","5f22b315707c8a01e0ca7dc5","5f60e3c0a3b16e07647b2ff9","5f60ee139bbe2501bb76a207","false","null","<span style=""color: black; font-size: 48px"">M + N</span>","null","","","","resp_prompt","","","","","","","","","","","","","","","",""
"categorize-image","201","361618","0.0-4.0-1.0-1.26","vdmh8f38faqz1kf","prime","5f22b315707c8a01e0ca7dc5","5f60e3c0a3b16e07647b2ff9","5f60ee139bbe2501bb76a207","true","702.8150000000023","./Stimuli/SelectedImages/SM/SM76.bmp","83","","","","test","true","M + N","83","switch","SM","SM76.bmp","forget","","75","3","prime1","left","","","",""
"html-keyboard-response","202","363620","0.0-4.0-1.0-3.26","vdmh8f38faqz1kf","prime","5f22b315707c8a01e0ca7dc5","5f60e3c0a3b16e07647b2ff9","5f60ee139bbe2501bb76a207","false","null","<div style=""align-items: center; display: flex; color: darkorange; font-size: 90px""><b>ø</b></div>","null","","","","forget_cue","","","","","","","","","","","","","","","",""
"html-keyboard-response","203","364322","0.0-4.0-1.0-0.27","vdmh8f38faqz1kf","prime","5f22b315707c8a01e0ca7dc5","5f60e3c0a3b16e07647b2ff9","5f60ee139bbe2501bb76a207","false","null","<span style=""color: black; font-size: 48px"">M + N</span>","null","","","","resp_prompt","","","","","","","","","","","","","","","",""
"categorize-image","204","365390","0.0-4.0-1.0-1.27","vdmh8f38faqz1kf","prime","5f22b315707c8a01e0ca7dc5","5f60e3c0a3b16e07647b2ff9","5f60ee139bbe2501bb76a207","true","1060.1849999999395","./Stimuli/SelectedImages/LN/LN150.bmp","76","","","","test","true","M + N","76","repetition","LN","LN150.bmp","remember","","76","3","prime1","right","","","",""
"html-keyboard-response","205","367394","0.0-4.0-1.0-3.27","vdmh8f38faqz1kf","prime","5f22b315707c8a01e0ca7dc5","5f60e3c0a3b16e07647b2ff9","5f60ee139bbe2501bb76a207","false","null","<div style=""align-items: center; display: flex; color: dodgerblue; font-size: 90px""><b>o</b></div>","null","","","","forget_cue","","","","","","","","","","","","","","","",""
"html-keyboard-response","206","368095","0.0-4.0-1.0-0.28","vdmh8f38faqz1kf","prime","5f22b315707c8a01e0ca7dc5","5f60e3c0a3b16e07647b2ff9","5f60ee139bbe2501bb76a207","false","null","<span style=""color: black; font-size: 48px"">M + N</span>","null","","","","resp_prompt","","","","","","","","","","","","","","","",""
"categorize-image","207","368711","0.0-4.0-1.0-1.28","vdmh8f38faqz1kf","prime","5f22b315707c8a01e0ca7dc5","5f60e3c0a3b16e07647b2ff9","5f60ee139bbe2501bb76a207","true","611.3550000000396","./Stimuli/SelectedImages/LM/LM129.bmp","83","","","","test","true","M + N","83","repetition","LM","LM129.bmp","remember","","77","3","prime1","left","","","",""
"html-keyboard-response","208","370712","0.0-4.0-1.0-3.28","vdmh8f38faqz1kf","prime","5f22b315707c8a01e0ca7dc5","5f60e3c0a3b16e07647b2ff9","5f60ee139bbe2501bb76a207","false","null","<div style=""align-items: center; display: flex; color: dodgerblue; font-size: 90px""><b>o</b></div>","null","","","","forget_cue","","","","","","","","","","","","","","","",""
"html-keyboard-response","209","371414","0.0-4.0-1.0-0.29","vdmh8f38faqz1kf","prime","5f22b315707c8a01e0ca7dc5","5f60e3c0a3b16e07647b2ff9","5f60ee139bbe2501bb76a207","false","null","<span style=""color: black; font-size: 48px"">M + N</span>","null","","","","resp_prompt","","","","","","","","","","","","","","","",""
"categorize-image","210","371980","0.0-4.0-1.0-1.29","vdmh8f38faqz1kf","prime","5f22b315707c8a01e0ca7dc5","5f60e3c0a3b16e07647b2ff9","5f60ee139bbe2501bb76a207","true","560.8850000000093","./Stimuli/SelectedImages/LM/LM167.bmp","83","","","","test","true","M + N","83","repetition","LM","LM167.bmp","forget","","78","3","prime1","left","","","",""
"html-keyboard-response","211","373983","0.0-4.0-1.0-3.29","vdmh8f38faqz1kf","prime","5f22b315707c8a01e0ca7dc5","5f60e3c0a3b16e07647b2ff9","5f60ee139bbe2501bb76a207","false","null","<div style=""align-items: center; display: flex; color: darkorange; font-size: 90px""><b>ø</b></div>","null","","","","forget_cue","","","","","","","","","","","","","","","",""
"html-keyboard-response","212","374685","0.0-4.0-1.0-0.30","vdmh8f38faqz1kf","prime","5f22b315707c8a01e0ca7dc5","5f60e3c0a3b16e07647b2ff9","5f60ee139bbe2501bb76a207","false","null","<span style=""color: black; font-size: 48px"">N + M</span>","null","","","","resp_prompt","","","","","","","","","","","","","","","",""
"categorize-image","213","375472","0.0-4.0-1.0-1.30","vdmh8f38faqz1kf","prime","5f22b315707c8a01e0ca7dc5","5f60e3c0a3b16e07647b2ff9","5f60ee139bbe2501bb76a207","true","783.734999999986","./Stimuli/SelectedImages/SN/SN18.bmp","83","","","","test","true","N + M","83","repetition","SN","SN18.bmp","forget","","79","3","prime1","left","","","",""
"html-keyboard-response","214","377474","0.0-4.0-1.0-3.30","vdmh8f38faqz1kf","prime","5f22b315707c8a01e0ca7dc5","5f60e3c0a3b16e07647b2ff9","5f60ee139bbe2501bb76a207","false","null","<div style=""align-items: center; display: flex; color: darkorange; font-size: 90px""><b>ø</b></div>","null","","","","forget_cue","","","","","","","","","","","","","","","",""
"html-keyboard-response","215","378177","0.0-4.0-1.0-0.31","vdmh8f38faqz1kf","prime","5f22b315707c8a01e0ca7dc5","5f60e3c0a3b16e07647b2ff9","5f60ee139bbe2501bb76a207","false","null","<span style=""color: black; font-size: 48px"">N + M</span>","null","","","","resp_prompt","","","","","","","","","","","","","","","",""
"categorize-image","216","378979","0.0-4.0-1.0-1.31","vdmh8f38faqz1kf","prime","5f22b315707c8a01e0ca7dc5","5f60e3c0a3b16e07647b2ff9","5f60ee139bbe2501bb76a207","true","795.25","./Stimuli/SelectedImages/SN/SN240.bmp","83","","","","test","true","N + M","83","switch","SN","SN240.bmp","remember","","80","3","prime1","left","","","",""
"html-keyboard-response","217","380982","0.0-4.0-1.0-3.31","vdmh8f38faqz1kf","prime","5f22b315707c8a01e0ca7dc5","5f60e3c0a3b16e07647b2ff9","5f60ee139bbe2501bb76a207","false","null","<div style=""align-items: center; display: flex; color: dodgerblue; font-size: 90px""><b>o</b></div>","null","","","","forget_cue","","","","","","","","","","","","","","","",""
"html-keyboard-response","218","381683","0.0-4.0-1.0-0.32","vdmh8f38faqz1kf","prime","5f22b315707c8a01e0ca7dc5","5f60e3c0a3b16e07647b2ff9","5f60ee139bbe2501bb76a207","false","null","<span style=""color: black; font-size: 48px"">N + M</span>","null","","","","resp_prompt","","","","","","","","","","","","","","","",""
"categorize-image","219","382528","0.0-4.0-1.0-1.32","vdmh8f38faqz1kf","prime","5f22b315707c8a01e0ca7dc5","5f60e3c0a3b16e07647b2ff9","5f60ee139bbe2501bb76a207","true","841.9800000000396","./Stimuli/SelectedImages/LM/LM216.bmp","76","","","","test","true","N + M","76","repetition","LM","LM216.bmp","remember","","81","3","prime1","right","","","",""
"html-keyboard-response","220","384530","0.0-4.0-1.0-3.32","vdmh8f38faqz1kf","prime","5f22b315707c8a01e0ca7dc5","5f60e3c0a3b16e07647b2ff9","5f60ee139bbe2501bb76a207","false","null","<div style=""align-items: center; display: flex; color: dodgerblue; font-size: 90px""><b>o</b></div>","null","","","","forget_cue","","","","","","","","","","","","","","","",""
"html-keyboard-response","221","385234","0.0-4.0-1.0-0.33","vdmh8f38faqz1kf","prime","5f22b315707c8a01e0ca7dc5","5f60e3c0a3b16e07647b2ff9","5f60ee139bbe2501bb76a207","false","null","<span style=""color: black; font-size: 48px"">M + N</span>","null","","","","resp_prompt","","","","","","","","","","","","","","","",""
"categorize-image","222","386213","0.0-4.0-1.0-1.33","vdmh8f38faqz1kf","prime","5f22b315707c8a01e0ca7dc5","5f60e3c0a3b16e07647b2ff9","5f60ee139bbe2501bb76a207","true","974.320000000007","./Stimuli/SelectedImages/LN/LN101.bmp","76","","","","test","true","M + N","76","repetition","LN","LN101.bmp","forget","","82","3","prime1","right","","","",""
"html-keyboard-response","223","388216","0.0-4.0-1.0-3.33","vdmh8f38faqz1kf","prime","5f22b315707c8a01e0ca7dc5","5f60e3c0a3b16e07647b2ff9","5f60ee139bbe2501bb76a207","false","null","<div style=""align-items: center; display: flex; color: darkorange; font-size: 90px""><b>ø</b></div>","null","","","","forget_cue","","","","","","","","","","","","","","","",""
"html-keyboard-response","224","388917","0.0-4.0-1.0-0.34","vdmh8f38faqz1kf","prime","5f22b315707c8a01e0ca7dc5","5f60e3c0a3b16e07647b2ff9","5f60ee139bbe2501bb76a207","false","null","<span style=""color: black; font-size: 48px"">M + N</span>","null","","","","resp_prompt","","","","","","","","","","","","","","","",""
"categorize-image","225","389664","0.0-4.0-1.0-1.34","vdmh8f38faqz1kf","prime","5f22b315707c8a01e0ca7dc5","5f60e3c0a3b16e07647b2ff9","5f60ee139bbe2501bb76a207","true","743.5349999999744","./Stimuli/SelectedImages/SN/SN179.bmp","76","","","","test","true","M + N","76","switch","SN","SN179.bmp","forget","","83","3","prime1","right","","","",""
"html-keyboard-response","226","391666","0.0-4.0-1.0-3.34","vdmh8f38faqz1kf","prime","5f22b315707c8a01e0ca7dc5","5f60e3c0a3b16e07647b2ff9","5f60ee139bbe2501bb76a207","false","null","<div style=""align-items: center; display: flex; color: darkorange; font-size: 90px""><b>ø</b></div>","null","","","","forget_cue","","","","","","","","","","","","","","","",""
"html-keyboard-response","227","392368","0.0-4.0-1.0-0.35","vdmh8f38faqz1kf","prime","5f22b315707c8a01e0ca7dc5","5f60e3c0a3b16e07647b2ff9","5f60ee139bbe2501bb76a207","false","null","<span style=""color: black; font-size: 48px"">N + M</span>","null","","","","resp_prompt","","","","","","","","","","","","","","","",""
"categorize-image","228","393325","0.0-4.0-1.0-1.35","vdmh8f38faqz1kf","prime","5f22b315707c8a01e0ca7dc5","5f60e3c0a3b16e07647b2ff9","5f60ee139bbe2501bb76a207","true","953.1650000000373","./Stimuli/SelectedImages/LM/LM235.bmp","76","","","","test","true","N + M","76","repetition","LM","LM235.bmp","forget","","84","3","prime1","right","","","",""
"html-keyboard-response","229","395327","0.0-4.0-1.0-3.35","vdmh8f38faqz1kf","prime","5f22b315707c8a01e0ca7dc5","5f60e3c0a3b16e07647b2ff9","5f60ee139bbe2501bb76a207","false","null","<div style=""align-items: center; display: flex; color: darkorange; font-size: 90px""><b>ø</b></div>","null","","","","forget_cue","","","","","","","","","","","","","","","",""
"html-keyboard-response","230","396032","0.0-4.0-1.0-0.36","vdmh8f38faqz1kf","prime","5f22b315707c8a01e0ca7dc5","5f60e3c0a3b16e07647b2ff9","5f60ee139bbe2501bb76a207","false","null","<span style=""color: black; font-size: 48px"">M + N</span>","null","","","","resp_prompt","","","","","","","","","","","","","","","",""
"categorize-image","231","397274","0.0-4.0-1.0-1.36","vdmh8f38faqz1kf","prime","5f22b315707c8a01e0ca7dc5","5f60e3c0a3b16e07647b2ff9","5f60ee139bbe2501bb76a207","true","1236.4049999999697","./Stimuli/SelectedImages/LM/LM209.bmp","83","","","","test","true","M + N","83","repetition","LM","LM209.bmp","remember","","85","3","prime1","left","","","",""
"html-keyboard-response","232","399275","0.0-4.0-1.0-3.36","vdmh8f38faqz1kf","prime","5f22b315707c8a01e0ca7dc5","5f60e3c0a3b16e07647b2ff9","5f60ee139bbe2501bb76a207","false","null","<div style=""align-items: center; display: flex; color: dodgerblue; font-size: 90px""><b>o</b></div>","null","","","","forget_cue","","","","","","","","","","","","","","","",""
"html-keyboard-response","233","399979","0.0-4.0-1.0-0.37","vdmh8f38faqz1kf","prime","5f22b315707c8a01e0ca7dc5","5f60e3c0a3b16e07647b2ff9","5f60ee139bbe2501bb76a207","false","null","<span style=""color: black; font-size: 48px"">N + M</span>","null","","","","resp_prompt","","","","","","","","","","","","","","","",""
"categorize-image","234","400852","0.0-4.0-1.0-1.37","vdmh8f38faqz1kf","prime","5f22b315707c8a01e0ca7dc5","5f60e3c0a3b16e07647b2ff9","5f60ee139bbe2501bb76a207","true","866.1599999999162","./Stimuli/SelectedImages/LM/LM57.bmp","76","","","","test","true","N + M","76","repetition","LM","LM57.bmp","remember","","86","3","prime1","right","","","",""
"html-keyboard-response","235","402855","0.0-4.0-1.0-3.37","vdmh8f38faqz1kf","prime","5f22b315707c8a01e0ca7dc5","5f60e3c0a3b16e07647b2ff9","5f60ee139bbe2501bb76a207","false","null","<div style=""align-items: center; display: flex; color: dodgerblue; font-size: 90px""><b>o</b></div>","null","","","","forget_cue","","","","","","","","","","","","","","","",""
"html-keyboard-response","236","403558","0.0-4.0-1.0-0.38","vdmh8f38faqz1kf","prime","5f22b315707c8a01e0ca7dc5","5f60e3c0a3b16e07647b2ff9","5f60ee139bbe2501bb76a207","false","null","<span style=""color: black; font-size: 48px"">N + M</span>","null","","","","resp_prompt","","","","","","","","","","","","","","","",""
"categorize-image","237","404652","0.0-4.0-1.0-1.38","vdmh8f38faqz1kf","prime","5f22b315707c8a01e0ca7dc5","5f60e3c0a3b16e07647b2ff9","5f60ee139bbe2501bb76a207","true","1088.1299999999464","./Stimuli/SelectedImages/LM/LM48.bmp","76","","","","test","true","N + M","76","repetition","LM","LM48.bmp","forget","","87","3","prime1","right","","","",""
"html-keyboard-response","238","406655","0.0-4.0-1.0-3.38","vdmh8f38faqz1kf","prime","5f22b315707c8a01e0ca7dc5","5f60e3c0a3b16e07647b2ff9","5f60ee139bbe2501bb76a207","false","null","<div style=""align-items: center; display: flex; color: darkorange; font-size: 90px""><b>ø</b></div>","null","","","","forget_cue","","","","","","","","","","","","","","","",""
"html-keyboard-response","239","407357","0.0-4.0-1.0-0.39","vdmh8f38faqz1kf","prime","5f22b315707c8a01e0ca7dc5","5f60e3c0a3b16e07647b2ff9","5f60ee139bbe2501bb76a207","false","null","<span style=""color: black; font-size: 48px"">N + M</span>","null","","","","resp_prompt","","","","","","","","","","","","","","","",""
"categorize-image","240","408032","0.0-4.0-1.0-1.39","vdmh8f38faqz1kf","prime","5f22b315707c8a01e0ca7dc5","5f60e3c0a3b16e07647b2ff9","5f60ee139bbe2501bb76a207","true","670.0599999999977","./Stimuli/SelectedImages/SN/SN111.bmp","83","","","","test","true","N + M","83","repetition","SN","SN111.bmp","forget","","88","3","prime1","left","","","",""
"html-keyboard-response","241","410033","0.0-4.0-1.0-3.39","vdmh8f38faqz1kf","prime","5f22b315707c8a01e0ca7dc5","5f60e3c0a3b16e07647b2ff9","5f60ee139bbe2501bb76a207","false","null","<div style=""align-items: center; display: flex; color: darkorange; font-size: 90px""><b>ø</b></div>","null","","","","forget_cue","","","","","","","","","","","","","","","",""
"html-keyboard-response","242","410735","0.0-4.0-1.0-0.40","vdmh8f38faqz1kf","prime","5f22b315707c8a01e0ca7dc5","5f60e3c0a3b16e07647b2ff9","5f60ee139bbe2501bb76a207","false","null","<span style=""color: black; font-size: 48px"">M + N</span>","null","","","","resp_prompt","","","","","","","","","","","","","","","",""
"categorize-image","243","411264","0.0-4.0-1.0-1.40","vdmh8f38faqz1kf","prime","5f22b315707c8a01e0ca7dc5","5f60e3c0a3b16e07647b2ff9","5f60ee139bbe2501bb76a207","true","524.9400000000605","./Stimuli/SelectedImages/LM/LM157.bmp","83","","","","test","true","M + N","83","repetition","LM","LM157.bmp","forget","","89","3","prime1","left","","","",""
"html-keyboard-response","244","413266","0.0-4.0-1.0-3.40","vdmh8f38faqz1kf","prime","5f22b315707c8a01e0ca7dc5","5f60e3c0a3b16e07647b2ff9","5f60ee139bbe2501bb76a207","false","null","<div style=""align-items: center; display: flex; color: darkorange; font-size: 90px""><b>ø</b></div>","null","","","","forget_cue","","","","","","","","","","","","","","","",""
"html-keyboard-response","245","413968","0.0-4.0-1.0-0.41","vdmh8f38faqz1kf","prime","5f22b315707c8a01e0ca7dc5","5f60e3c0a3b16e07647b2ff9","5f60ee139bbe2501bb76a207","false","null","<span style=""color: black; font-size: 48px"">N + M</span>","null","","","","resp_prompt","","","","","","","","","","","","","","","",""
"categorize-image","246","415480","0.0-4.0-1.0-1.41","vdmh8f38faqz1kf","prime","5f22b315707c8a01e0ca7dc5","5f60e3c0a3b16e07647b2ff9","5f60ee139bbe2501bb76a207","true","1509.0650000000023","./Stimuli/SelectedImages/LM/LM179.bmp","76","","","","test","true","N + M","76","switch","LM","LM179.bmp","remember","","90","3","prime1","right","","","",""
"html-keyboard-response","247","417482","0.0-4.0-1.0-3.41","vdmh8f38faqz1kf","prime","5f22b315707c8a01e0ca7dc5","5f60e3c0a3b16e07647b2ff9","5f60ee139bbe2501bb76a207","false","null","<div style=""align-items: center; display: flex; color: dodgerblue; font-size: 90px""><b>o</b></div>","null","","","","forget_cue","","","","","","","","","","","","","","","",""
"html-keyboard-response","248","418185","0.0-4.0-1.0-0.42","vdmh8f38faqz1kf","prime","5f22b315707c8a01e0ca7dc5","5f60e3c0a3b16e07647b2ff9","5f60ee139bbe2501bb76a207","false","null","<span style=""color: black; font-size: 48px"">M + N</span>","null","","","","resp_prompt","","","","","","","","","","","","","","","",""
"categorize-image","249","418784","0.0-4.0-1.0-1.42","vdmh8f38faqz1kf","prime","5f22b315707c8a01e0ca7dc5","5f60e3c0a3b16e07647b2ff9","5f60ee139bbe2501bb76a207","true","594.5949999999139","./Stimuli/SelectedImages/SM/SM195.bmp","83","","","","test","true","M + N","83","switch","SM","SM195.bmp","remember","","91","3","prime1","left","","","",""
"html-keyboard-response","250","420786","0.0-4.0-1.0-3.42","vdmh8f38faqz1kf","prime","5f22b315707c8a01e0ca7dc5","5f60e3c0a3b16e07647b2ff9","5f60ee139bbe2501bb76a207","false","null","<div style=""align-items: center; display: flex; color: dodgerblue; font-size: 90px""><b>o</b></div>","null","","","","forget_cue","","","","","","","","","","","","","","","",""
"html-keyboard-response","251","421487","0.0-4.0-1.0-0.43","vdmh8f38faqz1kf","prime","5f22b315707c8a01e0ca7dc5","5f60e3c0a3b16e07647b2ff9","5f60ee139bbe2501bb76a207","false","null","<span style=""color: black; font-size: 48px"">M + N</span>","null","","","","resp_prompt","","","","","","","","","","","","","","","",""
"categorize-image","252","421984","0.0-4.0-1.0-1.43","vdmh8f38faqz1kf","prime","5f22b315707c8a01e0ca7dc5","5f60e3c0a3b16e07647b2ff9","5f60ee139bbe2501bb76a207","true","494.28000000002794","./Stimuli/SelectedImages/LN/LN111.bmp","76","","","","test","true","M + N","76","switch","LN","LN111.bmp","forget","","92","3","prime1","right","","","",""
