"trial_type","trial_index","time_elapsed","internal_node_id","subject","exp_part","prolific_PID","study_ID","session_ID","use","rt","stimulus","key_press","button_pressed","responses","question_order","trial_part","correct","resp_map","correct_resp","probe_condition","category","image","forget_condition","list","trial_num","block_num","block","response","test_part","n_span","sequence","num_spaces"
"pavlovia","0","5","0.0-0.0","do56oya5vkfm2vo","","5f209bbf2f32cf00088e4f87","5f60e3c0a3b16e07647b2ff9","5f60ee620b6bef00088fbae6","false","","","","","","","","","","","","","","","","","","","","","","",""
"html-keyboard-response","1","19044","0.0-1.0-0.0-0.0","do56oya5vkfm2vo","welcome","5f209bbf2f32cf00088e4f87","5f60e3c0a3b16e07647b2ff9","5f60ee620b6bef00088fbae6","false","19036","<div align=left>Dear participant, <br> thank you for participating in an online study of the Cognition, Action, and Sustainability Unit of the University of Freiburg! <br> <br>The aim of this study is to examine our ability to remember previously learned information. <br>Our goal is to find out, whether our memory improves, when we only remember information that is relevant to us. <br>The experiment will take about 35 minutes to complete. <br> <br>Please, note that you can only participate in this study if you are using a device with a keyboard (PC, Laptop etc.) <br>and not if you are using a mobile device such as a tablet or smartphone.<br> <br>Press 'SPACE' to proceed to the experiment. </div>","32","","","","","","","","","","","","","","","","","","","",""
"html-keyboard-response","2","27105","0.0-1.0-0.0-1.0","do56oya5vkfm2vo","welcome","5f209bbf2f32cf00088e4f87","5f60e3c0a3b16e07647b2ff9","5f60ee620b6bef00088fbae6","false","8054","<div align=left><strong> Time Course of this experiment: </strong> <br><br> <strong> 1.</strong>  First, please fill in some information regarding your demographic data. <br><br> <strong> 2.</strong>  Next, your task will be to classify everyday objects. <br>In addition, you will be asked to remember certain objects and recall them later. <br>Working on these tasks requires your undivided attention and concentration.<br>It is therefore essential that you eliminate any sources of distraction in your  <br>environment and ensure that you will not be disturbed. <br><br><strong> 3.</strong>  At the end of the experiment, you will be asked to answer a few additional questions. <br> <br><strong> Important:</strong> After finishing the experiment, only close the browser window <br> by clicking on the 'end the experiment'-button when you are asked to do so. <br>Closing the browser window prematurely will make the allocation of your participation credit impossible. <br><br> Press 'SPACE' to start the experiment. </div>","32","","","","","","","","","","","","","","","","","","","",""
"html-button-response","3","30435","0.0-1.0-0.0-2.0","do56oya5vkfm2vo","welcome","5f209bbf2f32cf00088e4f87","5f60e3c0a3b16e07647b2ff9","5f60ee620b6bef00088fbae6","true","3327","<div align=left><strong> Informed consent </strong>  <br>The aim of our research is to better understand human behavior and mental processes. <br>In the following study your behavior (e.g. choices, reaction times) will be studied. <br> <br><strong> Voluntariness and Anonymity </strong> <br>Your participation in this study is  <strong> voluntary</strong>.<br>You may withdraw your consent to participate at any time without providing a reason for doing so and without fear of prejudice. <br><br>As no personal data will be collected, <strong>your data and your person cannot be connected after data collection</strong> – the data-set is anonymous. <br>Respectively, deletion of your data will not be possible after data collection has been completed, as we cannot retrace your data-set.<br>The results and anonymized data collected in this study will be published as a scientific publication. <br>This will happen in an <strong>anonymized format</strong>, so that no data can be traced back to a specific person. <br> <br>The anonymized data of this study will be made available to other researchers and/or in a data archive on the Internet as a means of transparency and to enable subsequent re-use. By doing so, this study follows the recommendations of the Deutsche Forschungsgemeinschaft (DFG, German Research Foundation) and Deutsche Gesellschaft für Psychologie (DGPS, German Psychological Society) regarding quality assurance in research.<br>If you have any questions now or after the experiment, please contact our team (experiments@cs.uni-freiburg.de).<br><br><br>I hereby declare, that I understand the above described conditions of participation and I agree to participate under these conditions. <br><br> </div>","","0","","","","","","","","","","","","","","","","","","",""
"html-keyboard-response","4","51652","0.0-1.0-0.0-3.0","do56oya5vkfm2vo","welcome","5f209bbf2f32cf00088e4f87","5f60e3c0a3b16e07647b2ff9","5f60ee620b6bef00088fbae6","false","21215.000000000007","<div align=left><strong> General information concerning the experiment </strong>  <br> <br>Please follow the instructions:<ol> <li><strong> Do not leave this tab (your browser window) during the experiment and do not reload this tab! </strong>  <br>If you do switch tabs/windows during the experiment (to check your mail or visit another website, for example), <br>the experiment will end automatically and you will <strong>not receive credit</strong> for your participation. <br>Repeated participation or resumption of the experiment is impossible.</li> <br><li>Please close all other programs for the duration of your participation. </li> <br><li>Please mute or turn off your phone and put it out of your reach. </li> <br><li>Please also take off any disturbing accessories (such as wristwatches, bracelets, etc.). </li> <br><li>If you have music playing in the background, please turn it off now. </li> <br></ol>Thank you! <br>Press 'SPACE' to continue. </div>","32","","","","","","","","","","","","","","","","","","","",""
"survey-text","5","58171","0.0-1.0-1.0-0.0","do56oya5vkfm2vo","demographics","5f209bbf2f32cf00088e4f87","5f60e3c0a3b16e07647b2ff9","5f60ee620b6bef00088fbae6","true","6480.999999999993","","","","{""age"":""21""}","","","","","","","","","","","","","","","","","",""
"survey-multi-choice","6","71849","0.0-1.0-1.0-1.0","do56oya5vkfm2vo","demographics","5f209bbf2f32cf00088e4f87","5f60e3c0a3b16e07647b2ff9","5f60ee620b6bef00088fbae6","true","13674.000000000007","","","","{""gender"":""female"",""school"":""high school"",""education"":""Still in training/ university""}","[0,1,2]","","","","","","","","","","","","","","","","",""
"survey-text","7","85970","0.0-1.0-1.0-2.0-0.0","do56oya5vkfm2vo","demographics","5f209bbf2f32cf00088e4f87","5f60e3c0a3b16e07647b2ff9","5f60ee620b6bef00088fbae6","true","14113","","","","{""education_text"":""A degree in English Literature""}","","","","","","","","","","","","","","","","","",""
"html-keyboard-response","8","101553","0.0-1.0-2.0","do56oya5vkfm2vo","instructions","5f209bbf2f32cf00088e4f87","5f60e3c0a3b16e07647b2ff9","5f60ee620b6bef00088fbae6","false","15580","<div align=left> The experiment is now about to start: <br> <br>In the following part, you will be presented pictures of everyday objects. <br>Your first task is to <strong>classify these objects. </strong> <br> <br> You will classify them either as mechanical or non-mechanical objects. <br> <br>Objects that include any kind of technical mechanism (for example, wheels, switches, levers, <br> electronic components) fall under the category of <strong>mechanical</strong> objects. <br>Only objects without any kind of technical mechanism should be classified as <strong>non-mechanical</strong>. <br><br>Press 'SPACE' to continue. </div>","32","","","","","","","","","","","","","","","","","","","",""
"html-keyboard-response","9","145156","0.0-2.0-0.0","do56oya5vkfm2vo","instructions","5f209bbf2f32cf00088e4f87","5f60e3c0a3b16e07647b2ff9","5f60ee620b6bef00088fbae6","false","43601","<div align=justify>You will classify the objects using the <strong>'S'</strong> and the <strong>'L'</strong> keys on your keyboard.<br>For doing so, please place your <strong>left index finger</strong> on the <strong>'S'</strong> key and place your <strong>right index finger</strong> on the <strong>'L'</strong> key. <br><br> Each trial starts with an instruction, indicating which key ('S'/'L') you need to press to classify <br>the object as mechanical (letter M) or non-mechanical (letter N).<br>The instruction <strong>M + N</strong> indicates that, in the current trial, by pressing the left key ('S') you classify the displayed object as mechanical (M) <br> and by pressing the right key ('L') you classify the object as non-mechanical (N). <br>The instruction <strong>N + M</strong> on the other hand indicates that by pressing the left key ('S') you classify the displayed object as non-mechanical (N) <br> and by pressing the right key ('L') you classify the object as mechanical (M). <br><br>Please press the key corresponding to the correct classification as fast as possible as soon as the object is displayed and try to avoid making mistakes.<br>If you do not respond within a 2 second window, a corresponding feedback will be displayed and the next trial will start.<br> The experiment is divided into multiple blocks to give you the opportunity to take a break after each block. <br>First, you can now practice this task. <br><br>Please place your <strong>LEFT INDEX FINGER</strong> on the 'S' key and your <strong>RIGHT INDEX FINGER</strong> on the 'L' key now. <br><br>Press SPACE to continue.</div>","32","","","","","","","","","","","","","","","","","","","",""
"html-keyboard-response","10","157830","0.0-2.0-1.0","do56oya5vkfm2vo","instructions","5f209bbf2f32cf00088e4f87","5f60e3c0a3b16e07647b2ff9","5f60ee620b6bef00088fbae6","false","12673.00000000003","<div align=left> You will now have time to practice this task.<br><br>Remember: <br> <br><li>Please place your index fingers on the <strong>'S'</strong> and <strong>'L'</strong> keys <br>to respond as fast and accurately as possible.</li><li>Every picture can be classified as either mechanical or non-mechanical.</li><li>If you do not respond in time or commit an error, you will receive a corresponding feedback. </li><li> Please try to respond as <strong> fast </strong> and as <strong> accurately as possible </strong> .<br><li>To ensure optimal results, please minimize distractions and stay focused. </li><br><br>Press SPACE to continue.</div>","32","","","","","","","","","","","","","","","","","","","",""
"html-keyboard-response","11","158534","0.0-2.0-2.0-0.0","do56oya5vkfm2vo","practice_no_cue","5f209bbf2f32cf00088e4f87","5f60e3c0a3b16e07647b2ff9","5f60ee620b6bef00088fbae6","false","null","<span style=""color: black; font-size: 48px"">M + N</span>","null","","","","resp_prompt","","","","","","","","","","","","","","","",""
"categorize-image","12","160346","0.0-2.0-2.0-1.0","do56oya5vkfm2vo","practice_no_cue","5f209bbf2f32cf00088e4f87","5f60e3c0a3b16e07647b2ff9","5f60ee620b6bef00088fbae6","true","1306.000000000029","./Stimuli/ImagesPractice/LM239.jpg","83","","","","test","true","M + N","83","","LM","LM239.jpg","forget","old","1","1","start","left","","","",""
"html-keyboard-response","13","161049","0.0-2.0-2.0-0.1","do56oya5vkfm2vo","practice_no_cue","5f209bbf2f32cf00088e4f87","5f60e3c0a3b16e07647b2ff9","5f60ee620b6bef00088fbae6","false","null","<span style=""color: black; font-size: 48px"">N + M</span>","null","","","","resp_prompt","","","","","","","","","","","","","","","",""
"categorize-image","14","163458","0.0-2.0-2.0-1.1","do56oya5vkfm2vo","practice_no_cue","5f209bbf2f32cf00088e4f87","5f60e3c0a3b16e07647b2ff9","5f60ee620b6bef00088fbae6","true","1906","./Stimuli/ImagesPractice/SN75.jpg","76","","","","test","false","N + M","83","","SN","SN75.jpg","forget","old","2","1","start","right","","","",""
"html-keyboard-response","15","164160","0.0-2.0-2.0-0.2","do56oya5vkfm2vo","practice_no_cue","5f209bbf2f32cf00088e4f87","5f60e3c0a3b16e07647b2ff9","5f60ee620b6bef00088fbae6","false","null","<span style=""color: black; font-size: 48px"">M + N</span>","null","","","","resp_prompt","","","","","","","","","","","","","","","",""
"categorize-image","16","166309","0.0-2.0-2.0-1.2","do56oya5vkfm2vo","practice_no_cue","5f209bbf2f32cf00088e4f87","5f60e3c0a3b16e07647b2ff9","5f60ee620b6bef00088fbae6","true","1646","./Stimuli/ImagesPractice/LM143.jpg","76","","","","test","false","M + N","83","","LM","LM143.jpg","forget","old","3","1","start","right","","","",""
"html-keyboard-response","17","167011","0.0-2.0-2.0-0.3","do56oya5vkfm2vo","practice_no_cue","5f209bbf2f32cf00088e4f87","5f60e3c0a3b16e07647b2ff9","5f60ee620b6bef00088fbae6","false","null","<span style=""color: black; font-size: 48px"">M + N</span>","null","","","","resp_prompt","","","","","","","","","","","","","","","",""
"categorize-image","18","169515","0.0-2.0-2.0-1.3","do56oya5vkfm2vo","practice_no_cue","5f209bbf2f32cf00088e4f87","5f60e3c0a3b16e07647b2ff9","5f60ee620b6bef00088fbae6","true","null","./Stimuli/ImagesPractice/SN220.jpg","null","","","","test","false","M + N","76","","SN","SN220.jpg","remember","old","4","1","start","too_slow","","","",""
"html-keyboard-response","19","170218","0.0-2.0-2.0-0.4","do56oya5vkfm2vo","practice_no_cue","5f209bbf2f32cf00088e4f87","5f60e3c0a3b16e07647b2ff9","5f60ee620b6bef00088fbae6","false","null","<span style=""color: black; font-size: 48px"">N + M</span>","null","","","","resp_prompt","","","","","","","","","","","","","","","",""
"categorize-image","20","171963","0.0-2.0-2.0-1.4","do56oya5vkfm2vo","practice_no_cue","5f209bbf2f32cf00088e4f87","5f60e3c0a3b16e07647b2ff9","5f60ee620b6bef00088fbae6","true","1242.000000000029","./Stimuli/ImagesPractice/LM55.jpg","83","","","","test","false","N + M","76","","LM","LM55.jpg","forget","old","5","1","start","left","","","",""
"html-keyboard-response","21","172666","0.0-2.0-2.0-0.5","do56oya5vkfm2vo","practice_no_cue","5f209bbf2f32cf00088e4f87","5f60e3c0a3b16e07647b2ff9","5f60ee620b6bef00088fbae6","false","null","<span style=""color: black; font-size: 48px"">M + N</span>","null","","","","resp_prompt","","","","","","","","","","","","","","","",""
"categorize-image","22","174084","0.0-2.0-2.0-1.5","do56oya5vkfm2vo","practice_no_cue","5f209bbf2f32cf00088e4f87","5f60e3c0a3b16e07647b2ff9","5f60ee620b6bef00088fbae6","true","916","./Stimuli/ImagesPractice/LN17.jpg","76","","","","test","true","M + N","76","","LN","LN17.jpg","remember","old","6","1","start","right","","","",""
"html-keyboard-response","23","174787","0.0-2.0-2.0-0.6","do56oya5vkfm2vo","practice_no_cue","5f209bbf2f32cf00088e4f87","5f60e3c0a3b16e07647b2ff9","5f60ee620b6bef00088fbae6","false","null","<span style=""color: black; font-size: 48px"">M + N</span>","null","","","","resp_prompt","","","","","","","","","","","","","","","",""
"categorize-image","24","176784","0.0-2.0-2.0-1.6","do56oya5vkfm2vo","practice_no_cue","5f209bbf2f32cf00088e4f87","5f60e3c0a3b16e07647b2ff9","5f60ee620b6bef00088fbae6","true","1495","./Stimuli/ImagesPractice/LN109.jpg","83","","","","test","false","M + N","76","","LN","LN109.jpg","forget","old","7","1","start","left","","","",""
"html-keyboard-response","25","177487","0.0-2.0-2.0-0.7","do56oya5vkfm2vo","practice_no_cue","5f209bbf2f32cf00088e4f87","5f60e3c0a3b16e07647b2ff9","5f60ee620b6bef00088fbae6","false","null","<span style=""color: black; font-size: 48px"">N + M</span>","null","","","","resp_prompt","","","","","","","","","","","","","","","",""
"categorize-image","26","179991","0.0-2.0-2.0-1.7","do56oya5vkfm2vo","practice_no_cue","5f209bbf2f32cf00088e4f87","5f60e3c0a3b16e07647b2ff9","5f60ee620b6bef00088fbae6","true","null","./Stimuli/ImagesPractice/SM35.jpg","null","","","","test","false","N + M","76","","SM","SM35.jpg","forget","old","8","1","start","too_slow","","","",""
"html-keyboard-response","27","180693","0.0-2.0-2.0-0.8","do56oya5vkfm2vo","practice_no_cue","5f209bbf2f32cf00088e4f87","5f60e3c0a3b16e07647b2ff9","5f60ee620b6bef00088fbae6","false","null","<span style=""color: black; font-size: 48px"">N + M</span>","null","","","","resp_prompt","","","","","","","","","","","","","","","",""
"categorize-image","28","182588","0.0-2.0-2.0-1.8","do56oya5vkfm2vo","practice_no_cue","5f209bbf2f32cf00088e4f87","5f60e3c0a3b16e07647b2ff9","5f60ee620b6bef00088fbae6","true","1392.000000000029","./Stimuli/ImagesPractice/SM62.jpg","83","","","","test","false","N + M","76","","SM","SM62.jpg","remember","old","9","1","start","left","","","",""
"html-keyboard-response","29","183290","0.0-2.0-2.0-0.9","do56oya5vkfm2vo","practice_no_cue","5f209bbf2f32cf00088e4f87","5f60e3c0a3b16e07647b2ff9","5f60ee620b6bef00088fbae6","false","null","<span style=""color: black; font-size: 48px"">M + N</span>","null","","","","resp_prompt","","","","","","","","","","","","","","","",""
"categorize-image","30","185157","0.0-2.0-2.0-1.9","do56oya5vkfm2vo","practice_no_cue","5f209bbf2f32cf00088e4f87","5f60e3c0a3b16e07647b2ff9","5f60ee620b6bef00088fbae6","true","1364","./Stimuli/ImagesPractice/LM224.jpg","83","","","","test","true","M + N","83","","LM","LM224.jpg","remember","old","10","1","start","left","","","",""
"html-keyboard-response","31","185860","0.0-2.0-2.0-0.10","do56oya5vkfm2vo","practice_no_cue","5f209bbf2f32cf00088e4f87","5f60e3c0a3b16e07647b2ff9","5f60ee620b6bef00088fbae6","false","null","<span style=""color: black; font-size: 48px"">N + M</span>","null","","","","resp_prompt","","","","","","","","","","","","","","","",""
"categorize-image","32","187961","0.0-2.0-2.0-1.10","do56oya5vkfm2vo","practice_no_cue","5f209bbf2f32cf00088e4f87","5f60e3c0a3b16e07647b2ff9","5f60ee620b6bef00088fbae6","true","1598.999999999971","./Stimuli/ImagesPractice/LN72.jpg","76","","","","test","false","N + M","83","","LN","LN72.jpg","remember","old","11","1","start","right","","","",""
"html-keyboard-response","33","188663","0.0-2.0-2.0-0.11","do56oya5vkfm2vo","practice_no_cue","5f209bbf2f32cf00088e4f87","5f60e3c0a3b16e07647b2ff9","5f60ee620b6bef00088fbae6","false","null","<span style=""color: black; font-size: 48px"">N + M</span>","null","","","","resp_prompt","","","","","","","","","","","","","","","",""
"categorize-image","34","190496","0.0-2.0-2.0-1.11","do56oya5vkfm2vo","practice_no_cue","5f209bbf2f32cf00088e4f87","5f60e3c0a3b16e07647b2ff9","5f60ee620b6bef00088fbae6","true","1330","./Stimuli/ImagesPractice/SM61.jpg","76","","","","test","true","N + M","76","","SM","SM61.jpg","remember","old","12","1","start","right","","","",""
"html-keyboard-response","35","191198","0.0-2.0-2.0-0.12","do56oya5vkfm2vo","practice_no_cue","5f209bbf2f32cf00088e4f87","5f60e3c0a3b16e07647b2ff9","5f60ee620b6bef00088fbae6","false","null","<span style=""color: black; font-size: 48px"">N + M</span>","null","","","","resp_prompt","","","","","","","","","","","","","","","",""
"categorize-image","36","192688","0.0-2.0-2.0-1.12","do56oya5vkfm2vo","practice_no_cue","5f209bbf2f32cf00088e4f87","5f60e3c0a3b16e07647b2ff9","5f60ee620b6bef00088fbae6","true","985.9999999999709","./Stimuli/ImagesPractice/SM37.jpg","76","","","","test","true","N + M","76","","SM","SM37.jpg","remember","old","13","1","start","right","","","",""
"html-keyboard-response","37","193390","0.0-2.0-2.0-0.13","do56oya5vkfm2vo","practice_no_cue","5f209bbf2f32cf00088e4f87","5f60e3c0a3b16e07647b2ff9","5f60ee620b6bef00088fbae6","false","null","<span style=""color: black; font-size: 48px"">M + N</span>","null","","","","resp_prompt","","","","","","","","","","","","","","","",""
"categorize-image","38","194912","0.0-2.0-2.0-1.13","do56oya5vkfm2vo","practice_no_cue","5f209bbf2f32cf00088e4f87","5f60e3c0a3b16e07647b2ff9","5f60ee620b6bef00088fbae6","true","1019.9999999999709","./Stimuli/ImagesPractice/SM98.jpg","83","","","","test","true","M + N","83","","SM","SM98.jpg","forget","old","14","1","start","left","","","",""
"html-keyboard-response","39","195614","0.0-2.0-2.0-0.14","do56oya5vkfm2vo","practice_no_cue","5f209bbf2f32cf00088e4f87","5f60e3c0a3b16e07647b2ff9","5f60ee620b6bef00088fbae6","false","null","<span style=""color: black; font-size: 48px"">M + N</span>","null","","","","resp_prompt","","","","","","","","","","","","","","","",""
"categorize-image","40","196766","0.0-2.0-2.0-1.14","do56oya5vkfm2vo","practice_no_cue","5f209bbf2f32cf00088e4f87","5f60e3c0a3b16e07647b2ff9","5f60ee620b6bef00088fbae6","true","648","./Stimuli/ImagesPractice/SM97.jpg","83","","","","test","true","M + N","83","","SM","SM97.jpg","remember","old","15","1","start","left","","","",""
"html-keyboard-response","41","197468","0.0-2.0-2.0-0.15","do56oya5vkfm2vo","practice_no_cue","5f209bbf2f32cf00088e4f87","5f60e3c0a3b16e07647b2ff9","5f60ee620b6bef00088fbae6","false","null","<span style=""color: black; font-size: 48px"">N + M</span>","null","","","","resp_prompt","","","","","","","","","","","","","","","",""
"categorize-image","42","199138","0.0-2.0-2.0-1.15","do56oya5vkfm2vo","practice_no_cue","5f209bbf2f32cf00088e4f87","5f60e3c0a3b16e07647b2ff9","5f60ee620b6bef00088fbae6","true","1167","./Stimuli/ImagesPractice/LN15.jpg","83","","","","test","true","N + M","83","","LN","LN15.jpg","forget","old","16","1","start","left","","","",""
"html-keyboard-response","43","203947","0.0-2.0-3.0","do56oya5vkfm2vo","break","5f209bbf2f32cf00088e4f87","5f60e3c0a3b16e07647b2ff9","5f60ee620b6bef00088fbae6","false","4804.999999999971","<p style='font-size: 32px;'>Break</><br><br><br><br><br><p style='font-size: 24px;'>In the last block, you committed 6 errors and did not respond in time on 2 trials.
</p><p style='font-size: 24px;'>Try to respond as fast and accurately as possible in the next block as well! </p><p style='font-size: 24px;'>Press SPACE to continue.</p>","32","","","","","","","","","","","","","","","","","","","",""
"html-keyboard-response","44","209673","0.0-2.0-4.0","do56oya5vkfm2vo","instructions","5f209bbf2f32cf00088e4f87","5f60e3c0a3b16e07647b2ff9","5f60ee620b6bef00088fbae6","false","5725","<div align=left> Great!<br><br>Are you ready to continue?<br><br>If you want to reread the instructions and redo the practice trials, <br>please press „Z“. <br><br>Press SPACE to CONTINUE with the experiment when you are ready. </div>","32","","","","","","","","","","","","","","","","","","","",""
"html-keyboard-response","45","230517","0.0-3.0-0.0","do56oya5vkfm2vo","instructions","5f209bbf2f32cf00088e4f87","5f60e3c0a3b16e07647b2ff9","5f60ee620b6bef00088fbae6","false","20841","<div align=left>Great!<br> <strong>Attention</strong>! You will now receive a second, additional task! <br><br>To this point it was you <strong>first task</strong> to correctly <strong>classify objects</strong>. <br><br>As mentioned in the beginning, we aim to examine how well humans can remember previously learned information.<br>We would like to find out whether our memory improves if we only remember information that is relevant to us. <br><br>Therefore, your <strong>second task</strong> will be to <strong>remember</strong> the pictures you are to categorize. <br> After the learning phase, there will be a memory test phase, in which you will be asked to indicate whether you have seen a picture before or not. <br>Some, but not all pictures shown in the learning phase will appear in the memory test phase.<br>After classifying a picture, you will be told whether you should remember it for the memory test phase or not. <br>Thus, some pictures can be forgotten, whereas others have to be remembered. <br><br>Note: From now on, feedback will only be displayed if you responded incorrectly or not in time.<br><br>Press SPACE to continue.</div>","32","","","","","","","","","","","","","","","","","","","",""
"html-keyboard-response","46","245728","0.0-3.0-1.0","do56oya5vkfm2vo","instructions","5f209bbf2f32cf00088e4f87","5f60e3c0a3b16e07647b2ff9","5f60ee620b6bef00088fbae6","false","15209","<div align=left>In the following part, you will thus have to remember only some pictures. <br>Immediately after seeing and classifying the picture, a symbol will be displayed, indicating whether you should remember or forget the previous picture. <br><br>A <span style='color: dodgerblue; font-size: 28px'>O</span> indicates REMEMBER. That means, you have to remember this picture, because it will be tested later. <br><br>A <span style='color: darkorange; font-size:28px'>Ø</span> indicates FORGET. You do not have to remember this picture. <br><br> As you will have to remember a lot of pictures, it will be hard for you to remember all of them. <br>It will put you at an advantage if you instantly forget the pictures you are not asked to remember. <br> This will make it easier for you to remember the pictures that will be tested afterwards. <br><br>Press SPACE to continue.</div>","32","","","","","","","","","","","","","","","","","","","",""
"html-keyboard-response","47","250018","0.0-3.0-2.0","do56oya5vkfm2vo","instructions","5f209bbf2f32cf00088e4f87","5f60e3c0a3b16e07647b2ff9","5f60ee620b6bef00088fbae6","false","4287","<div align=left> Now you have the chance to practice both tasks together.<br><br>Remember: <br> <br><li>Please place your index fingers on the <strong>'S'</strong> and <strong>'L'</strong> keys <br>to respond as fast and accurately as possible.</li><li>Every picture can be classified as either mechanical or non-mechanical.</li><li>If you do not respond in time or commit an error, you will receive a corresponding feedback. <br>Please try to respond as <strong> fast </strong> and as <strong> accurately as possible </strong>.</li><li> Please remember only the to-be-remembered <span style='color: dodgerblue; font-size: 28px'>O</span> pictures. <br></li><li> Please minimize distractions and stay focused. </li><br><br>Press SPACE to START</div>","32","","","","","","","","","","","","","","","","","","","",""
"html-keyboard-response","48","250720","0.0-3.0-3.0-0.0","do56oya5vkfm2vo","practice_cue","5f209bbf2f32cf00088e4f87","5f60e3c0a3b16e07647b2ff9","5f60ee620b6bef00088fbae6","false","null","<span style=""color: black; font-size: 48px"">N + M</span>","null","","","","resp_prompt","","","","","","","","","","","","","","","",""
"categorize-image","49","252323","0.0-3.0-3.0-1.0","do56oya5vkfm2vo","practice_cue","5f209bbf2f32cf00088e4f87","5f60e3c0a3b16e07647b2ff9","5f60ee620b6bef00088fbae6","true","1596.999999999971","./Stimuli/ImagesPractice/SM61.jpg","76","","","","test","true","N + M","76","","SM","SM61.jpg","remember","old","17","2","practice_forget","right","","","",""
"html-keyboard-response","50","254326","0.0-3.0-3.0-3.0","do56oya5vkfm2vo","practice_cue","5f209bbf2f32cf00088e4f87","5f60e3c0a3b16e07647b2ff9","5f60ee620b6bef00088fbae6","false","null","<div style=""align-items: center; display: flex; color: dodgerblue; font-size: 90px""><b>o</b></div>","null","","","","forget_cue","","","","","","","","","","","","","","","",""
"html-keyboard-response","51","255028","0.0-3.0-3.0-0.1","do56oya5vkfm2vo","practice_cue","5f209bbf2f32cf00088e4f87","5f60e3c0a3b16e07647b2ff9","5f60ee620b6bef00088fbae6","false","null","<span style=""color: black; font-size: 48px"">M + N</span>","null","","","","resp_prompt","","","","","","","","","","","","","","","",""
"categorize-image","52","256667","0.0-3.0-3.0-1.1","do56oya5vkfm2vo","practice_cue","5f209bbf2f32cf00088e4f87","5f60e3c0a3b16e07647b2ff9","5f60ee620b6bef00088fbae6","true","1636","./Stimuli/ImagesPractice/SN220.jpg","76","","","","test","true","M + N","76","","SN","SN220.jpg","remember","old","18","2","practice_forget","right","","","",""
"html-keyboard-response","53","258669","0.0-3.0-3.0-3.1","do56oya5vkfm2vo","practice_cue","5f209bbf2f32cf00088e4f87","5f60e3c0a3b16e07647b2ff9","5f60ee620b6bef00088fbae6","false","null","<div style=""align-items: center; display: flex; color: dodgerblue; font-size: 90px""><b>o</b></div>","null","","","","forget_cue","","","","","","","","","","","","","","","",""
"html-keyboard-response","54","259371","0.0-3.0-3.0-0.2","do56oya5vkfm2vo","practice_cue","5f209bbf2f32cf00088e4f87","5f60e3c0a3b16e07647b2ff9","5f60ee620b6bef00088fbae6","false","null","<span style=""color: black; font-size: 48px"">N + M</span>","null","","","","resp_prompt","","","","","","","","","","","","","","","",""
"categorize-image","55","261055","0.0-3.0-3.0-1.2","do56oya5vkfm2vo","practice_cue","5f209bbf2f32cf00088e4f87","5f60e3c0a3b16e07647b2ff9","5f60ee620b6bef00088fbae6","true","1680.9999999999418","./Stimuli/ImagesPractice/SM37.jpg","76","","","","test","true","N + M","76","","SM","SM37.jpg","remember","old","19","2","practice_forget","right","","","",""
"html-keyboard-response","56","263057","0.0-3.0-3.0-3.2","do56oya5vkfm2vo","practice_cue","5f209bbf2f32cf00088e4f87","5f60e3c0a3b16e07647b2ff9","5f60ee620b6bef00088fbae6","false","null","<div style=""align-items: center; display: flex; color: dodgerblue; font-size: 90px""><b>o</b></div>","null","","","","forget_cue","","","","","","","","","","","","","","","",""
"html-keyboard-response","57","263760","0.0-3.0-3.0-0.3","do56oya5vkfm2vo","practice_cue","5f209bbf2f32cf00088e4f87","5f60e3c0a3b16e07647b2ff9","5f60ee620b6bef00088fbae6","false","null","<span style=""color: black; font-size: 48px"">M + N</span>","null","","","","resp_prompt","","","","","","","","","","","","","","","",""
"categorize-image","58","264547","0.0-3.0-3.0-1.3","do56oya5vkfm2vo","practice_cue","5f209bbf2f32cf00088e4f87","5f60e3c0a3b16e07647b2ff9","5f60ee620b6bef00088fbae6","true","785.0000000000582","./Stimuli/ImagesPractice/LM239.jpg","83","","","","test","true","M + N","83","","LM","LM239.jpg","forget","old","20","2","practice_forget","left","","","",""
"html-keyboard-response","59","266548","0.0-3.0-3.0-3.3","do56oya5vkfm2vo","practice_cue","5f209bbf2f32cf00088e4f87","5f60e3c0a3b16e07647b2ff9","5f60ee620b6bef00088fbae6","false","null","<div style=""align-items: center; display: flex; color: darkorange; font-size: 90px""><b>ø</b></div>","null","","","","forget_cue","","","","","","","","","","","","","","","",""
"html-keyboard-response","60","267250","0.0-3.0-3.0-0.4","do56oya5vkfm2vo","practice_cue","5f209bbf2f32cf00088e4f87","5f60e3c0a3b16e07647b2ff9","5f60ee620b6bef00088fbae6","false","null","<span style=""color: black; font-size: 48px"">M + N</span>","null","","","","resp_prompt","","","","","","","","","","","","","","","",""
"categorize-image","61","268286","0.0-3.0-3.0-1.4","do56oya5vkfm2vo","practice_cue","5f209bbf2f32cf00088e4f87","5f60e3c0a3b16e07647b2ff9","5f60ee620b6bef00088fbae6","true","1033","./Stimuli/ImagesPractice/LN17.jpg","76","","","","test","true","M + N","76","","LN","LN17.jpg","remember","old","21","2","practice_forget","right","","","",""
"html-keyboard-response","62","270288","0.0-3.0-3.0-3.4","do56oya5vkfm2vo","practice_cue","5f209bbf2f32cf00088e4f87","5f60e3c0a3b16e07647b2ff9","5f60ee620b6bef00088fbae6","false","null","<div style=""align-items: center; display: flex; color: dodgerblue; font-size: 90px""><b>o</b></div>","null","","","","forget_cue","","","","","","","","","","","","","","","",""
"html-keyboard-response","63","270990","0.0-3.0-3.0-0.5","do56oya5vkfm2vo","practice_cue","5f209bbf2f32cf00088e4f87","5f60e3c0a3b16e07647b2ff9","5f60ee620b6bef00088fbae6","false","null","<span style=""color: black; font-size: 48px"">N + M</span>","null","","","","resp_prompt","","","","","","","","","","","","","","","",""
"categorize-image","64","272449","0.0-3.0-3.0-1.5","do56oya5vkfm2vo","practice_cue","5f209bbf2f32cf00088e4f87","5f60e3c0a3b16e07647b2ff9","5f60ee620b6bef00088fbae6","true","1456","./Stimuli/ImagesPractice/LM55.jpg","83","","","","test","false","N + M","76","","LM","LM55.jpg","forget","old","22","2","practice_forget","left","","","",""
"html-keyboard-response","65","272951","0.0-3.0-3.0-2.5-0.5","do56oya5vkfm2vo","practice_cue","5f209bbf2f32cf00088e4f87","5f60e3c0a3b16e07647b2ff9","5f60ee620b6bef00088fbae6","false","null","<span style=""color: red; font-size: 48px"">Error!</span>","null","","","","feedback","","","","","","","","","","","","","","","",""
"html-keyboard-response","66","274954","0.0-3.0-3.0-3.5","do56oya5vkfm2vo","practice_cue","5f209bbf2f32cf00088e4f87","5f60e3c0a3b16e07647b2ff9","5f60ee620b6bef00088fbae6","false","null","<div style=""align-items: center; display: flex; color: darkorange; font-size: 90px""><b>ø</b></div>","null","","","","forget_cue","","","","","","","","","","","","","","","",""
"html-keyboard-response","67","275656","0.0-3.0-3.0-0.6","do56oya5vkfm2vo","practice_cue","5f209bbf2f32cf00088e4f87","5f60e3c0a3b16e07647b2ff9","5f60ee620b6bef00088fbae6","false","null","<span style=""color: black; font-size: 48px"">M + N</span>","null","","","","resp_prompt","","","","","","","","","","","","","","","",""
"categorize-image","68","277195","0.0-3.0-3.0-1.6","do56oya5vkfm2vo","practice_cue","5f209bbf2f32cf00088e4f87","5f60e3c0a3b16e07647b2ff9","5f60ee620b6bef00088fbae6","true","1537","./Stimuli/ImagesPractice/LN109.jpg","83","","","","test","false","M + N","76","","LN","LN109.jpg","forget","old","23","2","practice_forget","left","","","",""
"html-keyboard-response","69","277696","0.0-3.0-3.0-2.6-0.6","do56oya5vkfm2vo","practice_cue","5f209bbf2f32cf00088e4f87","5f60e3c0a3b16e07647b2ff9","5f60ee620b6bef00088fbae6","false","null","<span style=""color: red; font-size: 48px"">Error!</span>","null","","","","feedback","","","","","","","","","","","","","","","",""
"html-keyboard-response","70","279699","0.0-3.0-3.0-3.6","do56oya5vkfm2vo","practice_cue","5f209bbf2f32cf00088e4f87","5f60e3c0a3b16e07647b2ff9","5f60ee620b6bef00088fbae6","false","null","<div style=""align-items: center; display: flex; color: darkorange; font-size: 90px""><b>ø</b></div>","null","","","","forget_cue","","","","","","","","","","","","","","","",""
"html-keyboard-response","71","280401","0.0-3.0-3.0-0.7","do56oya5vkfm2vo","practice_cue","5f209bbf2f32cf00088e4f87","5f60e3c0a3b16e07647b2ff9","5f60ee620b6bef00088fbae6","false","null","<span style=""color: black; font-size: 48px"">N + M</span>","null","","","","resp_prompt","","","","","","","","","","","","","","","",""
"categorize-image","72","281587","0.0-3.0-3.0-1.7","do56oya5vkfm2vo","practice_cue","5f209bbf2f32cf00088e4f87","5f60e3c0a3b16e07647b2ff9","5f60ee620b6bef00088fbae6","true","1183","./Stimuli/ImagesPractice/SM35.jpg","83","","","","test","false","N + M","76","","SM","SM35.jpg","forget","old","24","2","practice_forget","left","","","",""
"html-keyboard-response","73","282088","0.0-3.0-3.0-2.7-0.7","do56oya5vkfm2vo","practice_cue","5f209bbf2f32cf00088e4f87","5f60e3c0a3b16e07647b2ff9","5f60ee620b6bef00088fbae6","false","null","<span style=""color: red; font-size: 48px"">Error!</span>","null","","","","feedback","","","","","","","","","","","","","","","",""
"html-keyboard-response","74","284091","0.0-3.0-3.0-3.7","do56oya5vkfm2vo","practice_cue","5f209bbf2f32cf00088e4f87","5f60e3c0a3b16e07647b2ff9","5f60ee620b6bef00088fbae6","false","null","<div style=""align-items: center; display: flex; color: darkorange; font-size: 90px""><b>ø</b></div>","null","","","","forget_cue","","","","","","","","","","","","","","","",""
"html-keyboard-response","75","284793","0.0-3.0-3.0-0.8","do56oya5vkfm2vo","practice_cue","5f209bbf2f32cf00088e4f87","5f60e3c0a3b16e07647b2ff9","5f60ee620b6bef00088fbae6","false","null","<span style=""color: black; font-size: 48px"">M + N</span>","null","","","","resp_prompt","","","","","","","","","","","","","","","",""
"categorize-image","76","286395","0.0-3.0-3.0-1.8","do56oya5vkfm2vo","practice_cue","5f209bbf2f32cf00088e4f87","5f60e3c0a3b16e07647b2ff9","5f60ee620b6bef00088fbae6","true","1599","./Stimuli/ImagesPractice/SM97.jpg","83","","","","test","true","M + N","83","","SM","SM97.jpg","remember","old","25","2","practice_forget","left","","","",""
"html-keyboard-response","77","288396","0.0-3.0-3.0-3.8","do56oya5vkfm2vo","practice_cue","5f209bbf2f32cf00088e4f87","5f60e3c0a3b16e07647b2ff9","5f60ee620b6bef00088fbae6","false","null","<div style=""align-items: center; display: flex; color: dodgerblue; font-size: 90px""><b>o</b></div>","null","","","","forget_cue","","","","","","","","","","","","","","","",""
"html-keyboard-response","78","289098","0.0-3.0-3.0-0.9","do56oya5vkfm2vo","practice_cue","5f209bbf2f32cf00088e4f87","5f60e3c0a3b16e07647b2ff9","5f60ee620b6bef00088fbae6","false","null","<span style=""color: black; font-size: 48px"">N + M</span>","null","","","","resp_prompt","","","","","","","","","","","","","","","",""
"categorize-image","79","290103","0.0-3.0-3.0-1.9","do56oya5vkfm2vo","practice_cue","5f209bbf2f32cf00088e4f87","5f60e3c0a3b16e07647b2ff9","5f60ee620b6bef00088fbae6","true","1002.9999999999418","./Stimuli/ImagesPractice/SM62.jpg","76","","","","test","true","N + M","76","","SM","SM62.jpg","remember","old","26","2","practice_forget","right","","","",""
"html-keyboard-response","80","292106","0.0-3.0-3.0-3.9","do56oya5vkfm2vo","practice_cue","5f209bbf2f32cf00088e4f87","5f60e3c0a3b16e07647b2ff9","5f60ee620b6bef00088fbae6","false","null","<div style=""align-items: center; display: flex; color: dodgerblue; font-size: 90px""><b>o</b></div>","null","","","","forget_cue","","","","","","","","","","","","","","","",""
"html-keyboard-response","81","292808","0.0-3.0-3.0-0.10","do56oya5vkfm2vo","practice_cue","5f209bbf2f32cf00088e4f87","5f60e3c0a3b16e07647b2ff9","5f60ee620b6bef00088fbae6","false","null","<span style=""color: black; font-size: 48px"">M + N</span>","null","","","","resp_prompt","","","","","","","","","","","","","","","",""
"categorize-image","82","293709","0.0-3.0-3.0-1.10","do56oya5vkfm2vo","practice_cue","5f209bbf2f32cf00088e4f87","5f60e3c0a3b16e07647b2ff9","5f60ee620b6bef00088fbae6","true","898.0000000000582","./Stimuli/ImagesPractice/LM224.jpg","83","","","","test","true","M + N","83","","LM","LM224.jpg","remember","old","27","2","practice_forget","left","","","",""
"html-keyboard-response","83","295711","0.0-3.0-3.0-3.10","do56oya5vkfm2vo","practice_cue","5f209bbf2f32cf00088e4f87","5f60e3c0a3b16e07647b2ff9","5f60ee620b6bef00088fbae6","false","null","<div style=""align-items: center; display: flex; color: dodgerblue; font-size: 90px""><b>o</b></div>","null","","","","forget_cue","","","","","","","","","","","","","","","",""
"html-keyboard-response","84","296413","0.0-3.0-3.0-0.11","do56oya5vkfm2vo","practice_cue","5f209bbf2f32cf00088e4f87","5f60e3c0a3b16e07647b2ff9","5f60ee620b6bef00088fbae6","false","null","<span style=""color: black; font-size: 48px"">N + M</span>","null","","","","resp_prompt","","","","","","","","","","","","","","","",""
"categorize-image","85","297422","0.0-3.0-3.0-1.11","do56oya5vkfm2vo","practice_cue","5f209bbf2f32cf00088e4f87","5f60e3c0a3b16e07647b2ff9","5f60ee620b6bef00088fbae6","true","1006","./Stimuli/ImagesPractice/LN15.jpg","76","","","","test","false","N + M","83","","LN","LN15.jpg","forget","old","28","2","practice_forget","right","","","",""
"html-keyboard-response","86","297923","0.0-3.0-3.0-2.11-0.11","do56oya5vkfm2vo","practice_cue","5f209bbf2f32cf00088e4f87","5f60e3c0a3b16e07647b2ff9","5f60ee620b6bef00088fbae6","false","null","<span style=""color: red; font-size: 48px"">Error!</span>","null","","","","feedback","","","","","","","","","","","","","","","",""
"html-keyboard-response","87","299925","0.0-3.0-3.0-3.11","do56oya5vkfm2vo","practice_cue","5f209bbf2f32cf00088e4f87","5f60e3c0a3b16e07647b2ff9","5f60ee620b6bef00088fbae6","false","null","<div style=""align-items: center; display: flex; color: darkorange; font-size: 90px""><b>ø</b></div>","null","","","","forget_cue","","","","","","","","","","","","","","","",""
"html-keyboard-response","88","300628","0.0-3.0-3.0-0.12","do56oya5vkfm2vo","practice_cue","5f209bbf2f32cf00088e4f87","5f60e3c0a3b16e07647b2ff9","5f60ee620b6bef00088fbae6","false","null","<span style=""color: black; font-size: 48px"">N + M</span>","null","","","","resp_prompt","","","","","","","","","","","","","","","",""
"categorize-image","89","301890","0.0-3.0-3.0-1.12","do56oya5vkfm2vo","practice_cue","5f209bbf2f32cf00088e4f87","5f60e3c0a3b16e07647b2ff9","5f60ee620b6bef00088fbae6","true","1260","./Stimuli/ImagesPractice/LN72.jpg","83","","","","test","true","N + M","83","","LN","LN72.jpg","remember","old","29","2","practice_forget","left","","","",""
"html-keyboard-response","90","303892","0.0-3.0-3.0-3.12","do56oya5vkfm2vo","practice_cue","5f209bbf2f32cf00088e4f87","5f60e3c0a3b16e07647b2ff9","5f60ee620b6bef00088fbae6","false","null","<div style=""align-items: center; display: flex; color: dodgerblue; font-size: 90px""><b>o</b></div>","null","","","","forget_cue","","","","","","","","","","","","","","","",""
"html-keyboard-response","91","304595","0.0-3.0-3.0-0.13","do56oya5vkfm2vo","practice_cue","5f209bbf2f32cf00088e4f87","5f60e3c0a3b16e07647b2ff9","5f60ee620b6bef00088fbae6","false","null","<span style=""color: black; font-size: 48px"">M + N</span>","null","","","","resp_prompt","","","","","","","","","","","","","","","",""
"categorize-image","92","306079","0.0-3.0-3.0-1.13","do56oya5vkfm2vo","practice_cue","5f209bbf2f32cf00088e4f87","5f60e3c0a3b16e07647b2ff9","5f60ee620b6bef00088fbae6","true","1482","./Stimuli/ImagesPractice/LM143.jpg","83","","","","test","true","M + N","83","","LM","LM143.jpg","forget","old","30","2","practice_forget","left","","","",""
"html-keyboard-response","93","308081","0.0-3.0-3.0-3.13","do56oya5vkfm2vo","practice_cue","5f209bbf2f32cf00088e4f87","5f60e3c0a3b16e07647b2ff9","5f60ee620b6bef00088fbae6","false","null","<div style=""align-items: center; display: flex; color: darkorange; font-size: 90px""><b>ø</b></div>","null","","","","forget_cue","","","","","","","","","","","","","","","",""
"html-keyboard-response","94","308783","0.0-3.0-3.0-0.14","do56oya5vkfm2vo","practice_cue","5f209bbf2f32cf00088e4f87","5f60e3c0a3b16e07647b2ff9","5f60ee620b6bef00088fbae6","false","null","<span style=""color: black; font-size: 48px"">N + M</span>","null","","","","resp_prompt","","","","","","","","","","","","","","","",""
"categorize-image","95","310316","0.0-3.0-3.0-1.14","do56oya5vkfm2vo","practice_cue","5f209bbf2f32cf00088e4f87","5f60e3c0a3b16e07647b2ff9","5f60ee620b6bef00088fbae6","true","1529.9999999999418","./Stimuli/ImagesPractice/SN75.jpg","76","","","","test","false","N + M","83","","SN","SN75.jpg","forget","old","31","2","practice_forget","right","","","",""
"html-keyboard-response","96","310818","0.0-3.0-3.0-2.14-0.14","do56oya5vkfm2vo","practice_cue","5f209bbf2f32cf00088e4f87","5f60e3c0a3b16e07647b2ff9","5f60ee620b6bef00088fbae6","false","null","<span style=""color: red; font-size: 48px"">Error!</span>","null","","","","feedback","","","","","","","","","","","","","","","",""
"html-keyboard-response","97","312820","0.0-3.0-3.0-3.14","do56oya5vkfm2vo","practice_cue","5f209bbf2f32cf00088e4f87","5f60e3c0a3b16e07647b2ff9","5f60ee620b6bef00088fbae6","false","null","<div style=""align-items: center; display: flex; color: darkorange; font-size: 90px""><b>ø</b></div>","null","","","","forget_cue","","","","","","","","","","","","","","","",""
"html-keyboard-response","98","313523","0.0-3.0-3.0-0.15","do56oya5vkfm2vo","practice_cue","5f209bbf2f32cf00088e4f87","5f60e3c0a3b16e07647b2ff9","5f60ee620b6bef00088fbae6","false","null","<span style=""color: black; font-size: 48px"">M + N</span>","null","","","","resp_prompt","","","","","","","","","","","","","","","",""
"categorize-image","99","314088","0.0-3.0-3.0-1.15","do56oya5vkfm2vo","practice_cue","5f209bbf2f32cf00088e4f87","5f60e3c0a3b16e07647b2ff9","5f60ee620b6bef00088fbae6","true","563","./Stimuli/ImagesPractice/SM98.jpg","83","","","","test","true","M + N","83","","SM","SM98.jpg","forget","old","32","2","practice_forget","left","","","",""
"html-keyboard-response","100","316089","0.0-3.0-3.0-3.15","do56oya5vkfm2vo","practice_cue","5f209bbf2f32cf00088e4f87","5f60e3c0a3b16e07647b2ff9","5f60ee620b6bef00088fbae6","false","null","<div style=""align-items: center; display: flex; color: darkorange; font-size: 90px""><b>ø</b></div>","null","","","","forget_cue","","","","","","","","","","","","","","","",""
"html-keyboard-response","101","323746","0.0-3.0-4.0","do56oya5vkfm2vo","break","5f209bbf2f32cf00088e4f87","5f60e3c0a3b16e07647b2ff9","5f60ee620b6bef00088fbae6","false","7655","<p style='font-size: 32px;'>Break</><br><br><br><br><br><p style='font-size: 24px;'>In the last block, you committed 5 errors and did not respond in time on 0 trials.
</p><p style='font-size: 24px;'>Try to respond as fast and accurately as possible in the next block as well! </p><p style='font-size: 24px;'>Press SPACE to continue.</p>","32","","","","","","","","","","","","","","","","","","","",""
"html-keyboard-response","102","341229","0.0-3.0-5.0","do56oya5vkfm2vo","instructions","5f209bbf2f32cf00088e4f87","5f60e3c0a3b16e07647b2ff9","5f60ee620b6bef00088fbae6","false","17481","<div align=left> Now, to practice, we kindly ask you to remember as many of the to-be-remembered pictures<br>of the previous learning phase as possible.<br><br>The pictures you were instructed to remember were the pictures followed by a <span style='color: dodgerblue; font-size: 28px'>O</span>.<br><br>In this memory test phase, you will also see some new pictures.<br>It is your task to remember whether you were presented with this specific picture in this study so far or not.<br>If you recognize an object (you have already seen it in this study), it is an OLD object. <br>If you do not recognize an object (you have NOT seen it in this study), it is a NEW object. <br><strong> Attention</strong>: As already mentioned, <span style='color: darkorange; font-size:28px'>Ø</span>-pictures will <strong>never</strong> appear in this memory test (neither as new objects). <br><br>Press SPACE to continue. </div>","32","","","","","","","","","","","","","","","","","","","",""
"html-keyboard-response","103","363475","0.0-3.0-6.0","do56oya5vkfm2vo","instructions","5f209bbf2f32cf00088e4f87","5f60e3c0a3b16e07647b2ff9","5f60ee620b6bef00088fbae6","false","22243","<div align=left> M and N no longer will appear on the left/right of the fixation cross. <br>Instead there will be a note at the bottom of the left or right side  <br>indicating which key you should press for an old or new object:  <br> <br>Press the <strong>right</strong> key to classify an object as <strong>old</strong> and press the <strong>left</strong>, to classify an object as <strong>new</strong>.<br>Please classify the objects as new/old by again placing your index finger on the 'S' and 'L' keys <br>and press them accordingly.<br><br><strong>Old:</strong> This object has been presented before. <br><strong>New:</strong> This object has <strong>not</strong> been presented.<br><br>Now please put your right and left index fingers on the 'S' and 'L' keys of your keyboard. <br>Please respond as fast and as accurately as possible!<br><br>Press SPACE to continue. </div>","32","","","","","","","","","","","","","","","","","","","",""
"categorize-image","104","368587","0.0-3.0-7.0-0.0","do56oya5vkfm2vo","practice_recog","5f209bbf2f32cf00088e4f87","5f60e3c0a3b16e07647b2ff9","5f60ee620b6bef00088fbae6","true","4608","./Stimuli/ImagesPractice/LM230.jpg","83","","","","test","true","","83","","LM","LM230.jpg","","new","33","3","practice_recog","left","","","",""
"categorize-image","105","370832","0.0-3.0-7.0-0.1","do56oya5vkfm2vo","practice_recog","5f209bbf2f32cf00088e4f87","5f60e3c0a3b16e07647b2ff9","5f60ee620b6bef00088fbae6","true","1742","./Stimuli/ImagesPractice/SM61.jpg","76","","","","test","true","","76","","SM","SM61.jpg","","old","34","3","practice_recog","right","","","",""
"categorize-image","106","372078","0.0-3.0-7.0-0.2","do56oya5vkfm2vo","practice_recog","5f209bbf2f32cf00088e4f87","5f60e3c0a3b16e07647b2ff9","5f60ee620b6bef00088fbae6","true","742","./Stimuli/ImagesPractice/SN220.jpg","76","","","","test","true","","76","","SN","SN220.jpg","","old","35","3","practice_recog","right","","","",""
"categorize-image","107","373192","0.0-3.0-7.0-0.3","do56oya5vkfm2vo","practice_recog","5f209bbf2f32cf00088e4f87","5f60e3c0a3b16e07647b2ff9","5f60ee620b6bef00088fbae6","true","613","./Stimuli/ImagesPractice/LM224.jpg","76","","","","test","true","","76","","LM","LM224.jpg","","old","36","3","practice_recog","right","","","",""
"categorize-image","108","374448","0.0-3.0-7.0-0.4","do56oya5vkfm2vo","practice_recog","5f209bbf2f32cf00088e4f87","5f60e3c0a3b16e07647b2ff9","5f60ee620b6bef00088fbae6","true","754","./Stimuli/ImagesPractice/SN222.jpg","83","","","","test","true","","83","","SN","SN222.jpg","","new","37","3","practice_recog","left","","","",""
"categorize-image","109","376482","0.0-3.0-7.0-0.5","do56oya5vkfm2vo","practice_recog","5f209bbf2f32cf00088e4f87","5f60e3c0a3b16e07647b2ff9","5f60ee620b6bef00088fbae6","true","1530","./Stimuli/ImagesPractice/LM147.jpg","83","","","","test","true","","83","","LM","LM147.jpg","","new","38","3","practice_recog","left","","","",""
"categorize-image","110","377941","0.0-3.0-7.0-0.6","do56oya5vkfm2vo","practice_recog","5f209bbf2f32cf00088e4f87","5f60e3c0a3b16e07647b2ff9","5f60ee620b6bef00088fbae6","true","956","./Stimuli/ImagesPractice/SM62.jpg","76","","","","test","true","","76","","SM","SM62.jpg","","old","39","3","practice_recog","right","","","",""
"categorize-image","111","379150","0.0-3.0-7.0-0.7","do56oya5vkfm2vo","practice_recog","5f209bbf2f32cf00088e4f87","5f60e3c0a3b16e07647b2ff9","5f60ee620b6bef00088fbae6","true","706","./Stimuli/ImagesPractice/SN76.jpg","83","","","","test","true","","83","","SN","SN76.jpg","","new","40","3","practice_recog","left","","","",""
"categorize-image","112","380365","0.0-3.0-7.0-0.8","do56oya5vkfm2vo","practice_recog","5f209bbf2f32cf00088e4f87","5f60e3c0a3b16e07647b2ff9","5f60ee620b6bef00088fbae6","true","712.0000000000582","./Stimuli/ImagesPractice/LN72.jpg","76","","","","test","true","","76","","LN","LN72.jpg","","old","41","3","practice_recog","right","","","",""
"categorize-image","113","381901","0.0-3.0-7.0-0.9","do56oya5vkfm2vo","practice_recog","5f209bbf2f32cf00088e4f87","5f60e3c0a3b16e07647b2ff9","5f60ee620b6bef00088fbae6","true","1033.0000000000582","./Stimuli/ImagesPractice/LN2.jpg","83","","","","test","true","","83","","LN","LN2.jpg","","new","42","3","practice_recog","left","","","",""
"categorize-image","114","383123","0.0-3.0-7.0-0.10","do56oya5vkfm2vo","practice_recog","5f209bbf2f32cf00088e4f87","5f60e3c0a3b16e07647b2ff9","5f60ee620b6bef00088fbae6","true","720","./Stimuli/ImagesPractice/SM97.jpg","76","","","","test","true","","76","","SM","SM97.jpg","","old","43","3","practice_recog","right","","","",""
"categorize-image","115","385213","0.0-3.0-7.0-0.11","do56oya5vkfm2vo","practice_recog","5f209bbf2f32cf00088e4f87","5f60e3c0a3b16e07647b2ff9","5f60ee620b6bef00088fbae6","true","1587","./Stimuli/ImagesPractice/SN221.jpg","83","","","","test","true","","83","","SN","SN221.jpg","","new","44","3","practice_recog","left","","","",""
"categorize-image","116","386421","0.0-3.0-7.0-0.12","do56oya5vkfm2vo","practice_recog","5f209bbf2f32cf00088e4f87","5f60e3c0a3b16e07647b2ff9","5f60ee620b6bef00088fbae6","true","704.9999999999418","./Stimuli/ImagesPractice/SM37.jpg","76","","","","test","true","","76","","SM","SM37.jpg","","old","45","3","practice_recog","right","","","",""
"categorize-image","117","387729","0.0-3.0-7.0-0.13","do56oya5vkfm2vo","practice_recog","5f209bbf2f32cf00088e4f87","5f60e3c0a3b16e07647b2ff9","5f60ee620b6bef00088fbae6","true","806","./Stimuli/ImagesPractice/LN4.jpg","83","","","","test","true","","83","","LN","LN4.jpg","","new","46","3","practice_recog","left","","","",""
"categorize-image","118","389250","0.0-3.0-7.0-0.14","do56oya5vkfm2vo","practice_recog","5f209bbf2f32cf00088e4f87","5f60e3c0a3b16e07647b2ff9","5f60ee620b6bef00088fbae6","true","1018","./Stimuli/ImagesPractice/SN205.jpg","83","","","","test","true","","83","","SN","SN205.jpg","","new","47","3","practice_recog","left","","","",""
"categorize-image","119","390650","0.0-3.0-7.0-0.15","do56oya5vkfm2vo","practice_recog","5f209bbf2f32cf00088e4f87","5f60e3c0a3b16e07647b2ff9","5f60ee620b6bef00088fbae6","true","898.0000000000582","./Stimuli/ImagesPractice/LN17.jpg","76","","","","test","true","","76","","LN","LN17.jpg","","old","48","3","practice_recog","right","","","",""
"html-keyboard-response","120","394393","0.0-3.0-8.0","do56oya5vkfm2vo","instructions","5f209bbf2f32cf00088e4f87","5f60e3c0a3b16e07647b2ff9","5f60ee620b6bef00088fbae6","false","3741","<div align=left> Great!<br><br>Are you ready to continue?<br>If you want to reread the instructions and redo the practice trials, please <br>press „Z“.<br><br>You can proceed when you are ready.<br><br>After the presentation of each object, you will receive an instruction whether to <br>remember or to forget the object.<br>We will test your memory of the following pictures only at the very end of <br>the experiment after all learning blocks are completed. <br><br>Press SPACE to CONTINUE when you are ready. </div>","32","","","","","","","","","","","","","","","","","","","",""
"html-keyboard-response","121","402280","0.0-4.0-0.0","do56oya5vkfm2vo","instructions","5f209bbf2f32cf00088e4f87","5f60e3c0a3b16e07647b2ff9","5f60ee620b6bef00088fbae6","false","7883","<div align=left> The actual experiment is about to start.<br>The practice trials are over!<br><br>Please always respond both fast and accurately!<br><br>Remember: <br> <br><li> Please place your index fingers on the <strong>'S'</strong> and <strong>'L'</strong> keys <br>to respond as fast and accurately as possible.</li><li> Every picture can be classified as either mechanical or non-mechanical.</li><li> If you do not respond in time or commit an error, you will receive a corresponding feedback.<br> Please try to respond as <strong> fast </strong> and as <strong> accurately as possible </strong>.</li><li> Remember the <span style='color: dodgerblue; font-size: 28px'>O</span> pictures. <br></li><li> Please minimize distractions and stay focused. </li><br><br>Press SPACE to START.</div>","32","","","","","","","","","","","","","","","","","","","",""
"html-keyboard-response","122","402982","0.0-4.0-1.0-0.0","do56oya5vkfm2vo","prime","5f209bbf2f32cf00088e4f87","5f60e3c0a3b16e07647b2ff9","5f60ee620b6bef00088fbae6","false","null","<span style=""color: black; font-size: 48px"">M + N</span>","null","","","","resp_prompt","","","","","","","","","","","","","","","",""
"categorize-image","123","404118","0.0-4.0-1.0-1.0","do56oya5vkfm2vo","prime","5f209bbf2f32cf00088e4f87","5f60e3c0a3b16e07647b2ff9","5f60ee620b6bef00088fbae6","true","1134","./Stimuli/SelectedImages/LN/LN101.bmp","76","","","","test","true","M + N","76","repetition","LN","LN101.bmp","remember","","49","3","prime1","right","","","",""
"html-keyboard-response","124","406120","0.0-4.0-1.0-3.0","do56oya5vkfm2vo","prime","5f209bbf2f32cf00088e4f87","5f60e3c0a3b16e07647b2ff9","5f60ee620b6bef00088fbae6","false","null","<div style=""align-items: center; display: flex; color: dodgerblue; font-size: 90px""><b>o</b></div>","null","","","","forget_cue","","","","","","","","","","","","","","","",""
"html-keyboard-response","125","406822","0.0-4.0-1.0-0.1","do56oya5vkfm2vo","prime","5f209bbf2f32cf00088e4f87","5f60e3c0a3b16e07647b2ff9","5f60ee620b6bef00088fbae6","false","null","<span style=""color: black; font-size: 48px"">M + N</span>","null","","","","resp_prompt","","","","","","","","","","","","","","","",""
"categorize-image","126","407965","0.0-4.0-1.0-1.1","do56oya5vkfm2vo","prime","5f209bbf2f32cf00088e4f87","5f60e3c0a3b16e07647b2ff9","5f60ee620b6bef00088fbae6","true","1138.9999999999418","./Stimuli/SelectedImages/SN/SN111.bmp","76","","","","test","true","M + N","76","repetition","SN","SN111.bmp","remember","","50","3","prime1","right","","","",""
"html-keyboard-response","127","409967","0.0-4.0-1.0-3.1","do56oya5vkfm2vo","prime","5f209bbf2f32cf00088e4f87","5f60e3c0a3b16e07647b2ff9","5f60ee620b6bef00088fbae6","false","null","<div style=""align-items: center; display: flex; color: dodgerblue; font-size: 90px""><b>o</b></div>","null","","","","forget_cue","","","","","","","","","","","","","","","",""
"html-keyboard-response","128","410668","0.0-4.0-1.0-0.2","do56oya5vkfm2vo","prime","5f209bbf2f32cf00088e4f87","5f60e3c0a3b16e07647b2ff9","5f60ee620b6bef00088fbae6","false","null","<span style=""color: black; font-size: 48px"">N + M</span>","null","","","","resp_prompt","","","","","","","","","","","","","","","",""
"categorize-image","129","411733","0.0-4.0-1.0-1.2","do56oya5vkfm2vo","prime","5f209bbf2f32cf00088e4f87","5f60e3c0a3b16e07647b2ff9","5f60ee620b6bef00088fbae6","true","1061","./Stimuli/SelectedImages/SN/SN27.bmp","83","","","","test","true","N + M","83","repetition","SN","SN27.bmp","remember","","51","3","prime1","left","","","",""
"html-keyboard-response","130","413735","0.0-4.0-1.0-3.2","do56oya5vkfm2vo","prime","5f209bbf2f32cf00088e4f87","5f60e3c0a3b16e07647b2ff9","5f60ee620b6bef00088fbae6","false","null","<div style=""align-items: center; display: flex; color: dodgerblue; font-size: 90px""><b>o</b></div>","null","","","","forget_cue","","","","","","","","","","","","","","","",""
"html-keyboard-response","131","414437","0.0-4.0-1.0-0.3","do56oya5vkfm2vo","prime","5f209bbf2f32cf00088e4f87","5f60e3c0a3b16e07647b2ff9","5f60ee620b6bef00088fbae6","false","null","<span style=""color: black; font-size: 48px"">N + M</span>","null","","","","resp_prompt","","","","","","","","","","","","","","","",""
"categorize-image","132","415257","0.0-4.0-1.0-1.3","do56oya5vkfm2vo","prime","5f209bbf2f32cf00088e4f87","5f60e3c0a3b16e07647b2ff9","5f60ee620b6bef00088fbae6","true","817","./Stimuli/SelectedImages/LM/LM51.bmp","76","","","","test","true","N + M","76","switch","LM","LM51.bmp","forget","","52","3","prime1","right","","","",""
"html-keyboard-response","133","417258","0.0-4.0-1.0-3.3","do56oya5vkfm2vo","prime","5f209bbf2f32cf00088e4f87","5f60e3c0a3b16e07647b2ff9","5f60ee620b6bef00088fbae6","false","null","<div style=""align-items: center; display: flex; color: darkorange; font-size: 90px""><b>ø</b></div>","null","","","","forget_cue","","","","","","","","","","","","","","","",""
"html-keyboard-response","134","417961","0.0-4.0-1.0-0.4","do56oya5vkfm2vo","prime","5f209bbf2f32cf00088e4f87","5f60e3c0a3b16e07647b2ff9","5f60ee620b6bef00088fbae6","false","null","<span style=""color: black; font-size: 48px"">M + N</span>","null","","","","resp_prompt","","","","","","","","","","","","","","","",""
"categorize-image","135","419307","0.0-4.0-1.0-1.4","do56oya5vkfm2vo","prime","5f209bbf2f32cf00088e4f87","5f60e3c0a3b16e07647b2ff9","5f60ee620b6bef00088fbae6","true","1344","./Stimuli/SelectedImages/LN/LN166.bmp","76","","","","test","true","M + N","76","repetition","LN","LN166.bmp","forget","","53","3","prime1","right","","","",""
"html-keyboard-response","136","421310","0.0-4.0-1.0-3.4","do56oya5vkfm2vo","prime","5f209bbf2f32cf00088e4f87","5f60e3c0a3b16e07647b2ff9","5f60ee620b6bef00088fbae6","false","null","<div style=""align-items: center; display: flex; color: darkorange; font-size: 90px""><b>ø</b></div>","null","","","","forget_cue","","","","","","","","","","","","","","","",""
"html-keyboard-response","137","422012","0.0-4.0-1.0-0.5","do56oya5vkfm2vo","prime","5f209bbf2f32cf00088e4f87","5f60e3c0a3b16e07647b2ff9","5f60ee620b6bef00088fbae6","false","null","<span style=""color: black; font-size: 48px"">M + N</span>","null","","","","resp_prompt","","","","","","","","","","","","","","","",""
"categorize-image","138","422607","0.0-4.0-1.0-1.5","do56oya5vkfm2vo","prime","5f209bbf2f32cf00088e4f87","5f60e3c0a3b16e07647b2ff9","5f60ee620b6bef00088fbae6","true","593","./Stimuli/SelectedImages/LM/LM59.bmp","83","","","","test","true","M + N","83","repetition","LM","LM59.bmp","forget","","54","3","prime1","left","","","",""
"html-keyboard-response","139","424610","0.0-4.0-1.0-3.5","do56oya5vkfm2vo","prime","5f209bbf2f32cf00088e4f87","5f60e3c0a3b16e07647b2ff9","5f60ee620b6bef00088fbae6","false","null","<div style=""align-items: center; display: flex; color: darkorange; font-size: 90px""><b>ø</b></div>","null","","","","forget_cue","","","","","","","","","","","","","","","",""
"html-keyboard-response","140","425312","0.0-4.0-1.0-0.6","do56oya5vkfm2vo","prime","5f209bbf2f32cf00088e4f87","5f60e3c0a3b16e07647b2ff9","5f60ee620b6bef00088fbae6","false","null","<span style=""color: black; font-size: 48px"">N + M</span>","null","","","","resp_prompt","","","","","","","","","","","","","","","",""
"categorize-image","141","426404","0.0-4.0-1.0-1.6","do56oya5vkfm2vo","prime","5f209bbf2f32cf00088e4f87","5f60e3c0a3b16e07647b2ff9","5f60ee620b6bef00088fbae6","true","1089","./Stimuli/SelectedImages/LM/LM167.bmp","76","","","","test","true","N + M","76","repetition","LM","LM167.bmp","remember","","55","3","prime1","right","","","",""
"html-keyboard-response","142","428407","0.0-4.0-1.0-3.6","do56oya5vkfm2vo","prime","5f209bbf2f32cf00088e4f87","5f60e3c0a3b16e07647b2ff9","5f60ee620b6bef00088fbae6","false","null","<div style=""align-items: center; display: flex; color: dodgerblue; font-size: 90px""><b>o</b></div>","null","","","","forget_cue","","","","","","","","","","","","","","","",""
"html-keyboard-response","143","429109","0.0-4.0-1.0-0.7","do56oya5vkfm2vo","prime","5f209bbf2f32cf00088e4f87","5f60e3c0a3b16e07647b2ff9","5f60ee620b6bef00088fbae6","false","null","<span style=""color: black; font-size: 48px"">N + M</span>","null","","","","resp_prompt","","","","","","","","","","","","","","","",""
"categorize-image","144","430662","0.0-4.0-1.0-1.7","do56oya5vkfm2vo","prime","5f209bbf2f32cf00088e4f87","5f60e3c0a3b16e07647b2ff9","5f60ee620b6bef00088fbae6","true","1549.9999999999418","./Stimuli/SelectedImages/SN/SN93.bmp","76","","","","test","false","N + M","83","switch","SN","SN93.bmp","forget","","56","3","prime1","right","","","",""
"html-keyboard-response","145","431165","0.0-4.0-1.0-2.7-0.7","do56oya5vkfm2vo","prime","5f209bbf2f32cf00088e4f87","5f60e3c0a3b16e07647b2ff9","5f60ee620b6bef00088fbae6","false","null","<span style=""color: red; font-size: 48px"">Error!</span>","null","","","","feedback","","","","","","","","","","","","","","","",""
"html-keyboard-response","146","433167","0.0-4.0-1.0-3.7","do56oya5vkfm2vo","prime","5f209bbf2f32cf00088e4f87","5f60e3c0a3b16e07647b2ff9","5f60ee620b6bef00088fbae6","false","null","<div style=""align-items: center; display: flex; color: darkorange; font-size: 90px""><b>ø</b></div>","null","","","","forget_cue","","","","","","","","","","","","","","","",""
"html-keyboard-response","147","433870","0.0-4.0-1.0-0.8","do56oya5vkfm2vo","prime","5f209bbf2f32cf00088e4f87","5f60e3c0a3b16e07647b2ff9","5f60ee620b6bef00088fbae6","false","null","<span style=""color: black; font-size: 48px"">N + M</span>","null","","","","resp_prompt","","","","","","","","","","","","","","","",""
"categorize-image","148","435254","0.0-4.0-1.0-1.8","do56oya5vkfm2vo","prime","5f209bbf2f32cf00088e4f87","5f60e3c0a3b16e07647b2ff9","5f60ee620b6bef00088fbae6","true","1382.0000000000582","./Stimuli/SelectedImages/LN/LN28.bmp","83","","","","test","true","N + M","83","switch","LN","LN28.bmp","remember","","57","3","prime1","left","","","",""
"html-keyboard-response","149","437256","0.0-4.0-1.0-3.8","do56oya5vkfm2vo","prime","5f209bbf2f32cf00088e4f87","5f60e3c0a3b16e07647b2ff9","5f60ee620b6bef00088fbae6","false","null","<div style=""align-items: center; display: flex; color: dodgerblue; font-size: 90px""><b>o</b></div>","null","","","","forget_cue","","","","","","","","","","","","","","","",""
"html-keyboard-response","150","437958","0.0-4.0-1.0-0.9","do56oya5vkfm2vo","prime","5f209bbf2f32cf00088e4f87","5f60e3c0a3b16e07647b2ff9","5f60ee620b6bef00088fbae6","false","null","<span style=""color: black; font-size: 48px"">M + N</span>","null","","","","resp_prompt","","","","","","","","","","","","","","","",""
"categorize-image","151","438600","0.0-4.0-1.0-1.9","do56oya5vkfm2vo","prime","5f209bbf2f32cf00088e4f87","5f60e3c0a3b16e07647b2ff9","5f60ee620b6bef00088fbae6","true","639.0000000000582","./Stimuli/SelectedImages/SM/SM108.bmp","83","","","","test","true","M + N","83","switch","SM","SM108.bmp","remember","","58","3","prime1","left","","","",""
"html-keyboard-response","152","440602","0.0-4.0-1.0-3.9","do56oya5vkfm2vo","prime","5f209bbf2f32cf00088e4f87","5f60e3c0a3b16e07647b2ff9","5f60ee620b6bef00088fbae6","false","null","<div style=""align-items: center; display: flex; color: dodgerblue; font-size: 90px""><b>o</b></div>","null","","","","forget_cue","","","","","","","","","","","","","","","",""
"html-keyboard-response","153","441304","0.0-4.0-1.0-0.10","do56oya5vkfm2vo","prime","5f209bbf2f32cf00088e4f87","5f60e3c0a3b16e07647b2ff9","5f60ee620b6bef00088fbae6","false","null","<span style=""color: black; font-size: 48px"">M + N</span>","null","","","","resp_prompt","","","","","","","","","","","","","","","",""
"categorize-image","154","442101","0.0-4.0-1.0-1.10","do56oya5vkfm2vo","prime","5f209bbf2f32cf00088e4f87","5f60e3c0a3b16e07647b2ff9","5f60ee620b6bef00088fbae6","true","794","./Stimuli/SelectedImages/SM/SM213.bmp","83","","","","test","true","M + N","83","switch","SM","SM213.bmp","remember","","59","3","prime1","left","","","",""
"html-keyboard-response","155","444104","0.0-4.0-1.0-3.10","do56oya5vkfm2vo","prime","5f209bbf2f32cf00088e4f87","5f60e3c0a3b16e07647b2ff9","5f60ee620b6bef00088fbae6","false","null","<div style=""align-items: center; display: flex; color: dodgerblue; font-size: 90px""><b>o</b></div>","null","","","","forget_cue","","","","","","","","","","","","","","","",""
"html-keyboard-response","156","444806","0.0-4.0-1.0-0.11","do56oya5vkfm2vo","prime","5f209bbf2f32cf00088e4f87","5f60e3c0a3b16e07647b2ff9","5f60ee620b6bef00088fbae6","false","null","<span style=""color: black; font-size: 48px"">N + M</span>","null","","","","resp_prompt","","","","","","","","","","","","","","","",""
"categorize-image","157","445643","0.0-4.0-1.0-1.11","do56oya5vkfm2vo","prime","5f209bbf2f32cf00088e4f87","5f60e3c0a3b16e07647b2ff9","5f60ee620b6bef00088fbae6","true","834","./Stimuli/SelectedImages/LN/LN82.bmp","76","","","","test","false","N + M","83","repetition","LN","LN82.bmp","forget","","60","3","prime1","right","","","",""
"html-keyboard-response","158","446145","0.0-4.0-1.0-2.11-0.11","do56oya5vkfm2vo","prime","5f209bbf2f32cf00088e4f87","5f60e3c0a3b16e07647b2ff9","5f60ee620b6bef00088fbae6","false","null","<span style=""color: red; font-size: 48px"">Error!</span>","null","","","","feedback","","","","","","","","","","","","","","","",""
"html-keyboard-response","159","448147","0.0-4.0-1.0-3.11","do56oya5vkfm2vo","prime","5f209bbf2f32cf00088e4f87","5f60e3c0a3b16e07647b2ff9","5f60ee620b6bef00088fbae6","false","null","<div style=""align-items: center; display: flex; color: darkorange; font-size: 90px""><b>ø</b></div>","null","","","","forget_cue","","","","","","","","","","","","","","","",""
"html-keyboard-response","160","448849","0.0-4.0-1.0-0.12","do56oya5vkfm2vo","prime","5f209bbf2f32cf00088e4f87","5f60e3c0a3b16e07647b2ff9","5f60ee620b6bef00088fbae6","false","null","<span style=""color: black; font-size: 48px"">N + M</span>","null","","","","resp_prompt","","","","","","","","","","","","","","","",""
"categorize-image","161","449954","0.0-4.0-1.0-1.12","do56oya5vkfm2vo","prime","5f209bbf2f32cf00088e4f87","5f60e3c0a3b16e07647b2ff9","5f60ee620b6bef00088fbae6","true","1102","./Stimuli/SelectedImages/SM/SM207.bmp","76","","","","test","true","N + M","76","repetition","SM","SM207.bmp","forget","","61","3","prime1","right","","","",""
"html-keyboard-response","162","451955","0.0-4.0-1.0-3.12","do56oya5vkfm2vo","prime","5f209bbf2f32cf00088e4f87","5f60e3c0a3b16e07647b2ff9","5f60ee620b6bef00088fbae6","false","null","<div style=""align-items: center; display: flex; color: darkorange; font-size: 90px""><b>ø</b></div>","null","","","","forget_cue","","","","","","","","","","","","","","","",""
"html-keyboard-response","163","452657","0.0-4.0-1.0-0.13","do56oya5vkfm2vo","prime","5f209bbf2f32cf00088e4f87","5f60e3c0a3b16e07647b2ff9","5f60ee620b6bef00088fbae6","false","null","<span style=""color: black; font-size: 48px"">M + N</span>","null","","","","resp_prompt","","","","","","","","","","","","","","","",""
"categorize-image","164","453343","0.0-4.0-1.0-1.13","do56oya5vkfm2vo","prime","5f209bbf2f32cf00088e4f87","5f60e3c0a3b16e07647b2ff9","5f60ee620b6bef00088fbae6","true","684.0000000000582","./Stimuli/SelectedImages/SN/SN52.bmp","76","","","","test","true","M + N","76","repetition","SN","SN52.bmp","forget","","62","3","prime1","right","","","",""
"html-keyboard-response","165","455346","0.0-4.0-1.0-3.13","do56oya5vkfm2vo","prime","5f209bbf2f32cf00088e4f87","5f60e3c0a3b16e07647b2ff9","5f60ee620b6bef00088fbae6","false","null","<div style=""align-items: center; display: flex; color: darkorange; font-size: 90px""><b>ø</b></div>","null","","","","forget_cue","","","","","","","","","","","","","","","",""
"html-keyboard-response","166","456047","0.0-4.0-1.0-0.14","do56oya5vkfm2vo","prime","5f209bbf2f32cf00088e4f87","5f60e3c0a3b16e07647b2ff9","5f60ee620b6bef00088fbae6","false","null","<span style=""color: black; font-size: 48px"">N + M</span>","null","","","","resp_prompt","","","","","","","","","","","","","","","",""
"categorize-image","167","457682","0.0-4.0-1.0-1.14","do56oya5vkfm2vo","prime","5f209bbf2f32cf00088e4f87","5f60e3c0a3b16e07647b2ff9","5f60ee620b6bef00088fbae6","true","1632","./Stimuli/SelectedImages/LM/LM209.bmp","83","","","","test","false","N + M","76","switch","LM","LM209.bmp","forget","","63","3","prime1","left","","","",""
"html-keyboard-response","168","458184","0.0-4.0-1.0-2.14-0.14","do56oya5vkfm2vo","prime","5f209bbf2f32cf00088e4f87","5f60e3c0a3b16e07647b2ff9","5f60ee620b6bef00088fbae6","false","null","<span style=""color: red; font-size: 48px"">Error!</span>","null","","","","feedback","","","","","","","","","","","","","","","",""
"html-keyboard-response","169","460187","0.0-4.0-1.0-3.14","do56oya5vkfm2vo","prime","5f209bbf2f32cf00088e4f87","5f60e3c0a3b16e07647b2ff9","5f60ee620b6bef00088fbae6","false","null","<div style=""align-items: center; display: flex; color: darkorange; font-size: 90px""><b>ø</b></div>","null","","","","forget_cue","","","","","","","","","","","","","","","",""
"html-keyboard-response","170","460889","0.0-4.0-1.0-0.15","do56oya5vkfm2vo","prime","5f209bbf2f32cf00088e4f87","5f60e3c0a3b16e07647b2ff9","5f60ee620b6bef00088fbae6","false","null","<span style=""color: black; font-size: 48px"">N + M</span>","null","","","","resp_prompt","","","","","","","","","","","","","","","",""
"categorize-image","171","461834","0.0-4.0-1.0-1.15","do56oya5vkfm2vo","prime","5f209bbf2f32cf00088e4f87","5f60e3c0a3b16e07647b2ff9","5f60ee620b6bef00088fbae6","true","941.9999999999418","./Stimuli/SelectedImages/SM/SM128.bmp","76","","","","test","true","N + M","76","switch","SM","SM128.bmp","remember","","64","3","prime1","right","","","",""
"html-keyboard-response","172","463836","0.0-4.0-1.0-3.15","do56oya5vkfm2vo","prime","5f209bbf2f32cf00088e4f87","5f60e3c0a3b16e07647b2ff9","5f60ee620b6bef00088fbae6","false","null","<div style=""align-items: center; display: flex; color: dodgerblue; font-size: 90px""><b>o</b></div>","null","","","","forget_cue","","","","","","","","","","","","","","","",""
"html-keyboard-response","173","464538","0.0-4.0-1.0-0.16","do56oya5vkfm2vo","prime","5f209bbf2f32cf00088e4f87","5f60e3c0a3b16e07647b2ff9","5f60ee620b6bef00088fbae6","false","null","<span style=""color: black; font-size: 48px"">M + N</span>","null","","","","resp_prompt","","","","","","","","","","","","","","","",""
"categorize-image","174","465487","0.0-4.0-1.0-1.16","do56oya5vkfm2vo","prime","5f209bbf2f32cf00088e4f87","5f60e3c0a3b16e07647b2ff9","5f60ee620b6bef00088fbae6","true","947","./Stimuli/SelectedImages/SM/SM148.bmp","83","","","","test","true","M + N","83","repetition","SM","SM148.bmp","forget","","65","3","prime1","left","","","",""
"html-keyboard-response","175","467489","0.0-4.0-1.0-3.16","do56oya5vkfm2vo","prime","5f209bbf2f32cf00088e4f87","5f60e3c0a3b16e07647b2ff9","5f60ee620b6bef00088fbae6","false","null","<div style=""align-items: center; display: flex; color: darkorange; font-size: 90px""><b>ø</b></div>","null","","","","forget_cue","","","","","","","","","","","","","","","",""
"html-keyboard-response","176","468191","0.0-4.0-1.0-0.17","do56oya5vkfm2vo","prime","5f209bbf2f32cf00088e4f87","5f60e3c0a3b16e07647b2ff9","5f60ee620b6bef00088fbae6","false","null","<span style=""color: black; font-size: 48px"">N + M</span>","null","","","","resp_prompt","","","","","","","","","","","","","","","",""
"categorize-image","177","469330","0.0-4.0-1.0-1.17","do56oya5vkfm2vo","prime","5f209bbf2f32cf00088e4f87","5f60e3c0a3b16e07647b2ff9","5f60ee620b6bef00088fbae6","true","1136","./Stimuli/SelectedImages/SN/SN179.bmp","83","","","","test","true","N + M","83","repetition","SN","SN179.bmp","forget","","66","3","prime1","left","","","",""
"html-keyboard-response","178","471332","0.0-4.0-1.0-3.17","do56oya5vkfm2vo","prime","5f209bbf2f32cf00088e4f87","5f60e3c0a3b16e07647b2ff9","5f60ee620b6bef00088fbae6","false","null","<div style=""align-items: center; display: flex; color: darkorange; font-size: 90px""><b>ø</b></div>","null","","","","forget_cue","","","","","","","","","","","","","","","",""
"html-keyboard-response","179","472034","0.0-4.0-1.0-0.18","do56oya5vkfm2vo","prime","5f209bbf2f32cf00088e4f87","5f60e3c0a3b16e07647b2ff9","5f60ee620b6bef00088fbae6","false","null","<span style=""color: black; font-size: 48px"">N + M</span>","null","","","","resp_prompt","","","","","","","","","","","","","","","",""
"categorize-image","180","472961","0.0-4.0-1.0-1.18","do56oya5vkfm2vo","prime","5f209bbf2f32cf00088e4f87","5f60e3c0a3b16e07647b2ff9","5f60ee620b6bef00088fbae6","true","923","./Stimuli/SelectedImages/SN/SN60.bmp","83","","","","test","true","N + M","83","repetition","SN","SN60.bmp","forget","","67","3","prime1","left","","","",""
"html-keyboard-response","181","474963","0.0-4.0-1.0-3.18","do56oya5vkfm2vo","prime","5f209bbf2f32cf00088e4f87","5f60e3c0a3b16e07647b2ff9","5f60ee620b6bef00088fbae6","false","null","<div style=""align-items: center; display: flex; color: darkorange; font-size: 90px""><b>ø</b></div>","null","","","","forget_cue","","","","","","","","","","","","","","","",""
"html-keyboard-response","182","475665","0.0-4.0-1.0-0.19","do56oya5vkfm2vo","prime","5f209bbf2f32cf00088e4f87","5f60e3c0a3b16e07647b2ff9","5f60ee620b6bef00088fbae6","false","null","<span style=""color: black; font-size: 48px"">M + N</span>","null","","","","resp_prompt","","","","","","","","","","","","","","","",""
"categorize-image","183","476539","0.0-4.0-1.0-1.19","do56oya5vkfm2vo","prime","5f209bbf2f32cf00088e4f87","5f60e3c0a3b16e07647b2ff9","5f60ee620b6bef00088fbae6","true","871","./Stimuli/SelectedImages/SM/SM24.bmp","83","","","","test","true","M + N","83","switch","SM","SM24.bmp","forget","","68","3","prime1","left","","","",""
"html-keyboard-response","184","478541","0.0-4.0-1.0-3.19","do56oya5vkfm2vo","prime","5f209bbf2f32cf00088e4f87","5f60e3c0a3b16e07647b2ff9","5f60ee620b6bef00088fbae6","false","null","<div style=""align-items: center; display: flex; color: darkorange; font-size: 90px""><b>ø</b></div>","null","","","","forget_cue","","","","","","","","","","","","","","","",""
"html-keyboard-response","185","479243","0.0-4.0-1.0-0.20","do56oya5vkfm2vo","prime","5f209bbf2f32cf00088e4f87","5f60e3c0a3b16e07647b2ff9","5f60ee620b6bef00088fbae6","false","null","<span style=""color: black; font-size: 48px"">M + N</span>","null","","","","resp_prompt","","","","","","","","","","","","","","","",""
"categorize-image","186","480640","0.0-4.0-1.0-1.20","do56oya5vkfm2vo","prime","5f209bbf2f32cf00088e4f87","5f60e3c0a3b16e07647b2ff9","5f60ee620b6bef00088fbae6","true","1394","./Stimuli/SelectedImages/SM/SM76.bmp","83","","","","test","true","M + N","83","repetition","SM","SM76.bmp","forget","","69","3","prime1","left","","","",""
"html-keyboard-response","187","482642","0.0-4.0-1.0-3.20","do56oya5vkfm2vo","prime","5f209bbf2f32cf00088e4f87","5f60e3c0a3b16e07647b2ff9","5f60ee620b6bef00088fbae6","false","null","<div style=""align-items: center; display: flex; color: darkorange; font-size: 90px""><b>ø</b></div>","null","","","","forget_cue","","","","","","","","","","","","","","","",""
"html-keyboard-response","188","483344","0.0-4.0-1.0-0.21","do56oya5vkfm2vo","prime","5f209bbf2f32cf00088e4f87","5f60e3c0a3b16e07647b2ff9","5f60ee620b6bef00088fbae6","false","null","<span style=""color: black; font-size: 48px"">M + N</span>","null","","","","resp_prompt","","","","","","","","","","","","","","","",""
"categorize-image","189","485127","0.0-4.0-1.0-1.21","do56oya5vkfm2vo","prime","5f209bbf2f32cf00088e4f87","5f60e3c0a3b16e07647b2ff9","5f60ee620b6bef00088fbae6","true","1780","./Stimuli/SelectedImages/LN/LN13.bmp","83","","","","test","false","M + N","76","switch","LN","LN13.bmp","remember","","70","3","prime1","left","","","",""
"html-keyboard-response","190","485629","0.0-4.0-1.0-2.21-0.21","do56oya5vkfm2vo","prime","5f209bbf2f32cf00088e4f87","5f60e3c0a3b16e07647b2ff9","5f60ee620b6bef00088fbae6","false","null","<span style=""color: red; font-size: 48px"">Error!</span>","null","","","","feedback","","","","","","","","","","","","","","","",""
"html-keyboard-response","191","487630","0.0-4.0-1.0-3.21","do56oya5vkfm2vo","prime","5f209bbf2f32cf00088e4f87","5f60e3c0a3b16e07647b2ff9","5f60ee620b6bef00088fbae6","false","null","<div style=""align-items: center; display: flex; color: dodgerblue; font-size: 90px""><b>o</b></div>","null","","","","forget_cue","","","","","","","","","","","","","","","",""
"html-keyboard-response","192","488332","0.0-4.0-1.0-0.22","do56oya5vkfm2vo","prime","5f209bbf2f32cf00088e4f87","5f60e3c0a3b16e07647b2ff9","5f60ee620b6bef00088fbae6","false","null","<span style=""color: black; font-size: 48px"">N + M</span>","null","","","","resp_prompt","","","","","","","","","","","","","","","",""
"categorize-image","193","489108","0.0-4.0-1.0-1.22","do56oya5vkfm2vo","prime","5f209bbf2f32cf00088e4f87","5f60e3c0a3b16e07647b2ff9","5f60ee620b6bef00088fbae6","true","773","./Stimuli/SelectedImages/LM/LM179.bmp","83","","","","test","false","N + M","76","repetition","LM","LM179.bmp","remember","","71","3","prime1","left","","","",""
"html-keyboard-response","194","489610","0.0-4.0-1.0-2.22-0.22","do56oya5vkfm2vo","prime","5f209bbf2f32cf00088e4f87","5f60e3c0a3b16e07647b2ff9","5f60ee620b6bef00088fbae6","false","null","<span style=""color: red; font-size: 48px"">Error!</span>","null","","","","feedback","","","","","","","","","","","","","","","",""
"html-keyboard-response","195","491612","0.0-4.0-1.0-3.22","do56oya5vkfm2vo","prime","5f209bbf2f32cf00088e4f87","5f60e3c0a3b16e07647b2ff9","5f60ee620b6bef00088fbae6","false","null","<div style=""align-items: center; display: flex; color: dodgerblue; font-size: 90px""><b>o</b></div>","null","","","","forget_cue","","","","","","","","","","","","","","","",""
"html-keyboard-response","196","492314","0.0-4.0-1.0-0.23","do56oya5vkfm2vo","prime","5f209bbf2f32cf00088e4f87","5f60e3c0a3b16e07647b2ff9","5f60ee620b6bef00088fbae6","false","null","<span style=""color: black; font-size: 48px"">M + N</span>","null","","","","resp_prompt","","","","","","","","","","","","","","","",""
"categorize-image","197","493141","0.0-4.0-1.0-1.23","do56oya5vkfm2vo","prime","5f209bbf2f32cf00088e4f87","5f60e3c0a3b16e07647b2ff9","5f60ee620b6bef00088fbae6","true","824","./Stimuli/SelectedImages/SN/SN155.bmp","76","","","","test","true","M + N","76","switch","SN","SN155.bmp","forget","","72","3","prime1","right","","","",""
"html-keyboard-response","198","495144","0.0-4.0-1.0-3.23","do56oya5vkfm2vo","prime","5f209bbf2f32cf00088e4f87","5f60e3c0a3b16e07647b2ff9","5f60ee620b6bef00088fbae6","false","null","<div style=""align-items: center; display: flex; color: darkorange; font-size: 90px""><b>ø</b></div>","null","","","","forget_cue","","","","","","","","","","","","","","","",""
"html-keyboard-response","199","495845","0.0-4.0-1.0-0.24","do56oya5vkfm2vo","prime","5f209bbf2f32cf00088e4f87","5f60e3c0a3b16e07647b2ff9","5f60ee620b6bef00088fbae6","false","null","<span style=""color: black; font-size: 48px"">N + M</span>","null","","","","resp_prompt","","","","","","","","","","","","","","","",""
"categorize-image","200","497464","0.0-4.0-1.0-1.24","do56oya5vkfm2vo","prime","5f209bbf2f32cf00088e4f87","5f60e3c0a3b16e07647b2ff9","5f60ee620b6bef00088fbae6","true","1611","./Stimuli/SelectedImages/LM/LM103.bmp","83","","","","test","false","N + M","76","switch","LM","LM103.bmp","remember","","73","3","prime1","left","","","",""
"html-keyboard-response","201","497966","0.0-4.0-1.0-2.24-0.24","do56oya5vkfm2vo","prime","5f209bbf2f32cf00088e4f87","5f60e3c0a3b16e07647b2ff9","5f60ee620b6bef00088fbae6","false","null","<span style=""color: red; font-size: 48px"">Error!</span>","null","","","","feedback","","","","","","","","","","","","","","","",""
"html-keyboard-response","202","499969","0.0-4.0-1.0-3.24","do56oya5vkfm2vo","prime","5f209bbf2f32cf00088e4f87","5f60e3c0a3b16e07647b2ff9","5f60ee620b6bef00088fbae6","false","null","<div style=""align-items: center; display: flex; color: dodgerblue; font-size: 90px""><b>o</b></div>","null","","","","forget_cue","","","","","","","","","","","","","","","",""
"html-keyboard-response","203","500671","0.0-4.0-1.0-0.25","do56oya5vkfm2vo","prime","5f209bbf2f32cf00088e4f87","5f60e3c0a3b16e07647b2ff9","5f60ee620b6bef00088fbae6","false","null","<span style=""color: black; font-size: 48px"">N + M</span>","null","","","","resp_prompt","","","","","","","","","","","","","","","",""
"categorize-image","204","502280","0.0-4.0-1.0-1.25","do56oya5vkfm2vo","prime","5f209bbf2f32cf00088e4f87","5f60e3c0a3b16e07647b2ff9","5f60ee620b6bef00088fbae6","true","1606","./Stimuli/SelectedImages/SN/SN140.bmp","83","","","","test","true","N + M","83","switch","SN","SN140.bmp","remember","","74","3","prime1","left","","","",""
"html-keyboard-response","205","504282","0.0-4.0-1.0-3.25","do56oya5vkfm2vo","prime","5f209bbf2f32cf00088e4f87","5f60e3c0a3b16e07647b2ff9","5f60ee620b6bef00088fbae6","false","null","<div style=""align-items: center; display: flex; color: dodgerblue; font-size: 90px""><b>o</b></div>","null","","","","forget_cue","","","","","","","","","","","","","","","",""
"html-keyboard-response","206","504985","0.0-4.0-1.0-0.26","do56oya5vkfm2vo","prime","5f209bbf2f32cf00088e4f87","5f60e3c0a3b16e07647b2ff9","5f60ee620b6bef00088fbae6","false","null","<span style=""color: black; font-size: 48px"">N + M</span>","null","","","","resp_prompt","","","","","","","","","","","","","","","",""
"categorize-image","207","505968","0.0-4.0-1.0-1.26","do56oya5vkfm2vo","prime","5f209bbf2f32cf00088e4f87","5f60e3c0a3b16e07647b2ff9","5f60ee620b6bef00088fbae6","true","980.9999999999418","./Stimuli/SelectedImages/SM/SM74.bmp","76","","","","test","true","N + M","76","switch","SM","SM74.bmp","forget","","75","3","prime1","right","","","",""
"html-keyboard-response","208","507970","0.0-4.0-1.0-3.26","do56oya5vkfm2vo","prime","5f209bbf2f32cf00088e4f87","5f60e3c0a3b16e07647b2ff9","5f60ee620b6bef00088fbae6","false","null","<div style=""align-items: center; display: flex; color: darkorange; font-size: 90px""><b>ø</b></div>","null","","","","forget_cue","","","","","","","","","","","","","","","",""
"html-keyboard-response","209","508672","0.0-4.0-1.0-0.27","do56oya5vkfm2vo","prime","5f209bbf2f32cf00088e4f87","5f60e3c0a3b16e07647b2ff9","5f60ee620b6bef00088fbae6","false","null","<span style=""color: black; font-size: 48px"">N + M</span>","null","","","","resp_prompt","","","","","","","","","","","","","","","",""
"categorize-image","210","509301","0.0-4.0-1.0-1.27","do56oya5vkfm2vo","prime","5f209bbf2f32cf00088e4f87","5f60e3c0a3b16e07647b2ff9","5f60ee620b6bef00088fbae6","true","625","./Stimuli/SelectedImages/LM/LM216.bmp","76","","","","test","true","N + M","76","switch","LM","LM216.bmp","remember","","76","3","prime1","right","","","",""
"html-keyboard-response","211","511303","0.0-4.0-1.0-3.27","do56oya5vkfm2vo","prime","5f209bbf2f32cf00088e4f87","5f60e3c0a3b16e07647b2ff9","5f60ee620b6bef00088fbae6","false","null","<div style=""align-items: center; display: flex; color: dodgerblue; font-size: 90px""><b>o</b></div>","null","","","","forget_cue","","","","","","","","","","","","","","","",""
"html-keyboard-response","212","512008","0.0-4.0-1.0-0.28","do56oya5vkfm2vo","prime","5f209bbf2f32cf00088e4f87","5f60e3c0a3b16e07647b2ff9","5f60ee620b6bef00088fbae6","false","null","<span style=""color: black; font-size: 48px"">M + N</span>","null","","","","resp_prompt","","","","","","","","","","","","","","","",""
"categorize-image","213","512777","0.0-4.0-1.0-1.28","do56oya5vkfm2vo","prime","5f209bbf2f32cf00088e4f87","5f60e3c0a3b16e07647b2ff9","5f60ee620b6bef00088fbae6","true","767.0000000000582","./Stimuli/SelectedImages/SM/SM17.bmp","83","","","","test","true","M + N","83","switch","SM","SM17.bmp","forget","","77","3","prime1","left","","","",""
"html-keyboard-response","214","514779","0.0-4.0-1.0-3.28","do56oya5vkfm2vo","prime","5f209bbf2f32cf00088e4f87","5f60e3c0a3b16e07647b2ff9","5f60ee620b6bef00088fbae6","false","null","<div style=""align-items: center; display: flex; color: darkorange; font-size: 90px""><b>ø</b></div>","null","","","","forget_cue","","","","","","","","","","","","","","","",""
"html-keyboard-response","215","515482","0.0-4.0-1.0-0.29","do56oya5vkfm2vo","prime","5f209bbf2f32cf00088e4f87","5f60e3c0a3b16e07647b2ff9","5f60ee620b6bef00088fbae6","false","null","<span style=""color: black; font-size: 48px"">N + M</span>","null","","","","resp_prompt","","","","","","","","","","","","","","","",""
"categorize-image","216","516690","0.0-4.0-1.0-1.29","do56oya5vkfm2vo","prime","5f209bbf2f32cf00088e4f87","5f60e3c0a3b16e07647b2ff9","5f60ee620b6bef00088fbae6","true","1204.9999999998836","./Stimuli/SelectedImages/LN/LN177.bmp","76","","","","test","false","N + M","83","repetition","LN","LN177.bmp","remember","","78","3","prime1","right","","","",""
"html-keyboard-response","217","517192","0.0-4.0-1.0-2.29-0.29","do56oya5vkfm2vo","prime","5f209bbf2f32cf00088e4f87","5f60e3c0a3b16e07647b2ff9","5f60ee620b6bef00088fbae6","false","null","<span style=""color: red; font-size: 48px"">Error!</span>","null","","","","feedback","","","","","","","","","","","","","","","",""
"html-keyboard-response","218","519194","0.0-4.0-1.0-3.29","do56oya5vkfm2vo","prime","5f209bbf2f32cf00088e4f87","5f60e3c0a3b16e07647b2ff9","5f60ee620b6bef00088fbae6","false","null","<div style=""align-items: center; display: flex; color: dodgerblue; font-size: 90px""><b>o</b></div>","null","","","","forget_cue","","","","","","","","","","","","","","","",""
"html-keyboard-response","219","519896","0.0-4.0-1.0-0.30","do56oya5vkfm2vo","prime","5f209bbf2f32cf00088e4f87","5f60e3c0a3b16e07647b2ff9","5f60ee620b6bef00088fbae6","false","null","<span style=""color: black; font-size: 48px"">M + N</span>","null","","","","resp_prompt","","","","","","","","","","","","","","","",""
"categorize-image","220","520646","0.0-4.0-1.0-1.30","do56oya5vkfm2vo","prime","5f209bbf2f32cf00088e4f87","5f60e3c0a3b16e07647b2ff9","5f60ee620b6bef00088fbae6","true","747","./Stimuli/SelectedImages/LM/LM235.bmp","83","","","","test","true","M + N","83","switch","LM","LM235.bmp","forget","","79","3","prime1","left","","","",""
"html-keyboard-response","221","522648","0.0-4.0-1.0-3.30","do56oya5vkfm2vo","prime","5f209bbf2f32cf00088e4f87","5f60e3c0a3b16e07647b2ff9","5f60ee620b6bef00088fbae6","false","null","<div style=""align-items: center; display: flex; color: darkorange; font-size: 90px""><b>ø</b></div>","null","","","","forget_cue","","","","","","","","","","","","","","","",""
"html-keyboard-response","222","523350","0.0-4.0-1.0-0.31","do56oya5vkfm2vo","prime","5f209bbf2f32cf00088e4f87","5f60e3c0a3b16e07647b2ff9","5f60ee620b6bef00088fbae6","false","null","<span style=""color: black; font-size: 48px"">N + M</span>","null","","","","resp_prompt","","","","","","","","","","","","","","","",""
"categorize-image","223","524366","0.0-4.0-1.0-1.31","do56oya5vkfm2vo","prime","5f209bbf2f32cf00088e4f87","5f60e3c0a3b16e07647b2ff9","5f60ee620b6bef00088fbae6","true","1013","./Stimuli/SelectedImages/SN/SN182.bmp","83","","","","test","true","N + M","83","switch","SN","SN182.bmp","remember","","80","3","prime1","left","","","",""
"html-keyboard-response","224","526368","0.0-4.0-1.0-3.31","do56oya5vkfm2vo","prime","5f209bbf2f32cf00088e4f87","5f60e3c0a3b16e07647b2ff9","5f60ee620b6bef00088fbae6","false","null","<div style=""align-items: center; display: flex; color: dodgerblue; font-size: 90px""><b>o</b></div>","null","","","","forget_cue","","","","","","","","","","","","","","","",""
"html-keyboard-response","225","527071","0.0-4.0-1.0-0.32","do56oya5vkfm2vo","prime","5f209bbf2f32cf00088e4f87","5f60e3c0a3b16e07647b2ff9","5f60ee620b6bef00088fbae6","false","null","<span style=""color: black; font-size: 48px"">M + N</span>","null","","","","resp_prompt","","","","","","","","","","","","","","","",""
"categorize-image","226","527595","0.0-4.0-1.0-1.32","do56oya5vkfm2vo","prime","5f209bbf2f32cf00088e4f87","5f60e3c0a3b16e07647b2ff9","5f60ee620b6bef00088fbae6","true","521","./Stimuli/SelectedImages/LM/LM157.bmp","83","","","","test","true","M + N","83","repetition","LM","LM157.bmp","forget","","81","3","prime1","left","","","",""
"html-keyboard-response","227","529597","0.0-4.0-1.0-3.32","do56oya5vkfm2vo","prime","5f209bbf2f32cf00088e4f87","5f60e3c0a3b16e07647b2ff9","5f60ee620b6bef00088fbae6","false","null","<div style=""align-items: center; display: flex; color: darkorange; font-size: 90px""><b>ø</b></div>","null","","","","forget_cue","","","","","","","","","","","","","","","",""
"html-keyboard-response","228","530299","0.0-4.0-1.0-0.33","do56oya5vkfm2vo","prime","5f209bbf2f32cf00088e4f87","5f60e3c0a3b16e07647b2ff9","5f60ee620b6bef00088fbae6","false","null","<span style=""color: black; font-size: 48px"">N + M</span>","null","","","","resp_prompt","","","","","","","","","","","","","","","",""
"categorize-image","229","531475","0.0-4.0-1.0-1.33","do56oya5vkfm2vo","prime","5f209bbf2f32cf00088e4f87","5f60e3c0a3b16e07647b2ff9","5f60ee620b6bef00088fbae6","true","1173","./Stimuli/SelectedImages/SM/SM73.bmp","76","","","","test","true","N + M","76","repetition","SM","SM73.bmp","remember","","82","3","prime1","right","","","",""
"html-keyboard-response","230","533477","0.0-4.0-1.0-3.33","do56oya5vkfm2vo","prime","5f209bbf2f32cf00088e4f87","5f60e3c0a3b16e07647b2ff9","5f60ee620b6bef00088fbae6","false","null","<div style=""align-items: center; display: flex; color: dodgerblue; font-size: 90px""><b>o</b></div>","null","","","","forget_cue","","","","","","","","","","","","","","","",""
"html-keyboard-response","231","534179","0.0-4.0-1.0-0.34","do56oya5vkfm2vo","prime","5f209bbf2f32cf00088e4f87","5f60e3c0a3b16e07647b2ff9","5f60ee620b6bef00088fbae6","false","null","<span style=""color: black; font-size: 48px"">M + N</span>","null","","","","resp_prompt","","","","","","","","","","","","","","","",""
"categorize-image","232","535274","0.0-4.0-1.0-1.34","do56oya5vkfm2vo","prime","5f209bbf2f32cf00088e4f87","5f60e3c0a3b16e07647b2ff9","5f60ee620b6bef00088fbae6","true","1092","./Stimuli/SelectedImages/SN/SN128.bmp","76","","","","test","true","M + N","76","repetition","SN","SN128.bmp","remember","","83","3","prime1","right","","","",""
"html-keyboard-response","233","537276","0.0-4.0-1.0-3.34","do56oya5vkfm2vo","prime","5f209bbf2f32cf00088e4f87","5f60e3c0a3b16e07647b2ff9","5f60ee620b6bef00088fbae6","false","null","<div style=""align-items: center; display: flex; color: dodgerblue; font-size: 90px""><b>o</b></div>","null","","","","forget_cue","","","","","","","","","","","","","","","",""
"html-keyboard-response","234","537978","0.0-4.0-1.0-0.35","do56oya5vkfm2vo","prime","5f209bbf2f32cf00088e4f87","5f60e3c0a3b16e07647b2ff9","5f60ee620b6bef00088fbae6","false","null","<span style=""color: black; font-size: 48px"">M + N</span>","null","","","","resp_prompt","","","","","","","","","","","","","","","",""
"categorize-image","235","538734","0.0-4.0-1.0-1.35","do56oya5vkfm2vo","prime","5f209bbf2f32cf00088e4f87","5f60e3c0a3b16e07647b2ff9","5f60ee620b6bef00088fbae6","true","753.0000000001164","./Stimuli/SelectedImages/LM/LM57.bmp","83","","","","test","true","M + N","83","switch","LM","LM57.bmp","remember","","84","3","prime1","left","","","",""
"html-keyboard-response","236","540735","0.0-4.0-1.0-3.35","do56oya5vkfm2vo","prime","5f209bbf2f32cf00088e4f87","5f60e3c0a3b16e07647b2ff9","5f60ee620b6bef00088fbae6","false","null","<div style=""align-items: center; display: flex; color: dodgerblue; font-size: 90px""><b>o</b></div>","null","","","","forget_cue","","","","","","","","","","","","","","","",""
"html-keyboard-response","237","541437","0.0-4.0-1.0-0.36","do56oya5vkfm2vo","prime","5f209bbf2f32cf00088e4f87","5f60e3c0a3b16e07647b2ff9","5f60ee620b6bef00088fbae6","false","null","<span style=""color: black; font-size: 48px"">N + M</span>","null","","","","resp_prompt","","","","","","","","","","","","","","","",""
"categorize-image","238","542420","0.0-4.0-1.0-1.36","do56oya5vkfm2vo","prime","5f209bbf2f32cf00088e4f87","5f60e3c0a3b16e07647b2ff9","5f60ee620b6bef00088fbae6","true","979","./Stimuli/SelectedImages/SM/SM184.bmp","76","","","","test","true","N + M","76","switch","SM","SM184.bmp","remember","","85","3","prime1","right","","","",""
"html-keyboard-response","239","544422","0.0-4.0-1.0-3.36","do56oya5vkfm2vo","prime","5f209bbf2f32cf00088e4f87","5f60e3c0a3b16e07647b2ff9","5f60ee620b6bef00088fbae6","false","null","<div style=""align-items: center; display: flex; color: dodgerblue; font-size: 90px""><b>o</b></div>","null","","","","forget_cue","","","","","","","","","","","","","","","",""
"html-keyboard-response","240","545127","0.0-4.0-1.0-0.37","do56oya5vkfm2vo","prime","5f209bbf2f32cf00088e4f87","5f60e3c0a3b16e07647b2ff9","5f60ee620b6bef00088fbae6","false","null","<span style=""color: black; font-size: 48px"">N + M</span>","null","","","","resp_prompt","","","","","","","","","","","","","","","",""
"categorize-image","241","546402","0.0-4.0-1.0-1.37","do56oya5vkfm2vo","prime","5f209bbf2f32cf00088e4f87","5f60e3c0a3b16e07647b2ff9","5f60ee620b6bef00088fbae6","true","1272","./Stimuli/SelectedImages/SM/SM195.bmp","76","","","","test","true","N + M","76","switch","SM","SM195.bmp","forget","","86","3","prime1","right","","","",""
"html-keyboard-response","242","548404","0.0-4.0-1.0-3.37","do56oya5vkfm2vo","prime","5f209bbf2f32cf00088e4f87","5f60e3c0a3b16e07647b2ff9","5f60ee620b6bef00088fbae6","false","null","<div style=""align-items: center; display: flex; color: darkorange; font-size: 90px""><b>ø</b></div>","null","","","","forget_cue","","","","","","","","","","","","","","","",""
"html-keyboard-response","243","549106","0.0-4.0-1.0-0.38","do56oya5vkfm2vo","prime","5f209bbf2f32cf00088e4f87","5f60e3c0a3b16e07647b2ff9","5f60ee620b6bef00088fbae6","false","null","<span style=""color: black; font-size: 48px"">M + N</span>","null","","","","resp_prompt","","","","","","","","","","","","","","","",""
"categorize-image","244","549649","0.0-4.0-1.0-1.38","do56oya5vkfm2vo","prime","5f209bbf2f32cf00088e4f87","5f60e3c0a3b16e07647b2ff9","5f60ee620b6bef00088fbae6","true","539.9999999998836","./Stimuli/SelectedImages/LM/LM150.bmp","83","","","","test","true","M + N","83","switch","LM","LM150.bmp","forget","","87","3","prime1","left","","","",""
"html-keyboard-response","245","551651","0.0-4.0-1.0-3.38","do56oya5vkfm2vo","prime","5f209bbf2f32cf00088e4f87","5f60e3c0a3b16e07647b2ff9","5f60ee620b6bef00088fbae6","false","null","<div style=""align-items: center; display: flex; color: darkorange; font-size: 90px""><b>ø</b></div>","null","","","","forget_cue","","","","","","","","","","","","","","","",""
"html-keyboard-response","246","552353","0.0-4.0-1.0-0.39","do56oya5vkfm2vo","prime","5f209bbf2f32cf00088e4f87","5f60e3c0a3b16e07647b2ff9","5f60ee620b6bef00088fbae6","false","null","<span style=""color: black; font-size: 48px"">N + M</span>","null","","","","resp_prompt","","","","","","","","","","","","","","","",""
"categorize-image","247","553378","0.0-4.0-1.0-1.39","do56oya5vkfm2vo","prime","5f209bbf2f32cf00088e4f87","5f60e3c0a3b16e07647b2ff9","5f60ee620b6bef00088fbae6","true","1022","./Stimuli/SelectedImages/LN/LN12.bmp","83","","","","test","true","N + M","83","repetition","LN","LN12.bmp","remember","","88","3","prime1","left","","","",""
"html-keyboard-response","248","555380","0.0-4.0-1.0-3.39","do56oya5vkfm2vo","prime","5f209bbf2f32cf00088e4f87","5f60e3c0a3b16e07647b2ff9","5f60ee620b6bef00088fbae6","false","null","<div style=""align-items: center; display: flex; color: dodgerblue; font-size: 90px""><b>o</b></div>","null","","","","forget_cue","","","","","","","","","","","","","","","",""
"html-keyboard-response","249","556082","0.0-4.0-1.0-0.40","do56oya5vkfm2vo","prime","5f209bbf2f32cf00088e4f87","5f60e3c0a3b16e07647b2ff9","5f60ee620b6bef00088fbae6","false","null","<span style=""color: black; font-size: 48px"">M + N</span>","null","","","","resp_prompt","","","","","","","","","","","","","","","",""
"categorize-image","250","557356","0.0-4.0-1.0-1.40","do56oya5vkfm2vo","prime","5f209bbf2f32cf00088e4f87","5f60e3c0a3b16e07647b2ff9","5f60ee620b6bef00088fbae6","true","1271","./Stimuli/SelectedImages/SN/SN49.bmp","76","","","","test","true","M + N","76","switch","SN","SN49.bmp","remember","","89","3","prime1","right","","","",""
"html-keyboard-response","251","559357","0.0-4.0-1.0-3.40","do56oya5vkfm2vo","prime","5f209bbf2f32cf00088e4f87","5f60e3c0a3b16e07647b2ff9","5f60ee620b6bef00088fbae6","false","null","<div style=""align-items: center; display: flex; color: dodgerblue; font-size: 90px""><b>o</b></div>","null","","","","forget_cue","","","","","","","","","","","","","","","",""
"html-keyboard-response","252","560060","0.0-4.0-1.0-0.41","do56oya5vkfm2vo","prime","5f209bbf2f32cf00088e4f87","5f60e3c0a3b16e07647b2ff9","5f60ee620b6bef00088fbae6","false","null","<span style=""color: black; font-size: 48px"">M + N</span>","null","","","","resp_prompt","","","","","","","","","","","","","","","",""
"categorize-image","253","561963","0.0-4.0-1.0-1.41","do56oya5vkfm2vo","prime","5f209bbf2f32cf00088e4f87","5f60e3c0a3b16e07647b2ff9","5f60ee620b6bef00088fbae6","true","1900.9999999998836","./Stimuli/SelectedImages/LN/LN149.bmp","83","","","","test","false","M + N","76","repetition","LN","LN149.bmp","remember","","90","3","prime1","left","","","",""
"html-keyboard-response","254","562465","0.0-4.0-1.0-2.41-0.41","do56oya5vkfm2vo","prime","5f209bbf2f32cf00088e4f87","5f60e3c0a3b16e07647b2ff9","5f60ee620b6bef00088fbae6","false","null","<span style=""color: red; font-size: 48px"">Error!</span>","null","","","","feedback","","","","","","","","","","","","","","","",""
"html-keyboard-response","255","564468","0.0-4.0-1.0-3.41","do56oya5vkfm2vo","prime","5f209bbf2f32cf00088e4f87","5f60e3c0a3b16e07647b2ff9","5f60ee620b6bef00088fbae6","false","null","<div style=""align-items: center; display: flex; color: dodgerblue; font-size: 90px""><b>o</b></div>","null","","","","forget_cue","","","","","","","","","","","","","","","",""
"html-keyboard-response","256","565170","0.0-4.0-1.0-0.42","do56oya5vkfm2vo","prime","5f209bbf2f32cf00088e4f87","5f60e3c0a3b16e07647b2ff9","5f60ee620b6bef00088fbae6","false","null","<span style=""color: black; font-size: 48px"">M + N</span>","null","","","","resp_prompt","","","","","","","","","","","","","","","",""
