"trial_type","trial_index","time_elapsed","internal_node_id","subject","exp_part","prolific_PID","study_ID","session_ID","use","rt","stimulus","key_press","button_pressed","responses","question_order","trial_part","correct","resp_map","correct_resp","probe_condition","category","image","forget_condition","list","trial_num","block_num","block","response","test_part","n_span","sequence","num_spaces"
"pavlovia","0","3","0.0-0.0","2jr0n3ceek67gn4","","5dbc435b78b8d81ec088fb40","5f60e3c0a3b16e07647b2ff9","5f61dc039691291958d1432e","false","","","","","","","","","","","","","","","","","","","","","","",""
"html-keyboard-response","1","21553","0.0-1.0-0.0-0.0","2jr0n3ceek67gn4","welcome","5dbc435b78b8d81ec088fb40","5f60e3c0a3b16e07647b2ff9","5f61dc039691291958d1432e","false","21547.99999995157","<div align=left>Dear participant, <br> thank you for participating in an online study of the Cognition, Action, and Sustainability Unit of the University of Freiburg! <br> <br>The aim of this study is to examine our ability to remember previously learned information. <br>Our goal is to find out, whether our memory improves, when we only remember information that is relevant to us. <br>The experiment will take about 35 minutes to complete. <br> <br>Please, note that you can only participate in this study if you are using a device with a keyboard (PC, Laptop etc.) <br>and not if you are using a mobile device such as a tablet or smartphone.<br> <br>Press 'SPACE' to proceed to the experiment. </div>","32","","","","","","","","","","","","","","","","","","","",""
"html-keyboard-response","2","42524","0.0-1.0-0.0-1.0","2jr0n3ceek67gn4","welcome","5dbc435b78b8d81ec088fb40","5f60e3c0a3b16e07647b2ff9","5f61dc039691291958d1432e","false","20969.195000012405","<div align=left><strong> Time Course of this experiment: </strong> <br><br> <strong> 1.</strong>  First, please fill in some information regarding your demographic data. <br><br> <strong> 2.</strong>  Next, your task will be to classify everyday objects. <br>In addition, you will be asked to remember certain objects and recall them later. <br>Working on these tasks requires your undivided attention and concentration.<br>It is therefore essential that you eliminate any sources of distraction in your  <br>environment and ensure that you will not be disturbed. <br><br><strong> 3.</strong>  At the end of the experiment, you will be asked to answer a few additional questions. <br> <br><strong> Important:</strong> After finishing the experiment, only close the browser window <br> by clicking on the 'end the experiment'-button when you are asked to do so. <br>Closing the browser window prematurely will make the allocation of your participation credit impossible. <br><br> Press 'SPACE' to start the experiment. </div>","32","","","","","","","","","","","","","","","","","","","",""
"html-button-response","3","68908","0.0-1.0-0.0-2.0","2jr0n3ceek67gn4","welcome","5dbc435b78b8d81ec088fb40","5f60e3c0a3b16e07647b2ff9","5f61dc039691291958d1432e","true","26382.734999991953","<div align=left><strong> Informed consent </strong>  <br>The aim of our research is to better understand human behavior and mental processes. <br>In the following study your behavior (e.g. choices, reaction times) will be studied. <br> <br><strong> Voluntariness and Anonymity </strong> <br>Your participation in this study is  <strong> voluntary</strong>.<br>You may withdraw your consent to participate at any time without providing a reason for doing so and without fear of prejudice. <br><br>As no personal data will be collected, <strong>your data and your person cannot be connected after data collection</strong> – the data-set is anonymous. <br>Respectively, deletion of your data will not be possible after data collection has been completed, as we cannot retrace your data-set.<br>The results and anonymized data collected in this study will be published as a scientific publication. <br>This will happen in an <strong>anonymized format</strong>, so that no data can be traced back to a specific person. <br> <br>The anonymized data of this study will be made available to other researchers and/or in a data archive on the Internet as a means of transparency and to enable subsequent re-use. By doing so, this study follows the recommendations of the Deutsche Forschungsgemeinschaft (DFG, German Research Foundation) and Deutsche Gesellschaft für Psychologie (DGPS, German Psychological Society) regarding quality assurance in research.<br>If you have any questions now or after the experiment, please contact our team (experiments@cs.uni-freiburg.de).<br><br><br>I hereby declare, that I understand the above described conditions of participation and I agree to participate under these conditions. <br><br> </div>","","0","","","","","","","","","","","","","","","","","","",""
"html-keyboard-response","4","96836","0.0-1.0-0.0-3.0","2jr0n3ceek67gn4","welcome","5dbc435b78b8d81ec088fb40","5f60e3c0a3b16e07647b2ff9","5f61dc039691291958d1432e","false","27926.674999995157","<div align=left><strong> General information concerning the experiment </strong>  <br> <br>Please follow the instructions:<ol> <li><strong> Do not leave this tab (your browser window) during the experiment and do not reload this tab! </strong>  <br>If you do switch tabs/windows during the experiment (to check your mail or visit another website, for example), <br>the experiment will end automatically and you will <strong>not receive credit</strong> for your participation. <br>Repeated participation or resumption of the experiment is impossible.</li> <br><li>Please close all other programs for the duration of your participation. </li> <br><li>Please mute or turn off your phone and put it out of your reach. </li> <br><li>Please also take off any disturbing accessories (such as wristwatches, bracelets, etc.). </li> <br><li>If you have music playing in the background, please turn it off now. </li> <br></ol>Thank you! <br>Press 'SPACE' to continue. </div>","32","","","","","","","","","","","","","","","","","","","",""
"survey-text","5","100063","0.0-1.0-1.0-0.0","2jr0n3ceek67gn4","demographics","5dbc435b78b8d81ec088fb40","5f60e3c0a3b16e07647b2ff9","5f61dc039691291958d1432e","true","3224.294999963604","","","","{""age"":""33""}","","","","","","","","","","","","","","","","","",""
"survey-multi-choice","6","120438","0.0-1.0-1.0-1.0","2jr0n3ceek67gn4","demographics","5dbc435b78b8d81ec088fb40","5f60e3c0a3b16e07647b2ff9","5f61dc039691291958d1432e","true","20373.030000017025","","","","{""gender"":""male"",""school"":""others"",""education"":""Completed university degree or equivalent""}","[0,1,2]","","","","","","","","","","","","","","","","",""
"html-keyboard-response","7","136316","0.0-1.0-2.0","2jr0n3ceek67gn4","instructions","5dbc435b78b8d81ec088fb40","5f60e3c0a3b16e07647b2ff9","5f61dc039691291958d1432e","false","15877.154999994673","<div align=left> The experiment is now about to start: <br> <br>In the following part, you will be presented pictures of everyday objects. <br>Your first task is to <strong>classify these objects. </strong> <br> <br> You will classify them either as mechanical or non-mechanical objects. <br> <br>Objects that include any kind of technical mechanism (for example, wheels, switches, levers, <br> electronic components) fall under the category of <strong>mechanical</strong> objects. <br>Only objects without any kind of technical mechanism should be classified as <strong>non-mechanical</strong>. <br><br>Press 'SPACE' to continue. </div>","32","","","","","","","","","","","","","","","","","","","",""
"html-keyboard-response","8","181865","0.0-2.0-0.0","2jr0n3ceek67gn4","instructions","5dbc435b78b8d81ec088fb40","5f60e3c0a3b16e07647b2ff9","5f61dc039691291958d1432e","false","45561.77500000922","<div align=justify>You will classify the objects using the <strong>'S'</strong> and the <strong>'L'</strong> keys on your keyboard.<br>For doing so, please place your <strong>left index finger</strong> on the <strong>'S'</strong> key and place your <strong>right index finger</strong> on the <strong>'L'</strong> key. <br><br> Each trial starts with an instruction, indicating which key ('S'/'L') you need to press to classify <br>the object as mechanical (letter M) or non-mechanical (letter N).<br>The instruction <strong>M + N</strong> indicates that, in the current trial, by pressing the left key ('S') you classify the displayed object as mechanical (M) <br> and by pressing the right key ('L') you classify the object as non-mechanical (N). <br>The instruction <strong>N + M</strong> on the other hand indicates that by pressing the left key ('S') you classify the displayed object as non-mechanical (N) <br> and by pressing the right key ('L') you classify the object as mechanical (M). <br><br>Please press the key corresponding to the correct classification as fast as possible as soon as the object is displayed and try to avoid making mistakes.<br>If you do not respond within a 2 second window, a corresponding feedback will be displayed and the next trial will start.<br> The experiment is divided into multiple blocks to give you the opportunity to take a break after each block. <br>First, you can now practice this task. <br><br>Please place your <strong>LEFT INDEX FINGER</strong> on the 'S' key and your <strong>RIGHT INDEX FINGER</strong> on the 'L' key now. <br><br>Press SPACE to continue.</div>","32","","","","","","","","","","","","","","","","","","","",""
"html-keyboard-response","9","186790","0.0-2.0-1.0","2jr0n3ceek67gn4","instructions","5dbc435b78b8d81ec088fb40","5f60e3c0a3b16e07647b2ff9","5f61dc039691291958d1432e","false","4924.549999996088","<div align=left> You will now have time to practice this task.<br><br>Remember: <br> <br><li>Please place your index fingers on the <strong>'S'</strong> and <strong>'L'</strong> keys <br>to respond as fast and accurately as possible.</li><li>Every picture can be classified as either mechanical or non-mechanical.</li><li>If you do not respond in time or commit an error, you will receive a corresponding feedback. </li><li> Please try to respond as <strong> fast </strong> and as <strong> accurately as possible </strong> .<br><li>To ensure optimal results, please minimize distractions and stay focused. </li><br><br>Press SPACE to continue.</div>","32","","","","","","","","","","","","","","","","","","","",""
"html-keyboard-response","10","187502","0.0-2.0-2.0-0.0","2jr0n3ceek67gn4","practice_no_cue","5dbc435b78b8d81ec088fb40","5f60e3c0a3b16e07647b2ff9","5f61dc039691291958d1432e","false","null","<span style=""color: black; font-size: 48px"">N + M</span>","null","","","","resp_prompt","","","","","","","","","","","","","","","",""
"categorize-image","11","188717","0.0-2.0-2.0-1.0","2jr0n3ceek67gn4","practice_no_cue","5dbc435b78b8d81ec088fb40","5f60e3c0a3b16e07647b2ff9","5f61dc039691291958d1432e","true","712.6350000035018","./Stimuli/ImagesPractice/SM97.jpg","76","","","","test","true","N + M","76","","SM","SM97.jpg","remember","old","1","1","start","right","","","",""
"html-keyboard-response","12","189431","0.0-2.0-2.0-0.1","2jr0n3ceek67gn4","practice_no_cue","5dbc435b78b8d81ec088fb40","5f60e3c0a3b16e07647b2ff9","5f61dc039691291958d1432e","false","null","<span style=""color: black; font-size: 48px"">M + N</span>","null","","","","resp_prompt","","","","","","","","","","","","","","","",""
"categorize-image","13","191209","0.0-2.0-2.0-1.1","2jr0n3ceek67gn4","practice_no_cue","5dbc435b78b8d81ec088fb40","5f60e3c0a3b16e07647b2ff9","5f61dc039691291958d1432e","true","1270.3049999545328","./Stimuli/ImagesPractice/SM35.jpg","83","","","","test","true","M + N","83","","SM","SM35.jpg","forget","old","2","1","start","left","","","",""
"html-keyboard-response","14","191910","0.0-2.0-2.0-0.2","2jr0n3ceek67gn4","practice_no_cue","5dbc435b78b8d81ec088fb40","5f60e3c0a3b16e07647b2ff9","5f61dc039691291958d1432e","false","null","<span style=""color: black; font-size: 48px"">M + N</span>","null","","","","resp_prompt","","","","","","","","","","","","","","","",""
"categorize-image","15","193136","0.0-2.0-2.0-1.2","2jr0n3ceek67gn4","practice_no_cue","5dbc435b78b8d81ec088fb40","5f60e3c0a3b16e07647b2ff9","5f61dc039691291958d1432e","true","711.6800000076182","./Stimuli/ImagesPractice/LN4.jpg","76","","","","test","true","M + N","76","","LN","LN4.jpg","forget","old","3","1","start","right","","","",""
"html-keyboard-response","16","193841","0.0-2.0-2.0-0.3","2jr0n3ceek67gn4","practice_no_cue","5dbc435b78b8d81ec088fb40","5f60e3c0a3b16e07647b2ff9","5f61dc039691291958d1432e","false","null","<span style=""color: black; font-size: 48px"">M + N</span>","null","","","","resp_prompt","","","","","","","","","","","","","","","",""
"categorize-image","17","194965","0.0-2.0-2.0-1.3","2jr0n3ceek67gn4","practice_no_cue","5dbc435b78b8d81ec088fb40","5f60e3c0a3b16e07647b2ff9","5f61dc039691291958d1432e","true","609.8150000325404","./Stimuli/ImagesPractice/LN15.jpg","76","","","","test","true","M + N","76","","LN","LN15.jpg","remember","old","4","1","start","right","","","",""
"html-keyboard-response","18","195667","0.0-2.0-2.0-0.4","2jr0n3ceek67gn4","practice_no_cue","5dbc435b78b8d81ec088fb40","5f60e3c0a3b16e07647b2ff9","5f61dc039691291958d1432e","false","null","<span style=""color: black; font-size: 48px"">M + N</span>","null","","","","resp_prompt","","","","","","","","","","","","","","","",""
"categorize-image","19","196944","0.0-2.0-2.0-1.4","2jr0n3ceek67gn4","practice_no_cue","5dbc435b78b8d81ec088fb40","5f60e3c0a3b16e07647b2ff9","5f61dc039691291958d1432e","true","773.7649999908172","./Stimuli/ImagesPractice/SN221.jpg","76","","","","test","true","M + N","76","","SN","SN221.jpg","forget","old","5","1","start","right","","","",""
"html-keyboard-response","20","197658","0.0-2.0-2.0-0.5","2jr0n3ceek67gn4","practice_no_cue","5dbc435b78b8d81ec088fb40","5f60e3c0a3b16e07647b2ff9","5f61dc039691291958d1432e","false","null","<span style=""color: black; font-size: 48px"">N + M</span>","null","","","","resp_prompt","","","","","","","","","","","","","","","",""
"categorize-image","21","199046","0.0-2.0-2.0-1.5","2jr0n3ceek67gn4","practice_no_cue","5dbc435b78b8d81ec088fb40","5f60e3c0a3b16e07647b2ff9","5f61dc039691291958d1432e","true","884.1649999958463","./Stimuli/ImagesPractice/SN222.jpg","83","","","","test","true","N + M","83","","SN","SN222.jpg","remember","old","6","1","start","left","","","",""
"html-keyboard-response","22","199766","0.0-2.0-2.0-0.6","2jr0n3ceek67gn4","practice_no_cue","5dbc435b78b8d81ec088fb40","5f60e3c0a3b16e07647b2ff9","5f61dc039691291958d1432e","false","null","<span style=""color: black; font-size: 48px"">N + M</span>","null","","","","resp_prompt","","","","","","","","","","","","","","","",""
"categorize-image","23","201132","0.0-2.0-2.0-1.6","2jr0n3ceek67gn4","practice_no_cue","5dbc435b78b8d81ec088fb40","5f60e3c0a3b16e07647b2ff9","5f61dc039691291958d1432e","true","861.304999969434","./Stimuli/ImagesPractice/LM224.jpg","76","","","","test","true","N + M","76","","LM","LM224.jpg","forget","old","7","1","start","right","","","",""
"html-keyboard-response","24","201835","0.0-2.0-2.0-0.7","2jr0n3ceek67gn4","practice_no_cue","5dbc435b78b8d81ec088fb40","5f60e3c0a3b16e07647b2ff9","5f61dc039691291958d1432e","false","null","<span style=""color: black; font-size: 48px"">N + M</span>","null","","","","resp_prompt","","","","","","","","","","","","","","","",""
"categorize-image","25","203255","0.0-2.0-2.0-1.7","2jr0n3ceek67gn4","practice_no_cue","5dbc435b78b8d81ec088fb40","5f60e3c0a3b16e07647b2ff9","5f61dc039691291958d1432e","true","910.7000000076368","./Stimuli/ImagesPractice/LM147.jpg","76","","","","test","true","N + M","76","","LM","LM147.jpg","forget","old","8","1","start","right","","","",""
"html-keyboard-response","26","203980","0.0-2.0-2.0-0.8","2jr0n3ceek67gn4","practice_no_cue","5dbc435b78b8d81ec088fb40","5f60e3c0a3b16e07647b2ff9","5f61dc039691291958d1432e","false","null","<span style=""color: black; font-size: 48px"">M + N</span>","null","","","","resp_prompt","","","","","","","","","","","","","","","",""
"categorize-image","27","205318","0.0-2.0-2.0-1.8","2jr0n3ceek67gn4","practice_no_cue","5dbc435b78b8d81ec088fb40","5f60e3c0a3b16e07647b2ff9","5f61dc039691291958d1432e","true","821.6200000024401","./Stimuli/ImagesPractice/LM239.jpg","76","","","","test","false","M + N","83","","LM","LM239.jpg","remember","old","9","1","start","right","","","",""
"html-keyboard-response","28","206021","0.0-2.0-2.0-0.9","2jr0n3ceek67gn4","practice_no_cue","5dbc435b78b8d81ec088fb40","5f60e3c0a3b16e07647b2ff9","5f61dc039691291958d1432e","false","null","<span style=""color: black; font-size: 48px"">N + M</span>","null","","","","resp_prompt","","","","","","","","","","","","","","","",""
"categorize-image","29","207453","0.0-2.0-2.0-1.9","2jr0n3ceek67gn4","practice_no_cue","5dbc435b78b8d81ec088fb40","5f60e3c0a3b16e07647b2ff9","5f61dc039691291958d1432e","true","929.1150000062771","./Stimuli/ImagesPractice/LM143.jpg","76","","","","test","true","N + M","76","","LM","LM143.jpg","remember","old","10","1","start","right","","","",""
"html-keyboard-response","30","208156","0.0-2.0-2.0-0.10","2jr0n3ceek67gn4","practice_no_cue","5dbc435b78b8d81ec088fb40","5f60e3c0a3b16e07647b2ff9","5f61dc039691291958d1432e","false","null","<span style=""color: black; font-size: 48px"">N + M</span>","null","","","","resp_prompt","","","","","","","","","","","","","","","",""
"categorize-image","31","209426","0.0-2.0-2.0-1.10","2jr0n3ceek67gn4","practice_no_cue","5dbc435b78b8d81ec088fb40","5f60e3c0a3b16e07647b2ff9","5f61dc039691291958d1432e","true","753.7800000282004","./Stimuli/ImagesPractice/SN220.jpg","83","","","","test","true","N + M","83","","SN","SN220.jpg","forget","old","11","1","start","left","","","",""
"html-keyboard-response","32","210131","0.0-2.0-2.0-0.11","2jr0n3ceek67gn4","practice_no_cue","5dbc435b78b8d81ec088fb40","5f60e3c0a3b16e07647b2ff9","5f61dc039691291958d1432e","false","null","<span style=""color: black; font-size: 48px"">M + N</span>","null","","","","resp_prompt","","","","","","","","","","","","","","","",""
"categorize-image","33","211536","0.0-2.0-2.0-1.11","2jr0n3ceek67gn4","practice_no_cue","5dbc435b78b8d81ec088fb40","5f60e3c0a3b16e07647b2ff9","5f61dc039691291958d1432e","true","900.6850000005215","./Stimuli/ImagesPractice/LN17.jpg","76","","","","test","true","M + N","76","","LN","LN17.jpg","forget","old","12","1","start","right","","","",""
"html-keyboard-response","34","212240","0.0-2.0-2.0-0.12","2jr0n3ceek67gn4","practice_no_cue","5dbc435b78b8d81ec088fb40","5f60e3c0a3b16e07647b2ff9","5f61dc039691291958d1432e","false","null","<span style=""color: black; font-size: 48px"">N + M</span>","null","","","","resp_prompt","","","","","","","","","","","","","","","",""
"categorize-image","35","213561","0.0-2.0-2.0-1.12","2jr0n3ceek67gn4","practice_no_cue","5dbc435b78b8d81ec088fb40","5f60e3c0a3b16e07647b2ff9","5f61dc039691291958d1432e","true","805.1350000314415","./Stimuli/ImagesPractice/LN2.jpg","83","","","","test","true","N + M","83","","LN","LN2.jpg","remember","old","13","1","start","left","","","",""
"html-keyboard-response","36","214263","0.0-2.0-2.0-0.13","2jr0n3ceek67gn4","practice_no_cue","5dbc435b78b8d81ec088fb40","5f60e3c0a3b16e07647b2ff9","5f61dc039691291958d1432e","false","null","<span style=""color: black; font-size: 48px"">M + N</span>","null","","","","resp_prompt","","","","","","","","","","","","","","","",""
"categorize-image","37","215617","0.0-2.0-2.0-1.13","2jr0n3ceek67gn4","practice_no_cue","5dbc435b78b8d81ec088fb40","5f60e3c0a3b16e07647b2ff9","5f61dc039691291958d1432e","true","845.305000024382","./Stimuli/ImagesPractice/SM37.jpg","83","","","","test","true","M + N","83","","SM","SM37.jpg","remember","old","14","1","start","left","","","",""
"html-keyboard-response","38","216326","0.0-2.0-2.0-0.14","2jr0n3ceek67gn4","practice_no_cue","5dbc435b78b8d81ec088fb40","5f60e3c0a3b16e07647b2ff9","5f61dc039691291958d1432e","false","null","<span style=""color: black; font-size: 48px"">M + N</span>","null","","","","resp_prompt","","","","","","","","","","","","","","","",""
"categorize-image","39","217717","0.0-2.0-2.0-1.14","2jr0n3ceek67gn4","practice_no_cue","5dbc435b78b8d81ec088fb40","5f60e3c0a3b16e07647b2ff9","5f61dc039691291958d1432e","true","877.0150000345893","./Stimuli/ImagesPractice/SM98.jpg","83","","","","test","true","M + N","83","","SM","SM98.jpg","remember","old","15","1","start","left","","","",""
"html-keyboard-response","40","218434","0.0-2.0-2.0-0.15","2jr0n3ceek67gn4","practice_no_cue","5dbc435b78b8d81ec088fb40","5f60e3c0a3b16e07647b2ff9","5f61dc039691291958d1432e","false","null","<span style=""color: black; font-size: 48px"">N + M</span>","null","","","","resp_prompt","","","","","","","","","","","","","","","",""
"categorize-image","41","219816","0.0-2.0-2.0-1.15","2jr0n3ceek67gn4","practice_no_cue","5dbc435b78b8d81ec088fb40","5f60e3c0a3b16e07647b2ff9","5f61dc039691291958d1432e","true","871.1550000007264","./Stimuli/ImagesPractice/SM62.jpg","76","","","","test","true","N + M","76","","SM","SM62.jpg","forget","old","16","1","start","right","","","",""
"html-keyboard-response","42","223726","0.0-2.0-3.0","2jr0n3ceek67gn4","break","5dbc435b78b8d81ec088fb40","5f60e3c0a3b16e07647b2ff9","5f61dc039691291958d1432e","false","3908.709999988787","<p style='font-size: 32px;'>Break</><br><br><br><br><br><p style='font-size: 24px;'>In the last block, you committed 1 errors and did not respond in time on 0 trials.
</p><p style='font-size: 24px;'>Try to respond as fast and accurately as possible in the next block as well! </p><p style='font-size: 24px;'>Press SPACE to continue.</p>","32","","","","","","","","","","","","","","","","","","","",""
"html-keyboard-response","43","227752","0.0-2.0-4.0","2jr0n3ceek67gn4","instructions","5dbc435b78b8d81ec088fb40","5f60e3c0a3b16e07647b2ff9","5f61dc039691291958d1432e","false","4024.6700000134297","<div align=left> Great!<br><br>Are you ready to continue?<br><br>If you want to reread the instructions and redo the practice trials, <br>please press „Z“. <br><br>Press SPACE to CONTINUE with the experiment when you are ready. </div>","32","","","","","","","","","","","","","","","","","","","",""
"html-keyboard-response","44","262949","0.0-3.0-0.0","2jr0n3ceek67gn4","instructions","5dbc435b78b8d81ec088fb40","5f60e3c0a3b16e07647b2ff9","5f61dc039691291958d1432e","false","35190.20000001183","<div align=left>Great!<br> <strong>Attention</strong>! You will now receive a second, additional task! <br><br>To this point it was you <strong>first task</strong> to correctly <strong>classify objects</strong>. <br><br>As mentioned in the beginning, we aim to examine how well humans can remember previously learned information.<br>We would like to find out whether our memory improves if we only remember information that is relevant to us. <br><br>Therefore, your <strong>second task</strong> will be to <strong>remember</strong> the pictures you are to categorize. <br> After the learning phase, there will be a memory test phase, in which you will be asked to indicate whether you have seen a picture before or not. <br>Some, but not all pictures shown in the learning phase will appear in the memory test phase.<br>After classifying a picture, you will be told whether you should remember it for the memory test phase or not. <br>Thus, some pictures can be forgotten, whereas others have to be remembered. <br><br>Note: From now on, feedback will only be displayed if you responded incorrectly or not in time.<br><br>Press SPACE to continue.</div>","32","","","","","","","","","","","","","","","","","","","",""
"html-keyboard-response","45","279518","0.0-3.0-1.0","2jr0n3ceek67gn4","instructions","5dbc435b78b8d81ec088fb40","5f60e3c0a3b16e07647b2ff9","5f61dc039691291958d1432e","false","16568.36499995552","<div align=left>In the following part, you will thus have to remember only some pictures. <br>Immediately after seeing and classifying the picture, a symbol will be displayed, indicating whether you should remember or forget the previous picture. <br><br>A <span style='color: dodgerblue; font-size: 28px'>O</span> indicates REMEMBER. That means, you have to remember this picture, because it will be tested later. <br><br>A <span style='color: darkorange; font-size:28px'>Ø</span> indicates FORGET. You do not have to remember this picture. <br><br> As you will have to remember a lot of pictures, it will be hard for you to remember all of them. <br>It will put you at an advantage if you instantly forget the pictures you are not asked to remember. <br> This will make it easier for you to remember the pictures that will be tested afterwards. <br><br>Press SPACE to continue.</div>","32","","","","","","","","","","","","","","","","","","","",""
"html-keyboard-response","46","285862","0.0-3.0-2.0","2jr0n3ceek67gn4","instructions","5dbc435b78b8d81ec088fb40","5f60e3c0a3b16e07647b2ff9","5f61dc039691291958d1432e","false","6342.960000038147","<div align=left> Now you have the chance to practice both tasks together.<br><br>Remember: <br> <br><li>Please place your index fingers on the <strong>'S'</strong> and <strong>'L'</strong> keys <br>to respond as fast and accurately as possible.</li><li>Every picture can be classified as either mechanical or non-mechanical.</li><li>If you do not respond in time or commit an error, you will receive a corresponding feedback. <br>Please try to respond as <strong> fast </strong> and as <strong> accurately as possible </strong>.</li><li> Please remember only the to-be-remembered <span style='color: dodgerblue; font-size: 28px'>O</span> pictures. <br></li><li> Please minimize distractions and stay focused. </li><br><br>Press SPACE to START</div>","32","","","","","","","","","","","","","","","","","","","",""
"html-keyboard-response","47","286564","0.0-3.0-3.0-0.0","2jr0n3ceek67gn4","practice_cue","5dbc435b78b8d81ec088fb40","5f60e3c0a3b16e07647b2ff9","5f61dc039691291958d1432e","false","null","<span style=""color: black; font-size: 48px"">N + M</span>","null","","","","resp_prompt","","","","","","","","","","","","","","","",""
"categorize-image","48","287163","0.0-3.0-3.0-1.0","2jr0n3ceek67gn4","practice_cue","5dbc435b78b8d81ec088fb40","5f60e3c0a3b16e07647b2ff9","5f61dc039691291958d1432e","true","596.2949999957345","./Stimuli/ImagesPractice/SM62.jpg","76","","","","test","true","N + M","76","","SM","SM62.jpg","forget","old","17","2","practice_forget","right","","","",""
"html-keyboard-response","49","289172","0.0-3.0-3.0-3.0","2jr0n3ceek67gn4","practice_cue","5dbc435b78b8d81ec088fb40","5f60e3c0a3b16e07647b2ff9","5f61dc039691291958d1432e","false","null","<div style=""align-items: center; display: flex; color: darkorange; font-size: 90px""><b>ø</b></div>","null","","","","forget_cue","","","","","","","","","","","","","","","",""
"html-keyboard-response","50","289874","0.0-3.0-3.0-0.1","2jr0n3ceek67gn4","practice_cue","5dbc435b78b8d81ec088fb40","5f60e3c0a3b16e07647b2ff9","5f61dc039691291958d1432e","false","null","<span style=""color: black; font-size: 48px"">M + N</span>","null","","","","resp_prompt","","","","","","","","","","","","","","","",""
"categorize-image","51","290635","0.0-3.0-3.0-1.1","2jr0n3ceek67gn4","practice_cue","5dbc435b78b8d81ec088fb40","5f60e3c0a3b16e07647b2ff9","5f61dc039691291958d1432e","true","757.7900000032969","./Stimuli/ImagesPractice/LM239.jpg","83","","","","test","true","M + N","83","","LM","LM239.jpg","remember","old","18","2","practice_forget","left","","","",""
"html-keyboard-response","52","292638","0.0-3.0-3.0-3.1","2jr0n3ceek67gn4","practice_cue","5dbc435b78b8d81ec088fb40","5f60e3c0a3b16e07647b2ff9","5f61dc039691291958d1432e","false","null","<div style=""align-items: center; display: flex; color: dodgerblue; font-size: 90px""><b>o</b></div>","null","","","","forget_cue","","","","","","","","","","","","","","","",""
"html-keyboard-response","53","293345","0.0-3.0-3.0-0.2","2jr0n3ceek67gn4","practice_cue","5dbc435b78b8d81ec088fb40","5f60e3c0a3b16e07647b2ff9","5f61dc039691291958d1432e","false","null","<span style=""color: black; font-size: 48px"">N + M</span>","null","","","","resp_prompt","","","","","","","","","","","","","","","",""
"categorize-image","54","293927","0.0-3.0-3.0-1.2","2jr0n3ceek67gn4","practice_cue","5dbc435b78b8d81ec088fb40","5f60e3c0a3b16e07647b2ff9","5f61dc039691291958d1432e","true","580.0950000411831","./Stimuli/ImagesPractice/SN222.jpg","83","","","","test","true","N + M","83","","SN","SN222.jpg","remember","old","19","2","practice_forget","left","","","",""
"html-keyboard-response","55","295938","0.0-3.0-3.0-3.2","2jr0n3ceek67gn4","practice_cue","5dbc435b78b8d81ec088fb40","5f60e3c0a3b16e07647b2ff9","5f61dc039691291958d1432e","false","null","<div style=""align-items: center; display: flex; color: dodgerblue; font-size: 90px""><b>o</b></div>","null","","","","forget_cue","","","","","","","","","","","","","","","",""
"html-keyboard-response","56","296652","0.0-3.0-3.0-0.3","2jr0n3ceek67gn4","practice_cue","5dbc435b78b8d81ec088fb40","5f60e3c0a3b16e07647b2ff9","5f61dc039691291958d1432e","false","null","<span style=""color: black; font-size: 48px"">N + M</span>","null","","","","resp_prompt","","","","","","","","","","","","","","","",""
"categorize-image","57","297217","0.0-3.0-3.0-1.3","2jr0n3ceek67gn4","practice_cue","5dbc435b78b8d81ec088fb40","5f60e3c0a3b16e07647b2ff9","5f61dc039691291958d1432e","true","562.6650000340305","./Stimuli/ImagesPractice/LM143.jpg","76","","","","test","true","N + M","76","","LM","LM143.jpg","remember","old","20","2","practice_forget","right","","","",""
"html-keyboard-response","58","299229","0.0-3.0-3.0-3.3","2jr0n3ceek67gn4","practice_cue","5dbc435b78b8d81ec088fb40","5f60e3c0a3b16e07647b2ff9","5f61dc039691291958d1432e","false","null","<div style=""align-items: center; display: flex; color: dodgerblue; font-size: 90px""><b>o</b></div>","null","","","","forget_cue","","","","","","","","","","","","","","","",""
"html-keyboard-response","59","299932","0.0-3.0-3.0-0.4","2jr0n3ceek67gn4","practice_cue","5dbc435b78b8d81ec088fb40","5f60e3c0a3b16e07647b2ff9","5f61dc039691291958d1432e","false","null","<span style=""color: black; font-size: 48px"">N + M</span>","null","","","","resp_prompt","","","","","","","","","","","","","","","",""
"categorize-image","60","300515","0.0-3.0-3.0-1.4","2jr0n3ceek67gn4","practice_cue","5dbc435b78b8d81ec088fb40","5f60e3c0a3b16e07647b2ff9","5f61dc039691291958d1432e","true","580.3749999613501","./Stimuli/ImagesPractice/SM97.jpg","76","","","","test","true","N + M","76","","SM","SM97.jpg","remember","old","21","2","practice_forget","right","","","",""
"html-keyboard-response","61","302518","0.0-3.0-3.0-3.4","2jr0n3ceek67gn4","practice_cue","5dbc435b78b8d81ec088fb40","5f60e3c0a3b16e07647b2ff9","5f61dc039691291958d1432e","false","null","<div style=""align-items: center; display: flex; color: dodgerblue; font-size: 90px""><b>o</b></div>","null","","","","forget_cue","","","","","","","","","","","","","","","",""
"html-keyboard-response","62","303221","0.0-3.0-3.0-0.5","2jr0n3ceek67gn4","practice_cue","5dbc435b78b8d81ec088fb40","5f60e3c0a3b16e07647b2ff9","5f61dc039691291958d1432e","false","null","<span style=""color: black; font-size: 48px"">N + M</span>","null","","","","resp_prompt","","","","","","","","","","","","","","","",""
"categorize-image","63","303914","0.0-3.0-3.0-1.5","2jr0n3ceek67gn4","practice_cue","5dbc435b78b8d81ec088fb40","5f60e3c0a3b16e07647b2ff9","5f61dc039691291958d1432e","true","690.8650000113994","./Stimuli/ImagesPractice/LM147.jpg","76","","","","test","true","N + M","76","","LM","LM147.jpg","forget","old","22","2","practice_forget","right","","","",""
"html-keyboard-response","64","305917","0.0-3.0-3.0-3.5","2jr0n3ceek67gn4","practice_cue","5dbc435b78b8d81ec088fb40","5f60e3c0a3b16e07647b2ff9","5f61dc039691291958d1432e","false","null","<div style=""align-items: center; display: flex; color: darkorange; font-size: 90px""><b>ø</b></div>","null","","","","forget_cue","","","","","","","","","","","","","","","",""
"html-keyboard-response","65","306633","0.0-3.0-3.0-0.6","2jr0n3ceek67gn4","practice_cue","5dbc435b78b8d81ec088fb40","5f60e3c0a3b16e07647b2ff9","5f61dc039691291958d1432e","false","null","<span style=""color: black; font-size: 48px"">M + N</span>","null","","","","resp_prompt","","","","","","","","","","","","","","","",""
"categorize-image","66","307610","0.0-3.0-3.0-1.6","2jr0n3ceek67gn4","practice_cue","5dbc435b78b8d81ec088fb40","5f60e3c0a3b16e07647b2ff9","5f61dc039691291958d1432e","true","974.1449999855831","./Stimuli/ImagesPractice/LN17.jpg","76","","","","test","true","M + N","76","","LN","LN17.jpg","forget","old","23","2","practice_forget","right","","","",""
"html-keyboard-response","67","309616","0.0-3.0-3.0-3.6","2jr0n3ceek67gn4","practice_cue","5dbc435b78b8d81ec088fb40","5f60e3c0a3b16e07647b2ff9","5f61dc039691291958d1432e","false","null","<div style=""align-items: center; display: flex; color: darkorange; font-size: 90px""><b>ø</b></div>","null","","","","forget_cue","","","","","","","","","","","","","","","",""
"html-keyboard-response","68","310330","0.0-3.0-3.0-0.7","2jr0n3ceek67gn4","practice_cue","5dbc435b78b8d81ec088fb40","5f60e3c0a3b16e07647b2ff9","5f61dc039691291958d1432e","false","null","<span style=""color: black; font-size: 48px"">M + N</span>","null","","","","resp_prompt","","","","","","","","","","","","","","","",""
"categorize-image","69","311084","0.0-3.0-3.0-1.7","2jr0n3ceek67gn4","practice_cue","5dbc435b78b8d81ec088fb40","5f60e3c0a3b16e07647b2ff9","5f61dc039691291958d1432e","true","751.4400000218302","./Stimuli/ImagesPractice/SN221.jpg","76","","","","test","true","M + N","76","","SN","SN221.jpg","forget","old","24","2","practice_forget","right","","","",""
"html-keyboard-response","70","313100","0.0-3.0-3.0-3.7","2jr0n3ceek67gn4","practice_cue","5dbc435b78b8d81ec088fb40","5f60e3c0a3b16e07647b2ff9","5f61dc039691291958d1432e","false","null","<div style=""align-items: center; display: flex; color: darkorange; font-size: 90px""><b>ø</b></div>","null","","","","forget_cue","","","","","","","","","","","","","","","",""
"html-keyboard-response","71","313814","0.0-3.0-3.0-0.8","2jr0n3ceek67gn4","practice_cue","5dbc435b78b8d81ec088fb40","5f60e3c0a3b16e07647b2ff9","5f61dc039691291958d1432e","false","null","<span style=""color: black; font-size: 48px"">N + M</span>","null","","","","resp_prompt","","","","","","","","","","","","","","","",""
"categorize-image","72","314532","0.0-3.0-3.0-1.8","2jr0n3ceek67gn4","practice_cue","5dbc435b78b8d81ec088fb40","5f60e3c0a3b16e07647b2ff9","5f61dc039691291958d1432e","true","715.5749999801628","./Stimuli/ImagesPractice/LN2.jpg","83","","","","test","true","N + M","83","","LN","LN2.jpg","remember","old","25","2","practice_forget","left","","","",""
"html-keyboard-response","73","316544","0.0-3.0-3.0-3.8","2jr0n3ceek67gn4","practice_cue","5dbc435b78b8d81ec088fb40","5f60e3c0a3b16e07647b2ff9","5f61dc039691291958d1432e","false","null","<div style=""align-items: center; display: flex; color: dodgerblue; font-size: 90px""><b>o</b></div>","null","","","","forget_cue","","","","","","","","","","","","","","","",""
"html-keyboard-response","74","317252","0.0-3.0-3.0-0.9","2jr0n3ceek67gn4","practice_cue","5dbc435b78b8d81ec088fb40","5f60e3c0a3b16e07647b2ff9","5f61dc039691291958d1432e","false","null","<span style=""color: black; font-size: 48px"">N + M</span>","null","","","","resp_prompt","","","","","","","","","","","","","","","",""
"categorize-image","75","317907","0.0-3.0-3.0-1.9","2jr0n3ceek67gn4","practice_cue","5dbc435b78b8d81ec088fb40","5f60e3c0a3b16e07647b2ff9","5f61dc039691291958d1432e","true","652.5900000124238","./Stimuli/ImagesPractice/LM224.jpg","76","","","","test","true","N + M","76","","LM","LM224.jpg","forget","old","26","2","practice_forget","right","","","",""
"html-keyboard-response","76","319912","0.0-3.0-3.0-3.9","2jr0n3ceek67gn4","practice_cue","5dbc435b78b8d81ec088fb40","5f60e3c0a3b16e07647b2ff9","5f61dc039691291958d1432e","false","null","<div style=""align-items: center; display: flex; color: darkorange; font-size: 90px""><b>ø</b></div>","null","","","","forget_cue","","","","","","","","","","","","","","","",""
"html-keyboard-response","77","320625","0.0-3.0-3.0-0.10","2jr0n3ceek67gn4","practice_cue","5dbc435b78b8d81ec088fb40","5f60e3c0a3b16e07647b2ff9","5f61dc039691291958d1432e","false","null","<span style=""color: black; font-size: 48px"">M + N</span>","null","","","","resp_prompt","","","","","","","","","","","","","","","",""
"categorize-image","78","321313","0.0-3.0-3.0-1.10","2jr0n3ceek67gn4","practice_cue","5dbc435b78b8d81ec088fb40","5f60e3c0a3b16e07647b2ff9","5f61dc039691291958d1432e","true","684.514999971725","./Stimuli/ImagesPractice/SM98.jpg","83","","","","test","true","M + N","83","","SM","SM98.jpg","remember","old","27","2","practice_forget","left","","","",""
"html-keyboard-response","79","323327","0.0-3.0-3.0-3.10","2jr0n3ceek67gn4","practice_cue","5dbc435b78b8d81ec088fb40","5f60e3c0a3b16e07647b2ff9","5f61dc039691291958d1432e","false","null","<div style=""align-items: center; display: flex; color: dodgerblue; font-size: 90px""><b>o</b></div>","null","","","","forget_cue","","","","","","","","","","","","","","","",""
"html-keyboard-response","80","324031","0.0-3.0-3.0-0.11","2jr0n3ceek67gn4","practice_cue","5dbc435b78b8d81ec088fb40","5f60e3c0a3b16e07647b2ff9","5f61dc039691291958d1432e","false","null","<span style=""color: black; font-size: 48px"">M + N</span>","null","","","","resp_prompt","","","","","","","","","","","","","","","",""
"categorize-image","81","324934","0.0-3.0-3.0-1.11","2jr0n3ceek67gn4","practice_cue","5dbc435b78b8d81ec088fb40","5f60e3c0a3b16e07647b2ff9","5f61dc039691291958d1432e","true","900.3099999972619","./Stimuli/ImagesPractice/SM35.jpg","83","","","","test","true","M + N","83","","SM","SM35.jpg","forget","old","28","2","practice_forget","left","","","",""
"html-keyboard-response","82","326941","0.0-3.0-3.0-3.11","2jr0n3ceek67gn4","practice_cue","5dbc435b78b8d81ec088fb40","5f60e3c0a3b16e07647b2ff9","5f61dc039691291958d1432e","false","null","<div style=""align-items: center; display: flex; color: darkorange; font-size: 90px""><b>ø</b></div>","null","","","","forget_cue","","","","","","","","","","","","","","","",""
"html-keyboard-response","83","327652","0.0-3.0-3.0-0.12","2jr0n3ceek67gn4","practice_cue","5dbc435b78b8d81ec088fb40","5f60e3c0a3b16e07647b2ff9","5f61dc039691291958d1432e","false","null","<span style=""color: black; font-size: 48px"">M + N</span>","null","","","","resp_prompt","","","","","","","","","","","","","","","",""
"categorize-image","84","328460","0.0-3.0-3.0-1.12","2jr0n3ceek67gn4","practice_cue","5dbc435b78b8d81ec088fb40","5f60e3c0a3b16e07647b2ff9","5f61dc039691291958d1432e","true","805.5149999563582","./Stimuli/ImagesPractice/LN15.jpg","76","","","","test","true","M + N","76","","LN","LN15.jpg","remember","old","29","2","practice_forget","right","","","",""
"html-keyboard-response","85","330473","0.0-3.0-3.0-3.12","2jr0n3ceek67gn4","practice_cue","5dbc435b78b8d81ec088fb40","5f60e3c0a3b16e07647b2ff9","5f61dc039691291958d1432e","false","null","<div style=""align-items: center; display: flex; color: dodgerblue; font-size: 90px""><b>o</b></div>","null","","","","forget_cue","","","","","","","","","","","","","","","",""
"html-keyboard-response","86","331185","0.0-3.0-3.0-0.13","2jr0n3ceek67gn4","practice_cue","5dbc435b78b8d81ec088fb40","5f60e3c0a3b16e07647b2ff9","5f61dc039691291958d1432e","false","null","<span style=""color: black; font-size: 48px"">M + N</span>","null","","","","resp_prompt","","","","","","","","","","","","","","","",""
"categorize-image","87","331898","0.0-3.0-3.0-1.13","2jr0n3ceek67gn4","practice_cue","5dbc435b78b8d81ec088fb40","5f60e3c0a3b16e07647b2ff9","5f61dc039691291958d1432e","true","709.499999997206","./Stimuli/ImagesPractice/LN4.jpg","76","","","","test","true","M + N","76","","LN","LN4.jpg","forget","old","30","2","practice_forget","right","","","",""
"html-keyboard-response","88","333911","0.0-3.0-3.0-3.13","2jr0n3ceek67gn4","practice_cue","5dbc435b78b8d81ec088fb40","5f60e3c0a3b16e07647b2ff9","5f61dc039691291958d1432e","false","null","<div style=""align-items: center; display: flex; color: darkorange; font-size: 90px""><b>ø</b></div>","null","","","","forget_cue","","","","","","","","","","","","","","","",""
"html-keyboard-response","89","334627","0.0-3.0-3.0-0.14","2jr0n3ceek67gn4","practice_cue","5dbc435b78b8d81ec088fb40","5f60e3c0a3b16e07647b2ff9","5f61dc039691291958d1432e","false","null","<span style=""color: black; font-size: 48px"">N + M</span>","null","","","","resp_prompt","","","","","","","","","","","","","","","",""
"categorize-image","90","335401","0.0-3.0-3.0-1.14","2jr0n3ceek67gn4","practice_cue","5dbc435b78b8d81ec088fb40","5f60e3c0a3b16e07647b2ff9","5f61dc039691291958d1432e","true","770.9449999965727","./Stimuli/ImagesPractice/SN220.jpg","83","","","","test","true","N + M","83","","SN","SN220.jpg","forget","old","31","2","practice_forget","left","","","",""
"html-keyboard-response","91","337407","0.0-3.0-3.0-3.14","2jr0n3ceek67gn4","practice_cue","5dbc435b78b8d81ec088fb40","5f60e3c0a3b16e07647b2ff9","5f61dc039691291958d1432e","false","null","<div style=""align-items: center; display: flex; color: darkorange; font-size: 90px""><b>ø</b></div>","null","","","","forget_cue","","","","","","","","","","","","","","","",""
"html-keyboard-response","92","338110","0.0-3.0-3.0-0.15","2jr0n3ceek67gn4","practice_cue","5dbc435b78b8d81ec088fb40","5f60e3c0a3b16e07647b2ff9","5f61dc039691291958d1432e","false","null","<span style=""color: black; font-size: 48px"">M + N</span>","null","","","","resp_prompt","","","","","","","","","","","","","","","",""
"categorize-image","93","339059","0.0-3.0-3.0-1.15","2jr0n3ceek67gn4","practice_cue","5dbc435b78b8d81ec088fb40","5f60e3c0a3b16e07647b2ff9","5f61dc039691291958d1432e","true","945.7800000091083","./Stimuli/ImagesPractice/SM37.jpg","83","","","","test","true","M + N","83","","SM","SM37.jpg","remember","old","32","2","practice_forget","left","","","",""
"html-keyboard-response","94","341074","0.0-3.0-3.0-3.15","2jr0n3ceek67gn4","practice_cue","5dbc435b78b8d81ec088fb40","5f60e3c0a3b16e07647b2ff9","5f61dc039691291958d1432e","false","null","<div style=""align-items: center; display: flex; color: dodgerblue; font-size: 90px""><b>o</b></div>","null","","","","forget_cue","","","","","","","","","","","","","","","",""
"html-keyboard-response","95","342964","0.0-3.0-4.0","2jr0n3ceek67gn4","break","5dbc435b78b8d81ec088fb40","5f60e3c0a3b16e07647b2ff9","5f61dc039691291958d1432e","false","1888.7099999701604","<p style='font-size: 32px;'>Break</><br><br><br><br><br><p style='font-size: 24px;'>In the last block, you committed 0 errors and did not respond in time on 0 trials.
</p><p style='font-size: 24px;'>Try to respond as fast and accurately as possible in the next block as well! </p><p style='font-size: 24px;'>Press SPACE to continue.</p>","32","","","","","","","","","","","","","","","","","","","",""
"html-keyboard-response","96","358490","0.0-3.0-5.0","2jr0n3ceek67gn4","instructions","5dbc435b78b8d81ec088fb40","5f60e3c0a3b16e07647b2ff9","5f61dc039691291958d1432e","false","15525.855000014417","<div align=left> Now, to practice, we kindly ask you to remember as many of the to-be-remembered pictures<br>of the previous learning phase as possible.<br><br>The pictures you were instructed to remember were the pictures followed by a <span style='color: dodgerblue; font-size: 28px'>O</span>.<br><br>In this memory test phase, you will also see some new pictures.<br>It is your task to remember whether you were presented with this specific picture in this study so far or not.<br>If you recognize an object (you have already seen it in this study), it is an OLD object. <br>If you do not recognize an object (you have NOT seen it in this study), it is a NEW object. <br><strong> Attention</strong>: As already mentioned, <span style='color: darkorange; font-size:28px'>Ø</span>-pictures will <strong>never</strong> appear in this memory test (neither as new objects). <br><br>Press SPACE to continue. </div>","32","","","","","","","","","","","","","","","","","","","",""
"html-keyboard-response","97","370875","0.0-3.0-6.0","2jr0n3ceek67gn4","instructions","5dbc435b78b8d81ec088fb40","5f60e3c0a3b16e07647b2ff9","5f61dc039691291958d1432e","false","12384.244999964722","<div align=left> M and N no longer will appear on the left/right of the fixation cross. <br>Instead there will be a note at the bottom of the left or right side  <br>indicating which key you should press for an old or new object:  <br> <br>Press the <strong>right</strong> key to classify an object as <strong>old</strong> and press the <strong>left</strong>, to classify an object as <strong>new</strong>.<br>Please classify the objects as new/old by again placing your index finger on the 'S' and 'L' keys <br>and press them accordingly.<br><br><strong>Old:</strong> This object has been presented before. <br><strong>New:</strong> This object has <strong>not</strong> been presented.<br><br>Now please put your right and left index fingers on the 'S' and 'L' keys of your keyboard. <br>Please respond as fast and as accurately as possible!<br><br>Press SPACE to continue. </div>","32","","","","","","","","","","","","","","","","","","","",""
"categorize-image","98","373676","0.0-3.0-7.0-0.0","2jr0n3ceek67gn4","practice_recog","5dbc435b78b8d81ec088fb40","5f60e3c0a3b16e07647b2ff9","5f61dc039691291958d1432e","true","2286.499999987427","./Stimuli/ImagesPractice/SM37.jpg","76","","","","test","true","","76","","SM","SM37.jpg","","old","33","3","practice_recog","right","","","",""
"categorize-image","99","375230","0.0-3.0-7.0-0.1","2jr0n3ceek67gn4","practice_recog","5dbc435b78b8d81ec088fb40","5f60e3c0a3b16e07647b2ff9","5f61dc039691291958d1432e","true","1038.2499999832362","./Stimuli/ImagesPractice/LM55.jpg","83","","","","test","true","","83","","LM","LM55.jpg","","new","34","3","practice_recog","left","","","",""
"categorize-image","100","376625","0.0-3.0-7.0-0.2","2jr0n3ceek67gn4","practice_recog","5dbc435b78b8d81ec088fb40","5f60e3c0a3b16e07647b2ff9","5f61dc039691291958d1432e","true","891.170000017155","./Stimuli/ImagesPractice/LM230.jpg","83","","","","test","true","","83","","LM","LM230.jpg","","new","35","3","practice_recog","left","","","",""
"categorize-image","101","378174","0.0-3.0-7.0-0.3","2jr0n3ceek67gn4","practice_recog","5dbc435b78b8d81ec088fb40","5f60e3c0a3b16e07647b2ff9","5f61dc039691291958d1432e","true","1046.0200000088662","./Stimuli/ImagesPractice/SM97.jpg","76","","","","test","true","","76","","SM","SM97.jpg","","old","36","3","practice_recog","right","","","",""
"categorize-image","102","379546","0.0-3.0-7.0-0.4","2jr0n3ceek67gn4","practice_recog","5dbc435b78b8d81ec088fb40","5f60e3c0a3b16e07647b2ff9","5f61dc039691291958d1432e","true","858.9449999853969","./Stimuli/ImagesPractice/LN72.jpg","83","","","","test","true","","83","","LN","LN72.jpg","","new","37","3","practice_recog","left","","","",""
"categorize-image","103","380834","0.0-3.0-7.0-0.5","2jr0n3ceek67gn4","practice_recog","5dbc435b78b8d81ec088fb40","5f60e3c0a3b16e07647b2ff9","5f61dc039691291958d1432e","true","784.879999991972","./Stimuli/ImagesPractice/SN76.jpg","83","","","","test","true","","83","","SN","SN76.jpg","","new","38","3","practice_recog","left","","","",""
"categorize-image","104","382052","0.0-3.0-7.0-0.6","2jr0n3ceek67gn4","practice_recog","5dbc435b78b8d81ec088fb40","5f60e3c0a3b16e07647b2ff9","5f61dc039691291958d1432e","true","714.7799999802373","./Stimuli/ImagesPractice/LN109.jpg","83","","","","test","true","","83","","LN","LN109.jpg","","new","39","3","practice_recog","left","","","",""
"categorize-image","105","383439","0.0-3.0-7.0-0.7","2jr0n3ceek67gn4","practice_recog","5dbc435b78b8d81ec088fb40","5f60e3c0a3b16e07647b2ff9","5f61dc039691291958d1432e","true","880.5699999793433","./Stimuli/ImagesPractice/SN222.jpg","76","","","","test","true","","76","","SN","SN222.jpg","","old","40","3","practice_recog","right","","","",""
"categorize-image","106","384591","0.0-3.0-7.0-0.8","2jr0n3ceek67gn4","practice_recog","5dbc435b78b8d81ec088fb40","5f60e3c0a3b16e07647b2ff9","5f61dc039691291958d1432e","true","640.445000026375","./Stimuli/ImagesPractice/SN75.jpg","83","","","","test","true","","83","","SN","SN75.jpg","","new","41","3","practice_recog","left","","","",""
"categorize-image","107","385862","0.0-3.0-7.0-0.9","2jr0n3ceek67gn4","practice_recog","5dbc435b78b8d81ec088fb40","5f60e3c0a3b16e07647b2ff9","5f61dc039691291958d1432e","true","754.5800000079907","./Stimuli/ImagesPractice/LM143.jpg","76","","","","test","true","","76","","LM","LM143.jpg","","old","42","3","practice_recog","right","","","",""
"categorize-image","108","387271","0.0-3.0-7.0-0.10","2jr0n3ceek67gn4","practice_recog","5dbc435b78b8d81ec088fb40","5f60e3c0a3b16e07647b2ff9","5f61dc039691291958d1432e","true","893.370000005234","./Stimuli/ImagesPractice/SN205.jpg","83","","","","test","true","","83","","SN","SN205.jpg","","new","43","3","practice_recog","left","","","",""
"categorize-image","109","388674","0.0-3.0-7.0-0.11","2jr0n3ceek67gn4","practice_recog","5dbc435b78b8d81ec088fb40","5f60e3c0a3b16e07647b2ff9","5f61dc039691291958d1432e","true","892.775000014808","./Stimuli/ImagesPractice/SM61.jpg","83","","","","test","true","","83","","SM","SM61.jpg","","new","44","3","practice_recog","left","","","",""
"categorize-image","110","390379","0.0-3.0-7.0-0.12","2jr0n3ceek67gn4","practice_recog","5dbc435b78b8d81ec088fb40","5f60e3c0a3b16e07647b2ff9","5f61dc039691291958d1432e","true","1193.1299999705516","./Stimuli/ImagesPractice/LN2.jpg","76","","","","test","true","","76","","LN","LN2.jpg","","old","45","3","practice_recog","right","","","",""
"categorize-image","111","392175","0.0-3.0-7.0-0.13","2jr0n3ceek67gn4","practice_recog","5dbc435b78b8d81ec088fb40","5f60e3c0a3b16e07647b2ff9","5f61dc039691291958d1432e","true","1291.2099999957718","./Stimuli/ImagesPractice/SM98.jpg","76","","","","test","true","","76","","SM","SM98.jpg","","old","46","3","practice_recog","right","","","",""
"categorize-image","112","393536","0.0-3.0-7.0-0.14","2jr0n3ceek67gn4","practice_recog","5dbc435b78b8d81ec088fb40","5f60e3c0a3b16e07647b2ff9","5f61dc039691291958d1432e","true","848.6149999662302","./Stimuli/ImagesPractice/LM239.jpg","76","","","","test","true","","76","","LM","LM239.jpg","","old","47","3","practice_recog","right","","","",""
"categorize-image","113","395321","0.0-3.0-7.0-0.15","2jr0n3ceek67gn4","practice_recog","5dbc435b78b8d81ec088fb40","5f60e3c0a3b16e07647b2ff9","5f61dc039691291958d1432e","true","1270.4350000130944","./Stimuli/ImagesPractice/LN15.jpg","76","","","","test","true","","76","","LN","LN15.jpg","","old","48","3","practice_recog","right","","","",""
"html-keyboard-response","114","403891","0.0-3.0-8.0","2jr0n3ceek67gn4","instructions","5dbc435b78b8d81ec088fb40","5f60e3c0a3b16e07647b2ff9","5f61dc039691291958d1432e","false","8569.07000002684","<div align=left> Great!<br><br>Are you ready to continue?<br>If you want to reread the instructions and redo the practice trials, please <br>press „Z“.<br><br>You can proceed when you are ready.<br><br>After the presentation of each object, you will receive an instruction whether to <br>remember or to forget the object.<br>We will test your memory of the following pictures only at the very end of <br>the experiment after all learning blocks are completed. <br><br>Press SPACE to CONTINUE when you are ready. </div>","32","","","","","","","","","","","","","","","","","","","",""
"html-keyboard-response","115","406346","0.0-4.0-0.0","2jr0n3ceek67gn4","instructions","5dbc435b78b8d81ec088fb40","5f60e3c0a3b16e07647b2ff9","5f61dc039691291958d1432e","false","2454.074999957811","<div align=left> The actual experiment is about to start.<br>The practice trials are over!<br><br>Please always respond both fast and accurately!<br><br>Remember: <br> <br><li> Please place your index fingers on the <strong>'S'</strong> and <strong>'L'</strong> keys <br>to respond as fast and accurately as possible.</li><li> Every picture can be classified as either mechanical or non-mechanical.</li><li> If you do not respond in time or commit an error, you will receive a corresponding feedback.<br> Please try to respond as <strong> fast </strong> and as <strong> accurately as possible </strong>.</li><li> Remember the <span style='color: dodgerblue; font-size: 28px'>O</span> pictures. <br></li><li> Please minimize distractions and stay focused. </li><br><br>Press SPACE to START.</div>","32","","","","","","","","","","","","","","","","","","","",""
"html-keyboard-response","116","407058","0.0-4.0-1.0-0.0","2jr0n3ceek67gn4","prime","5dbc435b78b8d81ec088fb40","5f60e3c0a3b16e07647b2ff9","5f61dc039691291958d1432e","false","null","<span style=""color: black; font-size: 48px"">M + N</span>","null","","","","resp_prompt","","","","","","","","","","","","","","","",""
"categorize-image","117","407679","0.0-4.0-1.0-1.0","2jr0n3ceek67gn4","prime","5dbc435b78b8d81ec088fb40","5f60e3c0a3b16e07647b2ff9","5f61dc039691291958d1432e","true","618.2549999793991","./Stimuli/SelectedImages/SM/SM76.bmp","83","","","","test","true","M + N","83","repetition","SM","SM76.bmp","remember","","49","3","prime1","left","","","",""
"html-keyboard-response","118","409693","0.0-4.0-1.0-3.0","2jr0n3ceek67gn4","prime","5dbc435b78b8d81ec088fb40","5f60e3c0a3b16e07647b2ff9","5f61dc039691291958d1432e","false","null","<div style=""align-items: center; display: flex; color: dodgerblue; font-size: 90px""><b>o</b></div>","null","","","","forget_cue","","","","","","","","","","","","","","","",""
"html-keyboard-response","119","410401","0.0-4.0-1.0-0.1","2jr0n3ceek67gn4","prime","5dbc435b78b8d81ec088fb40","5f60e3c0a3b16e07647b2ff9","5f61dc039691291958d1432e","false","null","<span style=""color: black; font-size: 48px"">M + N</span>","null","","","","resp_prompt","","","","","","","","","","","","","","","",""
"categorize-image","120","411143","0.0-4.0-1.0-1.1","2jr0n3ceek67gn4","prime","5dbc435b78b8d81ec088fb40","5f60e3c0a3b16e07647b2ff9","5f61dc039691291958d1432e","true","738.115000014659","./Stimuli/SelectedImages/LM/LM103.bmp","83","","","","test","true","M + N","83","repetition","LM","LM103.bmp","remember","","50","3","prime1","left","","","",""
"html-keyboard-response","121","413148","0.0-4.0-1.0-3.1","2jr0n3ceek67gn4","prime","5dbc435b78b8d81ec088fb40","5f60e3c0a3b16e07647b2ff9","5f61dc039691291958d1432e","false","null","<div style=""align-items: center; display: flex; color: dodgerblue; font-size: 90px""><b>o</b></div>","null","","","","forget_cue","","","","","","","","","","","","","","","",""
"html-keyboard-response","122","413850","0.0-4.0-1.0-0.2","2jr0n3ceek67gn4","prime","5dbc435b78b8d81ec088fb40","5f60e3c0a3b16e07647b2ff9","5f61dc039691291958d1432e","false","null","<span style=""color: black; font-size: 48px"">M + N</span>","null","","","","resp_prompt","","","","","","","","","","","","","","","",""
"categorize-image","123","414458","0.0-4.0-1.0-1.2","2jr0n3ceek67gn4","prime","5dbc435b78b8d81ec088fb40","5f60e3c0a3b16e07647b2ff9","5f61dc039691291958d1432e","true","605.0249999971129","./Stimuli/SelectedImages/SN/SN140.bmp","76","","","","test","true","M + N","76","switch","SN","SN140.bmp","forget","","51","3","prime1","right","","","",""
"html-keyboard-response","124","416462","0.0-4.0-1.0-3.2","2jr0n3ceek67gn4","prime","5dbc435b78b8d81ec088fb40","5f60e3c0a3b16e07647b2ff9","5f61dc039691291958d1432e","false","null","<div style=""align-items: center; display: flex; color: darkorange; font-size: 90px""><b>ø</b></div>","null","","","","forget_cue","","","","","","","","","","","","","","","",""
"html-keyboard-response","125","417176","0.0-4.0-1.0-0.3","2jr0n3ceek67gn4","prime","5dbc435b78b8d81ec088fb40","5f60e3c0a3b16e07647b2ff9","5f61dc039691291958d1432e","false","null","<span style=""color: black; font-size: 48px"">N + M</span>","null","","","","resp_prompt","","","","","","","","","","","","","","","",""
"categorize-image","126","418069","0.0-4.0-1.0-1.3","2jr0n3ceek67gn4","prime","5dbc435b78b8d81ec088fb40","5f60e3c0a3b16e07647b2ff9","5f61dc039691291958d1432e","true","890.2300000190735","./Stimuli/SelectedImages/LN/LN128.bmp","83","","","","test","true","N + M","83","repetition","LN","LN128.bmp","forget","","52","3","prime1","left","","","",""
"html-keyboard-response","127","420072","0.0-4.0-1.0-3.3","2jr0n3ceek67gn4","prime","5dbc435b78b8d81ec088fb40","5f60e3c0a3b16e07647b2ff9","5f61dc039691291958d1432e","false","null","<div style=""align-items: center; display: flex; color: darkorange; font-size: 90px""><b>ø</b></div>","null","","","","forget_cue","","","","","","","","","","","","","","","",""
"html-keyboard-response","128","420774","0.0-4.0-1.0-0.4","2jr0n3ceek67gn4","prime","5dbc435b78b8d81ec088fb40","5f60e3c0a3b16e07647b2ff9","5f61dc039691291958d1432e","false","null","<span style=""color: black; font-size: 48px"">N + M</span>","null","","","","resp_prompt","","","","","","","","","","","","","","","",""
"categorize-image","129","421525","0.0-4.0-1.0-1.4","2jr0n3ceek67gn4","prime","5dbc435b78b8d81ec088fb40","5f60e3c0a3b16e07647b2ff9","5f61dc039691291958d1432e","true","748.6849999986589","./Stimuli/SelectedImages/LN/LN177.bmp","83","","","","test","true","N + M","83","switch","LN","LN177.bmp","remember","","53","3","prime1","left","","","",""
"html-keyboard-response","130","423534","0.0-4.0-1.0-3.4","2jr0n3ceek67gn4","prime","5dbc435b78b8d81ec088fb40","5f60e3c0a3b16e07647b2ff9","5f61dc039691291958d1432e","false","null","<div style=""align-items: center; display: flex; color: dodgerblue; font-size: 90px""><b>o</b></div>","null","","","","forget_cue","","","","","","","","","","","","","","","",""
"html-keyboard-response","131","424248","0.0-4.0-1.0-0.5","2jr0n3ceek67gn4","prime","5dbc435b78b8d81ec088fb40","5f60e3c0a3b16e07647b2ff9","5f61dc039691291958d1432e","false","null","<span style=""color: black; font-size: 48px"">M + N</span>","null","","","","resp_prompt","","","","","","","","","","","","","","","",""
"categorize-image","132","424953","0.0-4.0-1.0-1.5","2jr0n3ceek67gn4","prime","5dbc435b78b8d81ec088fb40","5f60e3c0a3b16e07647b2ff9","5f61dc039691291958d1432e","true","702.8300000238232","./Stimuli/SelectedImages/LN/LN101.bmp","76","","","","test","true","M + N","76","switch","LN","LN101.bmp","forget","","54","3","prime1","right","","","",""
"html-keyboard-response","133","426957","0.0-4.0-1.0-3.5","2jr0n3ceek67gn4","prime","5dbc435b78b8d81ec088fb40","5f60e3c0a3b16e07647b2ff9","5f61dc039691291958d1432e","false","null","<div style=""align-items: center; display: flex; color: darkorange; font-size: 90px""><b>ø</b></div>","null","","","","forget_cue","","","","","","","","","","","","","","","",""
"html-keyboard-response","134","427659","0.0-4.0-1.0-0.6","2jr0n3ceek67gn4","prime","5dbc435b78b8d81ec088fb40","5f60e3c0a3b16e07647b2ff9","5f61dc039691291958d1432e","false","null","<span style=""color: black; font-size: 48px"">N + M</span>","null","","","","resp_prompt","","","","","","","","","","","","","","","",""
"categorize-image","135","428374","0.0-4.0-1.0-1.6","2jr0n3ceek67gn4","prime","5dbc435b78b8d81ec088fb40","5f60e3c0a3b16e07647b2ff9","5f61dc039691291958d1432e","true","712.6099999877624","./Stimuli/SelectedImages/LM/LM167.bmp","76","","","","test","true","N + M","76","switch","LM","LM167.bmp","forget","","55","3","prime1","right","","","",""
"html-keyboard-response","136","430387","0.0-4.0-1.0-3.6","2jr0n3ceek67gn4","prime","5dbc435b78b8d81ec088fb40","5f60e3c0a3b16e07647b2ff9","5f61dc039691291958d1432e","false","null","<div style=""align-items: center; display: flex; color: darkorange; font-size: 90px""><b>ø</b></div>","null","","","","forget_cue","","","","","","","","","","","","","","","",""
"html-keyboard-response","137","431088","0.0-4.0-1.0-0.7","2jr0n3ceek67gn4","prime","5dbc435b78b8d81ec088fb40","5f60e3c0a3b16e07647b2ff9","5f61dc039691291958d1432e","false","null","<span style=""color: black; font-size: 48px"">N + M</span>","null","","","","resp_prompt","","","","","","","","","","","","","","","",""
"categorize-image","138","431819","0.0-4.0-1.0-1.7","2jr0n3ceek67gn4","prime","5dbc435b78b8d81ec088fb40","5f60e3c0a3b16e07647b2ff9","5f61dc039691291958d1432e","true","727.9199999757111","./Stimuli/SelectedImages/SN/SN27.bmp","83","","","","test","true","N + M","83","switch","SN","SN27.bmp","remember","","56","3","prime1","left","","","",""
"html-keyboard-response","139","433833","0.0-4.0-1.0-3.7","2jr0n3ceek67gn4","prime","5dbc435b78b8d81ec088fb40","5f60e3c0a3b16e07647b2ff9","5f61dc039691291958d1432e","false","null","<div style=""align-items: center; display: flex; color: dodgerblue; font-size: 90px""><b>o</b></div>","null","","","","forget_cue","","","","","","","","","","","","","","","",""
"html-keyboard-response","140","434544","0.0-4.0-1.0-0.8","2jr0n3ceek67gn4","prime","5dbc435b78b8d81ec088fb40","5f60e3c0a3b16e07647b2ff9","5f61dc039691291958d1432e","false","null","<span style=""color: black; font-size: 48px"">N + M</span>","null","","","","resp_prompt","","","","","","","","","","","","","","","",""
"categorize-image","141","436072","0.0-4.0-1.0-1.8","2jr0n3ceek67gn4","prime","5dbc435b78b8d81ec088fb40","5f60e3c0a3b16e07647b2ff9","5f61dc039691291958d1432e","true","1525.595000013709","./Stimuli/SelectedImages/LM/LM235.bmp","76","","","","test","true","N + M","76","switch","LM","LM235.bmp","forget","","57","3","prime1","right","","","",""
"html-keyboard-response","142","438079","0.0-4.0-1.0-3.8","2jr0n3ceek67gn4","prime","5dbc435b78b8d81ec088fb40","5f60e3c0a3b16e07647b2ff9","5f61dc039691291958d1432e","false","null","<div style=""align-items: center; display: flex; color: darkorange; font-size: 90px""><b>ø</b></div>","null","","","","forget_cue","","","","","","","","","","","","","","","",""
"html-keyboard-response","143","438785","0.0-4.0-1.0-0.9","2jr0n3ceek67gn4","prime","5dbc435b78b8d81ec088fb40","5f60e3c0a3b16e07647b2ff9","5f61dc039691291958d1432e","false","null","<span style=""color: black; font-size: 48px"">M + N</span>","null","","","","resp_prompt","","","","","","","","","","","","","","","",""
"categorize-image","144","440086","0.0-4.0-1.0-1.9","2jr0n3ceek67gn4","prime","5dbc435b78b8d81ec088fb40","5f60e3c0a3b16e07647b2ff9","5f61dc039691291958d1432e","true","1298.3250000397675","./Stimuli/SelectedImages/LM/LM57.bmp","83","","","","test","true","M + N","83","switch","LM","LM57.bmp","forget","","58","3","prime1","left","","","",""
"html-keyboard-response","145","442092","0.0-4.0-1.0-3.9","2jr0n3ceek67gn4","prime","5dbc435b78b8d81ec088fb40","5f60e3c0a3b16e07647b2ff9","5f61dc039691291958d1432e","false","null","<div style=""align-items: center; display: flex; color: darkorange; font-size: 90px""><b>ø</b></div>","null","","","","forget_cue","","","","","","","","","","","","","","","",""
"html-keyboard-response","146","442795","0.0-4.0-1.0-0.10","2jr0n3ceek67gn4","prime","5dbc435b78b8d81ec088fb40","5f60e3c0a3b16e07647b2ff9","5f61dc039691291958d1432e","false","null","<span style=""color: black; font-size: 48px"">N + M</span>","null","","","","resp_prompt","","","","","","","","","","","","","","","",""
"categorize-image","147","443760","0.0-4.0-1.0-1.10","2jr0n3ceek67gn4","prime","5dbc435b78b8d81ec088fb40","5f60e3c0a3b16e07647b2ff9","5f61dc039691291958d1432e","true","962.0749999885447","./Stimuli/SelectedImages/SM/SM148.bmp","76","","","","test","true","N + M","76","repetition","SM","SM148.bmp","remember","","59","3","prime1","right","","","",""
"html-keyboard-response","148","445774","0.0-4.0-1.0-3.10","2jr0n3ceek67gn4","prime","5dbc435b78b8d81ec088fb40","5f60e3c0a3b16e07647b2ff9","5f61dc039691291958d1432e","false","null","<div style=""align-items: center; display: flex; color: dodgerblue; font-size: 90px""><b>o</b></div>","null","","","","forget_cue","","","","","","","","","","","","","","","",""
"html-keyboard-response","149","446476","0.0-4.0-1.0-0.11","2jr0n3ceek67gn4","prime","5dbc435b78b8d81ec088fb40","5f60e3c0a3b16e07647b2ff9","5f61dc039691291958d1432e","false","null","<span style=""color: black; font-size: 48px"">N + M</span>","null","","","","resp_prompt","","","","","","","","","","","","","","","",""
"categorize-image","150","447182","0.0-4.0-1.0-1.11","2jr0n3ceek67gn4","prime","5dbc435b78b8d81ec088fb40","5f60e3c0a3b16e07647b2ff9","5f61dc039691291958d1432e","true","702.820000005886","./Stimuli/SelectedImages/LN/LN166.bmp","83","","","","test","true","N + M","83","repetition","LN","LN166.bmp","remember","","60","3","prime1","left","","","",""
"html-keyboard-response","151","449186","0.0-4.0-1.0-3.11","2jr0n3ceek67gn4","prime","5dbc435b78b8d81ec088fb40","5f60e3c0a3b16e07647b2ff9","5f61dc039691291958d1432e","false","null","<div style=""align-items: center; display: flex; color: dodgerblue; font-size: 90px""><b>o</b></div>","null","","","","forget_cue","","","","","","","","","","","","","","","",""
"html-keyboard-response","152","449888","0.0-4.0-1.0-0.12","2jr0n3ceek67gn4","prime","5dbc435b78b8d81ec088fb40","5f60e3c0a3b16e07647b2ff9","5f61dc039691291958d1432e","false","null","<span style=""color: black; font-size: 48px"">M + N</span>","null","","","","resp_prompt","","","","","","","","","","","","","","","",""
"categorize-image","153","450737","0.0-4.0-1.0-1.12","2jr0n3ceek67gn4","prime","5dbc435b78b8d81ec088fb40","5f60e3c0a3b16e07647b2ff9","5f61dc039691291958d1432e","true","846.1600000155158","./Stimuli/SelectedImages/SM/SM78.bmp","83","","","","test","true","M + N","83","repetition","SM","SM78.bmp","forget","","61","3","prime1","left","","","",""
"html-keyboard-response","154","452744","0.0-4.0-1.0-3.12","2jr0n3ceek67gn4","prime","5dbc435b78b8d81ec088fb40","5f60e3c0a3b16e07647b2ff9","5f61dc039691291958d1432e","false","null","<div style=""align-items: center; display: flex; color: darkorange; font-size: 90px""><b>ø</b></div>","null","","","","forget_cue","","","","","","","","","","","","","","","",""
"html-keyboard-response","155","453456","0.0-4.0-1.0-0.13","2jr0n3ceek67gn4","prime","5dbc435b78b8d81ec088fb40","5f60e3c0a3b16e07647b2ff9","5f61dc039691291958d1432e","false","null","<span style=""color: black; font-size: 48px"">M + N</span>","null","","","","resp_prompt","","","","","","","","","","","","","","","",""
"categorize-image","156","454148","0.0-4.0-1.0-1.13","2jr0n3ceek67gn4","prime","5dbc435b78b8d81ec088fb40","5f60e3c0a3b16e07647b2ff9","5f61dc039691291958d1432e","true","689.4400000455789","./Stimuli/SelectedImages/SN/SN187.bmp","76","","","","test","true","M + N","76","switch","SN","SN187.bmp","remember","","62","3","prime1","right","","","",""
"html-keyboard-response","157","456154","0.0-4.0-1.0-3.13","2jr0n3ceek67gn4","prime","5dbc435b78b8d81ec088fb40","5f60e3c0a3b16e07647b2ff9","5f61dc039691291958d1432e","false","null","<div style=""align-items: center; display: flex; color: dodgerblue; font-size: 90px""><b>o</b></div>","null","","","","forget_cue","","","","","","","","","","","","","","","",""
"html-keyboard-response","158","456857","0.0-4.0-1.0-0.14","2jr0n3ceek67gn4","prime","5dbc435b78b8d81ec088fb40","5f60e3c0a3b16e07647b2ff9","5f61dc039691291958d1432e","false","null","<span style=""color: black; font-size: 48px"">N + M</span>","null","","","","resp_prompt","","","","","","","","","","","","","","","",""
"categorize-image","159","457881","0.0-4.0-1.0-1.14","2jr0n3ceek67gn4","prime","5dbc435b78b8d81ec088fb40","5f60e3c0a3b16e07647b2ff9","5f61dc039691291958d1432e","true","1021.1399999679998","./Stimuli/SelectedImages/SN/SN179.bmp","83","","","","test","true","N + M","83","repetition","SN","SN179.bmp","remember","","63","3","prime1","left","","","",""
"html-keyboard-response","160","459885","0.0-4.0-1.0-3.14","2jr0n3ceek67gn4","prime","5dbc435b78b8d81ec088fb40","5f60e3c0a3b16e07647b2ff9","5f61dc039691291958d1432e","false","null","<div style=""align-items: center; display: flex; color: dodgerblue; font-size: 90px""><b>o</b></div>","null","","","","forget_cue","","","","","","","","","","","","","","","",""
"html-keyboard-response","161","460593","0.0-4.0-1.0-0.15","2jr0n3ceek67gn4","prime","5dbc435b78b8d81ec088fb40","5f60e3c0a3b16e07647b2ff9","5f61dc039691291958d1432e","false","null","<span style=""color: black; font-size: 48px"">M + N</span>","null","","","","resp_prompt","","","","","","","","","","","","","","","",""
"categorize-image","162","461309","0.0-4.0-1.0-1.15","2jr0n3ceek67gn4","prime","5dbc435b78b8d81ec088fb40","5f60e3c0a3b16e07647b2ff9","5f61dc039691291958d1432e","true","713.614999956917","./Stimuli/SelectedImages/SN/SN49.bmp","76","","","","test","true","M + N","76","repetition","SN","SN49.bmp","remember","","64","3","prime1","right","","","",""
"html-keyboard-response","163","463316","0.0-4.0-1.0-3.15","2jr0n3ceek67gn4","prime","5dbc435b78b8d81ec088fb40","5f60e3c0a3b16e07647b2ff9","5f61dc039691291958d1432e","false","null","<div style=""align-items: center; display: flex; color: dodgerblue; font-size: 90px""><b>o</b></div>","null","","","","forget_cue","","","","","","","","","","","","","","","",""
"html-keyboard-response","164","464020","0.0-4.0-1.0-0.16","2jr0n3ceek67gn4","prime","5dbc435b78b8d81ec088fb40","5f60e3c0a3b16e07647b2ff9","5f61dc039691291958d1432e","false","null","<span style=""color: black; font-size: 48px"">M + N</span>","null","","","","resp_prompt","","","","","","","","","","","","","","","",""
"categorize-image","165","464745","0.0-4.0-1.0-1.16","2jr0n3ceek67gn4","prime","5dbc435b78b8d81ec088fb40","5f60e3c0a3b16e07647b2ff9","5f61dc039691291958d1432e","true","722.2850000252947","./Stimuli/SelectedImages/LM/LM51.bmp","83","","","","test","true","M + N","83","switch","LM","LM51.bmp","remember","","65","3","prime1","left","","","",""
"html-keyboard-response","166","466761","0.0-4.0-1.0-3.16","2jr0n3ceek67gn4","prime","5dbc435b78b8d81ec088fb40","5f60e3c0a3b16e07647b2ff9","5f61dc039691291958d1432e","false","null","<div style=""align-items: center; display: flex; color: dodgerblue; font-size: 90px""><b>o</b></div>","null","","","","forget_cue","","","","","","","","","","","","","","","",""
"html-keyboard-response","167","467463","0.0-4.0-1.0-0.17","2jr0n3ceek67gn4","prime","5dbc435b78b8d81ec088fb40","5f60e3c0a3b16e07647b2ff9","5f61dc039691291958d1432e","false","null","<span style=""color: black; font-size: 48px"">N + M</span>","null","","","","resp_prompt","","","","","","","","","","","","","","","",""
"categorize-image","168","468354","0.0-4.0-1.0-1.17","2jr0n3ceek67gn4","prime","5dbc435b78b8d81ec088fb40","5f60e3c0a3b16e07647b2ff9","5f61dc039691291958d1432e","true","888.4850000031292","./Stimuli/SelectedImages/SM/SM108.bmp","76","","","","test","true","N + M","76","repetition","SM","SM108.bmp","forget","","66","3","prime1","right","","","",""
"html-keyboard-response","169","470357","0.0-4.0-1.0-3.17","2jr0n3ceek67gn4","prime","5dbc435b78b8d81ec088fb40","5f60e3c0a3b16e07647b2ff9","5f61dc039691291958d1432e","false","null","<div style=""align-items: center; display: flex; color: darkorange; font-size: 90px""><b>ø</b></div>","null","","","","forget_cue","","","","","","","","","","","","","","","",""
"html-keyboard-response","170","471059","0.0-4.0-1.0-0.18","2jr0n3ceek67gn4","prime","5dbc435b78b8d81ec088fb40","5f60e3c0a3b16e07647b2ff9","5f61dc039691291958d1432e","false","null","<span style=""color: black; font-size: 48px"">M + N</span>","null","","","","resp_prompt","","","","","","","","","","","","","","","",""
"categorize-image","171","472046","0.0-4.0-1.0-1.18","2jr0n3ceek67gn4","prime","5dbc435b78b8d81ec088fb40","5f60e3c0a3b16e07647b2ff9","5f61dc039691291958d1432e","true","984.4299999531358","./Stimuli/SelectedImages/LM/LM216.bmp","83","","","","test","true","M + N","83","repetition","LM","LM216.bmp","forget","","67","3","prime1","left","","","",""
"html-keyboard-response","172","474051","0.0-4.0-1.0-3.18","2jr0n3ceek67gn4","prime","5dbc435b78b8d81ec088fb40","5f60e3c0a3b16e07647b2ff9","5f61dc039691291958d1432e","false","null","<div style=""align-items: center; display: flex; color: darkorange; font-size: 90px""><b>ø</b></div>","null","","","","forget_cue","","","","","","","","","","","","","","","",""
"html-keyboard-response","173","474756","0.0-4.0-1.0-0.19","2jr0n3ceek67gn4","prime","5dbc435b78b8d81ec088fb40","5f60e3c0a3b16e07647b2ff9","5f61dc039691291958d1432e","false","null","<span style=""color: black; font-size: 48px"">N + M</span>","null","","","","resp_prompt","","","","","","","","","","","","","","","",""
"categorize-image","174","475524","0.0-4.0-1.0-1.19","2jr0n3ceek67gn4","prime","5dbc435b78b8d81ec088fb40","5f60e3c0a3b16e07647b2ff9","5f61dc039691291958d1432e","true","765.4299999703653","./Stimuli/SelectedImages/SN/SN18.bmp","83","","","","test","true","N + M","83","repetition","SN","SN18.bmp","forget","","68","3","prime1","left","","","",""
"html-keyboard-response","175","477528","0.0-4.0-1.0-3.19","2jr0n3ceek67gn4","prime","5dbc435b78b8d81ec088fb40","5f60e3c0a3b16e07647b2ff9","5f61dc039691291958d1432e","false","null","<div style=""align-items: center; display: flex; color: darkorange; font-size: 90px""><b>ø</b></div>","null","","","","forget_cue","","","","","","","","","","","","","","","",""
"html-keyboard-response","176","478239","0.0-4.0-1.0-0.20","2jr0n3ceek67gn4","prime","5dbc435b78b8d81ec088fb40","5f60e3c0a3b16e07647b2ff9","5f61dc039691291958d1432e","false","null","<span style=""color: black; font-size: 48px"">N + M</span>","null","","","","resp_prompt","","","","","","","","","","","","","","","",""
"categorize-image","177","479005","0.0-4.0-1.0-1.20","2jr0n3ceek67gn4","prime","5dbc435b78b8d81ec088fb40","5f60e3c0a3b16e07647b2ff9","5f61dc039691291958d1432e","true","763.9349999953993","./Stimuli/SelectedImages/LN/LN131.bmp","83","","","","test","true","N + M","83","repetition","LN","LN131.bmp","forget","","69","3","prime1","left","","","",""
"html-keyboard-response","178","481012","0.0-4.0-1.0-3.20","2jr0n3ceek67gn4","prime","5dbc435b78b8d81ec088fb40","5f60e3c0a3b16e07647b2ff9","5f61dc039691291958d1432e","false","null","<div style=""align-items: center; display: flex; color: darkorange; font-size: 90px""><b>ø</b></div>","null","","","","forget_cue","","","","","","","","","","","","","","","",""
"html-keyboard-response","179","481726","0.0-4.0-1.0-0.21","2jr0n3ceek67gn4","prime","5dbc435b78b8d81ec088fb40","5f60e3c0a3b16e07647b2ff9","5f61dc039691291958d1432e","false","null","<span style=""color: black; font-size: 48px"">M + N</span>","null","","","","resp_prompt","","","","","","","","","","","","","","","",""
"categorize-image","180","482707","0.0-4.0-1.0-1.21","2jr0n3ceek67gn4","prime","5dbc435b78b8d81ec088fb40","5f60e3c0a3b16e07647b2ff9","5f61dc039691291958d1432e","true","978.0599999940023","./Stimuli/SelectedImages/SM/SM213.bmp","83","","","","test","true","M + N","83","switch","SM","SM213.bmp","forget","","70","3","prime1","left","","","",""
"html-keyboard-response","181","484711","0.0-4.0-1.0-3.21","2jr0n3ceek67gn4","prime","5dbc435b78b8d81ec088fb40","5f60e3c0a3b16e07647b2ff9","5f61dc039691291958d1432e","false","null","<div style=""align-items: center; display: flex; color: darkorange; font-size: 90px""><b>ø</b></div>","null","","","","forget_cue","","","","","","","","","","","","","","","",""
"html-keyboard-response","182","485423","0.0-4.0-1.0-0.22","2jr0n3ceek67gn4","prime","5dbc435b78b8d81ec088fb40","5f60e3c0a3b16e07647b2ff9","5f61dc039691291958d1432e","false","null","<span style=""color: black; font-size: 48px"">M + N</span>","null","","","","resp_prompt","","","","","","","","","","","","","","","",""
"categorize-image","183","486201","0.0-4.0-1.0-1.22","2jr0n3ceek67gn4","prime","5dbc435b78b8d81ec088fb40","5f60e3c0a3b16e07647b2ff9","5f61dc039691291958d1432e","true","775.1850000349805","./Stimuli/SelectedImages/SM/SM207.bmp","83","","","","test","true","M + N","83","repetition","SM","SM207.bmp","remember","","71","3","prime1","left","","","",""
"html-keyboard-response","184","488216","0.0-4.0-1.0-3.22","2jr0n3ceek67gn4","prime","5dbc435b78b8d81ec088fb40","5f60e3c0a3b16e07647b2ff9","5f61dc039691291958d1432e","false","null","<div style=""align-items: center; display: flex; color: dodgerblue; font-size: 90px""><b>o</b></div>","null","","","","forget_cue","","","","","","","","","","","","","","","",""
"html-keyboard-response","185","488922","0.0-4.0-1.0-0.23","2jr0n3ceek67gn4","prime","5dbc435b78b8d81ec088fb40","5f60e3c0a3b16e07647b2ff9","5f61dc039691291958d1432e","false","null","<span style=""color: black; font-size: 48px"">N + M</span>","null","","","","resp_prompt","","","","","","","","","","","","","","","",""
"categorize-image","186","489891","0.0-4.0-1.0-1.23","2jr0n3ceek67gn4","prime","5dbc435b78b8d81ec088fb40","5f60e3c0a3b16e07647b2ff9","5f61dc039691291958d1432e","true","966.3200000068173","./Stimuli/SelectedImages/SM/SM17.bmp","83","","","","test","false","N + M","76","switch","SM","SM17.bmp","remember","","72","3","prime1","left","","","",""
"html-keyboard-response","187","490393","0.0-4.0-1.0-2.23-0.23","2jr0n3ceek67gn4","prime","5dbc435b78b8d81ec088fb40","5f60e3c0a3b16e07647b2ff9","5f61dc039691291958d1432e","false","null","<span style=""color: red; font-size: 48px"">Error!</span>","null","","","","feedback","","","","","","","","","","","","","","","",""
"html-keyboard-response","188","492399","0.0-4.0-1.0-3.23","2jr0n3ceek67gn4","prime","5dbc435b78b8d81ec088fb40","5f60e3c0a3b16e07647b2ff9","5f61dc039691291958d1432e","false","null","<div style=""align-items: center; display: flex; color: dodgerblue; font-size: 90px""><b>o</b></div>","null","","","","forget_cue","","","","","","","","","","","","","","","",""
"html-keyboard-response","189","493107","0.0-4.0-1.0-0.24","2jr0n3ceek67gn4","prime","5dbc435b78b8d81ec088fb40","5f60e3c0a3b16e07647b2ff9","5f61dc039691291958d1432e","false","null","<span style=""color: black; font-size: 48px"">N + M</span>","null","","","","resp_prompt","","","","","","","","","","","","","","","",""
"categorize-image","190","493823","0.0-4.0-1.0-1.24","2jr0n3ceek67gn4","prime","5dbc435b78b8d81ec088fb40","5f60e3c0a3b16e07647b2ff9","5f61dc039691291958d1432e","true","713.0699999979697","./Stimuli/SelectedImages/LM/LM179.bmp","76","","","","test","true","N + M","76","repetition","LM","LM179.bmp","forget","","73","3","prime1","right","","","",""
"html-keyboard-response","191","495827","0.0-4.0-1.0-3.24","2jr0n3ceek67gn4","prime","5dbc435b78b8d81ec088fb40","5f60e3c0a3b16e07647b2ff9","5f61dc039691291958d1432e","false","null","<div style=""align-items: center; display: flex; color: darkorange; font-size: 90px""><b>ø</b></div>","null","","","","forget_cue","","","","","","","","","","","","","","","",""
"html-keyboard-response","192","496530","0.0-4.0-1.0-0.25","2jr0n3ceek67gn4","prime","5dbc435b78b8d81ec088fb40","5f60e3c0a3b16e07647b2ff9","5f61dc039691291958d1432e","false","null","<span style=""color: black; font-size: 48px"">M + N</span>","null","","","","resp_prompt","","","","","","","","","","","","","","","",""
"categorize-image","193","497317","0.0-4.0-1.0-1.25","2jr0n3ceek67gn4","prime","5dbc435b78b8d81ec088fb40","5f60e3c0a3b16e07647b2ff9","5f61dc039691291958d1432e","true","784.9800000549294","./Stimuli/SelectedImages/LM/LM75.bmp","83","","","","test","true","M + N","83","repetition","LM","LM75.bmp","remember","","74","3","prime1","left","","","",""
"html-keyboard-response","194","499322","0.0-4.0-1.0-3.25","2jr0n3ceek67gn4","prime","5dbc435b78b8d81ec088fb40","5f60e3c0a3b16e07647b2ff9","5f61dc039691291958d1432e","false","null","<div style=""align-items: center; display: flex; color: dodgerblue; font-size: 90px""><b>o</b></div>","null","","","","forget_cue","","","","","","","","","","","","","","","",""
"html-keyboard-response","195","500026","0.0-4.0-1.0-0.26","2jr0n3ceek67gn4","prime","5dbc435b78b8d81ec088fb40","5f60e3c0a3b16e07647b2ff9","5f61dc039691291958d1432e","false","null","<span style=""color: black; font-size: 48px"">N + M</span>","null","","","","resp_prompt","","","","","","","","","","","","","","","",""
"categorize-image","196","500704","0.0-4.0-1.0-1.26","2jr0n3ceek67gn4","prime","5dbc435b78b8d81ec088fb40","5f60e3c0a3b16e07647b2ff9","5f61dc039691291958d1432e","true","675.8050000062212","./Stimuli/SelectedImages/SN/SN128.bmp","83","","","","test","true","N + M","83","switch","SN","SN128.bmp","remember","","75","3","prime1","left","","","",""
"html-keyboard-response","197","502713","0.0-4.0-1.0-3.26","2jr0n3ceek67gn4","prime","5dbc435b78b8d81ec088fb40","5f60e3c0a3b16e07647b2ff9","5f61dc039691291958d1432e","false","null","<div style=""align-items: center; display: flex; color: dodgerblue; font-size: 90px""><b>o</b></div>","null","","","","forget_cue","","","","","","","","","","","","","","","",""
"html-keyboard-response","198","503425","0.0-4.0-1.0-0.27","2jr0n3ceek67gn4","prime","5dbc435b78b8d81ec088fb40","5f60e3c0a3b16e07647b2ff9","5f61dc039691291958d1432e","false","null","<span style=""color: black; font-size: 48px"">M + N</span>","null","","","","resp_prompt","","","","","","","","","","","","","","","",""
"categorize-image","199","504280","0.0-4.0-1.0-1.27","2jr0n3ceek67gn4","prime","5dbc435b78b8d81ec088fb40","5f60e3c0a3b16e07647b2ff9","5f61dc039691291958d1432e","true","851.8449999974109","./Stimuli/SelectedImages/SM/SM184.bmp","83","","","","test","true","M + N","83","switch","SM","SM184.bmp","forget","","76","3","prime1","left","","","",""
"html-keyboard-response","200","506293","0.0-4.0-1.0-3.27","2jr0n3ceek67gn4","prime","5dbc435b78b8d81ec088fb40","5f60e3c0a3b16e07647b2ff9","5f61dc039691291958d1432e","false","null","<div style=""align-items: center; display: flex; color: darkorange; font-size: 90px""><b>ø</b></div>","null","","","","forget_cue","","","","","","","","","","","","","","","",""
"html-keyboard-response","201","506996","0.0-4.0-1.0-0.28","2jr0n3ceek67gn4","prime","5dbc435b78b8d81ec088fb40","5f60e3c0a3b16e07647b2ff9","5f61dc039691291958d1432e","false","null","<span style=""color: black; font-size: 48px"">N + M</span>","null","","","","resp_prompt","","","","","","","","","","","","","","","",""
"categorize-image","202","507969","0.0-4.0-1.0-1.28","2jr0n3ceek67gn4","prime","5dbc435b78b8d81ec088fb40","5f60e3c0a3b16e07647b2ff9","5f61dc039691291958d1432e","true","969.3850000039674","./Stimuli/SelectedImages/LN/LN150.bmp","83","","","","test","true","N + M","83","switch","LN","LN150.bmp","forget","","77","3","prime1","left","","","",""
"html-keyboard-response","203","509980","0.0-4.0-1.0-3.28","2jr0n3ceek67gn4","prime","5dbc435b78b8d81ec088fb40","5f60e3c0a3b16e07647b2ff9","5f61dc039691291958d1432e","false","null","<div style=""align-items: center; display: flex; color: darkorange; font-size: 90px""><b>ø</b></div>","null","","","","forget_cue","","","","","","","","","","","","","","","",""
"html-keyboard-response","204","510690","0.0-4.0-1.0-0.29","2jr0n3ceek67gn4","prime","5dbc435b78b8d81ec088fb40","5f60e3c0a3b16e07647b2ff9","5f61dc039691291958d1432e","false","null","<span style=""color: black; font-size: 48px"">N + M</span>","null","","","","resp_prompt","","","","","","","","","","","","","","","",""
"categorize-image","205","511349","0.0-4.0-1.0-1.29","2jr0n3ceek67gn4","prime","5dbc435b78b8d81ec088fb40","5f60e3c0a3b16e07647b2ff9","5f61dc039691291958d1432e","true","656.1499999952503","./Stimuli/SelectedImages/SN/SN93.bmp","83","","","","test","true","N + M","83","repetition","SN","SN93.bmp","remember","","78","3","prime1","left","","","",""
"html-keyboard-response","206","513371","0.0-4.0-1.0-3.29","2jr0n3ceek67gn4","prime","5dbc435b78b8d81ec088fb40","5f60e3c0a3b16e07647b2ff9","5f61dc039691291958d1432e","false","null","<div style=""align-items: center; display: flex; color: dodgerblue; font-size: 90px""><b>o</b></div>","null","","","","forget_cue","","","","","","","","","","","","","","","",""
"html-keyboard-response","207","514073","0.0-4.0-1.0-0.30","2jr0n3ceek67gn4","prime","5dbc435b78b8d81ec088fb40","5f60e3c0a3b16e07647b2ff9","5f61dc039691291958d1432e","false","null","<span style=""color: black; font-size: 48px"">N + M</span>","null","","","","resp_prompt","","","","","","","","","","","","","","","",""
"categorize-image","208","515031","0.0-4.0-1.0-1.30","2jr0n3ceek67gn4","prime","5dbc435b78b8d81ec088fb40","5f60e3c0a3b16e07647b2ff9","5f61dc039691291958d1432e","true","955.5699999909848","./Stimuli/SelectedImages/LM/LM209.bmp","76","","","","test","true","N + M","76","switch","LM","LM209.bmp","remember","","79","3","prime1","right","","","",""
"html-keyboard-response","209","517045","0.0-4.0-1.0-3.30","2jr0n3ceek67gn4","prime","5dbc435b78b8d81ec088fb40","5f60e3c0a3b16e07647b2ff9","5f61dc039691291958d1432e","false","null","<div style=""align-items: center; display: flex; color: dodgerblue; font-size: 90px""><b>o</b></div>","null","","","","forget_cue","","","","","","","","","","","","","","","",""
"html-keyboard-response","210","517753","0.0-4.0-1.0-0.31","2jr0n3ceek67gn4","prime","5dbc435b78b8d81ec088fb40","5f60e3c0a3b16e07647b2ff9","5f61dc039691291958d1432e","false","null","<span style=""color: black; font-size: 48px"">M + N</span>","null","","","","resp_prompt","","","","","","","","","","","","","","","",""
"categorize-image","211","518702","0.0-4.0-1.0-1.31","2jr0n3ceek67gn4","prime","5dbc435b78b8d81ec088fb40","5f60e3c0a3b16e07647b2ff9","5f61dc039691291958d1432e","true","946.1000000010245","./Stimuli/SelectedImages/LN/LN82.bmp","76","","","","test","true","M + N","76","repetition","LN","LN82.bmp","forget","","80","3","prime1","right","","","",""
"html-keyboard-response","212","520711","0.0-4.0-1.0-3.31","2jr0n3ceek67gn4","prime","5dbc435b78b8d81ec088fb40","5f60e3c0a3b16e07647b2ff9","5f61dc039691291958d1432e","false","null","<div style=""align-items: center; display: flex; color: darkorange; font-size: 90px""><b>ø</b></div>","null","","","","forget_cue","","","","","","","","","","","","","","","",""
"html-keyboard-response","213","521426","0.0-4.0-1.0-0.32","2jr0n3ceek67gn4","prime","5dbc435b78b8d81ec088fb40","5f60e3c0a3b16e07647b2ff9","5f61dc039691291958d1432e","false","null","<span style=""color: black; font-size: 48px"">M + N</span>","null","","","","resp_prompt","","","","","","","","","","","","","","","",""
"categorize-image","214","522159","0.0-4.0-1.0-1.32","2jr0n3ceek67gn4","prime","5dbc435b78b8d81ec088fb40","5f60e3c0a3b16e07647b2ff9","5f61dc039691291958d1432e","true","730.5900000501424","./Stimuli/SelectedImages/SN/SN182.bmp","76","","","","test","true","M + N","76","repetition","SN","SN182.bmp","forget","","81","3","prime1","right","","","",""
"html-keyboard-response","215","524170","0.0-4.0-1.0-3.32","2jr0n3ceek67gn4","prime","5dbc435b78b8d81ec088fb40","5f60e3c0a3b16e07647b2ff9","5f61dc039691291958d1432e","false","null","<div style=""align-items: center; display: flex; color: darkorange; font-size: 90px""><b>ø</b></div>","null","","","","forget_cue","","","","","","","","","","","","","","","",""
"html-keyboard-response","216","524872","0.0-4.0-1.0-0.33","2jr0n3ceek67gn4","prime","5dbc435b78b8d81ec088fb40","5f60e3c0a3b16e07647b2ff9","5f61dc039691291958d1432e","false","null","<span style=""color: black; font-size: 48px"">N + M</span>","null","","","","resp_prompt","","","","","","","","","","","","","","","",""
"categorize-image","217","525662","0.0-4.0-1.0-1.33","2jr0n3ceek67gn4","prime","5dbc435b78b8d81ec088fb40","5f60e3c0a3b16e07647b2ff9","5f61dc039691291958d1432e","true","787.6399999950081","./Stimuli/SelectedImages/LN/LN111.bmp","83","","","","test","true","N + M","83","switch","LN","LN111.bmp","forget","","82","3","prime1","left","","","",""
"html-keyboard-response","218","527666","0.0-4.0-1.0-3.33","2jr0n3ceek67gn4","prime","5dbc435b78b8d81ec088fb40","5f60e3c0a3b16e07647b2ff9","5f61dc039691291958d1432e","false","null","<div style=""align-items: center; display: flex; color: darkorange; font-size: 90px""><b>ø</b></div>","null","","","","forget_cue","","","","","","","","","","","","","","","",""
"html-keyboard-response","219","528380","0.0-4.0-1.0-0.34","2jr0n3ceek67gn4","prime","5dbc435b78b8d81ec088fb40","5f60e3c0a3b16e07647b2ff9","5f61dc039691291958d1432e","false","null","<span style=""color: black; font-size: 48px"">N + M</span>","null","","","","resp_prompt","","","","","","","","","","","","","","","",""
"categorize-image","220","529232","0.0-4.0-1.0-1.34","2jr0n3ceek67gn4","prime","5dbc435b78b8d81ec088fb40","5f60e3c0a3b16e07647b2ff9","5f61dc039691291958d1432e","true","849.9099999899045","./Stimuli/SelectedImages/SN/SN60.bmp","83","","","","test","true","N + M","83","repetition","SN","SN60.bmp","forget","","83","3","prime1","left","","","",""
"html-keyboard-response","221","531247","0.0-4.0-1.0-3.34","2jr0n3ceek67gn4","prime","5dbc435b78b8d81ec088fb40","5f60e3c0a3b16e07647b2ff9","5f61dc039691291958d1432e","false","null","<div style=""align-items: center; display: flex; color: darkorange; font-size: 90px""><b>ø</b></div>","null","","","","forget_cue","","","","","","","","","","","","","","","",""
"html-keyboard-response","222","531949","0.0-4.0-1.0-0.35","2jr0n3ceek67gn4","prime","5dbc435b78b8d81ec088fb40","5f60e3c0a3b16e07647b2ff9","5f61dc039691291958d1432e","false","null","<span style=""color: black; font-size: 48px"">N + M</span>","null","","","","resp_prompt","","","","","","","","","","","","","","","",""
"categorize-image","223","532718","0.0-4.0-1.0-1.35","2jr0n3ceek67gn4","prime","5dbc435b78b8d81ec088fb40","5f60e3c0a3b16e07647b2ff9","5f61dc039691291958d1432e","true","766.7849999852479","./Stimuli/SelectedImages/LM/LM150.bmp","76","","","","test","true","N + M","76","repetition","LM","LM150.bmp","forget","","84","3","prime1","right","","","",""
"html-keyboard-response","224","534727","0.0-4.0-1.0-3.35","2jr0n3ceek67gn4","prime","5dbc435b78b8d81ec088fb40","5f60e3c0a3b16e07647b2ff9","5f61dc039691291958d1432e","false","null","<div style=""align-items: center; display: flex; color: darkorange; font-size: 90px""><b>ø</b></div>","null","","","","forget_cue","","","","","","","","","","","","","","","",""
"html-keyboard-response","225","535445","0.0-4.0-1.0-0.36","2jr0n3ceek67gn4","prime","5dbc435b78b8d81ec088fb40","5f60e3c0a3b16e07647b2ff9","5f61dc039691291958d1432e","false","null","<span style=""color: black; font-size: 48px"">M + N</span>","null","","","","resp_prompt","","","","","","","","","","","","","","","",""
"categorize-image","226","536320","0.0-4.0-1.0-1.36","2jr0n3ceek67gn4","prime","5dbc435b78b8d81ec088fb40","5f60e3c0a3b16e07647b2ff9","5f61dc039691291958d1432e","true","872.0749999629334","./Stimuli/SelectedImages/LN/LN59.bmp","76","","","","test","true","M + N","76","repetition","LN","LN59.bmp","remember","","85","3","prime1","right","","","",""
"html-keyboard-response","227","538336","0.0-4.0-1.0-3.36","2jr0n3ceek67gn4","prime","5dbc435b78b8d81ec088fb40","5f60e3c0a3b16e07647b2ff9","5f61dc039691291958d1432e","false","null","<div style=""align-items: center; display: flex; color: dodgerblue; font-size: 90px""><b>o</b></div>","null","","","","forget_cue","","","","","","","","","","","","","","","",""
"html-keyboard-response","228","539038","0.0-4.0-1.0-0.37","2jr0n3ceek67gn4","prime","5dbc435b78b8d81ec088fb40","5f60e3c0a3b16e07647b2ff9","5f61dc039691291958d1432e","false","null","<span style=""color: black; font-size: 48px"">M + N</span>","null","","","","resp_prompt","","","","","","","","","","","","","","","",""
"categorize-image","229","539735","0.0-4.0-1.0-1.37","2jr0n3ceek67gn4","prime","5dbc435b78b8d81ec088fb40","5f60e3c0a3b16e07647b2ff9","5f61dc039691291958d1432e","true","694.0000000176951","./Stimuli/SelectedImages/LN/LN12.bmp","76","","","","test","true","M + N","76","switch","LN","LN12.bmp","remember","","86","3","prime1","right","","","",""
"html-keyboard-response","230","541744","0.0-4.0-1.0-3.37","2jr0n3ceek67gn4","prime","5dbc435b78b8d81ec088fb40","5f60e3c0a3b16e07647b2ff9","5f61dc039691291958d1432e","false","null","<div style=""align-items: center; display: flex; color: dodgerblue; font-size: 90px""><b>o</b></div>","null","","","","forget_cue","","","","","","","","","","","","","","","",""
"html-keyboard-response","231","542461","0.0-4.0-1.0-0.38","2jr0n3ceek67gn4","prime","5dbc435b78b8d81ec088fb40","5f60e3c0a3b16e07647b2ff9","5f61dc039691291958d1432e","false","null","<span style=""color: black; font-size: 48px"">M + N</span>","null","","","","resp_prompt","","","","","","","","","","","","","","","",""
"categorize-image","232","543071","0.0-4.0-1.0-1.38","2jr0n3ceek67gn4","prime","5dbc435b78b8d81ec088fb40","5f60e3c0a3b16e07647b2ff9","5f61dc039691291958d1432e","true","607.3900000192225","./Stimuli/SelectedImages/LM/LM157.bmp","83","","","","test","true","M + N","83","repetition","LM","LM157.bmp","forget","","87","3","prime1","left","","","",""
"html-keyboard-response","233","545073","0.0-4.0-1.0-3.38","2jr0n3ceek67gn4","prime","5dbc435b78b8d81ec088fb40","5f60e3c0a3b16e07647b2ff9","5f61dc039691291958d1432e","false","null","<div style=""align-items: center; display: flex; color: darkorange; font-size: 90px""><b>ø</b></div>","null","","","","forget_cue","","","","","","","","","","","","","","","",""
"html-keyboard-response","234","545780","0.0-4.0-1.0-0.39","2jr0n3ceek67gn4","prime","5dbc435b78b8d81ec088fb40","5f60e3c0a3b16e07647b2ff9","5f61dc039691291958d1432e","false","null","<span style=""color: black; font-size: 48px"">M + N</span>","null","","","","resp_prompt","","","","","","","","","","","","","","","",""
"categorize-image","235","546777","0.0-4.0-1.0-1.39","2jr0n3ceek67gn4","prime","5dbc435b78b8d81ec088fb40","5f60e3c0a3b16e07647b2ff9","5f61dc039691291958d1432e","true","994.2649999866262","./Stimuli/SelectedImages/LM/LM48.bmp","83","","","","test","true","M + N","83","switch","LM","LM48.bmp","remember","","88","3","prime1","left","","","",""
"html-keyboard-response","236","548791","0.0-4.0-1.0-3.39","2jr0n3ceek67gn4","prime","5dbc435b78b8d81ec088fb40","5f60e3c0a3b16e07647b2ff9","5f61dc039691291958d1432e","false","null","<div style=""align-items: center; display: flex; color: dodgerblue; font-size: 90px""><b>o</b></div>","null","","","","forget_cue","","","","","","","","","","","","","","","",""
"html-keyboard-response","237","549493","0.0-4.0-1.0-0.40","2jr0n3ceek67gn4","prime","5dbc435b78b8d81ec088fb40","5f60e3c0a3b16e07647b2ff9","5f61dc039691291958d1432e","false","null","<span style=""color: black; font-size: 48px"">M + N</span>","null","","","","resp_prompt","","","","","","","","","","","","","","","",""
"categorize-image","238","550166","0.0-4.0-1.0-1.40","2jr0n3ceek67gn4","prime","5dbc435b78b8d81ec088fb40","5f60e3c0a3b16e07647b2ff9","5f61dc039691291958d1432e","true","670.1200000243261","./Stimuli/SelectedImages/SN/SN111.bmp","76","","","","test","true","M + N","76","repetition","SN","SN111.bmp","remember","","89","3","prime1","right","","","",""
"html-keyboard-response","239","552169","0.0-4.0-1.0-3.40","2jr0n3ceek67gn4","prime","5dbc435b78b8d81ec088fb40","5f60e3c0a3b16e07647b2ff9","5f61dc039691291958d1432e","false","null","<div style=""align-items: center; display: flex; color: dodgerblue; font-size: 90px""><b>o</b></div>","null","","","","forget_cue","","","","","","","","","","","","","","","",""
"html-keyboard-response","240","552882","0.0-4.0-1.0-0.41","2jr0n3ceek67gn4","prime","5dbc435b78b8d81ec088fb40","5f60e3c0a3b16e07647b2ff9","5f61dc039691291958d1432e","false","null","<span style=""color: black; font-size: 48px"">M + N</span>","null","","","","resp_prompt","","","","","","","","","","","","","","","",""
"categorize-image","241","553600","0.0-4.0-1.0-1.41","2jr0n3ceek67gn4","prime","5dbc435b78b8d81ec088fb40","5f60e3c0a3b16e07647b2ff9","5f61dc039691291958d1432e","true","715.4499999596737","./Stimuli/SelectedImages/SM/SM195.bmp","83","","","","test","true","M + N","83","switch","SM","SM195.bmp","remember","","90","3","prime1","left","","","",""
"html-keyboard-response","242","555610","0.0-4.0-1.0-3.41","2jr0n3ceek67gn4","prime","5dbc435b78b8d81ec088fb40","5f60e3c0a3b16e07647b2ff9","5f61dc039691291958d1432e","false","null","<div style=""align-items: center; display: flex; color: dodgerblue; font-size: 90px""><b>o</b></div>","null","","","","forget_cue","","","","","","","","","","","","","","","",""
"html-keyboard-response","243","556316","0.0-4.0-1.0-0.42","2jr0n3ceek67gn4","prime","5dbc435b78b8d81ec088fb40","5f60e3c0a3b16e07647b2ff9","5f61dc039691291958d1432e","false","null","<span style=""color: black; font-size: 48px"">M + N</span>","null","","","","resp_prompt","","","","","","","","","","","","","","","",""
"categorize-image","244","557073","0.0-4.0-1.0-1.42","2jr0n3ceek67gn4","prime","5dbc435b78b8d81ec088fb40","5f60e3c0a3b16e07647b2ff9","5f61dc039691291958d1432e","true","754.7200000262819","./Stimuli/SelectedImages/LN/LN92.bmp","76","","","","test","true","M + N","76","switch","LN","LN92.bmp","forget","","91","3","prime1","right","","","",""
"html-keyboard-response","245","559087","0.0-4.0-1.0-3.42","2jr0n3ceek67gn4","prime","5dbc435b78b8d81ec088fb40","5f60e3c0a3b16e07647b2ff9","5f61dc039691291958d1432e","false","null","<div style=""align-items: center; display: flex; color: darkorange; font-size: 90px""><b>ø</b></div>","null","","","","forget_cue","","","","","","","","","","","","","","","",""
"html-keyboard-response","246","559790","0.0-4.0-1.0-0.43","2jr0n3ceek67gn4","prime","5dbc435b78b8d81ec088fb40","5f60e3c0a3b16e07647b2ff9","5f61dc039691291958d1432e","false","null","<span style=""color: black; font-size: 48px"">N + M</span>","null","","","","resp_prompt","","","","","","","","","","","","","","","",""
"categorize-image","247","560716","0.0-4.0-1.0-1.43","2jr0n3ceek67gn4","prime","5dbc435b78b8d81ec088fb40","5f60e3c0a3b16e07647b2ff9","5f61dc039691291958d1432e","true","922.4950000061654","./Stimuli/SelectedImages/LM/LM100.bmp","76","","","","test","true","N + M","76","repetition","LM","LM100.bmp","remember","","92","3","prime1","right","","","",""
"html-keyboard-response","248","562737","0.0-4.0-1.0-3.43","2jr0n3ceek67gn4","prime","5dbc435b78b8d81ec088fb40","5f60e3c0a3b16e07647b2ff9","5f61dc039691291958d1432e","false","null","<div style=""align-items: center; display: flex; color: dodgerblue; font-size: 90px""><b>o</b></div>","null","","","","forget_cue","","","","","","","","","","","","","","","",""
"html-keyboard-response","249","563446","0.0-4.0-1.0-0.44","2jr0n3ceek67gn4","prime","5dbc435b78b8d81ec088fb40","5f60e3c0a3b16e07647b2ff9","5f61dc039691291958d1432e","false","null","<span style=""color: black; font-size: 48px"">N + M</span>","null","","","","resp_prompt","","","","","","","","","","","","","","","",""
"categorize-image","250","564134","0.0-4.0-1.0-1.44","2jr0n3ceek67gn4","prime","5dbc435b78b8d81ec088fb40","5f60e3c0a3b16e07647b2ff9","5f61dc039691291958d1432e","true","685.4750000056811","./Stimuli/SelectedImages/LN/LN13.bmp","83","","","","test","true","N + M","83","switch","LN","LN13.bmp","remember","","93","3","prime1","left","","","",""
"html-keyboard-response","251","566149","0.0-4.0-1.0-3.44","2jr0n3ceek67gn4","prime","5dbc435b78b8d81ec088fb40","5f60e3c0a3b16e07647b2ff9","5f61dc039691291958d1432e","false","null","<div style=""align-items: center; display: flex; color: dodgerblue; font-size: 90px""><b>o</b></div>","null","","","","forget_cue","","","","","","","","","","","","","","","",""
"html-keyboard-response","252","566851","0.0-4.0-1.0-0.45","2jr0n3ceek67gn4","prime","5dbc435b78b8d81ec088fb40","5f60e3c0a3b16e07647b2ff9","5f61dc039691291958d1432e","false","null","<span style=""color: black; font-size: 48px"">N + M</span>","null","","","","resp_prompt","","","","","","","","","","","","","","","",""
