"trial_type","trial_index","time_elapsed","internal_node_id","subject","exp_part","prolific_PID","study_ID","session_ID","use","rt","stimulus","key_press","button_pressed","responses","question_order","trial_part","correct","resp_map","correct_resp","probe_condition","category","image","forget_condition","list","trial_num","block_num","block","response","test_part","n_span","sequence","num_spaces"
"pavlovia","0","8","0.0-0.0","3c5nkk3z2ur8kda","","5de0803843e90d0fcc462b13","5f60e3c0a3b16e07647b2ff9","5f60f0c5891bb90108d44851","false","","","","","","","","","","","","","","","","","","","","","","",""
"html-keyboard-response","1","34780","0.0-1.0-0.0-0.0","3c5nkk3z2ur8kda","welcome","5de0803843e90d0fcc462b13","5f60e3c0a3b16e07647b2ff9","5f60f0c5891bb90108d44851","false","34769.44000000367","<div align=left>Dear participant, <br> thank you for participating in an online study of the Cognition, Action, and Sustainability Unit of the University of Freiburg! <br> <br>The aim of this study is to examine our ability to remember previously learned information. <br>Our goal is to find out, whether our memory improves, when we only remember information that is relevant to us. <br>The experiment will take about 35 minutes to complete. <br> <br>Please, note that you can only participate in this study if you are using a device with a keyboard (PC, Laptop etc.) <br>and not if you are using a mobile device such as a tablet or smartphone.<br> <br>Press 'SPACE' to proceed to the experiment. </div>","32","","","","","","","","","","","","","","","","","","","",""
"html-keyboard-response","2","38281","0.0-1.0-0.0-1.0","3c5nkk3z2ur8kda","welcome","5de0803843e90d0fcc462b13","5f60e3c0a3b16e07647b2ff9","5f60f0c5891bb90108d44851","false","3498.7050000345334","<div align=left><strong> Time Course of this experiment: </strong> <br><br> <strong> 1.</strong>  First, please fill in some information regarding your demographic data. <br><br> <strong> 2.</strong>  Next, your task will be to classify everyday objects. <br>In addition, you will be asked to remember certain objects and recall them later. <br>Working on these tasks requires your undivided attention and concentration.<br>It is therefore essential that you eliminate any sources of distraction in your  <br>environment and ensure that you will not be disturbed. <br><br><strong> 3.</strong>  At the end of the experiment, you will be asked to answer a few additional questions. <br> <br><strong> Important:</strong> After finishing the experiment, only close the browser window <br> by clicking on the 'end the experiment'-button when you are asked to do so. <br>Closing the browser window prematurely will make the allocation of your participation credit impossible. <br><br> Press 'SPACE' to start the experiment. </div>","32","","","","","","","","","","","","","","","","","","","",""
"html-button-response","3","41384","0.0-1.0-0.0-2.0","3c5nkk3z2ur8kda","welcome","5de0803843e90d0fcc462b13","5f60e3c0a3b16e07647b2ff9","5f60f0c5891bb90108d44851","true","3100.8950000396","<div align=left><strong> Informed consent </strong>  <br>The aim of our research is to better understand human behavior and mental processes. <br>In the following study your behavior (e.g. choices, reaction times) will be studied. <br> <br><strong> Voluntariness and Anonymity </strong> <br>Your participation in this study is  <strong> voluntary</strong>.<br>You may withdraw your consent to participate at any time without providing a reason for doing so and without fear of prejudice. <br><br>As no personal data will be collected, <strong>your data and your person cannot be connected after data collection</strong> – the data-set is anonymous. <br>Respectively, deletion of your data will not be possible after data collection has been completed, as we cannot retrace your data-set.<br>The results and anonymized data collected in this study will be published as a scientific publication. <br>This will happen in an <strong>anonymized format</strong>, so that no data can be traced back to a specific person. <br> <br>The anonymized data of this study will be made available to other researchers and/or in a data archive on the Internet as a means of transparency and to enable subsequent re-use. By doing so, this study follows the recommendations of the Deutsche Forschungsgemeinschaft (DFG, German Research Foundation) and Deutsche Gesellschaft für Psychologie (DGPS, German Psychological Society) regarding quality assurance in research.<br>If you have any questions now or after the experiment, please contact our team (experiments@cs.uni-freiburg.de).<br><br><br>I hereby declare, that I understand the above described conditions of participation and I agree to participate under these conditions. <br><br> </div>","","0","","","","","","","","","","","","","","","","","","",""
"html-keyboard-response","4","56293","0.0-1.0-0.0-3.0","3c5nkk3z2ur8kda","welcome","5de0803843e90d0fcc462b13","5f60e3c0a3b16e07647b2ff9","5f60f0c5891bb90108d44851","false","14900.480000011157","<div align=left><strong> General information concerning the experiment </strong>  <br> <br>Please follow the instructions:<ol> <li><strong> Do not leave this tab (your browser window) during the experiment and do not reload this tab! </strong>  <br>If you do switch tabs/windows during the experiment (to check your mail or visit another website, for example), <br>the experiment will end automatically and you will <strong>not receive credit</strong> for your participation. <br>Repeated participation or resumption of the experiment is impossible.</li> <br><li>Please close all other programs for the duration of your participation. </li> <br><li>Please mute or turn off your phone and put it out of your reach. </li> <br><li>Please also take off any disturbing accessories (such as wristwatches, bracelets, etc.). </li> <br><li>If you have music playing in the background, please turn it off now. </li> <br></ol>Thank you! <br>Press 'SPACE' to continue. </div>","32","","","","","","","","","","","","","","","","","","","",""
"survey-text","5","59981","0.0-1.0-1.0-0.0","3c5nkk3z2ur8kda","demographics","5de0803843e90d0fcc462b13","5f60e3c0a3b16e07647b2ff9","5f60f0c5891bb90108d44851","true","3676.735000044573","","","","{""age"":""27""}","","","","","","","","","","","","","","","","","",""
"survey-multi-choice","6","78549","0.0-1.0-1.0-1.0","3c5nkk3z2ur8kda","demographics","5de0803843e90d0fcc462b13","5f60e3c0a3b16e07647b2ff9","5f60f0c5891bb90108d44851","true","18563.070000032894","","","","{""gender"":""male"",""school"":""high school"",""education"":""High school graduate, diploma or equivalent""}","[0,1,2]","","","","","","","","","","","","","","","","",""
"html-keyboard-response","7","88422","0.0-1.0-2.0","3c5nkk3z2ur8kda","instructions","5de0803843e90d0fcc462b13","5f60e3c0a3b16e07647b2ff9","5f60f0c5891bb90108d44851","false","9866.199999989476","<div align=left> The experiment is now about to start: <br> <br>In the following part, you will be presented pictures of everyday objects. <br>Your first task is to <strong>classify these objects. </strong> <br> <br> You will classify them either as mechanical or non-mechanical objects. <br> <br>Objects that include any kind of technical mechanism (for example, wheels, switches, levers, <br> electronic components) fall under the category of <strong>mechanical</strong> objects. <br>Only objects without any kind of technical mechanism should be classified as <strong>non-mechanical</strong>. <br><br>Press 'SPACE' to continue. </div>","32","","","","","","","","","","","","","","","","","","","",""
"html-keyboard-response","8","193133","0.0-2.0-0.0","3c5nkk3z2ur8kda","instructions","5de0803843e90d0fcc462b13","5f60e3c0a3b16e07647b2ff9","5f60f0c5891bb90108d44851","false","104706.99500001501","<div align=justify>You will classify the objects using the <strong>'S'</strong> and the <strong>'L'</strong> keys on your keyboard.<br>For doing so, please place your <strong>left index finger</strong> on the <strong>'S'</strong> key and place your <strong>right index finger</strong> on the <strong>'L'</strong> key. <br><br> Each trial starts with an instruction, indicating which key ('S'/'L') you need to press to classify <br>the object as mechanical (letter M) or non-mechanical (letter N).<br>The instruction <strong>M + N</strong> indicates that, in the current trial, by pressing the left key ('S') you classify the displayed object as mechanical (M) <br> and by pressing the right key ('L') you classify the object as non-mechanical (N). <br>The instruction <strong>N + M</strong> on the other hand indicates that by pressing the left key ('S') you classify the displayed object as non-mechanical (N) <br> and by pressing the right key ('L') you classify the object as mechanical (M). <br><br>Please press the key corresponding to the correct classification as fast as possible as soon as the object is displayed and try to avoid making mistakes.<br>If you do not respond within a 2 second window, a corresponding feedback will be displayed and the next trial will start.<br> The experiment is divided into multiple blocks to give you the opportunity to take a break after each block. <br>First, you can now practice this task. <br><br>Please place your <strong>LEFT INDEX FINGER</strong> on the 'S' key and your <strong>RIGHT INDEX FINGER</strong> on the 'L' key now. <br><br>Press SPACE to continue.</div>","32","","","","","","","","","","","","","","","","","","","",""
"html-keyboard-response","9","196155","0.0-2.0-1.0","3c5nkk3z2ur8kda","instructions","5de0803843e90d0fcc462b13","5f60e3c0a3b16e07647b2ff9","5f60f0c5891bb90108d44851","false","3020.3350000083447","<div align=left> You will now have time to practice this task.<br><br>Remember: <br> <br><li>Please place your index fingers on the <strong>'S'</strong> and <strong>'L'</strong> keys <br>to respond as fast and accurately as possible.</li><li>Every picture can be classified as either mechanical or non-mechanical.</li><li>If you do not respond in time or commit an error, you will receive a corresponding feedback. </li><li> Please try to respond as <strong> fast </strong> and as <strong> accurately as possible </strong> .<br><li>To ensure optimal results, please minimize distractions and stay focused. </li><br><br>Press SPACE to continue.</div>","32","","","","","","","","","","","","","","","","","","","",""
"html-keyboard-response","10","196861","0.0-2.0-2.0-0.0","3c5nkk3z2ur8kda","practice_no_cue","5de0803843e90d0fcc462b13","5f60e3c0a3b16e07647b2ff9","5f60f0c5891bb90108d44851","false","null","<span style=""color: black; font-size: 48px"">M + N</span>","null","","","","resp_prompt","","","","","","","","","","","","","","","",""
"categorize-image","11","198288","0.0-2.0-2.0-1.0","3c5nkk3z2ur8kda","practice_no_cue","5de0803843e90d0fcc462b13","5f60e3c0a3b16e07647b2ff9","5f60f0c5891bb90108d44851","true","916.5749999810942","./Stimuli/ImagesPractice/LN109.jpg","83","","","","test","false","M + N","76","","LN","LN109.jpg","forget","old","1","1","start","left","","","",""
"html-keyboard-response","12","198992","0.0-2.0-2.0-0.1","3c5nkk3z2ur8kda","practice_no_cue","5de0803843e90d0fcc462b13","5f60e3c0a3b16e07647b2ff9","5f60f0c5891bb90108d44851","false","null","<span style=""color: black; font-size: 48px"">M + N</span>","null","","","","resp_prompt","","","","","","","","","","","","","","","",""
"categorize-image","13","200060","0.0-2.0-2.0-1.1","3c5nkk3z2ur8kda","practice_no_cue","5de0803843e90d0fcc462b13","5f60e3c0a3b16e07647b2ff9","5f60f0c5891bb90108d44851","true","564.9049999774434","./Stimuli/ImagesPractice/LM143.jpg","83","","","","test","true","M + N","83","","LM","LM143.jpg","forget","old","2","1","start","left","","","",""
"html-keyboard-response","14","200764","0.0-2.0-2.0-0.2","3c5nkk3z2ur8kda","practice_no_cue","5de0803843e90d0fcc462b13","5f60e3c0a3b16e07647b2ff9","5f60f0c5891bb90108d44851","false","null","<span style=""color: black; font-size: 48px"">N + M</span>","null","","","","resp_prompt","","","","","","","","","","","","","","","",""
"categorize-image","15","201961","0.0-2.0-2.0-1.2","3c5nkk3z2ur8kda","practice_no_cue","5de0803843e90d0fcc462b13","5f60e3c0a3b16e07647b2ff9","5f60f0c5891bb90108d44851","true","692.5649999757297","./Stimuli/ImagesPractice/SN220.jpg","83","","","","test","true","N + M","83","","SN","SN220.jpg","forget","old","3","1","start","left","","","",""
"html-keyboard-response","16","202664","0.0-2.0-2.0-0.3","3c5nkk3z2ur8kda","practice_no_cue","5de0803843e90d0fcc462b13","5f60e3c0a3b16e07647b2ff9","5f60f0c5891bb90108d44851","false","null","<span style=""color: black; font-size: 48px"">M + N</span>","null","","","","resp_prompt","","","","","","","","","","","","","","","",""
"categorize-image","17","203916","0.0-2.0-2.0-1.3","3c5nkk3z2ur8kda","practice_no_cue","5de0803843e90d0fcc462b13","5f60e3c0a3b16e07647b2ff9","5f60f0c5891bb90108d44851","true","747.8300000075251","./Stimuli/ImagesPractice/LN2.jpg","76","","","","test","true","M + N","76","","LN","LN2.jpg","forget","old","4","1","start","right","","","",""
"html-keyboard-response","18","204619","0.0-2.0-2.0-0.4","3c5nkk3z2ur8kda","practice_no_cue","5de0803843e90d0fcc462b13","5f60e3c0a3b16e07647b2ff9","5f60f0c5891bb90108d44851","false","null","<span style=""color: black; font-size: 48px"">M + N</span>","null","","","","resp_prompt","","","","","","","","","","","","","","","",""
"categorize-image","19","205786","0.0-2.0-2.0-1.4","3c5nkk3z2ur8kda","practice_no_cue","5de0803843e90d0fcc462b13","5f60e3c0a3b16e07647b2ff9","5f60f0c5891bb90108d44851","true","662.8050000290386","./Stimuli/ImagesPractice/SN75.jpg","83","","","","test","false","M + N","76","","SN","SN75.jpg","remember","old","5","1","start","left","","","",""
"html-keyboard-response","20","206493","0.0-2.0-2.0-0.5","3c5nkk3z2ur8kda","practice_no_cue","5de0803843e90d0fcc462b13","5f60e3c0a3b16e07647b2ff9","5f60f0c5891bb90108d44851","false","null","<span style=""color: black; font-size: 48px"">N + M</span>","null","","","","resp_prompt","","","","","","","","","","","","","","","",""
"categorize-image","21","207649","0.0-2.0-2.0-1.5","3c5nkk3z2ur8kda","practice_no_cue","5de0803843e90d0fcc462b13","5f60e3c0a3b16e07647b2ff9","5f60f0c5891bb90108d44851","true","645.0349999940954","./Stimuli/ImagesPractice/LN4.jpg","76","","","","test","false","N + M","83","","LN","LN4.jpg","forget","old","6","1","start","right","","","",""
"html-keyboard-response","22","208351","0.0-2.0-2.0-0.6","3c5nkk3z2ur8kda","practice_no_cue","5de0803843e90d0fcc462b13","5f60e3c0a3b16e07647b2ff9","5f60f0c5891bb90108d44851","false","null","<span style=""color: black; font-size: 48px"">N + M</span>","null","","","","resp_prompt","","","","","","","","","","","","","","","",""
"categorize-image","23","209599","0.0-2.0-2.0-1.6","3c5nkk3z2ur8kda","practice_no_cue","5de0803843e90d0fcc462b13","5f60e3c0a3b16e07647b2ff9","5f60f0c5891bb90108d44851","true","743.5800000093877","./Stimuli/ImagesPractice/SN76.jpg","83","","","","test","true","N + M","83","","SN","SN76.jpg","forget","old","7","1","start","left","","","",""
"html-keyboard-response","24","210302","0.0-2.0-2.0-0.7","3c5nkk3z2ur8kda","practice_no_cue","5de0803843e90d0fcc462b13","5f60e3c0a3b16e07647b2ff9","5f60f0c5891bb90108d44851","false","null","<span style=""color: black; font-size: 48px"">M + N</span>","null","","","","resp_prompt","","","","","","","","","","","","","","","",""
"categorize-image","25","211567","0.0-2.0-2.0-1.7","3c5nkk3z2ur8kda","practice_no_cue","5de0803843e90d0fcc462b13","5f60e3c0a3b16e07647b2ff9","5f60f0c5891bb90108d44851","true","759.7249999525957","./Stimuli/ImagesPractice/LM230.jpg","83","","","","test","true","M + N","83","","LM","LM230.jpg","remember","old","8","1","start","left","","","",""
"html-keyboard-response","26","212269","0.0-2.0-2.0-0.8","3c5nkk3z2ur8kda","practice_no_cue","5de0803843e90d0fcc462b13","5f60e3c0a3b16e07647b2ff9","5f60f0c5891bb90108d44851","false","null","<span style=""color: black; font-size: 48px"">M + N</span>","null","","","","resp_prompt","","","","","","","","","","","","","","","",""
"categorize-image","27","213497","0.0-2.0-2.0-1.8","3c5nkk3z2ur8kda","practice_no_cue","5de0803843e90d0fcc462b13","5f60e3c0a3b16e07647b2ff9","5f60f0c5891bb90108d44851","true","722.1700000227429","./Stimuli/ImagesPractice/SM62.jpg","83","","","","test","true","M + N","83","","SM","SM62.jpg","remember","old","9","1","start","left","","","",""
"html-keyboard-response","28","214201","0.0-2.0-2.0-0.9","3c5nkk3z2ur8kda","practice_no_cue","5de0803843e90d0fcc462b13","5f60e3c0a3b16e07647b2ff9","5f60f0c5891bb90108d44851","false","null","<span style=""color: black; font-size: 48px"">M + N</span>","null","","","","resp_prompt","","","","","","","","","","","","","","","",""
"categorize-image","29","215221","0.0-2.0-2.0-1.9","3c5nkk3z2ur8kda","practice_no_cue","5de0803843e90d0fcc462b13","5f60e3c0a3b16e07647b2ff9","5f60f0c5891bb90108d44851","true","516.4900000090711","./Stimuli/ImagesPractice/SN222.jpg","76","","","","test","true","M + N","76","","SN","SN222.jpg","remember","old","10","1","start","right","","","",""
"html-keyboard-response","30","215925","0.0-2.0-2.0-0.10","3c5nkk3z2ur8kda","practice_no_cue","5de0803843e90d0fcc462b13","5f60e3c0a3b16e07647b2ff9","5f60f0c5891bb90108d44851","false","null","<span style=""color: black; font-size: 48px"">N + M</span>","null","","","","resp_prompt","","","","","","","","","","","","","","","",""
"categorize-image","31","217239","0.0-2.0-2.0-1.10","3c5nkk3z2ur8kda","practice_no_cue","5de0803843e90d0fcc462b13","5f60e3c0a3b16e07647b2ff9","5f60f0c5891bb90108d44851","true","809.4600000185892","./Stimuli/ImagesPractice/SM61.jpg","76","","","","test","true","N + M","76","","SM","SM61.jpg","remember","old","11","1","start","right","","","",""
"html-keyboard-response","32","217943","0.0-2.0-2.0-0.11","3c5nkk3z2ur8kda","practice_no_cue","5de0803843e90d0fcc462b13","5f60e3c0a3b16e07647b2ff9","5f60f0c5891bb90108d44851","false","null","<span style=""color: black; font-size: 48px"">N + M</span>","null","","","","resp_prompt","","","","","","","","","","","","","","","",""
"categorize-image","33","219067","0.0-2.0-2.0-1.11","3c5nkk3z2ur8kda","practice_no_cue","5de0803843e90d0fcc462b13","5f60e3c0a3b16e07647b2ff9","5f60f0c5891bb90108d44851","true","620.7799999974668","./Stimuli/ImagesPractice/LN15.jpg","83","","","","test","true","N + M","83","","LN","LN15.jpg","remember","old","12","1","start","left","","","",""
"html-keyboard-response","34","219770","0.0-2.0-2.0-0.12","3c5nkk3z2ur8kda","practice_no_cue","5de0803843e90d0fcc462b13","5f60e3c0a3b16e07647b2ff9","5f60f0c5891bb90108d44851","false","null","<span style=""color: black; font-size: 48px"">N + M</span>","null","","","","resp_prompt","","","","","","","","","","","","","","","",""
"categorize-image","35","221021","0.0-2.0-2.0-1.12","3c5nkk3z2ur8kda","practice_no_cue","5de0803843e90d0fcc462b13","5f60e3c0a3b16e07647b2ff9","5f60f0c5891bb90108d44851","true","747.0549999852665","./Stimuli/ImagesPractice/SM97.jpg","76","","","","test","true","N + M","76","","SM","SM97.jpg","remember","old","13","1","start","right","","","",""
"html-keyboard-response","36","221724","0.0-2.0-2.0-0.13","3c5nkk3z2ur8kda","practice_no_cue","5de0803843e90d0fcc462b13","5f60e3c0a3b16e07647b2ff9","5f60f0c5891bb90108d44851","false","null","<span style=""color: black; font-size: 48px"">M + N</span>","null","","","","resp_prompt","","","","","","","","","","","","","","","",""
"categorize-image","37","222922","0.0-2.0-2.0-1.13","3c5nkk3z2ur8kda","practice_no_cue","5de0803843e90d0fcc462b13","5f60e3c0a3b16e07647b2ff9","5f60f0c5891bb90108d44851","true","693.9049999928102","./Stimuli/ImagesPractice/SM37.jpg","83","","","","test","true","M + N","83","","SM","SM37.jpg","forget","old","14","1","start","left","","","",""
"html-keyboard-response","38","223624","0.0-2.0-2.0-0.14","3c5nkk3z2ur8kda","practice_no_cue","5de0803843e90d0fcc462b13","5f60e3c0a3b16e07647b2ff9","5f60f0c5891bb90108d44851","false","null","<span style=""color: black; font-size: 48px"">N + M</span>","null","","","","resp_prompt","","","","","","","","","","","","","","","",""
"categorize-image","39","224782","0.0-2.0-2.0-1.14","3c5nkk3z2ur8kda","practice_no_cue","5de0803843e90d0fcc462b13","5f60e3c0a3b16e07647b2ff9","5f60f0c5891bb90108d44851","true","654.515000001993","./Stimuli/ImagesPractice/SN205.jpg","83","","","","test","true","N + M","83","","SN","SN205.jpg","remember","old","15","1","start","left","","","",""
"html-keyboard-response","40","225484","0.0-2.0-2.0-0.15","3c5nkk3z2ur8kda","practice_no_cue","5de0803843e90d0fcc462b13","5f60e3c0a3b16e07647b2ff9","5f60f0c5891bb90108d44851","false","null","<span style=""color: black; font-size: 48px"">N + M</span>","null","","","","resp_prompt","","","","","","","","","","","","","","","",""
"categorize-image","41","226847","0.0-2.0-2.0-1.15","3c5nkk3z2ur8kda","practice_no_cue","5de0803843e90d0fcc462b13","5f60e3c0a3b16e07647b2ff9","5f60f0c5891bb90108d44851","true","858.3550000330433","./Stimuli/ImagesPractice/SM35.jpg","76","","","","test","true","N + M","76","","SM","SM35.jpg","forget","old","16","1","start","right","","","",""
"html-keyboard-response","42","232155","0.0-2.0-3.0","3c5nkk3z2ur8kda","break","5de0803843e90d0fcc462b13","5f60e3c0a3b16e07647b2ff9","5f60f0c5891bb90108d44851","false","5303.939999954309","<p style='font-size: 32px;'>Break</><br><br><br><br><br><p style='font-size: 24px;'>In the last block, you committed 3 errors and did not respond in time on 0 trials.
</p><p style='font-size: 24px;'>Try to respond as fast and accurately as possible in the next block as well! </p><p style='font-size: 24px;'>Press SPACE to continue.</p>","32","","","","","","","","","","","","","","","","","","","",""
"html-keyboard-response","43","234308","0.0-2.0-4.0","3c5nkk3z2ur8kda","instructions","5de0803843e90d0fcc462b13","5f60e3c0a3b16e07647b2ff9","5f60f0c5891bb90108d44851","false","2150.28500003973","<div align=left> Great!<br><br>Are you ready to continue?<br><br>If you want to reread the instructions and redo the practice trials, <br>please press „Z“. <br><br>Press SPACE to CONTINUE with the experiment when you are ready. </div>","32","","","","","","","","","","","","","","","","","","","",""
"html-keyboard-response","44","251731","0.0-3.0-0.0","3c5nkk3z2ur8kda","instructions","5de0803843e90d0fcc462b13","5f60e3c0a3b16e07647b2ff9","5f60f0c5891bb90108d44851","false","17418.9250000054","<div align=left>Great!<br> <strong>Attention</strong>! You will now receive a second, additional task! <br><br>To this point it was you <strong>first task</strong> to correctly <strong>classify objects</strong>. <br><br>As mentioned in the beginning, we aim to examine how well humans can remember previously learned information.<br>We would like to find out whether our memory improves if we only remember information that is relevant to us. <br><br>Therefore, your <strong>second task</strong> will be to <strong>remember</strong> the pictures you are to categorize. <br> After the learning phase, there will be a memory test phase, in which you will be asked to indicate whether you have seen a picture before or not. <br>Some, but not all pictures shown in the learning phase will appear in the memory test phase.<br>After classifying a picture, you will be told whether you should remember it for the memory test phase or not. <br>Thus, some pictures can be forgotten, whereas others have to be remembered. <br><br>Note: From now on, feedback will only be displayed if you responded incorrectly or not in time.<br><br>Press SPACE to continue.</div>","32","","","","","","","","","","","","","","","","","","","",""
"html-keyboard-response","45","269364","0.0-3.0-1.0","3c5nkk3z2ur8kda","instructions","5de0803843e90d0fcc462b13","5f60e3c0a3b16e07647b2ff9","5f60f0c5891bb90108d44851","false","17631.319999985863","<div align=left>In the following part, you will thus have to remember only some pictures. <br>Immediately after seeing and classifying the picture, a symbol will be displayed, indicating whether you should remember or forget the previous picture. <br><br>A <span style='color: dodgerblue; font-size: 28px'>O</span> indicates REMEMBER. That means, you have to remember this picture, because it will be tested later. <br><br>A <span style='color: darkorange; font-size:28px'>Ø</span> indicates FORGET. You do not have to remember this picture. <br><br> As you will have to remember a lot of pictures, it will be hard for you to remember all of them. <br>It will put you at an advantage if you instantly forget the pictures you are not asked to remember. <br> This will make it easier for you to remember the pictures that will be tested afterwards. <br><br>Press SPACE to continue.</div>","32","","","","","","","","","","","","","","","","","","","",""
"html-keyboard-response","46","274301","0.0-3.0-2.0","3c5nkk3z2ur8kda","instructions","5de0803843e90d0fcc462b13","5f60e3c0a3b16e07647b2ff9","5f60f0c5891bb90108d44851","false","4934.550000005402","<div align=left> Now you have the chance to practice both tasks together.<br><br>Remember: <br> <br><li>Please place your index fingers on the <strong>'S'</strong> and <strong>'L'</strong> keys <br>to respond as fast and accurately as possible.</li><li>Every picture can be classified as either mechanical or non-mechanical.</li><li>If you do not respond in time or commit an error, you will receive a corresponding feedback. <br>Please try to respond as <strong> fast </strong> and as <strong> accurately as possible </strong>.</li><li> Please remember only the to-be-remembered <span style='color: dodgerblue; font-size: 28px'>O</span> pictures. <br></li><li> Please minimize distractions and stay focused. </li><br><br>Press SPACE to START</div>","32","","","","","","","","","","","","","","","","","","","",""
"html-keyboard-response","47","275005","0.0-3.0-3.0-0.0","3c5nkk3z2ur8kda","practice_cue","5de0803843e90d0fcc462b13","5f60e3c0a3b16e07647b2ff9","5f60f0c5891bb90108d44851","false","null","<span style=""color: black; font-size: 48px"">M + N</span>","null","","","","resp_prompt","","","","","","","","","","","","","","","",""
"categorize-image","48","275665","0.0-3.0-3.0-1.0","3c5nkk3z2ur8kda","practice_cue","5de0803843e90d0fcc462b13","5f60e3c0a3b16e07647b2ff9","5f60f0c5891bb90108d44851","true","645.8349999738857","./Stimuli/ImagesPractice/LN2.jpg","76","","","","test","true","M + N","76","","LN","LN2.jpg","forget","old","17","2","practice_forget","right","","","",""
"html-keyboard-response","49","277668","0.0-3.0-3.0-3.0","3c5nkk3z2ur8kda","practice_cue","5de0803843e90d0fcc462b13","5f60e3c0a3b16e07647b2ff9","5f60f0c5891bb90108d44851","false","null","<div style=""align-items: center; display: flex; color: darkorange; font-size: 90px""><b>ø</b></div>","null","","","","forget_cue","","","","","","","","","","","","","","","",""
"html-keyboard-response","50","278371","0.0-3.0-3.0-0.1","3c5nkk3z2ur8kda","practice_cue","5de0803843e90d0fcc462b13","5f60e3c0a3b16e07647b2ff9","5f60f0c5891bb90108d44851","false","null","<span style=""color: black; font-size: 48px"">M + N</span>","null","","","","resp_prompt","","","","","","","","","","","","","","","",""
"categorize-image","51","278889","0.0-3.0-3.0-1.1","3c5nkk3z2ur8kda","practice_cue","5de0803843e90d0fcc462b13","5f60e3c0a3b16e07647b2ff9","5f60f0c5891bb90108d44851","true","511.655000038445","./Stimuli/ImagesPractice/LN109.jpg","83","","","","test","false","M + N","76","","LN","LN109.jpg","forget","old","18","2","practice_forget","left","","","",""
"html-keyboard-response","52","279393","0.0-3.0-3.0-2.1-0.1","3c5nkk3z2ur8kda","practice_cue","5de0803843e90d0fcc462b13","5f60e3c0a3b16e07647b2ff9","5f60f0c5891bb90108d44851","false","null","<span style=""color: red; font-size: 48px"">Error!</span>","null","","","","feedback","","","","","","","","","","","","","","","",""
"html-keyboard-response","53","281396","0.0-3.0-3.0-3.1","3c5nkk3z2ur8kda","practice_cue","5de0803843e90d0fcc462b13","5f60e3c0a3b16e07647b2ff9","5f60f0c5891bb90108d44851","false","null","<div style=""align-items: center; display: flex; color: darkorange; font-size: 90px""><b>ø</b></div>","null","","","","forget_cue","","","","","","","","","","","","","","","",""
"html-keyboard-response","54","282099","0.0-3.0-3.0-0.2","3c5nkk3z2ur8kda","practice_cue","5de0803843e90d0fcc462b13","5f60e3c0a3b16e07647b2ff9","5f60f0c5891bb90108d44851","false","null","<span style=""color: black; font-size: 48px"">N + M</span>","null","","","","resp_prompt","","","","","","","","","","","","","","","",""
"categorize-image","55","283003","0.0-3.0-3.0-1.2","3c5nkk3z2ur8kda","practice_cue","5de0803843e90d0fcc462b13","5f60e3c0a3b16e07647b2ff9","5f60f0c5891bb90108d44851","true","897.3349999869242","./Stimuli/ImagesPractice/SM97.jpg","76","","","","test","true","N + M","76","","SM","SM97.jpg","remember","old","19","2","practice_forget","right","","","",""
"html-keyboard-response","56","285006","0.0-3.0-3.0-3.2","3c5nkk3z2ur8kda","practice_cue","5de0803843e90d0fcc462b13","5f60e3c0a3b16e07647b2ff9","5f60f0c5891bb90108d44851","false","null","<div style=""align-items: center; display: flex; color: dodgerblue; font-size: 90px""><b>o</b></div>","null","","","","forget_cue","","","","","","","","","","","","","","","",""
"html-keyboard-response","57","285709","0.0-3.0-3.0-0.3","3c5nkk3z2ur8kda","practice_cue","5de0803843e90d0fcc462b13","5f60e3c0a3b16e07647b2ff9","5f60f0c5891bb90108d44851","false","null","<span style=""color: black; font-size: 48px"">M + N</span>","null","","","","resp_prompt","","","","","","","","","","","","","","","",""
"categorize-image","58","286533","0.0-3.0-3.0-1.3","3c5nkk3z2ur8kda","practice_cue","5de0803843e90d0fcc462b13","5f60e3c0a3b16e07647b2ff9","5f60f0c5891bb90108d44851","true","818.9849999616854","./Stimuli/ImagesPractice/SM37.jpg","83","","","","test","true","M + N","83","","SM","SM37.jpg","forget","old","20","2","practice_forget","left","","","",""
"html-keyboard-response","59","288535","0.0-3.0-3.0-3.3","3c5nkk3z2ur8kda","practice_cue","5de0803843e90d0fcc462b13","5f60e3c0a3b16e07647b2ff9","5f60f0c5891bb90108d44851","false","null","<div style=""align-items: center; display: flex; color: darkorange; font-size: 90px""><b>ø</b></div>","null","","","","forget_cue","","","","","","","","","","","","","","","",""
"html-keyboard-response","60","289237","0.0-3.0-3.0-0.4","3c5nkk3z2ur8kda","practice_cue","5de0803843e90d0fcc462b13","5f60e3c0a3b16e07647b2ff9","5f60f0c5891bb90108d44851","false","null","<span style=""color: black; font-size: 48px"">M + N</span>","null","","","","resp_prompt","","","","","","","","","","","","","","","",""
"categorize-image","61","290108","0.0-3.0-3.0-1.4","3c5nkk3z2ur8kda","practice_cue","5de0803843e90d0fcc462b13","5f60e3c0a3b16e07647b2ff9","5f60f0c5891bb90108d44851","true","864.4250000361353","./Stimuli/ImagesPractice/LM143.jpg","83","","","","test","true","M + N","83","","LM","LM143.jpg","forget","old","21","2","practice_forget","left","","","",""
"html-keyboard-response","62","292112","0.0-3.0-3.0-3.4","3c5nkk3z2ur8kda","practice_cue","5de0803843e90d0fcc462b13","5f60e3c0a3b16e07647b2ff9","5f60f0c5891bb90108d44851","false","null","<div style=""align-items: center; display: flex; color: darkorange; font-size: 90px""><b>ø</b></div>","null","","","","forget_cue","","","","","","","","","","","","","","","",""
"html-keyboard-response","63","292814","0.0-3.0-3.0-0.5","3c5nkk3z2ur8kda","practice_cue","5de0803843e90d0fcc462b13","5f60e3c0a3b16e07647b2ff9","5f60f0c5891bb90108d44851","false","null","<span style=""color: black; font-size: 48px"">N + M</span>","null","","","","resp_prompt","","","","","","","","","","","","","","","",""
"categorize-image","64","293571","0.0-3.0-3.0-1.5","3c5nkk3z2ur8kda","practice_cue","5de0803843e90d0fcc462b13","5f60e3c0a3b16e07647b2ff9","5f60f0c5891bb90108d44851","true","750.7350000087172","./Stimuli/ImagesPractice/SM61.jpg","83","","","","test","false","N + M","76","","SM","SM61.jpg","remember","old","22","2","practice_forget","left","","","",""
"html-keyboard-response","65","294073","0.0-3.0-3.0-2.5-0.5","3c5nkk3z2ur8kda","practice_cue","5de0803843e90d0fcc462b13","5f60e3c0a3b16e07647b2ff9","5f60f0c5891bb90108d44851","false","null","<span style=""color: red; font-size: 48px"">Error!</span>","null","","","","feedback","","","","","","","","","","","","","","","",""
"html-keyboard-response","66","296077","0.0-3.0-3.0-3.5","3c5nkk3z2ur8kda","practice_cue","5de0803843e90d0fcc462b13","5f60e3c0a3b16e07647b2ff9","5f60f0c5891bb90108d44851","false","null","<div style=""align-items: center; display: flex; color: dodgerblue; font-size: 90px""><b>o</b></div>","null","","","","forget_cue","","","","","","","","","","","","","","","",""
"html-keyboard-response","67","296780","0.0-3.0-3.0-0.6","3c5nkk3z2ur8kda","practice_cue","5de0803843e90d0fcc462b13","5f60e3c0a3b16e07647b2ff9","5f60f0c5891bb90108d44851","false","null","<span style=""color: black; font-size: 48px"">N + M</span>","null","","","","resp_prompt","","","","","","","","","","","","","","","",""
"categorize-image","68","297681","0.0-3.0-3.0-1.6","3c5nkk3z2ur8kda","practice_cue","5de0803843e90d0fcc462b13","5f60e3c0a3b16e07647b2ff9","5f60f0c5891bb90108d44851","true","893.2899999781512","./Stimuli/ImagesPractice/LN15.jpg","76","","","","test","false","N + M","83","","LN","LN15.jpg","remember","old","23","2","practice_forget","right","","","",""
"html-keyboard-response","69","298184","0.0-3.0-3.0-2.6-0.6","3c5nkk3z2ur8kda","practice_cue","5de0803843e90d0fcc462b13","5f60e3c0a3b16e07647b2ff9","5f60f0c5891bb90108d44851","false","null","<span style=""color: red; font-size: 48px"">Error!</span>","null","","","","feedback","","","","","","","","","","","","","","","",""
"html-keyboard-response","70","300187","0.0-3.0-3.0-3.6","3c5nkk3z2ur8kda","practice_cue","5de0803843e90d0fcc462b13","5f60e3c0a3b16e07647b2ff9","5f60f0c5891bb90108d44851","false","null","<div style=""align-items: center; display: flex; color: dodgerblue; font-size: 90px""><b>o</b></div>","null","","","","forget_cue","","","","","","","","","","","","","","","",""
"html-keyboard-response","71","300890","0.0-3.0-3.0-0.7","3c5nkk3z2ur8kda","practice_cue","5de0803843e90d0fcc462b13","5f60e3c0a3b16e07647b2ff9","5f60f0c5891bb90108d44851","false","null","<span style=""color: black; font-size: 48px"">M + N</span>","null","","","","resp_prompt","","","","","","","","","","","","","","","",""
"categorize-image","72","301902","0.0-3.0-3.0-1.7","3c5nkk3z2ur8kda","practice_cue","5de0803843e90d0fcc462b13","5f60e3c0a3b16e07647b2ff9","5f60f0c5891bb90108d44851","true","1004.7950000152923","./Stimuli/ImagesPractice/SN75.jpg","76","","","","test","true","M + N","76","","SN","SN75.jpg","remember","old","24","2","practice_forget","right","","","",""
"html-keyboard-response","73","303905","0.0-3.0-3.0-3.7","3c5nkk3z2ur8kda","practice_cue","5de0803843e90d0fcc462b13","5f60e3c0a3b16e07647b2ff9","5f60f0c5891bb90108d44851","false","null","<div style=""align-items: center; display: flex; color: dodgerblue; font-size: 90px""><b>o</b></div>","null","","","","forget_cue","","","","","","","","","","","","","","","",""
"html-keyboard-response","74","304607","0.0-3.0-3.0-0.8","3c5nkk3z2ur8kda","practice_cue","5de0803843e90d0fcc462b13","5f60e3c0a3b16e07647b2ff9","5f60f0c5891bb90108d44851","false","null","<span style=""color: black; font-size: 48px"">N + M</span>","null","","","","resp_prompt","","","","","","","","","","","","","","","",""
"categorize-image","75","305698","0.0-3.0-3.0-1.8","3c5nkk3z2ur8kda","practice_cue","5de0803843e90d0fcc462b13","5f60e3c0a3b16e07647b2ff9","5f60f0c5891bb90108d44851","true","1083.954999980051","./Stimuli/ImagesPractice/SN220.jpg","83","","","","test","true","N + M","83","","SN","SN220.jpg","forget","old","25","2","practice_forget","left","","","",""
"html-keyboard-response","76","307701","0.0-3.0-3.0-3.8","3c5nkk3z2ur8kda","practice_cue","5de0803843e90d0fcc462b13","5f60e3c0a3b16e07647b2ff9","5f60f0c5891bb90108d44851","false","null","<div style=""align-items: center; display: flex; color: darkorange; font-size: 90px""><b>ø</b></div>","null","","","","forget_cue","","","","","","","","","","","","","","","",""
"html-keyboard-response","77","308404","0.0-3.0-3.0-0.9","3c5nkk3z2ur8kda","practice_cue","5de0803843e90d0fcc462b13","5f60e3c0a3b16e07647b2ff9","5f60f0c5891bb90108d44851","false","null","<span style=""color: black; font-size: 48px"">M + N</span>","null","","","","resp_prompt","","","","","","","","","","","","","","","",""
"categorize-image","78","309288","0.0-3.0-3.0-1.9","3c5nkk3z2ur8kda","practice_cue","5de0803843e90d0fcc462b13","5f60e3c0a3b16e07647b2ff9","5f60f0c5891bb90108d44851","true","869.6950000012293","./Stimuli/ImagesPractice/SM62.jpg","83","","","","test","true","M + N","83","","SM","SM62.jpg","remember","old","26","2","practice_forget","left","","","",""
"html-keyboard-response","79","311289","0.0-3.0-3.0-3.9","3c5nkk3z2ur8kda","practice_cue","5de0803843e90d0fcc462b13","5f60e3c0a3b16e07647b2ff9","5f60f0c5891bb90108d44851","false","null","<div style=""align-items: center; display: flex; color: dodgerblue; font-size: 90px""><b>o</b></div>","null","","","","forget_cue","","","","","","","","","","","","","","","",""
"html-keyboard-response","80","311991","0.0-3.0-3.0-0.10","3c5nkk3z2ur8kda","practice_cue","5de0803843e90d0fcc462b13","5f60e3c0a3b16e07647b2ff9","5f60f0c5891bb90108d44851","false","null","<span style=""color: black; font-size: 48px"">N + M</span>","null","","","","resp_prompt","","","","","","","","","","","","","","","",""
"categorize-image","81","312965","0.0-3.0-3.0-1.10","3c5nkk3z2ur8kda","practice_cue","5de0803843e90d0fcc462b13","5f60e3c0a3b16e07647b2ff9","5f60f0c5891bb90108d44851","true","967.5500000012107","./Stimuli/ImagesPractice/SM35.jpg","76","","","","test","true","N + M","76","","SM","SM35.jpg","forget","old","27","2","practice_forget","right","","","",""
"html-keyboard-response","82","314969","0.0-3.0-3.0-3.10","3c5nkk3z2ur8kda","practice_cue","5de0803843e90d0fcc462b13","5f60e3c0a3b16e07647b2ff9","5f60f0c5891bb90108d44851","false","null","<div style=""align-items: center; display: flex; color: darkorange; font-size: 90px""><b>ø</b></div>","null","","","","forget_cue","","","","","","","","","","","","","","","",""
"html-keyboard-response","83","315671","0.0-3.0-3.0-0.11","3c5nkk3z2ur8kda","practice_cue","5de0803843e90d0fcc462b13","5f60e3c0a3b16e07647b2ff9","5f60f0c5891bb90108d44851","false","null","<span style=""color: black; font-size: 48px"">N + M</span>","null","","","","resp_prompt","","","","","","","","","","","","","","","",""
"categorize-image","84","316325","0.0-3.0-3.0-1.11","3c5nkk3z2ur8kda","practice_cue","5de0803843e90d0fcc462b13","5f60e3c0a3b16e07647b2ff9","5f60f0c5891bb90108d44851","true","646.5449999668635","./Stimuli/ImagesPractice/SN205.jpg","83","","","","test","true","N + M","83","","SN","SN205.jpg","remember","old","28","2","practice_forget","left","","","",""
"html-keyboard-response","85","318328","0.0-3.0-3.0-3.11","3c5nkk3z2ur8kda","practice_cue","5de0803843e90d0fcc462b13","5f60e3c0a3b16e07647b2ff9","5f60f0c5891bb90108d44851","false","null","<div style=""align-items: center; display: flex; color: dodgerblue; font-size: 90px""><b>o</b></div>","null","","","","forget_cue","","","","","","","","","","","","","","","",""
"html-keyboard-response","86","319031","0.0-3.0-3.0-0.12","3c5nkk3z2ur8kda","practice_cue","5de0803843e90d0fcc462b13","5f60e3c0a3b16e07647b2ff9","5f60f0c5891bb90108d44851","false","null","<span style=""color: black; font-size: 48px"">N + M</span>","null","","","","resp_prompt","","","","","","","","","","","","","","","",""
"categorize-image","87","320097","0.0-3.0-3.0-1.12","3c5nkk3z2ur8kda","practice_cue","5de0803843e90d0fcc462b13","5f60e3c0a3b16e07647b2ff9","5f60f0c5891bb90108d44851","true","1058.7149999919347","./Stimuli/ImagesPractice/LN4.jpg","83","","","","test","true","N + M","83","","LN","LN4.jpg","forget","old","29","2","practice_forget","left","","","",""
"html-keyboard-response","88","322100","0.0-3.0-3.0-3.12","3c5nkk3z2ur8kda","practice_cue","5de0803843e90d0fcc462b13","5f60e3c0a3b16e07647b2ff9","5f60f0c5891bb90108d44851","false","null","<div style=""align-items: center; display: flex; color: darkorange; font-size: 90px""><b>ø</b></div>","null","","","","forget_cue","","","","","","","","","","","","","","","",""
"html-keyboard-response","89","322802","0.0-3.0-3.0-0.13","3c5nkk3z2ur8kda","practice_cue","5de0803843e90d0fcc462b13","5f60e3c0a3b16e07647b2ff9","5f60f0c5891bb90108d44851","false","null","<span style=""color: black; font-size: 48px"">N + M</span>","null","","","","resp_prompt","","","","","","","","","","","","","","","",""
"categorize-image","90","323553","0.0-3.0-3.0-1.13","3c5nkk3z2ur8kda","practice_cue","5de0803843e90d0fcc462b13","5f60e3c0a3b16e07647b2ff9","5f60f0c5891bb90108d44851","true","743.964999972377","./Stimuli/ImagesPractice/SN76.jpg","83","","","","test","true","N + M","83","","SN","SN76.jpg","forget","old","30","2","practice_forget","left","","","",""
"html-keyboard-response","91","325556","0.0-3.0-3.0-3.13","3c5nkk3z2ur8kda","practice_cue","5de0803843e90d0fcc462b13","5f60e3c0a3b16e07647b2ff9","5f60f0c5891bb90108d44851","false","null","<div style=""align-items: center; display: flex; color: darkorange; font-size: 90px""><b>ø</b></div>","null","","","","forget_cue","","","","","","","","","","","","","","","",""
"html-keyboard-response","92","326260","0.0-3.0-3.0-0.14","3c5nkk3z2ur8kda","practice_cue","5de0803843e90d0fcc462b13","5f60e3c0a3b16e07647b2ff9","5f60f0c5891bb90108d44851","false","null","<span style=""color: black; font-size: 48px"">M + N</span>","null","","","","resp_prompt","","","","","","","","","","","","","","","",""
"categorize-image","93","327519","0.0-3.0-3.0-1.14","3c5nkk3z2ur8kda","practice_cue","5de0803843e90d0fcc462b13","5f60e3c0a3b16e07647b2ff9","5f60f0c5891bb90108d44851","true","1254.1349999955855","./Stimuli/ImagesPractice/SN222.jpg","83","","","","test","false","M + N","76","","SN","SN222.jpg","remember","old","31","2","practice_forget","left","","","",""
"html-keyboard-response","94","328023","0.0-3.0-3.0-2.14-0.14","3c5nkk3z2ur8kda","practice_cue","5de0803843e90d0fcc462b13","5f60e3c0a3b16e07647b2ff9","5f60f0c5891bb90108d44851","false","null","<span style=""color: red; font-size: 48px"">Error!</span>","null","","","","feedback","","","","","","","","","","","","","","","",""
"html-keyboard-response","95","330026","0.0-3.0-3.0-3.14","3c5nkk3z2ur8kda","practice_cue","5de0803843e90d0fcc462b13","5f60e3c0a3b16e07647b2ff9","5f60f0c5891bb90108d44851","false","null","<div style=""align-items: center; display: flex; color: dodgerblue; font-size: 90px""><b>o</b></div>","null","","","","forget_cue","","","","","","","","","","","","","","","",""
"html-keyboard-response","96","330729","0.0-3.0-3.0-0.15","3c5nkk3z2ur8kda","practice_cue","5de0803843e90d0fcc462b13","5f60e3c0a3b16e07647b2ff9","5f60f0c5891bb90108d44851","false","null","<span style=""color: black; font-size: 48px"">M + N</span>","null","","","","resp_prompt","","","","","","","","","","","","","","","",""
"categorize-image","97","331528","0.0-3.0-3.0-1.15","3c5nkk3z2ur8kda","practice_cue","5de0803843e90d0fcc462b13","5f60e3c0a3b16e07647b2ff9","5f60f0c5891bb90108d44851","true","791.6299999924377","./Stimuli/ImagesPractice/LM230.jpg","76","","","","test","false","M + N","83","","LM","LM230.jpg","remember","old","32","2","practice_forget","right","","","",""
"html-keyboard-response","98","332031","0.0-3.0-3.0-2.15-0.15","3c5nkk3z2ur8kda","practice_cue","5de0803843e90d0fcc462b13","5f60e3c0a3b16e07647b2ff9","5f60f0c5891bb90108d44851","false","null","<span style=""color: red; font-size: 48px"">Error!</span>","null","","","","feedback","","","","","","","","","","","","","","","",""
"html-keyboard-response","99","334033","0.0-3.0-3.0-3.15","3c5nkk3z2ur8kda","practice_cue","5de0803843e90d0fcc462b13","5f60e3c0a3b16e07647b2ff9","5f60f0c5891bb90108d44851","false","null","<div style=""align-items: center; display: flex; color: dodgerblue; font-size: 90px""><b>o</b></div>","null","","","","forget_cue","","","","","","","","","","","","","","","",""
"html-keyboard-response","100","344836","0.0-3.0-4.0","3c5nkk3z2ur8kda","break","5de0803843e90d0fcc462b13","5f60e3c0a3b16e07647b2ff9","5f60f0c5891bb90108d44851","false","10799.614999967162","<p style='font-size: 32px;'>Break</><br><br><br><br><br><p style='font-size: 24px;'>In the last block, you committed 5 errors and did not respond in time on 0 trials.
</p><p style='font-size: 24px;'>Try to respond as fast and accurately as possible in the next block as well! </p><p style='font-size: 24px;'>Press SPACE to continue.</p>","32","","","","","","","","","","","","","","","","","","","",""
"html-keyboard-response","101","348452","0.0-3.0-5.0","3c5nkk3z2ur8kda","instructions","5de0803843e90d0fcc462b13","5f60e3c0a3b16e07647b2ff9","5f60f0c5891bb90108d44851","false","3614.865000010468","<div align=left> Now, to practice, we kindly ask you to remember as many of the to-be-remembered pictures<br>of the previous learning phase as possible.<br><br>The pictures you were instructed to remember were the pictures followed by a <span style='color: dodgerblue; font-size: 28px'>O</span>.<br><br>In this memory test phase, you will also see some new pictures.<br>It is your task to remember whether you were presented with this specific picture in this study so far or not.<br>If you recognize an object (you have already seen it in this study), it is an OLD object. <br>If you do not recognize an object (you have NOT seen it in this study), it is a NEW object. <br><strong> Attention</strong>: As already mentioned, <span style='color: darkorange; font-size:28px'>Ø</span>-pictures will <strong>never</strong> appear in this memory test (neither as new objects). <br><br>Press SPACE to continue. </div>","32","","","","","","","","","","","","","","","","","","","",""
"html-keyboard-response","102","361561","0.0-3.0-6.0","3c5nkk3z2ur8kda","instructions","5de0803843e90d0fcc462b13","5f60e3c0a3b16e07647b2ff9","5f60f0c5891bb90108d44851","false","13105.349999968894","<div align=left> M and N no longer will appear on the left/right of the fixation cross. <br>Instead there will be a note at the bottom of the left or right side  <br>indicating which key you should press for an old or new object:  <br> <br>Press the <strong>right</strong> key to classify an object as <strong>old</strong> and press the <strong>left</strong>, to classify an object as <strong>new</strong>.<br>Please classify the objects as new/old by again placing your index finger on the 'S' and 'L' keys <br>and press them accordingly.<br><br><strong>Old:</strong> This object has been presented before. <br><strong>New:</strong> This object has <strong>not</strong> been presented.<br><br>Now please put your right and left index fingers on the 'S' and 'L' keys of your keyboard. <br>Please respond as fast and as accurately as possible!<br><br>Press SPACE to continue. </div>","32","","","","","","","","","","","","","","","","","","","",""
"categorize-image","103","363263","0.0-3.0-7.0-0.0","3c5nkk3z2ur8kda","practice_recog","5de0803843e90d0fcc462b13","5f60e3c0a3b16e07647b2ff9","5f60f0c5891bb90108d44851","true","1197.0600000349805","./Stimuli/ImagesPractice/LM147.jpg","76","","","","test","false","","83","","LM","LM147.jpg","","new","33","3","practice_recog","right","","","",""
"categorize-image","104","365180","0.0-3.0-7.0-0.1","3c5nkk3z2ur8kda","practice_recog","5de0803843e90d0fcc462b13","5f60e3c0a3b16e07647b2ff9","5f60f0c5891bb90108d44851","true","1411.8400000152178","./Stimuli/ImagesPractice/LM239.jpg","76","","","","test","false","","83","","LM","LM239.jpg","","new","34","3","practice_recog","right","","","",""
"categorize-image","105","367171","0.0-3.0-7.0-0.2","3c5nkk3z2ur8kda","practice_recog","5de0803843e90d0fcc462b13","5f60e3c0a3b16e07647b2ff9","5f60f0c5891bb90108d44851","true","1487.775000045076","./Stimuli/ImagesPractice/SM62.jpg","83","","","","test","false","","76","","SM","SM62.jpg","","old","35","3","practice_recog","left","","","",""
"categorize-image","106","368871","0.0-3.0-7.0-0.3","3c5nkk3z2ur8kda","practice_recog","5de0803843e90d0fcc462b13","5f60e3c0a3b16e07647b2ff9","5f60f0c5891bb90108d44851","true","1195.030000002589","./Stimuli/ImagesPractice/LM230.jpg","76","","","","test","true","","76","","LM","LM230.jpg","","old","36","3","practice_recog","right","","","",""
"categorize-image","107","370196","0.0-3.0-7.0-0.4","3c5nkk3z2ur8kda","practice_recog","5de0803843e90d0fcc462b13","5f60e3c0a3b16e07647b2ff9","5f60f0c5891bb90108d44851","true","820.5150000285357","./Stimuli/ImagesPractice/SM97.jpg","76","","","","test","true","","76","","SM","SM97.jpg","","old","37","3","practice_recog","right","","","",""
"categorize-image","108","371619","0.0-3.0-7.0-0.5","3c5nkk3z2ur8kda","practice_recog","5de0803843e90d0fcc462b13","5f60e3c0a3b16e07647b2ff9","5f60f0c5891bb90108d44851","true","917.9599999915808","./Stimuli/ImagesPractice/LM224.jpg","83","","","","test","true","","83","","LM","LM224.jpg","","new","38","3","practice_recog","left","","","",""
"categorize-image","109","373171","0.0-3.0-7.0-0.6","3c5nkk3z2ur8kda","practice_recog","5de0803843e90d0fcc462b13","5f60e3c0a3b16e07647b2ff9","5f60f0c5891bb90108d44851","true","1048.2450000126846","./Stimuli/ImagesPractice/SN221.jpg","83","","","","test","true","","83","","SN","SN221.jpg","","new","39","3","practice_recog","left","","","",""
"categorize-image","110","374433","0.0-3.0-7.0-0.7","3c5nkk3z2ur8kda","practice_recog","5de0803843e90d0fcc462b13","5f60e3c0a3b16e07647b2ff9","5f60f0c5891bb90108d44851","true","757.0600000326522","./Stimuli/ImagesPractice/LN72.jpg","83","","","","test","true","","83","","LN","LN72.jpg","","new","40","3","practice_recog","left","","","",""
"categorize-image","111","375748","0.0-3.0-7.0-0.8","3c5nkk3z2ur8kda","practice_recog","5de0803843e90d0fcc462b13","5f60e3c0a3b16e07647b2ff9","5f60f0c5891bb90108d44851","true","811.420000041835","./Stimuli/ImagesPractice/SM98.jpg","83","","","","test","true","","83","","SM","SM98.jpg","","new","41","3","practice_recog","left","","","",""
"categorize-image","112","377041","0.0-3.0-7.0-0.9","3c5nkk3z2ur8kda","practice_recog","5de0803843e90d0fcc462b13","5f60e3c0a3b16e07647b2ff9","5f60f0c5891bb90108d44851","true","787.769999995362","./Stimuli/ImagesPractice/SM61.jpg","76","","","","test","true","","76","","SM","SM61.jpg","","old","42","3","practice_recog","right","","","",""
"categorize-image","113","378167","0.0-3.0-7.0-0.10","3c5nkk3z2ur8kda","practice_recog","5de0803843e90d0fcc462b13","5f60e3c0a3b16e07647b2ff9","5f60f0c5891bb90108d44851","true","622.3100000061095","./Stimuli/ImagesPractice/SN222.jpg","76","","","","test","true","","76","","SN","SN222.jpg","","old","43","3","practice_recog","right","","","",""
"categorize-image","114","379431","0.0-3.0-7.0-0.11","3c5nkk3z2ur8kda","practice_recog","5de0803843e90d0fcc462b13","5f60e3c0a3b16e07647b2ff9","5f60f0c5891bb90108d44851","true","757.6500000432134","./Stimuli/ImagesPractice/SN205.jpg","76","","","","test","true","","76","","SN","SN205.jpg","","old","44","3","practice_recog","right","","","",""
"categorize-image","115","381132","0.0-3.0-7.0-0.12","3c5nkk3z2ur8kda","practice_recog","5de0803843e90d0fcc462b13","5f60e3c0a3b16e07647b2ff9","5f60f0c5891bb90108d44851","true","1196.17000001017","./Stimuli/ImagesPractice/LM55.jpg","83","","","","test","true","","83","","LM","LM55.jpg","","new","45","3","practice_recog","left","","","",""
"categorize-image","116","382349","0.0-3.0-7.0-0.13","3c5nkk3z2ur8kda","practice_recog","5de0803843e90d0fcc462b13","5f60e3c0a3b16e07647b2ff9","5f60f0c5891bb90108d44851","true","712.630000023637","./Stimuli/ImagesPractice/LN17.jpg","83","","","","test","true","","83","","LN","LN17.jpg","","new","46","3","practice_recog","left","","","",""
"categorize-image","117","383990","0.0-3.0-7.0-0.14","3c5nkk3z2ur8kda","practice_recog","5de0803843e90d0fcc462b13","5f60e3c0a3b16e07647b2ff9","5f60f0c5891bb90108d44851","true","1135.2649999898858","./Stimuli/ImagesPractice/LN15.jpg","83","","","","test","false","","76","","LN","LN15.jpg","","old","47","3","practice_recog","left","","","",""
"categorize-image","118","385261","0.0-3.0-7.0-0.15","3c5nkk3z2ur8kda","practice_recog","5de0803843e90d0fcc462b13","5f60e3c0a3b16e07647b2ff9","5f60f0c5891bb90108d44851","true","768.2149999891408","./Stimuli/ImagesPractice/SN75.jpg","83","","","","test","false","","76","","SN","SN75.jpg","","old","48","3","practice_recog","left","","","",""
"html-keyboard-response","119","388031","0.0-3.0-8.0","3c5nkk3z2ur8kda","instructions","5de0803843e90d0fcc462b13","5f60e3c0a3b16e07647b2ff9","5f60f0c5891bb90108d44851","false","2767.1550000086427","<div align=left> Great!<br><br>Are you ready to continue?<br>If you want to reread the instructions and redo the practice trials, please <br>press „Z“.<br><br>You can proceed when you are ready.<br><br>After the presentation of each object, you will receive an instruction whether to <br>remember or to forget the object.<br>We will test your memory of the following pictures only at the very end of <br>the experiment after all learning blocks are completed. <br><br>Press SPACE to CONTINUE when you are ready. </div>","32","","","","","","","","","","","","","","","","","","","",""
"html-keyboard-response","120","389202","0.0-4.0-0.0","3c5nkk3z2ur8kda","instructions","5de0803843e90d0fcc462b13","5f60e3c0a3b16e07647b2ff9","5f60f0c5891bb90108d44851","false","1167.8749999846332","<div align=left> The actual experiment is about to start.<br>The practice trials are over!<br><br>Please always respond both fast and accurately!<br><br>Remember: <br> <br><li> Please place your index fingers on the <strong>'S'</strong> and <strong>'L'</strong> keys <br>to respond as fast and accurately as possible.</li><li> Every picture can be classified as either mechanical or non-mechanical.</li><li> If you do not respond in time or commit an error, you will receive a corresponding feedback.<br> Please try to respond as <strong> fast </strong> and as <strong> accurately as possible </strong>.</li><li> Remember the <span style='color: dodgerblue; font-size: 28px'>O</span> pictures. <br></li><li> Please minimize distractions and stay focused. </li><br><br>Press SPACE to START.</div>","32","","","","","","","","","","","","","","","","","","","",""
"html-keyboard-response","121","389904","0.0-4.0-1.0-0.0","3c5nkk3z2ur8kda","prime","5de0803843e90d0fcc462b13","5f60e3c0a3b16e07647b2ff9","5f60f0c5891bb90108d44851","false","null","<span style=""color: black; font-size: 48px"">N + M</span>","null","","","","resp_prompt","","","","","","","","","","","","","","","",""
"categorize-image","122","390867","0.0-4.0-1.0-1.0","3c5nkk3z2ur8kda","prime","5de0803843e90d0fcc462b13","5f60e3c0a3b16e07647b2ff9","5f60f0c5891bb90108d44851","true","955.5350000155158","./Stimuli/SelectedImages/SN/SN49.bmp","83","","","","test","true","N + M","83","repetition","SN","SN49.bmp","forget","","49","3","prime1","left","","","",""
"html-keyboard-response","123","392871","0.0-4.0-1.0-3.0","3c5nkk3z2ur8kda","prime","5de0803843e90d0fcc462b13","5f60e3c0a3b16e07647b2ff9","5f60f0c5891bb90108d44851","false","null","<div style=""align-items: center; display: flex; color: darkorange; font-size: 90px""><b>ø</b></div>","null","","","","forget_cue","","","","","","","","","","","","","","","",""
"html-keyboard-response","124","393574","0.0-4.0-1.0-0.1","3c5nkk3z2ur8kda","prime","5de0803843e90d0fcc462b13","5f60e3c0a3b16e07647b2ff9","5f60f0c5891bb90108d44851","false","null","<span style=""color: black; font-size: 48px"">N + M</span>","null","","","","resp_prompt","","","","","","","","","","","","","","","",""
"categorize-image","125","394947","0.0-4.0-1.0-1.1","3c5nkk3z2ur8kda","prime","5de0803843e90d0fcc462b13","5f60e3c0a3b16e07647b2ff9","5f60f0c5891bb90108d44851","true","1367.0300000230782","./Stimuli/SelectedImages/LN/LN28.bmp","83","","","","test","true","N + M","83","switch","LN","LN28.bmp","forget","","50","3","prime1","left","","","",""
"html-keyboard-response","126","396950","0.0-4.0-1.0-3.1","3c5nkk3z2ur8kda","prime","5de0803843e90d0fcc462b13","5f60e3c0a3b16e07647b2ff9","5f60f0c5891bb90108d44851","false","null","<div style=""align-items: center; display: flex; color: darkorange; font-size: 90px""><b>ø</b></div>","null","","","","forget_cue","","","","","","","","","","","","","","","",""
"html-keyboard-response","127","397653","0.0-4.0-1.0-0.2","3c5nkk3z2ur8kda","prime","5de0803843e90d0fcc462b13","5f60e3c0a3b16e07647b2ff9","5f60f0c5891bb90108d44851","false","null","<span style=""color: black; font-size: 48px"">N + M</span>","null","","","","resp_prompt","","","","","","","","","","","","","","","",""
"categorize-image","128","398359","0.0-4.0-1.0-1.2","3c5nkk3z2ur8kda","prime","5de0803843e90d0fcc462b13","5f60e3c0a3b16e07647b2ff9","5f60f0c5891bb90108d44851","true","699.4749999721535","./Stimuli/SelectedImages/SM/SM78.bmp","76","","","","test","true","N + M","76","repetition","SM","SM78.bmp","remember","","51","3","prime1","right","","","",""
"html-keyboard-response","129","400361","0.0-4.0-1.0-3.2","3c5nkk3z2ur8kda","prime","5de0803843e90d0fcc462b13","5f60e3c0a3b16e07647b2ff9","5f60f0c5891bb90108d44851","false","null","<div style=""align-items: center; display: flex; color: dodgerblue; font-size: 90px""><b>o</b></div>","null","","","","forget_cue","","","","","","","","","","","","","","","",""
"html-keyboard-response","130","401064","0.0-4.0-1.0-0.3","3c5nkk3z2ur8kda","prime","5de0803843e90d0fcc462b13","5f60e3c0a3b16e07647b2ff9","5f60f0c5891bb90108d44851","false","null","<span style=""color: black; font-size: 48px"">N + M</span>","null","","","","resp_prompt","","","","","","","","","","","","","","","",""
"categorize-image","131","402176","0.0-4.0-1.0-1.3","3c5nkk3z2ur8kda","prime","5de0803843e90d0fcc462b13","5f60e3c0a3b16e07647b2ff9","5f60f0c5891bb90108d44851","true","1104.6450000139885","./Stimuli/SelectedImages/SM/SM195.bmp","76","","","","test","true","N + M","76","switch","SM","SM195.bmp","forget","","52","3","prime1","right","","","",""
"html-keyboard-response","132","404179","0.0-4.0-1.0-3.3","3c5nkk3z2ur8kda","prime","5de0803843e90d0fcc462b13","5f60e3c0a3b16e07647b2ff9","5f60f0c5891bb90108d44851","false","null","<div style=""align-items: center; display: flex; color: darkorange; font-size: 90px""><b>ø</b></div>","null","","","","forget_cue","","","","","","","","","","","","","","","",""
"html-keyboard-response","133","404885","0.0-4.0-1.0-0.4","3c5nkk3z2ur8kda","prime","5de0803843e90d0fcc462b13","5f60e3c0a3b16e07647b2ff9","5f60f0c5891bb90108d44851","false","null","<span style=""color: black; font-size: 48px"">N + M</span>","null","","","","resp_prompt","","","","","","","","","","","","","","","",""
"categorize-image","134","405940","0.0-4.0-1.0-1.4","3c5nkk3z2ur8kda","prime","5de0803843e90d0fcc462b13","5f60e3c0a3b16e07647b2ff9","5f60f0c5891bb90108d44851","true","1048.8699999987148","./Stimuli/SelectedImages/SN/SN52.bmp","83","","","","test","true","N + M","83","switch","SN","SN52.bmp","remember","","53","3","prime1","left","","","",""
"html-keyboard-response","135","407943","0.0-4.0-1.0-3.4","3c5nkk3z2ur8kda","prime","5de0803843e90d0fcc462b13","5f60e3c0a3b16e07647b2ff9","5f60f0c5891bb90108d44851","false","null","<div style=""align-items: center; display: flex; color: dodgerblue; font-size: 90px""><b>o</b></div>","null","","","","forget_cue","","","","","","","","","","","","","","","",""
"html-keyboard-response","136","408646","0.0-4.0-1.0-0.5","3c5nkk3z2ur8kda","prime","5de0803843e90d0fcc462b13","5f60e3c0a3b16e07647b2ff9","5f60f0c5891bb90108d44851","false","null","<span style=""color: black; font-size: 48px"">N + M</span>","null","","","","resp_prompt","","","","","","","","","","","","","","","",""
"categorize-image","137","409576","0.0-4.0-1.0-1.5","3c5nkk3z2ur8kda","prime","5de0803843e90d0fcc462b13","5f60e3c0a3b16e07647b2ff9","5f60f0c5891bb90108d44851","true","923.6500000115484","./Stimuli/SelectedImages/SN/SN111.bmp","83","","","","test","true","N + M","83","repetition","SN","SN111.bmp","remember","","54","3","prime1","left","","","",""
"html-keyboard-response","138","411579","0.0-4.0-1.0-3.5","3c5nkk3z2ur8kda","prime","5de0803843e90d0fcc462b13","5f60e3c0a3b16e07647b2ff9","5f60f0c5891bb90108d44851","false","null","<div style=""align-items: center; display: flex; color: dodgerblue; font-size: 90px""><b>o</b></div>","null","","","","forget_cue","","","","","","","","","","","","","","","",""
"html-keyboard-response","139","412282","0.0-4.0-1.0-0.6","3c5nkk3z2ur8kda","prime","5de0803843e90d0fcc462b13","5f60e3c0a3b16e07647b2ff9","5f60f0c5891bb90108d44851","false","null","<span style=""color: black; font-size: 48px"">M + N</span>","null","","","","resp_prompt","","","","","","","","","","","","","","","",""
"categorize-image","140","413332","0.0-4.0-1.0-1.6","3c5nkk3z2ur8kda","prime","5de0803843e90d0fcc462b13","5f60e3c0a3b16e07647b2ff9","5f60f0c5891bb90108d44851","true","1044.1850000061095","./Stimuli/SelectedImages/SN/SN140.bmp","76","","","","test","true","M + N","76","switch","SN","SN140.bmp","remember","","55","3","prime1","right","","","",""
"html-keyboard-response","141","415336","0.0-4.0-1.0-3.6","3c5nkk3z2ur8kda","prime","5de0803843e90d0fcc462b13","5f60e3c0a3b16e07647b2ff9","5f60f0c5891bb90108d44851","false","null","<div style=""align-items: center; display: flex; color: dodgerblue; font-size: 90px""><b>o</b></div>","null","","","","forget_cue","","","","","","","","","","","","","","","",""
"html-keyboard-response","142","416038","0.0-4.0-1.0-0.7","3c5nkk3z2ur8kda","prime","5de0803843e90d0fcc462b13","5f60e3c0a3b16e07647b2ff9","5f60f0c5891bb90108d44851","false","null","<span style=""color: black; font-size: 48px"">M + N</span>","null","","","","resp_prompt","","","","","","","","","","","","","","","",""
"categorize-image","143","416863","0.0-4.0-1.0-1.7","3c5nkk3z2ur8kda","prime","5de0803843e90d0fcc462b13","5f60e3c0a3b16e07647b2ff9","5f60f0c5891bb90108d44851","true","818.8349999836646","./Stimuli/SelectedImages/LN/LN82.bmp","83","","","","test","false","M + N","76","repetition","LN","LN82.bmp","forget","","56","3","prime1","left","","","",""
"html-keyboard-response","144","417366","0.0-4.0-1.0-2.7-0.7","3c5nkk3z2ur8kda","prime","5de0803843e90d0fcc462b13","5f60e3c0a3b16e07647b2ff9","5f60f0c5891bb90108d44851","false","null","<span style=""color: red; font-size: 48px"">Error!</span>","null","","","","feedback","","","","","","","","","","","","","","","",""
"html-keyboard-response","145","419369","0.0-4.0-1.0-3.7","3c5nkk3z2ur8kda","prime","5de0803843e90d0fcc462b13","5f60e3c0a3b16e07647b2ff9","5f60f0c5891bb90108d44851","false","null","<div style=""align-items: center; display: flex; color: darkorange; font-size: 90px""><b>ø</b></div>","null","","","","forget_cue","","","","","","","","","","","","","","","",""
"html-keyboard-response","146","420071","0.0-4.0-1.0-0.8","3c5nkk3z2ur8kda","prime","5de0803843e90d0fcc462b13","5f60e3c0a3b16e07647b2ff9","5f60f0c5891bb90108d44851","false","null","<span style=""color: black; font-size: 48px"">M + N</span>","null","","","","resp_prompt","","","","","","","","","","","","","","","",""
"categorize-image","147","421966","0.0-4.0-1.0-1.8","3c5nkk3z2ur8kda","prime","5de0803843e90d0fcc462b13","5f60e3c0a3b16e07647b2ff9","5f60f0c5891bb90108d44851","true","1888.7149999500252","./Stimuli/SelectedImages/LN/LN150.bmp","76","","","","test","true","M + N","76","switch","LN","LN150.bmp","remember","","57","3","prime1","right","","","",""
"html-keyboard-response","148","423969","0.0-4.0-1.0-3.8","3c5nkk3z2ur8kda","prime","5de0803843e90d0fcc462b13","5f60e3c0a3b16e07647b2ff9","5f60f0c5891bb90108d44851","false","null","<div style=""align-items: center; display: flex; color: dodgerblue; font-size: 90px""><b>o</b></div>","null","","","","forget_cue","","","","","","","","","","","","","","","",""
"html-keyboard-response","149","424670","0.0-4.0-1.0-0.9","3c5nkk3z2ur8kda","prime","5de0803843e90d0fcc462b13","5f60e3c0a3b16e07647b2ff9","5f60f0c5891bb90108d44851","false","null","<span style=""color: black; font-size: 48px"">M + N</span>","null","","","","resp_prompt","","","","","","","","","","","","","","","",""
"categorize-image","150","425867","0.0-4.0-1.0-1.9","3c5nkk3z2ur8kda","prime","5de0803843e90d0fcc462b13","5f60e3c0a3b16e07647b2ff9","5f60f0c5891bb90108d44851","true","1189.8400000063702","./Stimuli/SelectedImages/LN/LN59.bmp","83","","","","test","false","M + N","76","repetition","LN","LN59.bmp","remember","","58","3","prime1","left","","","",""
"html-keyboard-response","151","426370","0.0-4.0-1.0-2.9-0.9","3c5nkk3z2ur8kda","prime","5de0803843e90d0fcc462b13","5f60e3c0a3b16e07647b2ff9","5f60f0c5891bb90108d44851","false","null","<span style=""color: red; font-size: 48px"">Error!</span>","null","","","","feedback","","","","","","","","","","","","","","","",""
"html-keyboard-response","152","428372","0.0-4.0-1.0-3.9","3c5nkk3z2ur8kda","prime","5de0803843e90d0fcc462b13","5f60e3c0a3b16e07647b2ff9","5f60f0c5891bb90108d44851","false","null","<div style=""align-items: center; display: flex; color: dodgerblue; font-size: 90px""><b>o</b></div>","null","","","","forget_cue","","","","","","","","","","","","","","","",""
"html-keyboard-response","153","429076","0.0-4.0-1.0-0.10","3c5nkk3z2ur8kda","prime","5de0803843e90d0fcc462b13","5f60e3c0a3b16e07647b2ff9","5f60f0c5891bb90108d44851","false","null","<span style=""color: black; font-size: 48px"">N + M</span>","null","","","","resp_prompt","","","","","","","","","","","","","","","",""
"categorize-image","154","430050","0.0-4.0-1.0-1.10","3c5nkk3z2ur8kda","prime","5de0803843e90d0fcc462b13","5f60e3c0a3b16e07647b2ff9","5f60f0c5891bb90108d44851","true","967.4400000367314","./Stimuli/SelectedImages/SM/SM148.bmp","83","","","","test","false","N + M","76","switch","SM","SM148.bmp","remember","","59","3","prime1","left","","","",""
"html-keyboard-response","155","430553","0.0-4.0-1.0-2.10-0.10","3c5nkk3z2ur8kda","prime","5de0803843e90d0fcc462b13","5f60e3c0a3b16e07647b2ff9","5f60f0c5891bb90108d44851","false","null","<span style=""color: red; font-size: 48px"">Error!</span>","null","","","","feedback","","","","","","","","","","","","","","","",""
"html-keyboard-response","156","432556","0.0-4.0-1.0-3.10","3c5nkk3z2ur8kda","prime","5de0803843e90d0fcc462b13","5f60e3c0a3b16e07647b2ff9","5f60f0c5891bb90108d44851","false","null","<div style=""align-items: center; display: flex; color: dodgerblue; font-size: 90px""><b>o</b></div>","null","","","","forget_cue","","","","","","","","","","","","","","","",""
"html-keyboard-response","157","433258","0.0-4.0-1.0-0.11","3c5nkk3z2ur8kda","prime","5de0803843e90d0fcc462b13","5f60e3c0a3b16e07647b2ff9","5f60f0c5891bb90108d44851","false","null","<span style=""color: black; font-size: 48px"">N + M</span>","null","","","","resp_prompt","","","","","","","","","","","","","","","",""
"categorize-image","158","434546","0.0-4.0-1.0-1.11","3c5nkk3z2ur8kda","prime","5de0803843e90d0fcc462b13","5f60e3c0a3b16e07647b2ff9","5f60f0c5891bb90108d44851","true","1282.7849999885075","./Stimuli/SelectedImages/LM/LM216.bmp","76","","","","test","true","N + M","76","switch","LM","LM216.bmp","remember","","60","3","prime1","right","","","",""
"html-keyboard-response","159","436550","0.0-4.0-1.0-3.11","3c5nkk3z2ur8kda","prime","5de0803843e90d0fcc462b13","5f60e3c0a3b16e07647b2ff9","5f60f0c5891bb90108d44851","false","null","<div style=""align-items: center; display: flex; color: dodgerblue; font-size: 90px""><b>o</b></div>","null","","","","forget_cue","","","","","","","","","","","","","","","",""
"html-keyboard-response","160","437253","0.0-4.0-1.0-0.12","3c5nkk3z2ur8kda","prime","5de0803843e90d0fcc462b13","5f60e3c0a3b16e07647b2ff9","5f60f0c5891bb90108d44851","false","null","<span style=""color: black; font-size: 48px"">N + M</span>","null","","","","resp_prompt","","","","","","","","","","","","","","","",""
"categorize-image","161","438055","0.0-4.0-1.0-1.12","3c5nkk3z2ur8kda","prime","5de0803843e90d0fcc462b13","5f60e3c0a3b16e07647b2ff9","5f60f0c5891bb90108d44851","true","796.1399999912828","./Stimuli/SelectedImages/LN/LN131.bmp","83","","","","test","true","N + M","83","switch","LN","LN131.bmp","remember","","61","3","prime1","left","","","",""
"html-keyboard-response","162","440058","0.0-4.0-1.0-3.12","3c5nkk3z2ur8kda","prime","5de0803843e90d0fcc462b13","5f60e3c0a3b16e07647b2ff9","5f60f0c5891bb90108d44851","false","null","<div style=""align-items: center; display: flex; color: dodgerblue; font-size: 90px""><b>o</b></div>","null","","","","forget_cue","","","","","","","","","","","","","","","",""
"html-keyboard-response","163","440761","0.0-4.0-1.0-0.13","3c5nkk3z2ur8kda","prime","5de0803843e90d0fcc462b13","5f60e3c0a3b16e07647b2ff9","5f60f0c5891bb90108d44851","false","null","<span style=""color: black; font-size: 48px"">N + M</span>","null","","","","resp_prompt","","","","","","","","","","","","","","","",""
"categorize-image","164","441630","0.0-4.0-1.0-1.13","3c5nkk3z2ur8kda","prime","5de0803843e90d0fcc462b13","5f60e3c0a3b16e07647b2ff9","5f60f0c5891bb90108d44851","true","862.8899999894202","./Stimuli/SelectedImages/LM/LM58.bmp","76","","","","test","true","N + M","76","repetition","LM","LM58.bmp","forget","","62","3","prime1","right","","","",""
"html-keyboard-response","165","443634","0.0-4.0-1.0-3.13","3c5nkk3z2ur8kda","prime","5de0803843e90d0fcc462b13","5f60e3c0a3b16e07647b2ff9","5f60f0c5891bb90108d44851","false","null","<div style=""align-items: center; display: flex; color: darkorange; font-size: 90px""><b>ø</b></div>","null","","","","forget_cue","","","","","","","","","","","","","","","",""
"html-keyboard-response","166","444336","0.0-4.0-1.0-0.14","3c5nkk3z2ur8kda","prime","5de0803843e90d0fcc462b13","5f60e3c0a3b16e07647b2ff9","5f60f0c5891bb90108d44851","false","null","<span style=""color: black; font-size: 48px"">M + N</span>","null","","","","resp_prompt","","","","","","","","","","","","","","","",""
"categorize-image","167","445013","0.0-4.0-1.0-1.14","3c5nkk3z2ur8kda","prime","5de0803843e90d0fcc462b13","5f60e3c0a3b16e07647b2ff9","5f60f0c5891bb90108d44851","true","671.6250000172295","./Stimuli/SelectedImages/LM/LM100.bmp","83","","","","test","true","M + N","83","switch","LM","LM100.bmp","remember","","63","3","prime1","left","","","",""
"html-keyboard-response","168","447016","0.0-4.0-1.0-3.14","3c5nkk3z2ur8kda","prime","5de0803843e90d0fcc462b13","5f60e3c0a3b16e07647b2ff9","5f60f0c5891bb90108d44851","false","null","<div style=""align-items: center; display: flex; color: dodgerblue; font-size: 90px""><b>o</b></div>","null","","","","forget_cue","","","","","","","","","","","","","","","",""
"html-keyboard-response","169","447719","0.0-4.0-1.0-0.15","3c5nkk3z2ur8kda","prime","5de0803843e90d0fcc462b13","5f60e3c0a3b16e07647b2ff9","5f60f0c5891bb90108d44851","false","null","<span style=""color: black; font-size: 48px"">N + M</span>","null","","","","resp_prompt","","","","","","","","","","","","","","","",""
"categorize-image","170","448433","0.0-4.0-1.0-1.15","3c5nkk3z2ur8kda","prime","5de0803843e90d0fcc462b13","5f60e3c0a3b16e07647b2ff9","5f60f0c5891bb90108d44851","true","707.6100000413135","./Stimuli/SelectedImages/SM/SM128.bmp","76","","","","test","true","N + M","76","repetition","SM","SM128.bmp","remember","","64","3","prime1","right","","","",""
"html-keyboard-response","171","450437","0.0-4.0-1.0-3.15","3c5nkk3z2ur8kda","prime","5de0803843e90d0fcc462b13","5f60e3c0a3b16e07647b2ff9","5f60f0c5891bb90108d44851","false","null","<div style=""align-items: center; display: flex; color: dodgerblue; font-size: 90px""><b>o</b></div>","null","","","","forget_cue","","","","","","","","","","","","","","","",""
"html-keyboard-response","172","451138","0.0-4.0-1.0-0.16","3c5nkk3z2ur8kda","prime","5de0803843e90d0fcc462b13","5f60e3c0a3b16e07647b2ff9","5f60f0c5891bb90108d44851","false","null","<span style=""color: black; font-size: 48px"">M + N</span>","null","","","","resp_prompt","","","","","","","","","","","","","","","",""
"categorize-image","173","451949","0.0-4.0-1.0-1.16","3c5nkk3z2ur8kda","prime","5de0803843e90d0fcc462b13","5f60e3c0a3b16e07647b2ff9","5f60f0c5891bb90108d44851","true","805.3199999849312","./Stimuli/SelectedImages/LM/LM150.bmp","76","","","","test","false","M + N","83","switch","LM","LM150.bmp","forget","","65","3","prime1","right","","","",""
"html-keyboard-response","174","452453","0.0-4.0-1.0-2.16-0.16","3c5nkk3z2ur8kda","prime","5de0803843e90d0fcc462b13","5f60e3c0a3b16e07647b2ff9","5f60f0c5891bb90108d44851","false","null","<span style=""color: red; font-size: 48px"">Error!</span>","null","","","","feedback","","","","","","","","","","","","","","","",""
"html-keyboard-response","175","454456","0.0-4.0-1.0-3.16","3c5nkk3z2ur8kda","prime","5de0803843e90d0fcc462b13","5f60e3c0a3b16e07647b2ff9","5f60f0c5891bb90108d44851","false","null","<div style=""align-items: center; display: flex; color: darkorange; font-size: 90px""><b>ø</b></div>","null","","","","forget_cue","","","","","","","","","","","","","","","",""
"html-keyboard-response","176","455159","0.0-4.0-1.0-0.17","3c5nkk3z2ur8kda","prime","5de0803843e90d0fcc462b13","5f60e3c0a3b16e07647b2ff9","5f60f0c5891bb90108d44851","false","null","<span style=""color: black; font-size: 48px"">M + N</span>","null","","","","resp_prompt","","","","","","","","","","","","","","","",""
"categorize-image","177","455860","0.0-4.0-1.0-1.17","3c5nkk3z2ur8kda","prime","5de0803843e90d0fcc462b13","5f60e3c0a3b16e07647b2ff9","5f60f0c5891bb90108d44851","true","695.1650000410154","./Stimuli/SelectedImages/SM/SM184.bmp","83","","","","test","true","M + N","83","repetition","SM","SM184.bmp","remember","","66","3","prime1","left","","","",""
"html-keyboard-response","178","457864","0.0-4.0-1.0-3.17","3c5nkk3z2ur8kda","prime","5de0803843e90d0fcc462b13","5f60e3c0a3b16e07647b2ff9","5f60f0c5891bb90108d44851","false","null","<div style=""align-items: center; display: flex; color: dodgerblue; font-size: 90px""><b>o</b></div>","null","","","","forget_cue","","","","","","","","","","","","","","","",""
"html-keyboard-response","179","458567","0.0-4.0-1.0-0.18","3c5nkk3z2ur8kda","prime","5de0803843e90d0fcc462b13","5f60e3c0a3b16e07647b2ff9","5f60f0c5891bb90108d44851","false","null","<span style=""color: black; font-size: 48px"">M + N</span>","null","","","","resp_prompt","","","","","","","","","","","","","","","",""
"categorize-image","180","459218","0.0-4.0-1.0-1.18","3c5nkk3z2ur8kda","prime","5de0803843e90d0fcc462b13","5f60e3c0a3b16e07647b2ff9","5f60f0c5891bb90108d44851","true","644.3200000212528","./Stimuli/SelectedImages/SN/SN187.bmp","76","","","","test","true","M + N","76","switch","SN","SN187.bmp","forget","","67","3","prime1","right","","","",""
"html-keyboard-response","181","461221","0.0-4.0-1.0-3.18","3c5nkk3z2ur8kda","prime","5de0803843e90d0fcc462b13","5f60e3c0a3b16e07647b2ff9","5f60f0c5891bb90108d44851","false","null","<div style=""align-items: center; display: flex; color: darkorange; font-size: 90px""><b>ø</b></div>","null","","","","forget_cue","","","","","","","","","","","","","","","",""
"html-keyboard-response","182","461924","0.0-4.0-1.0-0.19","3c5nkk3z2ur8kda","prime","5de0803843e90d0fcc462b13","5f60e3c0a3b16e07647b2ff9","5f60f0c5891bb90108d44851","false","null","<span style=""color: black; font-size: 48px"">M + N</span>","null","","","","resp_prompt","","","","","","","","","","","","","","","",""
"categorize-image","183","462950","0.0-4.0-1.0-1.19","3c5nkk3z2ur8kda","prime","5de0803843e90d0fcc462b13","5f60e3c0a3b16e07647b2ff9","5f60f0c5891bb90108d44851","true","1017.4799999804236","./Stimuli/SelectedImages/SN/SN93.bmp","76","","","","test","true","M + N","76","repetition","SN","SN93.bmp","forget","","68","3","prime1","right","","","",""
"html-keyboard-response","184","464954","0.0-4.0-1.0-3.19","3c5nkk3z2ur8kda","prime","5de0803843e90d0fcc462b13","5f60e3c0a3b16e07647b2ff9","5f60f0c5891bb90108d44851","false","null","<div style=""align-items: center; display: flex; color: darkorange; font-size: 90px""><b>ø</b></div>","null","","","","forget_cue","","","","","","","","","","","","","","","",""
"html-keyboard-response","185","465656","0.0-4.0-1.0-0.20","3c5nkk3z2ur8kda","prime","5de0803843e90d0fcc462b13","5f60e3c0a3b16e07647b2ff9","5f60f0c5891bb90108d44851","false","null","<span style=""color: black; font-size: 48px"">N + M</span>","null","","","","resp_prompt","","","","","","","","","","","","","","","",""
"categorize-image","186","466375","0.0-4.0-1.0-1.20","3c5nkk3z2ur8kda","prime","5de0803843e90d0fcc462b13","5f60e3c0a3b16e07647b2ff9","5f60f0c5891bb90108d44851","true","712.4250000342727","./Stimuli/SelectedImages/LM/LM179.bmp","76","","","","test","true","N + M","76","switch","LM","LM179.bmp","remember","","69","3","prime1","right","","","",""
"html-keyboard-response","187","468378","0.0-4.0-1.0-3.20","3c5nkk3z2ur8kda","prime","5de0803843e90d0fcc462b13","5f60e3c0a3b16e07647b2ff9","5f60f0c5891bb90108d44851","false","null","<div style=""align-items: center; display: flex; color: dodgerblue; font-size: 90px""><b>o</b></div>","null","","","","forget_cue","","","","","","","","","","","","","","","",""
"html-keyboard-response","188","469081","0.0-4.0-1.0-0.21","3c5nkk3z2ur8kda","prime","5de0803843e90d0fcc462b13","5f60e3c0a3b16e07647b2ff9","5f60f0c5891bb90108d44851","false","null","<span style=""color: black; font-size: 48px"">M + N</span>","null","","","","resp_prompt","","","","","","","","","","","","","","","",""
"categorize-image","189","470691","0.0-4.0-1.0-1.21","3c5nkk3z2ur8kda","prime","5de0803843e90d0fcc462b13","5f60e3c0a3b16e07647b2ff9","5f60f0c5891bb90108d44851","true","1604.3800000334159","./Stimuli/SelectedImages/SN/SN181.bmp","76","","","","test","true","M + N","76","repetition","SN","SN181.bmp","remember","","70","3","prime1","right","","","",""
"html-keyboard-response","190","472693","0.0-4.0-1.0-3.21","3c5nkk3z2ur8kda","prime","5de0803843e90d0fcc462b13","5f60e3c0a3b16e07647b2ff9","5f60f0c5891bb90108d44851","false","null","<div style=""align-items: center; display: flex; color: dodgerblue; font-size: 90px""><b>o</b></div>","null","","","","forget_cue","","","","","","","","","","","","","","","",""
"html-keyboard-response","191","473396","0.0-4.0-1.0-0.22","3c5nkk3z2ur8kda","prime","5de0803843e90d0fcc462b13","5f60e3c0a3b16e07647b2ff9","5f60f0c5891bb90108d44851","false","null","<span style=""color: black; font-size: 48px"">N + M</span>","null","","","","resp_prompt","","","","","","","","","","","","","","","",""
"categorize-image","192","474786","0.0-4.0-1.0-1.22","3c5nkk3z2ur8kda","prime","5de0803843e90d0fcc462b13","5f60e3c0a3b16e07647b2ff9","5f60f0c5891bb90108d44851","true","1383.7749999947846","./Stimuli/SelectedImages/SM/SM76.bmp","76","","","","test","true","N + M","76","switch","SM","SM76.bmp","forget","","71","3","prime1","right","","","",""
"html-keyboard-response","193","476789","0.0-4.0-1.0-3.22","3c5nkk3z2ur8kda","prime","5de0803843e90d0fcc462b13","5f60e3c0a3b16e07647b2ff9","5f60f0c5891bb90108d44851","false","null","<div style=""align-items: center; display: flex; color: darkorange; font-size: 90px""><b>ø</b></div>","null","","","","forget_cue","","","","","","","","","","","","","","","",""
"html-keyboard-response","194","477492","0.0-4.0-1.0-0.23","3c5nkk3z2ur8kda","prime","5de0803843e90d0fcc462b13","5f60e3c0a3b16e07647b2ff9","5f60f0c5891bb90108d44851","false","null","<span style=""color: black; font-size: 48px"">M + N</span>","null","","","","resp_prompt","","","","","","","","","","","","","","","",""
"categorize-image","195","478978","0.0-4.0-1.0-1.23","3c5nkk3z2ur8kda","prime","5de0803843e90d0fcc462b13","5f60e3c0a3b16e07647b2ff9","5f60f0c5891bb90108d44851","true","1478.3349999925122","./Stimuli/SelectedImages/LN/LN101.bmp","83","","","","test","false","M + N","76","switch","LN","LN101.bmp","forget","","72","3","prime1","left","","","",""
"html-keyboard-response","196","479482","0.0-4.0-1.0-2.23-0.23","3c5nkk3z2ur8kda","prime","5de0803843e90d0fcc462b13","5f60e3c0a3b16e07647b2ff9","5f60f0c5891bb90108d44851","false","null","<span style=""color: red; font-size: 48px"">Error!</span>","null","","","","feedback","","","","","","","","","","","","","","","",""
"html-keyboard-response","197","481485","0.0-4.0-1.0-3.23","3c5nkk3z2ur8kda","prime","5de0803843e90d0fcc462b13","5f60e3c0a3b16e07647b2ff9","5f60f0c5891bb90108d44851","false","null","<div style=""align-items: center; display: flex; color: darkorange; font-size: 90px""><b>ø</b></div>","null","","","","forget_cue","","","","","","","","","","","","","","","",""
"html-keyboard-response","198","482188","0.0-4.0-1.0-0.24","3c5nkk3z2ur8kda","prime","5de0803843e90d0fcc462b13","5f60e3c0a3b16e07647b2ff9","5f60f0c5891bb90108d44851","false","null","<span style=""color: black; font-size: 48px"">M + N</span>","null","","","","resp_prompt","","","","","","","","","","","","","","","",""
"categorize-image","199","482789","0.0-4.0-1.0-1.24","3c5nkk3z2ur8kda","prime","5de0803843e90d0fcc462b13","5f60e3c0a3b16e07647b2ff9","5f60f0c5891bb90108d44851","true","595.9600000060163","./Stimuli/SelectedImages/LM/LM103.bmp","83","","","","test","true","M + N","83","repetition","LM","LM103.bmp","remember","","73","3","prime1","left","","","",""
"html-keyboard-response","200","484791","0.0-4.0-1.0-3.24","3c5nkk3z2ur8kda","prime","5de0803843e90d0fcc462b13","5f60e3c0a3b16e07647b2ff9","5f60f0c5891bb90108d44851","false","null","<div style=""align-items: center; display: flex; color: dodgerblue; font-size: 90px""><b>o</b></div>","null","","","","forget_cue","","","","","","","","","","","","","","","",""
"html-keyboard-response","201","485494","0.0-4.0-1.0-0.25","3c5nkk3z2ur8kda","prime","5de0803843e90d0fcc462b13","5f60e3c0a3b16e07647b2ff9","5f60f0c5891bb90108d44851","false","null","<span style=""color: black; font-size: 48px"">M + N</span>","null","","","","resp_prompt","","","","","","","","","","","","","","","",""
"categorize-image","202","486596","0.0-4.0-1.0-1.25","3c5nkk3z2ur8kda","prime","5de0803843e90d0fcc462b13","5f60e3c0a3b16e07647b2ff9","5f60f0c5891bb90108d44851","true","1096.3450000272132","./Stimuli/SelectedImages/SM/SM205.bmp","83","","","","test","true","M + N","83","switch","SM","SM205.bmp","remember","","74","3","prime1","left","","","",""
"html-keyboard-response","203","488601","0.0-4.0-1.0-3.25","3c5nkk3z2ur8kda","prime","5de0803843e90d0fcc462b13","5f60e3c0a3b16e07647b2ff9","5f60f0c5891bb90108d44851","false","null","<div style=""align-items: center; display: flex; color: dodgerblue; font-size: 90px""><b>o</b></div>","null","","","","forget_cue","","","","","","","","","","","","","","","",""
"html-keyboard-response","204","489303","0.0-4.0-1.0-0.26","3c5nkk3z2ur8kda","prime","5de0803843e90d0fcc462b13","5f60e3c0a3b16e07647b2ff9","5f60f0c5891bb90108d44851","false","null","<span style=""color: black; font-size: 48px"">N + M</span>","null","","","","resp_prompt","","","","","","","","","","","","","","","",""
"categorize-image","205","489973","0.0-4.0-1.0-1.26","3c5nkk3z2ur8kda","prime","5de0803843e90d0fcc462b13","5f60e3c0a3b16e07647b2ff9","5f60f0c5891bb90108d44851","true","663.4949999861419","./Stimuli/SelectedImages/SN/SN179.bmp","83","","","","test","true","N + M","83","switch","SN","SN179.bmp","forget","","75","3","prime1","left","","","",""
"html-keyboard-response","206","491976","0.0-4.0-1.0-3.26","3c5nkk3z2ur8kda","prime","5de0803843e90d0fcc462b13","5f60e3c0a3b16e07647b2ff9","5f60f0c5891bb90108d44851","false","null","<div style=""align-items: center; display: flex; color: darkorange; font-size: 90px""><b>ø</b></div>","null","","","","forget_cue","","","","","","","","","","","","","","","",""
"html-keyboard-response","207","492678","0.0-4.0-1.0-0.27","3c5nkk3z2ur8kda","prime","5de0803843e90d0fcc462b13","5f60e3c0a3b16e07647b2ff9","5f60f0c5891bb90108d44851","false","null","<span style=""color: black; font-size: 48px"">N + M</span>","null","","","","resp_prompt","","","","","","","","","","","","","","","",""
"categorize-image","208","494362","0.0-4.0-1.0-1.27","3c5nkk3z2ur8kda","prime","5de0803843e90d0fcc462b13","5f60e3c0a3b16e07647b2ff9","5f60f0c5891bb90108d44851","true","1677.9399999650195","./Stimuli/SelectedImages/SN/SN64.bmp","83","","","","test","true","N + M","83","repetition","SN","SN64.bmp","remember","","76","3","prime1","left","","","",""
"html-keyboard-response","209","496366","0.0-4.0-1.0-3.27","3c5nkk3z2ur8kda","prime","5de0803843e90d0fcc462b13","5f60e3c0a3b16e07647b2ff9","5f60f0c5891bb90108d44851","false","null","<div style=""align-items: center; display: flex; color: dodgerblue; font-size: 90px""><b>o</b></div>","null","","","","forget_cue","","","","","","","","","","","","","","","",""
"html-keyboard-response","210","497069","0.0-4.0-1.0-0.28","3c5nkk3z2ur8kda","prime","5de0803843e90d0fcc462b13","5f60e3c0a3b16e07647b2ff9","5f60f0c5891bb90108d44851","false","null","<span style=""color: black; font-size: 48px"">M + N</span>","null","","","","resp_prompt","","","","","","","","","","","","","","","",""
"categorize-image","211","498316","0.0-4.0-1.0-1.28","3c5nkk3z2ur8kda","prime","5de0803843e90d0fcc462b13","5f60e3c0a3b16e07647b2ff9","5f60f0c5891bb90108d44851","true","1240.894999995362","./Stimuli/SelectedImages/LM/LM129.bmp","83","","","","test","true","M + N","83","repetition","LM","LM129.bmp","forget","","77","3","prime1","left","","","",""
"html-keyboard-response","212","500318","0.0-4.0-1.0-3.28","3c5nkk3z2ur8kda","prime","5de0803843e90d0fcc462b13","5f60e3c0a3b16e07647b2ff9","5f60f0c5891bb90108d44851","false","null","<div style=""align-items: center; display: flex; color: darkorange; font-size: 90px""><b>ø</b></div>","null","","","","forget_cue","","","","","","","","","","","","","","","",""
"html-keyboard-response","213","501021","0.0-4.0-1.0-0.29","3c5nkk3z2ur8kda","prime","5de0803843e90d0fcc462b13","5f60e3c0a3b16e07647b2ff9","5f60f0c5891bb90108d44851","false","null","<span style=""color: black; font-size: 48px"">N + M</span>","null","","","","resp_prompt","","","","","","","","","","","","","","","",""
"categorize-image","214","502341","0.0-4.0-1.0-1.29","3c5nkk3z2ur8kda","prime","5de0803843e90d0fcc462b13","5f60e3c0a3b16e07647b2ff9","5f60f0c5891bb90108d44851","true","1313.0999999702908","./Stimuli/SelectedImages/LN/LN13.bmp","83","","","","test","true","N + M","83","switch","LN","LN13.bmp","remember","","78","3","prime1","left","","","",""
"html-keyboard-response","215","504343","0.0-4.0-1.0-3.29","3c5nkk3z2ur8kda","prime","5de0803843e90d0fcc462b13","5f60e3c0a3b16e07647b2ff9","5f60f0c5891bb90108d44851","false","null","<div style=""align-items: center; display: flex; color: dodgerblue; font-size: 90px""><b>o</b></div>","null","","","","forget_cue","","","","","","","","","","","","","","","",""
"html-keyboard-response","216","505046","0.0-4.0-1.0-0.30","3c5nkk3z2ur8kda","prime","5de0803843e90d0fcc462b13","5f60e3c0a3b16e07647b2ff9","5f60f0c5891bb90108d44851","false","null","<span style=""color: black; font-size: 48px"">N + M</span>","null","","","","resp_prompt","","","","","","","","","","","","","","","",""
"categorize-image","217","506137","0.0-4.0-1.0-1.30","3c5nkk3z2ur8kda","prime","5de0803843e90d0fcc462b13","5f60e3c0a3b16e07647b2ff9","5f60f0c5891bb90108d44851","true","1084.340000001248","./Stimuli/SelectedImages/LM/LM51.bmp","76","","","","test","true","N + M","76","repetition","LM","LM51.bmp","remember","","79","3","prime1","right","","","",""
"html-keyboard-response","218","508139","0.0-4.0-1.0-3.30","3c5nkk3z2ur8kda","prime","5de0803843e90d0fcc462b13","5f60e3c0a3b16e07647b2ff9","5f60f0c5891bb90108d44851","false","null","<div style=""align-items: center; display: flex; color: dodgerblue; font-size: 90px""><b>o</b></div>","null","","","","forget_cue","","","","","","","","","","","","","","","",""
"html-keyboard-response","219","508842","0.0-4.0-1.0-0.31","3c5nkk3z2ur8kda","prime","5de0803843e90d0fcc462b13","5f60e3c0a3b16e07647b2ff9","5f60f0c5891bb90108d44851","false","null","<span style=""color: black; font-size: 48px"">M + N</span>","null","","","","resp_prompt","","","","","","","","","","","","","","","",""
"categorize-image","220","510234","0.0-4.0-1.0-1.31","3c5nkk3z2ur8kda","prime","5de0803843e90d0fcc462b13","5f60e3c0a3b16e07647b2ff9","5f60f0c5891bb90108d44851","true","1386.6200000047684","./Stimuli/SelectedImages/SN/SN27.bmp","76","","","","test","true","M + N","76","switch","SN","SN27.bmp","forget","","80","3","prime1","right","","","",""
"html-keyboard-response","221","512236","0.0-4.0-1.0-3.31","3c5nkk3z2ur8kda","prime","5de0803843e90d0fcc462b13","5f60e3c0a3b16e07647b2ff9","5f60f0c5891bb90108d44851","false","null","<div style=""align-items: center; display: flex; color: darkorange; font-size: 90px""><b>ø</b></div>","null","","","","forget_cue","","","","","","","","","","","","","","","",""
"html-keyboard-response","222","512938","0.0-4.0-1.0-0.32","3c5nkk3z2ur8kda","prime","5de0803843e90d0fcc462b13","5f60e3c0a3b16e07647b2ff9","5f60f0c5891bb90108d44851","false","null","<span style=""color: black; font-size: 48px"">M + N</span>","null","","","","resp_prompt","","","","","","","","","","","","","","","",""
"categorize-image","223","513749","0.0-4.0-1.0-1.32","3c5nkk3z2ur8kda","prime","5de0803843e90d0fcc462b13","5f60e3c0a3b16e07647b2ff9","5f60f0c5891bb90108d44851","true","803.5099999979138","./Stimuli/SelectedImages/SM/SM24.bmp","83","","","","test","true","M + N","83","repetition","SM","SM24.bmp","forget","","81","3","prime1","left","","","",""
"html-keyboard-response","224","515753","0.0-4.0-1.0-3.32","3c5nkk3z2ur8kda","prime","5de0803843e90d0fcc462b13","5f60e3c0a3b16e07647b2ff9","5f60f0c5891bb90108d44851","false","null","<div style=""align-items: center; display: flex; color: darkorange; font-size: 90px""><b>ø</b></div>","null","","","","forget_cue","","","","","","","","","","","","","","","",""
"html-keyboard-response","225","516456","0.0-4.0-1.0-0.33","3c5nkk3z2ur8kda","prime","5de0803843e90d0fcc462b13","5f60e3c0a3b16e07647b2ff9","5f60f0c5891bb90108d44851","false","null","<span style=""color: black; font-size: 48px"">N + M</span>","null","","","","resp_prompt","","","","","","","","","","","","","","","",""
"categorize-image","226","517594","0.0-4.0-1.0-1.33","3c5nkk3z2ur8kda","prime","5de0803843e90d0fcc462b13","5f60e3c0a3b16e07647b2ff9","5f60f0c5891bb90108d44851","true","1131.3199999858625","./Stimuli/SelectedImages/SM/SM213.bmp","76","","","","test","true","N + M","76","repetition","SM","SM213.bmp","forget","","82","3","prime1","right","","","",""
"html-keyboard-response","227","519597","0.0-4.0-1.0-3.33","3c5nkk3z2ur8kda","prime","5de0803843e90d0fcc462b13","5f60e3c0a3b16e07647b2ff9","5f60f0c5891bb90108d44851","false","null","<div style=""align-items: center; display: flex; color: darkorange; font-size: 90px""><b>ø</b></div>","null","","","","forget_cue","","","","","","","","","","","","","","","",""
"html-keyboard-response","228","520300","0.0-4.0-1.0-0.34","3c5nkk3z2ur8kda","prime","5de0803843e90d0fcc462b13","5f60e3c0a3b16e07647b2ff9","5f60f0c5891bb90108d44851","false","null","<span style=""color: black; font-size: 48px"">N + M</span>","null","","","","resp_prompt","","","","","","","","","","","","","","","",""
"categorize-image","229","521510","0.0-4.0-1.0-1.34","3c5nkk3z2ur8kda","prime","5de0803843e90d0fcc462b13","5f60e3c0a3b16e07647b2ff9","5f60f0c5891bb90108d44851","true","1205.0449999514967","./Stimuli/SelectedImages/LN/LN149.bmp","83","","","","test","true","N + M","83","repetition","LN","LN149.bmp","forget","","83","3","prime1","left","","","",""
"html-keyboard-response","230","523514","0.0-4.0-1.0-3.34","3c5nkk3z2ur8kda","prime","5de0803843e90d0fcc462b13","5f60e3c0a3b16e07647b2ff9","5f60f0c5891bb90108d44851","false","null","<div style=""align-items: center; display: flex; color: darkorange; font-size: 90px""><b>ø</b></div>","null","","","","forget_cue","","","","","","","","","","","","","","","",""
"html-keyboard-response","231","524217","0.0-4.0-1.0-0.35","3c5nkk3z2ur8kda","prime","5de0803843e90d0fcc462b13","5f60e3c0a3b16e07647b2ff9","5f60f0c5891bb90108d44851","false","null","<span style=""color: black; font-size: 48px"">M + N</span>","null","","","","resp_prompt","","","","","","","","","","","","","","","",""
"categorize-image","232","525085","0.0-4.0-1.0-1.35","3c5nkk3z2ur8kda","prime","5de0803843e90d0fcc462b13","5f60e3c0a3b16e07647b2ff9","5f60f0c5891bb90108d44851","true","861.4700000034645","./Stimuli/SelectedImages/LN/LN92.bmp","76","","","","test","true","M + N","76","switch","LN","LN92.bmp","forget","","84","3","prime1","right","","","",""
"html-keyboard-response","233","527088","0.0-4.0-1.0-3.35","3c5nkk3z2ur8kda","prime","5de0803843e90d0fcc462b13","5f60e3c0a3b16e07647b2ff9","5f60f0c5891bb90108d44851","false","null","<div style=""align-items: center; display: flex; color: darkorange; font-size: 90px""><b>ø</b></div>","null","","","","forget_cue","","","","","","","","","","","","","","","",""
"html-keyboard-response","234","527790","0.0-4.0-1.0-0.36","3c5nkk3z2ur8kda","prime","5de0803843e90d0fcc462b13","5f60e3c0a3b16e07647b2ff9","5f60f0c5891bb90108d44851","false","null","<span style=""color: black; font-size: 48px"">M + N</span>","null","","","","resp_prompt","","","","","","","","","","","","","","","",""
"categorize-image","235","529765","0.0-4.0-1.0-1.36","3c5nkk3z2ur8kda","prime","5de0803843e90d0fcc462b13","5f60e3c0a3b16e07647b2ff9","5f60f0c5891bb90108d44851","true","1967.40000002319","./Stimuli/SelectedImages/SN/SN128.bmp","83","","","","test","false","M + N","76","repetition","SN","SN128.bmp","remember","","85","3","prime1","left","","","",""
"html-keyboard-response","236","530269","0.0-4.0-1.0-2.36-0.36","3c5nkk3z2ur8kda","prime","5de0803843e90d0fcc462b13","5f60e3c0a3b16e07647b2ff9","5f60f0c5891bb90108d44851","false","null","<span style=""color: red; font-size: 48px"">Error!</span>","null","","","","feedback","","","","","","","","","","","","","","","",""
"html-keyboard-response","237","532271","0.0-4.0-1.0-3.36","3c5nkk3z2ur8kda","prime","5de0803843e90d0fcc462b13","5f60e3c0a3b16e07647b2ff9","5f60f0c5891bb90108d44851","false","null","<div style=""align-items: center; display: flex; color: dodgerblue; font-size: 90px""><b>o</b></div>","null","","","","forget_cue","","","","","","","","","","","","","","","",""
"html-keyboard-response","238","532974","0.0-4.0-1.0-0.37","3c5nkk3z2ur8kda","prime","5de0803843e90d0fcc462b13","5f60e3c0a3b16e07647b2ff9","5f60f0c5891bb90108d44851","false","null","<span style=""color: black; font-size: 48px"">N + M</span>","null","","","","resp_prompt","","","","","","","","","","","","","","","",""
"categorize-image","239","534275","0.0-4.0-1.0-1.37","3c5nkk3z2ur8kda","prime","5de0803843e90d0fcc462b13","5f60e3c0a3b16e07647b2ff9","5f60f0c5891bb90108d44851","true","1294.309999968391","./Stimuli/SelectedImages/LN/LN128.bmp","76","","","","test","false","N + M","83","switch","LN","LN128.bmp","forget","","86","3","prime1","right","","","",""
"html-keyboard-response","240","534779","0.0-4.0-1.0-2.37-0.37","3c5nkk3z2ur8kda","prime","5de0803843e90d0fcc462b13","5f60e3c0a3b16e07647b2ff9","5f60f0c5891bb90108d44851","false","null","<span style=""color: red; font-size: 48px"">Error!</span>","null","","","","feedback","","","","","","","","","","","","","","","",""
"html-keyboard-response","241","536780","0.0-4.0-1.0-3.37","3c5nkk3z2ur8kda","prime","5de0803843e90d0fcc462b13","5f60e3c0a3b16e07647b2ff9","5f60f0c5891bb90108d44851","false","null","<div style=""align-items: center; display: flex; color: darkorange; font-size: 90px""><b>ø</b></div>","null","","","","forget_cue","","","","","","","","","","","","","","","",""
"html-keyboard-response","242","537483","0.0-4.0-1.0-0.38","3c5nkk3z2ur8kda","prime","5de0803843e90d0fcc462b13","5f60e3c0a3b16e07647b2ff9","5f60f0c5891bb90108d44851","false","null","<span style=""color: black; font-size: 48px"">M + N</span>","null","","","","resp_prompt","","","","","","","","","","","","","","","",""
"categorize-image","243","538274","0.0-4.0-1.0-1.38","3c5nkk3z2ur8kda","prime","5de0803843e90d0fcc462b13","5f60e3c0a3b16e07647b2ff9","5f60f0c5891bb90108d44851","true","784.8150000208989","./Stimuli/SelectedImages/LN/LN177.bmp","83","","","","test","false","M + N","76","repetition","LN","LN177.bmp","forget","","87","3","prime1","left","","","",""
"html-keyboard-response","244","538778","0.0-4.0-1.0-2.38-0.38","3c5nkk3z2ur8kda","prime","5de0803843e90d0fcc462b13","5f60e3c0a3b16e07647b2ff9","5f60f0c5891bb90108d44851","false","null","<span style=""color: red; font-size: 48px"">Error!</span>","null","","","","feedback","","","","","","","","","","","","","","","",""
"html-keyboard-response","245","540781","0.0-4.0-1.0-3.38","3c5nkk3z2ur8kda","prime","5de0803843e90d0fcc462b13","5f60e3c0a3b16e07647b2ff9","5f60f0c5891bb90108d44851","false","null","<div style=""align-items: center; display: flex; color: darkorange; font-size: 90px""><b>ø</b></div>","null","","","","forget_cue","","","","","","","","","","","","","","","",""
"html-keyboard-response","246","541484","0.0-4.0-1.0-0.39","3c5nkk3z2ur8kda","prime","5de0803843e90d0fcc462b13","5f60e3c0a3b16e07647b2ff9","5f60f0c5891bb90108d44851","false","null","<span style=""color: black; font-size: 48px"">N + M</span>","null","","","","resp_prompt","","","","","","","","","","","","","","","",""
"categorize-image","247","542662","0.0-4.0-1.0-1.39","3c5nkk3z2ur8kda","prime","5de0803843e90d0fcc462b13","5f60e3c0a3b16e07647b2ff9","5f60f0c5891bb90108d44851","true","1172.034999995958","./Stimuli/SelectedImages/LN/LN9.bmp","83","","","","test","true","N + M","83","repetition","LN","LN9.bmp","remember","","88","3","prime1","left","","","",""
"html-keyboard-response","248","544665","0.0-4.0-1.0-3.39","3c5nkk3z2ur8kda","prime","5de0803843e90d0fcc462b13","5f60e3c0a3b16e07647b2ff9","5f60f0c5891bb90108d44851","false","null","<div style=""align-items: center; display: flex; color: dodgerblue; font-size: 90px""><b>o</b></div>","null","","","","forget_cue","","","","","","","","","","","","","","","",""
"html-keyboard-response","249","545368","0.0-4.0-1.0-0.40","3c5nkk3z2ur8kda","prime","5de0803843e90d0fcc462b13","5f60e3c0a3b16e07647b2ff9","5f60f0c5891bb90108d44851","false","null","<span style=""color: black; font-size: 48px"">M + N</span>","null","","","","resp_prompt","","","","","","","","","","","","","","","",""
"categorize-image","250","547133","0.0-4.0-1.0-1.40","3c5nkk3z2ur8kda","prime","5de0803843e90d0fcc462b13","5f60e3c0a3b16e07647b2ff9","5f60f0c5891bb90108d44851","true","1757.355000008829","./Stimuli/SelectedImages/LN/LN111.bmp","76","","","","test","true","M + N","76","repetition","LN","LN111.bmp","remember","","89","3","prime1","right","","","",""
"html-keyboard-response","251","549136","0.0-4.0-1.0-3.40","3c5nkk3z2ur8kda","prime","5de0803843e90d0fcc462b13","5f60e3c0a3b16e07647b2ff9","5f60f0c5891bb90108d44851","false","null","<div style=""align-items: center; display: flex; color: dodgerblue; font-size: 90px""><b>o</b></div>","null","","","","forget_cue","","","","","","","","","","","","","","","",""
"html-keyboard-response","252","549838","0.0-4.0-1.0-0.41","3c5nkk3z2ur8kda","prime","5de0803843e90d0fcc462b13","5f60e3c0a3b16e07647b2ff9","5f60f0c5891bb90108d44851","false","null","<span style=""color: black; font-size: 48px"">N + M</span>","null","","","","resp_prompt","","","","","","","","","","","","","","","",""
"categorize-image","253","550880","0.0-4.0-1.0-1.41","3c5nkk3z2ur8kda","prime","5de0803843e90d0fcc462b13","5f60e3c0a3b16e07647b2ff9","5f60f0c5891bb90108d44851","true","1035.8199999900535","./Stimuli/SelectedImages/LN/LN42.bmp","83","","","","test","true","N + M","83","repetition","LN","LN42.bmp","remember","","90","3","prime1","left","","","",""
