"trial_type","trial_index","time_elapsed","internal_node_id","subject","exp_part","prolific_PID","study_ID","session_ID","use","rt","stimulus","key_press","button_pressed","responses","question_order","trial_part","correct","resp_map","correct_resp","probe_condition","category","image","forget_condition","list","trial_num","block_num","block","response","test_part","n_span","sequence","num_spaces"
"pavlovia","0","27","0.0-0.0","g43fsrj877ku9h9","","59e0d7d6ac0af70001b365b4","5f60e3c0a3b16e07647b2ff9","5f646a537652ac1ed8ec0de1","false","","","","","","","","","","","","","","","","","","","","","","",""
"html-keyboard-response","1","12405","0.0-1.0-0.0-0.0","g43fsrj877ku9h9","welcome","59e0d7d6ac0af70001b365b4","5f60e3c0a3b16e07647b2ff9","5f646a537652ac1ed8ec0de1","false","12365.7699999967","<div align=left>Dear participant, <br> thank you for participating in an online study of the Cognition, Action, and Sustainability Unit of the University of Freiburg! <br> <br>The aim of this study is to examine our ability to remember previously learned information. <br>Our goal is to find out, whether our memory improves, when we only remember information that is relevant to us. <br>The experiment will take about 35 minutes to complete. <br> <br>Please, note that you can only participate in this study if you are using a device with a keyboard (PC, Laptop etc.) <br>and not if you are using a mobile device such as a tablet or smartphone.<br> <br>Press 'SPACE' to proceed to the experiment. </div>","32","","","","","","","","","","","","","","","","","","","",""
"html-keyboard-response","2","78003","0.0-1.0-0.0-1.0","g43fsrj877ku9h9","welcome","59e0d7d6ac0af70001b365b4","5f60e3c0a3b16e07647b2ff9","5f646a537652ac1ed8ec0de1","false","65591.54999999737","<div align=left><strong> Time Course of this experiment: </strong> <br><br> <strong> 1.</strong>  First, please fill in some information regarding your demographic data. <br><br> <strong> 2.</strong>  Next, your task will be to classify everyday objects. <br>In addition, you will be asked to remember certain objects and recall them later. <br>Working on these tasks requires your undivided attention and concentration.<br>It is therefore essential that you eliminate any sources of distraction in your  <br>environment and ensure that you will not be disturbed. <br><br><strong> 3.</strong>  At the end of the experiment, you will be asked to answer a few additional questions. <br> <br><strong> Important:</strong> After finishing the experiment, only close the browser window <br> by clicking on the 'end the experiment'-button when you are asked to do so. <br>Closing the browser window prematurely will make the allocation of your participation credit impossible. <br><br> Press 'SPACE' to start the experiment. </div>","32","","","","","","","","","","","","","","","","","","","",""
"html-button-response","3","100115","0.0-1.0-0.0-2.0","g43fsrj877ku9h9","welcome","59e0d7d6ac0af70001b365b4","5f60e3c0a3b16e07647b2ff9","5f646a537652ac1ed8ec0de1","true","22107.58000000351","<div align=left><strong> Informed consent </strong>  <br>The aim of our research is to better understand human behavior and mental processes. <br>In the following study your behavior (e.g. choices, reaction times) will be studied. <br> <br><strong> Voluntariness and Anonymity </strong> <br>Your participation in this study is  <strong> voluntary</strong>.<br>You may withdraw your consent to participate at any time without providing a reason for doing so and without fear of prejudice. <br><br>As no personal data will be collected, <strong>your data and your person cannot be connected after data collection</strong> – the data-set is anonymous. <br>Respectively, deletion of your data will not be possible after data collection has been completed, as we cannot retrace your data-set.<br>The results and anonymized data collected in this study will be published as a scientific publication. <br>This will happen in an <strong>anonymized format</strong>, so that no data can be traced back to a specific person. <br> <br>The anonymized data of this study will be made available to other researchers and/or in a data archive on the Internet as a means of transparency and to enable subsequent re-use. By doing so, this study follows the recommendations of the Deutsche Forschungsgemeinschaft (DFG, German Research Foundation) and Deutsche Gesellschaft für Psychologie (DGPS, German Psychological Society) regarding quality assurance in research.<br>If you have any questions now or after the experiment, please contact our team (experiments@cs.uni-freiburg.de).<br><br><br>I hereby declare, that I understand the above described conditions of participation and I agree to participate under these conditions. <br><br> </div>","","0","","","","","","","","","","","","","","","","","","",""
"html-keyboard-response","4","115660","0.0-1.0-0.0-3.0","g43fsrj877ku9h9","welcome","59e0d7d6ac0af70001b365b4","5f60e3c0a3b16e07647b2ff9","5f646a537652ac1ed8ec0de1","false","15540.939999998955","<div align=left><strong> General information concerning the experiment </strong>  <br> <br>Please follow the instructions:<ol> <li><strong> Do not leave this tab (your browser window) during the experiment and do not reload this tab! </strong>  <br>If you do switch tabs/windows during the experiment (to check your mail or visit another website, for example), <br>the experiment will end automatically and you will <strong>not receive credit</strong> for your participation. <br>Repeated participation or resumption of the experiment is impossible.</li> <br><li>Please close all other programs for the duration of your participation. </li> <br><li>Please mute or turn off your phone and put it out of your reach. </li> <br><li>Please also take off any disturbing accessories (such as wristwatches, bracelets, etc.). </li> <br><li>If you have music playing in the background, please turn it off now. </li> <br></ol>Thank you! <br>Press 'SPACE' to continue. </div>","32","","","","","","","","","","","","","","","","","","","",""
"survey-text","5","120285","0.0-1.0-1.0-0.0","g43fsrj877ku9h9","demographics","59e0d7d6ac0af70001b365b4","5f60e3c0a3b16e07647b2ff9","5f646a537652ac1ed8ec0de1","true","4615.444999995816","","","","{""age"":""32""}","","","","","","","","","","","","","","","","","",""
"survey-multi-choice","6","144301","0.0-1.0-1.0-1.0","g43fsrj877ku9h9","demographics","59e0d7d6ac0af70001b365b4","5f60e3c0a3b16e07647b2ff9","5f646a537652ac1ed8ec0de1","true","24008.090000002994","","","","{""gender"":""female"",""school"":""others"",""education"":""Completed university degree or equivalent""}","[0,1,2]","","","","","","","","","","","","","","","","",""
"html-keyboard-response","7","153031","0.0-1.0-2.0","g43fsrj877ku9h9","instructions","59e0d7d6ac0af70001b365b4","5f60e3c0a3b16e07647b2ff9","5f646a537652ac1ed8ec0de1","false","8724.855000000389","<div align=left> The experiment is now about to start: <br> <br>In the following part, you will be presented pictures of everyday objects. <br>Your first task is to <strong>classify these objects. </strong> <br> <br> You will classify them either as mechanical or non-mechanical objects. <br> <br>Objects that include any kind of technical mechanism (for example, wheels, switches, levers, <br> electronic components) fall under the category of <strong>mechanical</strong> objects. <br>Only objects without any kind of technical mechanism should be classified as <strong>non-mechanical</strong>. <br><br>Press 'SPACE' to continue. </div>","32","","","","","","","","","","","","","","","","","","","",""
"html-keyboard-response","8","246627","0.0-2.0-0.0","g43fsrj877ku9h9","instructions","59e0d7d6ac0af70001b365b4","5f60e3c0a3b16e07647b2ff9","5f646a537652ac1ed8ec0de1","false","93593.64500000083","<div align=justify>You will classify the objects using the <strong>'S'</strong> and the <strong>'L'</strong> keys on your keyboard.<br>For doing so, please place your <strong>left index finger</strong> on the <strong>'S'</strong> key and place your <strong>right index finger</strong> on the <strong>'L'</strong> key. <br><br> Each trial starts with an instruction, indicating which key ('S'/'L') you need to press to classify <br>the object as mechanical (letter M) or non-mechanical (letter N).<br>The instruction <strong>M + N</strong> indicates that, in the current trial, by pressing the left key ('S') you classify the displayed object as mechanical (M) <br> and by pressing the right key ('L') you classify the object as non-mechanical (N). <br>The instruction <strong>N + M</strong> on the other hand indicates that by pressing the left key ('S') you classify the displayed object as non-mechanical (N) <br> and by pressing the right key ('L') you classify the object as mechanical (M). <br><br>Please press the key corresponding to the correct classification as fast as possible as soon as the object is displayed and try to avoid making mistakes.<br>If you do not respond within a 2 second window, a corresponding feedback will be displayed and the next trial will start.<br> The experiment is divided into multiple blocks to give you the opportunity to take a break after each block. <br>First, you can now practice this task. <br><br>Please place your <strong>LEFT INDEX FINGER</strong> on the 'S' key and your <strong>RIGHT INDEX FINGER</strong> on the 'L' key now. <br><br>Press SPACE to continue.</div>","32","","","","","","","","","","","","","","","","","","","",""
"html-keyboard-response","9","256803","0.0-2.0-1.0","g43fsrj877ku9h9","instructions","59e0d7d6ac0af70001b365b4","5f60e3c0a3b16e07647b2ff9","5f646a537652ac1ed8ec0de1","false","10173.455000003742","<div align=left> You will now have time to practice this task.<br><br>Remember: <br> <br><li>Please place your index fingers on the <strong>'S'</strong> and <strong>'L'</strong> keys <br>to respond as fast and accurately as possible.</li><li>Every picture can be classified as either mechanical or non-mechanical.</li><li>If you do not respond in time or commit an error, you will receive a corresponding feedback. </li><li> Please try to respond as <strong> fast </strong> and as <strong> accurately as possible </strong> .<br><li>To ensure optimal results, please minimize distractions and stay focused. </li><br><br>Press SPACE to continue.</div>","32","","","","","","","","","","","","","","","","","","","",""
"html-keyboard-response","10","257508","0.0-2.0-2.0-0.0","g43fsrj877ku9h9","practice_no_cue","59e0d7d6ac0af70001b365b4","5f60e3c0a3b16e07647b2ff9","5f646a537652ac1ed8ec0de1","false","null","<span style=""color: black; font-size: 48px"">M + N</span>","null","","","","resp_prompt","","","","","","","","","","","","","","","",""
"categorize-image","11","259226","0.0-2.0-2.0-1.0","g43fsrj877ku9h9","practice_no_cue","59e0d7d6ac0af70001b365b4","5f60e3c0a3b16e07647b2ff9","5f646a537652ac1ed8ec0de1","true","1211.2649999980931","./Stimuli/ImagesPractice/SM37.jpg","76","","","","test","false","M + N","83","","SM","SM37.jpg","remember","old","1","1","start","right","","","",""
"html-keyboard-response","12","259929","0.0-2.0-2.0-0.1","g43fsrj877ku9h9","practice_no_cue","59e0d7d6ac0af70001b365b4","5f60e3c0a3b16e07647b2ff9","5f646a537652ac1ed8ec0de1","false","null","<span style=""color: black; font-size: 48px"">N + M</span>","null","","","","resp_prompt","","","","","","","","","","","","","","","",""
"categorize-image","13","261784","0.0-2.0-2.0-1.1","g43fsrj877ku9h9","practice_no_cue","59e0d7d6ac0af70001b365b4","5f60e3c0a3b16e07647b2ff9","5f646a537652ac1ed8ec0de1","true","1349.9400000000605","./Stimuli/ImagesPractice/SN220.jpg","76","","","","test","false","N + M","83","","SN","SN220.jpg","remember","old","2","1","start","right","","","",""
"html-keyboard-response","14","262487","0.0-2.0-2.0-0.2","g43fsrj877ku9h9","practice_no_cue","59e0d7d6ac0af70001b365b4","5f60e3c0a3b16e07647b2ff9","5f646a537652ac1ed8ec0de1","false","null","<span style=""color: black; font-size: 48px"">M + N</span>","null","","","","resp_prompt","","","","","","","","","","","","","","","",""
"categorize-image","15","264097","0.0-2.0-2.0-1.2","g43fsrj877ku9h9","practice_no_cue","59e0d7d6ac0af70001b365b4","5f60e3c0a3b16e07647b2ff9","5f646a537652ac1ed8ec0de1","true","1104.7599999947124","./Stimuli/ImagesPractice/SM97.jpg","83","","","","test","true","M + N","83","","SM","SM97.jpg","forget","old","3","1","start","left","","","",""
"html-keyboard-response","16","264801","0.0-2.0-2.0-0.3","g43fsrj877ku9h9","practice_no_cue","59e0d7d6ac0af70001b365b4","5f60e3c0a3b16e07647b2ff9","5f646a537652ac1ed8ec0de1","false","null","<span style=""color: black; font-size: 48px"">M + N</span>","null","","","","resp_prompt","","","","","","","","","","","","","","","",""
"categorize-image","17","266266","0.0-2.0-2.0-1.3","g43fsrj877ku9h9","practice_no_cue","59e0d7d6ac0af70001b365b4","5f60e3c0a3b16e07647b2ff9","5f646a537652ac1ed8ec0de1","true","961.250000000291","./Stimuli/ImagesPractice/LN72.jpg","76","","","","test","true","M + N","76","","LN","LN72.jpg","forget","old","4","1","start","right","","","",""
"html-keyboard-response","18","266969","0.0-2.0-2.0-0.4","g43fsrj877ku9h9","practice_no_cue","59e0d7d6ac0af70001b365b4","5f60e3c0a3b16e07647b2ff9","5f646a537652ac1ed8ec0de1","false","null","<span style=""color: black; font-size: 48px"">N + M</span>","null","","","","resp_prompt","","","","","","","","","","","","","","","",""
"categorize-image","19","268311","0.0-2.0-2.0-1.4","g43fsrj877ku9h9","practice_no_cue","59e0d7d6ac0af70001b365b4","5f60e3c0a3b16e07647b2ff9","5f646a537652ac1ed8ec0de1","true","836.3600000011502","./Stimuli/ImagesPractice/SN205.jpg","83","","","","test","true","N + M","83","","SN","SN205.jpg","forget","old","5","1","start","left","","","",""
"html-keyboard-response","20","269017","0.0-2.0-2.0-0.5","g43fsrj877ku9h9","practice_no_cue","59e0d7d6ac0af70001b365b4","5f60e3c0a3b16e07647b2ff9","5f646a537652ac1ed8ec0de1","false","null","<span style=""color: black; font-size: 48px"">M + N</span>","null","","","","resp_prompt","","","","","","","","","","","","","","","",""
"categorize-image","21","270743","0.0-2.0-2.0-1.5","g43fsrj877ku9h9","practice_no_cue","59e0d7d6ac0af70001b365b4","5f60e3c0a3b16e07647b2ff9","5f646a537652ac1ed8ec0de1","true","1222.6900000023306","./Stimuli/ImagesPractice/LN15.jpg","76","","","","test","true","M + N","76","","LN","LN15.jpg","remember","old","6","1","start","right","","","",""
"html-keyboard-response","22","271445","0.0-2.0-2.0-0.6","g43fsrj877ku9h9","practice_no_cue","59e0d7d6ac0af70001b365b4","5f60e3c0a3b16e07647b2ff9","5f646a537652ac1ed8ec0de1","false","null","<span style=""color: black; font-size: 48px"">N + M</span>","null","","","","resp_prompt","","","","","","","","","","","","","","","",""
"categorize-image","23","272810","0.0-2.0-2.0-1.6","g43fsrj877ku9h9","practice_no_cue","59e0d7d6ac0af70001b365b4","5f60e3c0a3b16e07647b2ff9","5f646a537652ac1ed8ec0de1","true","860.1399999970454","./Stimuli/ImagesPractice/SN222.jpg","83","","","","test","true","N + M","83","","SN","SN222.jpg","forget","old","7","1","start","left","","","",""
"html-keyboard-response","24","273512","0.0-2.0-2.0-0.7","g43fsrj877ku9h9","practice_no_cue","59e0d7d6ac0af70001b365b4","5f60e3c0a3b16e07647b2ff9","5f646a537652ac1ed8ec0de1","false","null","<span style=""color: black; font-size: 48px"">N + M</span>","null","","","","resp_prompt","","","","","","","","","","","","","","","",""
"categorize-image","25","274940","0.0-2.0-2.0-1.7","g43fsrj877ku9h9","practice_no_cue","59e0d7d6ac0af70001b365b4","5f60e3c0a3b16e07647b2ff9","5f646a537652ac1ed8ec0de1","true","922.0300000015413","./Stimuli/ImagesPractice/SN221.jpg","83","","","","test","true","N + M","83","","SN","SN221.jpg","remember","old","8","1","start","left","","","",""
"html-keyboard-response","26","275643","0.0-2.0-2.0-0.8","g43fsrj877ku9h9","practice_no_cue","59e0d7d6ac0af70001b365b4","5f60e3c0a3b16e07647b2ff9","5f646a537652ac1ed8ec0de1","false","null","<span style=""color: black; font-size: 48px"">N + M</span>","null","","","","resp_prompt","","","","","","","","","","","","","","","",""
"categorize-image","27","277062","0.0-2.0-2.0-1.8","g43fsrj877ku9h9","practice_no_cue","59e0d7d6ac0af70001b365b4","5f60e3c0a3b16e07647b2ff9","5f646a537652ac1ed8ec0de1","true","914.6049999981187","./Stimuli/ImagesPractice/LN2.jpg","83","","","","test","true","N + M","83","","LN","LN2.jpg","remember","old","9","1","start","left","","","",""
"html-keyboard-response","28","277764","0.0-2.0-2.0-0.9","g43fsrj877ku9h9","practice_no_cue","59e0d7d6ac0af70001b365b4","5f60e3c0a3b16e07647b2ff9","5f646a537652ac1ed8ec0de1","false","null","<span style=""color: black; font-size: 48px"">N + M</span>","null","","","","resp_prompt","","","","","","","","","","","","","","","",""
"categorize-image","29","279558","0.0-2.0-2.0-1.9","g43fsrj877ku9h9","practice_no_cue","59e0d7d6ac0af70001b365b4","5f60e3c0a3b16e07647b2ff9","5f646a537652ac1ed8ec0de1","true","1290.1249999995343","./Stimuli/ImagesPractice/SM35.jpg","76","","","","test","true","N + M","76","","SM","SM35.jpg","forget","old","10","1","start","right","","","",""
"html-keyboard-response","30","280261","0.0-2.0-2.0-0.10","g43fsrj877ku9h9","practice_no_cue","59e0d7d6ac0af70001b365b4","5f60e3c0a3b16e07647b2ff9","5f646a537652ac1ed8ec0de1","false","null","<span style=""color: black; font-size: 48px"">M + N</span>","null","","","","resp_prompt","","","","","","","","","","","","","","","",""
"categorize-image","31","281870","0.0-2.0-2.0-1.10","g43fsrj877ku9h9","practice_no_cue","59e0d7d6ac0af70001b365b4","5f60e3c0a3b16e07647b2ff9","5f646a537652ac1ed8ec0de1","true","1105.4199999998673","./Stimuli/ImagesPractice/SN75.jpg","76","","","","test","true","M + N","76","","SN","SN75.jpg","forget","old","11","1","start","right","","","",""
"html-keyboard-response","32","282574","0.0-2.0-2.0-0.11","g43fsrj877ku9h9","practice_no_cue","59e0d7d6ac0af70001b365b4","5f60e3c0a3b16e07647b2ff9","5f646a537652ac1ed8ec0de1","false","null","<span style=""color: black; font-size: 48px"">N + M</span>","null","","","","resp_prompt","","","","","","","","","","","","","","","",""
"categorize-image","33","284122","0.0-2.0-2.0-1.11","g43fsrj877ku9h9","practice_no_cue","59e0d7d6ac0af70001b365b4","5f60e3c0a3b16e07647b2ff9","5f646a537652ac1ed8ec0de1","true","1043.3550000016112","./Stimuli/ImagesPractice/LM55.jpg","76","","","","test","true","N + M","76","","LM","LM55.jpg","remember","old","12","1","start","right","","","",""
"html-keyboard-response","34","284825","0.0-2.0-2.0-0.12","g43fsrj877ku9h9","practice_no_cue","59e0d7d6ac0af70001b365b4","5f60e3c0a3b16e07647b2ff9","5f646a537652ac1ed8ec0de1","false","null","<span style=""color: black; font-size: 48px"">M + N</span>","null","","","","resp_prompt","","","","","","","","","","","","","","","",""
"categorize-image","35","286171","0.0-2.0-2.0-1.12","g43fsrj877ku9h9","practice_no_cue","59e0d7d6ac0af70001b365b4","5f60e3c0a3b16e07647b2ff9","5f646a537652ac1ed8ec0de1","true","841.4250000059837","./Stimuli/ImagesPractice/SM62.jpg","83","","","","test","true","M + N","83","","SM","SM62.jpg","remember","old","13","1","start","left","","","",""
"html-keyboard-response","36","286873","0.0-2.0-2.0-0.13","g43fsrj877ku9h9","practice_no_cue","59e0d7d6ac0af70001b365b4","5f60e3c0a3b16e07647b2ff9","5f646a537652ac1ed8ec0de1","false","null","<span style=""color: black; font-size: 48px"">M + N</span>","null","","","","resp_prompt","","","","","","","","","","","","","","","",""
"categorize-image","37","288107","0.0-2.0-2.0-1.13","g43fsrj877ku9h9","practice_no_cue","59e0d7d6ac0af70001b365b4","5f60e3c0a3b16e07647b2ff9","5f646a537652ac1ed8ec0de1","true","729.2000000015832","./Stimuli/ImagesPractice/LM239.jpg","76","","","","test","false","M + N","83","","LM","LM239.jpg","forget","old","14","1","start","right","","","",""
"html-keyboard-response","38","288809","0.0-2.0-2.0-0.14","g43fsrj877ku9h9","practice_no_cue","59e0d7d6ac0af70001b365b4","5f60e3c0a3b16e07647b2ff9","5f646a537652ac1ed8ec0de1","false","null","<span style=""color: black; font-size: 48px"">M + N</span>","null","","","","resp_prompt","","","","","","","","","","","","","","","",""
"categorize-image","39","290053","0.0-2.0-2.0-1.14","g43fsrj877ku9h9","practice_no_cue","59e0d7d6ac0af70001b365b4","5f60e3c0a3b16e07647b2ff9","5f646a537652ac1ed8ec0de1","true","740.2550000042538","./Stimuli/ImagesPractice/SN76.jpg","76","","","","test","true","M + N","76","","SN","SN76.jpg","remember","old","15","1","start","right","","","",""
"html-keyboard-response","40","290757","0.0-2.0-2.0-0.15","g43fsrj877ku9h9","practice_no_cue","59e0d7d6ac0af70001b365b4","5f60e3c0a3b16e07647b2ff9","5f646a537652ac1ed8ec0de1","false","null","<span style=""color: black; font-size: 48px"">N + M</span>","null","","","","resp_prompt","","","","","","","","","","","","","","","",""
"categorize-image","41","292190","0.0-2.0-2.0-1.15","g43fsrj877ku9h9","practice_no_cue","59e0d7d6ac0af70001b365b4","5f60e3c0a3b16e07647b2ff9","5f646a537652ac1ed8ec0de1","true","929.2799999966519","./Stimuli/ImagesPractice/LN109.jpg","76","","","","test","false","N + M","83","","LN","LN109.jpg","forget","old","16","1","start","right","","","",""
"html-keyboard-response","42","297758","0.0-2.0-3.0","g43fsrj877ku9h9","break","59e0d7d6ac0af70001b365b4","5f60e3c0a3b16e07647b2ff9","5f646a537652ac1ed8ec0de1","false","5563.479999997071","<p style='font-size: 32px;'>Break</><br><br><br><br><br><p style='font-size: 24px;'>In the last block, you committed 4 errors and did not respond in time on 0 trials.
</p><p style='font-size: 24px;'>Try to respond as fast and accurately as possible in the next block as well! </p><p style='font-size: 24px;'>Press SPACE to continue.</p>","32","","","","","","","","","","","","","","","","","","","",""
"html-keyboard-response","43","303559","0.0-2.0-4.0","g43fsrj877ku9h9","instructions","59e0d7d6ac0af70001b365b4","5f60e3c0a3b16e07647b2ff9","5f646a537652ac1ed8ec0de1","false","5798.470000001544","<div align=left> Great!<br><br>Are you ready to continue?<br><br>If you want to reread the instructions and redo the practice trials, <br>please press „Z“. <br><br>Press SPACE to CONTINUE with the experiment when you are ready. </div>","90","","","","","","","","","","","","","","","","","","","",""
"html-keyboard-response","44","304762","0.0-2.1-0.1","g43fsrj877ku9h9","instructions","59e0d7d6ac0af70001b365b4","5f60e3c0a3b16e07647b2ff9","5f646a537652ac1ed8ec0de1","false","1200.2200000060839","<div align=justify>You will classify the objects using the <strong>'S'</strong> and the <strong>'L'</strong> keys on your keyboard.<br>For doing so, please place your <strong>left index finger</strong> on the <strong>'S'</strong> key and place your <strong>right index finger</strong> on the <strong>'L'</strong> key. <br><br> Each trial starts with an instruction, indicating which key ('S'/'L') you need to press to classify <br>the object as mechanical (letter M) or non-mechanical (letter N).<br>The instruction <strong>M + N</strong> indicates that, in the current trial, by pressing the left key ('S') you classify the displayed object as mechanical (M) <br> and by pressing the right key ('L') you classify the object as non-mechanical (N). <br>The instruction <strong>N + M</strong> on the other hand indicates that by pressing the left key ('S') you classify the displayed object as non-mechanical (N) <br> and by pressing the right key ('L') you classify the object as mechanical (M). <br><br>Please press the key corresponding to the correct classification as fast as possible as soon as the object is displayed and try to avoid making mistakes.<br>If you do not respond within a 2 second window, a corresponding feedback will be displayed and the next trial will start.<br> The experiment is divided into multiple blocks to give you the opportunity to take a break after each block. <br>First, you can now practice this task. <br><br>Please place your <strong>LEFT INDEX FINGER</strong> on the 'S' key and your <strong>RIGHT INDEX FINGER</strong> on the 'L' key now. <br><br>Press SPACE to continue.</div>","32","","","","","","","","","","","","","","","","","","","",""
"html-keyboard-response","45","305459","0.0-2.1-1.1","g43fsrj877ku9h9","instructions","59e0d7d6ac0af70001b365b4","5f60e3c0a3b16e07647b2ff9","5f646a537652ac1ed8ec0de1","false","695.4350000014529","<div align=left> You will now have time to practice this task.<br><br>Remember: <br> <br><li>Please place your index fingers on the <strong>'S'</strong> and <strong>'L'</strong> keys <br>to respond as fast and accurately as possible.</li><li>Every picture can be classified as either mechanical or non-mechanical.</li><li>If you do not respond in time or commit an error, you will receive a corresponding feedback. </li><li> Please try to respond as <strong> fast </strong> and as <strong> accurately as possible </strong> .<br><li>To ensure optimal results, please minimize distractions and stay focused. </li><br><br>Press SPACE to continue.</div>","32","","","","","","","","","","","","","","","","","","","",""
"html-keyboard-response","46","306161","0.0-2.1-2.1-0.16","g43fsrj877ku9h9","practice_no_cue","59e0d7d6ac0af70001b365b4","5f60e3c0a3b16e07647b2ff9","5f646a537652ac1ed8ec0de1","false","null","<span style=""color: black; font-size: 48px"">N + M</span>","null","","","","resp_prompt","","","","","","","","","","","","","","","",""
"categorize-image","47","307549","0.0-2.1-2.1-1.16","g43fsrj877ku9h9","practice_no_cue","59e0d7d6ac0af70001b365b4","5f60e3c0a3b16e07647b2ff9","5f646a537652ac1ed8ec0de1","true","883.495000001858","./Stimuli/ImagesPractice/LM55.jpg","76","","","","test","true","N + M","76","","LM","LM55.jpg","remember","old","17","2","practice_forget","right","","","",""
"html-keyboard-response","48","308252","0.0-2.1-2.1-0.17","g43fsrj877ku9h9","practice_no_cue","59e0d7d6ac0af70001b365b4","5f60e3c0a3b16e07647b2ff9","5f646a537652ac1ed8ec0de1","false","null","<span style=""color: black; font-size: 48px"">N + M</span>","null","","","","resp_prompt","","","","","","","","","","","","","","","",""
"categorize-image","49","309523","0.0-2.1-2.1-1.17","g43fsrj877ku9h9","practice_no_cue","59e0d7d6ac0af70001b365b4","5f60e3c0a3b16e07647b2ff9","5f646a537652ac1ed8ec0de1","true","766.9350000069244","./Stimuli/ImagesPractice/LN2.jpg","83","","","","test","true","N + M","83","","LN","LN2.jpg","remember","old","18","2","practice_forget","left","","","",""
"html-keyboard-response","50","310225","0.0-2.1-2.1-0.18","g43fsrj877ku9h9","practice_no_cue","59e0d7d6ac0af70001b365b4","5f60e3c0a3b16e07647b2ff9","5f646a537652ac1ed8ec0de1","false","null","<span style=""color: black; font-size: 48px"">M + N</span>","null","","","","resp_prompt","","","","","","","","","","","","","","","",""
"categorize-image","51","311527","0.0-2.1-2.1-1.18","g43fsrj877ku9h9","practice_no_cue","59e0d7d6ac0af70001b365b4","5f60e3c0a3b16e07647b2ff9","5f646a537652ac1ed8ec0de1","true","796.3949999975739","./Stimuli/ImagesPractice/SM37.jpg","83","","","","test","true","M + N","83","","SM","SM37.jpg","remember","old","19","2","practice_forget","left","","","",""
"html-keyboard-response","52","312229","0.0-2.1-2.1-0.19","g43fsrj877ku9h9","practice_no_cue","59e0d7d6ac0af70001b365b4","5f60e3c0a3b16e07647b2ff9","5f646a537652ac1ed8ec0de1","false","null","<span style=""color: black; font-size: 48px"">M + N</span>","null","","","","resp_prompt","","","","","","","","","","","","","","","",""
"categorize-image","53","313461","0.0-2.1-2.1-1.19","g43fsrj877ku9h9","practice_no_cue","59e0d7d6ac0af70001b365b4","5f60e3c0a3b16e07647b2ff9","5f646a537652ac1ed8ec0de1","true","726.8649999969057","./Stimuli/ImagesPractice/LM239.jpg","76","","","","test","false","M + N","83","","LM","LM239.jpg","forget","old","20","2","practice_forget","right","","","",""
"html-keyboard-response","54","314164","0.0-2.1-2.1-0.20","g43fsrj877ku9h9","practice_no_cue","59e0d7d6ac0af70001b365b4","5f60e3c0a3b16e07647b2ff9","5f646a537652ac1ed8ec0de1","false","null","<span style=""color: black; font-size: 48px"">M + N</span>","null","","","","resp_prompt","","","","","","","","","","","","","","","",""
"categorize-image","55","315455","0.0-2.1-2.1-1.20","g43fsrj877ku9h9","practice_no_cue","59e0d7d6ac0af70001b365b4","5f60e3c0a3b16e07647b2ff9","5f646a537652ac1ed8ec0de1","true","786.8250000028638","./Stimuli/ImagesPractice/LN72.jpg","76","","","","test","true","M + N","76","","LN","LN72.jpg","forget","old","21","2","practice_forget","right","","","",""
"html-keyboard-response","56","316159","0.0-2.1-2.1-0.21","g43fsrj877ku9h9","practice_no_cue","59e0d7d6ac0af70001b365b4","5f60e3c0a3b16e07647b2ff9","5f646a537652ac1ed8ec0de1","false","null","<span style=""color: black; font-size: 48px"">N + M</span>","null","","","","resp_prompt","","","","","","","","","","","","","","","",""
"categorize-image","57","317769","0.0-2.1-2.1-1.21","g43fsrj877ku9h9","practice_no_cue","59e0d7d6ac0af70001b365b4","5f60e3c0a3b16e07647b2ff9","5f646a537652ac1ed8ec0de1","true","1105.1749999969616","./Stimuli/ImagesPractice/SN222.jpg","83","","","","test","true","N + M","83","","SN","SN222.jpg","forget","old","22","2","practice_forget","left","","","",""
"html-keyboard-response","58","318472","0.0-2.1-2.1-0.22","g43fsrj877ku9h9","practice_no_cue","59e0d7d6ac0af70001b365b4","5f60e3c0a3b16e07647b2ff9","5f646a537652ac1ed8ec0de1","false","null","<span style=""color: black; font-size: 48px"">N + M</span>","null","","","","resp_prompt","","","","","","","","","","","","","","","",""
"categorize-image","59","319883","0.0-2.1-2.1-1.22","g43fsrj877ku9h9","practice_no_cue","59e0d7d6ac0af70001b365b4","5f60e3c0a3b16e07647b2ff9","5f646a537652ac1ed8ec0de1","true","906.6899999961606","./Stimuli/ImagesPractice/LN109.jpg","76","","","","test","false","N + M","83","","LN","LN109.jpg","forget","old","23","2","practice_forget","right","","","",""
"html-keyboard-response","60","320586","0.0-2.1-2.1-0.23","g43fsrj877ku9h9","practice_no_cue","59e0d7d6ac0af70001b365b4","5f60e3c0a3b16e07647b2ff9","5f646a537652ac1ed8ec0de1","false","null","<span style=""color: black; font-size: 48px"">N + M</span>","null","","","","resp_prompt","","","","","","","","","","","","","","","",""
"categorize-image","61","321859","0.0-2.1-2.1-1.23","g43fsrj877ku9h9","practice_no_cue","59e0d7d6ac0af70001b365b4","5f60e3c0a3b16e07647b2ff9","5f646a537652ac1ed8ec0de1","true","769.4750000009662","./Stimuli/ImagesPractice/SN220.jpg","83","","","","test","true","N + M","83","","SN","SN220.jpg","remember","old","24","2","practice_forget","left","","","",""
"html-keyboard-response","62","322562","0.0-2.1-2.1-0.24","g43fsrj877ku9h9","practice_no_cue","59e0d7d6ac0af70001b365b4","5f60e3c0a3b16e07647b2ff9","5f646a537652ac1ed8ec0de1","false","null","<span style=""color: black; font-size: 48px"">N + M</span>","null","","","","resp_prompt","","","","","","","","","","","","","","","",""
"categorize-image","63","323899","0.0-2.1-2.1-1.24","g43fsrj877ku9h9","practice_no_cue","59e0d7d6ac0af70001b365b4","5f60e3c0a3b16e07647b2ff9","5f646a537652ac1ed8ec0de1","true","832.3200000013458","./Stimuli/ImagesPractice/SN205.jpg","83","","","","test","true","N + M","83","","SN","SN205.jpg","forget","old","25","2","practice_forget","left","","","",""
"html-keyboard-response","64","324603","0.0-2.1-2.1-0.25","g43fsrj877ku9h9","practice_no_cue","59e0d7d6ac0af70001b365b4","5f60e3c0a3b16e07647b2ff9","5f646a537652ac1ed8ec0de1","false","null","<span style=""color: black; font-size: 48px"">M + N</span>","null","","","","resp_prompt","","","","","","","","","","","","","","","",""
"categorize-image","65","326229","0.0-2.1-2.1-1.25","g43fsrj877ku9h9","practice_no_cue","59e0d7d6ac0af70001b365b4","5f60e3c0a3b16e07647b2ff9","5f646a537652ac1ed8ec0de1","true","1120.7749999957741","./Stimuli/ImagesPractice/SN76.jpg","76","","","","test","true","M + N","76","","SN","SN76.jpg","remember","old","26","2","practice_forget","right","","","",""
"html-keyboard-response","66","326932","0.0-2.1-2.1-0.26","g43fsrj877ku9h9","practice_no_cue","59e0d7d6ac0af70001b365b4","5f60e3c0a3b16e07647b2ff9","5f646a537652ac1ed8ec0de1","false","null","<span style=""color: black; font-size: 48px"">M + N</span>","null","","","","resp_prompt","","","","","","","","","","","","","","","",""
"categorize-image","67","328473","0.0-2.1-2.1-1.26","g43fsrj877ku9h9","practice_no_cue","59e0d7d6ac0af70001b365b4","5f60e3c0a3b16e07647b2ff9","5f646a537652ac1ed8ec0de1","true","1035.4999999981374","./Stimuli/ImagesPractice/LN15.jpg","76","","","","test","true","M + N","76","","LN","LN15.jpg","remember","old","27","2","practice_forget","right","","","",""
"html-keyboard-response","68","329176","0.0-2.1-2.1-0.27","g43fsrj877ku9h9","practice_no_cue","59e0d7d6ac0af70001b365b4","5f60e3c0a3b16e07647b2ff9","5f646a537652ac1ed8ec0de1","false","null","<span style=""color: black; font-size: 48px"">M + N</span>","null","","","","resp_prompt","","","","","","","","","","","","","","","",""
"categorize-image","69","330489","0.0-2.1-2.1-1.27","g43fsrj877ku9h9","practice_no_cue","59e0d7d6ac0af70001b365b4","5f60e3c0a3b16e07647b2ff9","5f646a537652ac1ed8ec0de1","true","808.1400000010035","./Stimuli/ImagesPractice/SN75.jpg","76","","","","test","true","M + N","76","","SN","SN75.jpg","forget","old","28","2","practice_forget","right","","","",""
"html-keyboard-response","70","331191","0.0-2.1-2.1-0.28","g43fsrj877ku9h9","practice_no_cue","59e0d7d6ac0af70001b365b4","5f60e3c0a3b16e07647b2ff9","5f646a537652ac1ed8ec0de1","false","null","<span style=""color: black; font-size: 48px"">M + N</span>","null","","","","resp_prompt","","","","","","","","","","","","","","","",""
"categorize-image","71","332434","0.0-2.1-2.1-1.28","g43fsrj877ku9h9","practice_no_cue","59e0d7d6ac0af70001b365b4","5f60e3c0a3b16e07647b2ff9","5f646a537652ac1ed8ec0de1","true","737.105000000156","./Stimuli/ImagesPractice/SM97.jpg","83","","","","test","true","M + N","83","","SM","SM97.jpg","forget","old","29","2","practice_forget","left","","","",""
"html-keyboard-response","72","333137","0.0-2.1-2.1-0.29","g43fsrj877ku9h9","practice_no_cue","59e0d7d6ac0af70001b365b4","5f60e3c0a3b16e07647b2ff9","5f646a537652ac1ed8ec0de1","false","null","<span style=""color: black; font-size: 48px"">M + N</span>","null","","","","resp_prompt","","","","","","","","","","","","","","","",""
"categorize-image","73","334375","0.0-2.1-2.1-1.29","g43fsrj877ku9h9","practice_no_cue","59e0d7d6ac0af70001b365b4","5f60e3c0a3b16e07647b2ff9","5f646a537652ac1ed8ec0de1","true","734.1149999992922","./Stimuli/ImagesPractice/SM62.jpg","83","","","","test","true","M + N","83","","SM","SM62.jpg","remember","old","30","2","practice_forget","left","","","",""
"html-keyboard-response","74","335078","0.0-2.1-2.1-0.30","g43fsrj877ku9h9","practice_no_cue","59e0d7d6ac0af70001b365b4","5f60e3c0a3b16e07647b2ff9","5f646a537652ac1ed8ec0de1","false","null","<span style=""color: black; font-size: 48px"">N + M</span>","null","","","","resp_prompt","","","","","","","","","","","","","","","",""
"categorize-image","75","336278","0.0-2.1-2.1-1.30","g43fsrj877ku9h9","practice_no_cue","59e0d7d6ac0af70001b365b4","5f60e3c0a3b16e07647b2ff9","5f646a537652ac1ed8ec0de1","true","695.6849999987753","./Stimuli/ImagesPractice/SM35.jpg","76","","","","test","true","N + M","76","","SM","SM35.jpg","forget","old","31","2","practice_forget","right","","","",""
"html-keyboard-response","76","336981","0.0-2.1-2.1-0.31","g43fsrj877ku9h9","practice_no_cue","59e0d7d6ac0af70001b365b4","5f60e3c0a3b16e07647b2ff9","5f646a537652ac1ed8ec0de1","false","null","<span style=""color: black; font-size: 48px"">N + M</span>","null","","","","resp_prompt","","","","","","","","","","","","","","","",""
"categorize-image","77","338299","0.0-2.1-2.1-1.31","g43fsrj877ku9h9","practice_no_cue","59e0d7d6ac0af70001b365b4","5f60e3c0a3b16e07647b2ff9","5f646a537652ac1ed8ec0de1","true","813.4300000019721","./Stimuli/ImagesPractice/SN221.jpg","83","","","","test","true","N + M","83","","SN","SN221.jpg","remember","old","32","2","practice_forget","left","","","",""
"html-keyboard-response","78","340662","0.0-2.1-3.1","g43fsrj877ku9h9","break","59e0d7d6ac0af70001b365b4","5f60e3c0a3b16e07647b2ff9","5f646a537652ac1ed8ec0de1","false","2357.045000004291","<p style='font-size: 32px;'>Break</><br><br><br><br><br><p style='font-size: 24px;'>In the last block, you committed 2 errors and did not respond in time on 0 trials.
</p><p style='font-size: 24px;'>Try to respond as fast and accurately as possible in the next block as well! </p><p style='font-size: 24px;'>Press SPACE to continue.</p>","32","","","","","","","","","","","","","","","","","","","",""
"html-keyboard-response","79","343784","0.0-2.1-4.1","g43fsrj877ku9h9","instructions","59e0d7d6ac0af70001b365b4","5f60e3c0a3b16e07647b2ff9","5f646a537652ac1ed8ec0de1","false","3119.809999996505","<div align=left> Great!<br><br>Are you ready to continue?<br><br>If you want to reread the instructions and redo the practice trials, <br>please press „Z“. <br><br>Press SPACE to CONTINUE with the experiment when you are ready. </div>","32","","","","","","","","","","","","","","","","","","","",""
"html-keyboard-response","80","382031","0.0-3.0-0.0","g43fsrj877ku9h9","instructions","59e0d7d6ac0af70001b365b4","5f60e3c0a3b16e07647b2ff9","5f646a537652ac1ed8ec0de1","false","38246.16500000411","<div align=left>Great!<br> <strong>Attention</strong>! You will now receive a second, additional task! <br><br>To this point it was you <strong>first task</strong> to correctly <strong>classify objects</strong>. <br><br>As mentioned in the beginning, we aim to examine how well humans can remember previously learned information.<br>We would like to find out whether our memory improves if we only remember information that is relevant to us. <br><br>Therefore, your <strong>second task</strong> will be to <strong>remember</strong> the pictures you are to categorize. <br> After the learning phase, there will be a memory test phase, in which you will be asked to indicate whether you have seen a picture before or not. <br>Some, but not all pictures shown in the learning phase will appear in the memory test phase.<br>After classifying a picture, you will be told whether you should remember it for the memory test phase or not. <br>Thus, some pictures can be forgotten, whereas others have to be remembered. <br><br>Note: From now on, feedback will only be displayed if you responded incorrectly or not in time.<br><br>Press SPACE to continue.</div>","32","","","","","","","","","","","","","","","","","","","",""
"html-keyboard-response","81","394390","0.0-3.0-1.0","g43fsrj877ku9h9","instructions","59e0d7d6ac0af70001b365b4","5f60e3c0a3b16e07647b2ff9","5f646a537652ac1ed8ec0de1","false","12356.940000005125","<div align=left>In the following part, you will thus have to remember only some pictures. <br>Immediately after seeing and classifying the picture, a symbol will be displayed, indicating whether you should remember or forget the previous picture. <br><br>A <span style='color: dodgerblue; font-size: 28px'>O</span> indicates REMEMBER. That means, you have to remember this picture, because it will be tested later. <br><br>A <span style='color: darkorange; font-size:28px'>Ø</span> indicates FORGET. You do not have to remember this picture. <br><br> As you will have to remember a lot of pictures, it will be hard for you to remember all of them. <br>It will put you at an advantage if you instantly forget the pictures you are not asked to remember. <br> This will make it easier for you to remember the pictures that will be tested afterwards. <br><br>Press SPACE to continue.</div>","32","","","","","","","","","","","","","","","","","","","",""
"html-keyboard-response","82","396897","0.0-3.0-2.0","g43fsrj877ku9h9","instructions","59e0d7d6ac0af70001b365b4","5f60e3c0a3b16e07647b2ff9","5f646a537652ac1ed8ec0de1","false","2504.2299999986426","<div align=left> Now you have the chance to practice both tasks together.<br><br>Remember: <br> <br><li>Please place your index fingers on the <strong>'S'</strong> and <strong>'L'</strong> keys <br>to respond as fast and accurately as possible.</li><li>Every picture can be classified as either mechanical or non-mechanical.</li><li>If you do not respond in time or commit an error, you will receive a corresponding feedback. <br>Please try to respond as <strong> fast </strong> and as <strong> accurately as possible </strong>.</li><li> Please remember only the to-be-remembered <span style='color: dodgerblue; font-size: 28px'>O</span> pictures. <br></li><li> Please minimize distractions and stay focused. </li><br><br>Press SPACE to START</div>","32","","","","","","","","","","","","","","","","","","","",""
"html-keyboard-response","83","397600","0.0-3.0-3.0-0.0","g43fsrj877ku9h9","practice_cue","59e0d7d6ac0af70001b365b4","5f60e3c0a3b16e07647b2ff9","5f646a537652ac1ed8ec0de1","false","null","<span style=""color: black; font-size: 48px"">N + M</span>","null","","","","resp_prompt","","","","","","","","","","","","","","","",""
"categorize-image","84","398134","0.0-3.0-3.0-1.0","g43fsrj877ku9h9","practice_cue","59e0d7d6ac0af70001b365b4","5f60e3c0a3b16e07647b2ff9","5f646a537652ac1ed8ec0de1","true","526.5849999996135","./Stimuli/ImagesPractice/SM35.jpg","76","","","","test","true","N + M","76","","SM","SM35.jpg","forget","old","33","3","practice_forget","right","","","",""
"html-keyboard-response","85","400136","0.0-3.0-3.0-3.0","g43fsrj877ku9h9","practice_cue","59e0d7d6ac0af70001b365b4","5f60e3c0a3b16e07647b2ff9","5f646a537652ac1ed8ec0de1","false","null","<div style=""align-items: center; display: flex; color: darkorange; font-size: 90px""><b>ø</b></div>","null","","","","forget_cue","","","","","","","","","","","","","","","",""
"html-keyboard-response","86","400839","0.0-3.0-3.0-0.1","g43fsrj877ku9h9","practice_cue","59e0d7d6ac0af70001b365b4","5f60e3c0a3b16e07647b2ff9","5f646a537652ac1ed8ec0de1","false","null","<span style=""color: black; font-size: 48px"">M + N</span>","null","","","","resp_prompt","","","","","","","","","","","","","","","",""
"categorize-image","87","401647","0.0-3.0-3.0-1.1","g43fsrj877ku9h9","practice_cue","59e0d7d6ac0af70001b365b4","5f60e3c0a3b16e07647b2ff9","5f646a537652ac1ed8ec0de1","true","801.050000001851","./Stimuli/ImagesPractice/LN15.jpg","76","","","","test","true","M + N","76","","LN","LN15.jpg","remember","old","34","3","practice_forget","right","","","",""
"html-keyboard-response","88","403650","0.0-3.0-3.0-3.1","g43fsrj877ku9h9","practice_cue","59e0d7d6ac0af70001b365b4","5f60e3c0a3b16e07647b2ff9","5f646a537652ac1ed8ec0de1","false","null","<div style=""align-items: center; display: flex; color: dodgerblue; font-size: 90px""><b>o</b></div>","null","","","","forget_cue","","","","","","","","","","","","","","","",""
"html-keyboard-response","89","404352","0.0-3.0-3.0-0.2","g43fsrj877ku9h9","practice_cue","59e0d7d6ac0af70001b365b4","5f60e3c0a3b16e07647b2ff9","5f646a537652ac1ed8ec0de1","false","null","<span style=""color: black; font-size: 48px"">M + N</span>","null","","","","resp_prompt","","","","","","","","","","","","","","","",""
"categorize-image","90","405197","0.0-3.0-3.0-1.2","g43fsrj877ku9h9","practice_cue","59e0d7d6ac0af70001b365b4","5f60e3c0a3b16e07647b2ff9","5f646a537652ac1ed8ec0de1","true","839.0049999943585","./Stimuli/ImagesPractice/LN72.jpg","76","","","","test","true","M + N","76","","LN","LN72.jpg","forget","old","35","3","practice_forget","right","","","",""
"html-keyboard-response","91","407199","0.0-3.0-3.0-3.2","g43fsrj877ku9h9","practice_cue","59e0d7d6ac0af70001b365b4","5f60e3c0a3b16e07647b2ff9","5f646a537652ac1ed8ec0de1","false","null","<div style=""align-items: center; display: flex; color: darkorange; font-size: 90px""><b>ø</b></div>","null","","","","forget_cue","","","","","","","","","","","","","","","",""
"html-keyboard-response","92","407904","0.0-3.0-3.0-0.3","g43fsrj877ku9h9","practice_cue","59e0d7d6ac0af70001b365b4","5f60e3c0a3b16e07647b2ff9","5f646a537652ac1ed8ec0de1","false","null","<span style=""color: black; font-size: 48px"">N + M</span>","null","","","","resp_prompt","","","","","","","","","","","","","","","",""
"categorize-image","93","408901","0.0-3.0-3.0-1.3","g43fsrj877ku9h9","practice_cue","59e0d7d6ac0af70001b365b4","5f60e3c0a3b16e07647b2ff9","5f646a537652ac1ed8ec0de1","true","991.4700000008452","./Stimuli/ImagesPractice/SN222.jpg","83","","","","test","true","N + M","83","","SN","SN222.jpg","forget","old","36","3","practice_forget","left","","","",""
"html-keyboard-response","94","410903","0.0-3.0-3.0-3.3","g43fsrj877ku9h9","practice_cue","59e0d7d6ac0af70001b365b4","5f60e3c0a3b16e07647b2ff9","5f646a537652ac1ed8ec0de1","false","null","<div style=""align-items: center; display: flex; color: darkorange; font-size: 90px""><b>ø</b></div>","null","","","","forget_cue","","","","","","","","","","","","","","","",""
"html-keyboard-response","95","411604","0.0-3.0-3.0-0.4","g43fsrj877ku9h9","practice_cue","59e0d7d6ac0af70001b365b4","5f60e3c0a3b16e07647b2ff9","5f646a537652ac1ed8ec0de1","false","null","<span style=""color: black; font-size: 48px"">M + N</span>","null","","","","resp_prompt","","","","","","","","","","","","","","","",""
"categorize-image","96","412600","0.0-3.0-3.0-1.4","g43fsrj877ku9h9","practice_cue","59e0d7d6ac0af70001b365b4","5f60e3c0a3b16e07647b2ff9","5f646a537652ac1ed8ec0de1","true","989.7449999989476","./Stimuli/ImagesPractice/SM62.jpg","83","","","","test","true","M + N","83","","SM","SM62.jpg","remember","old","37","3","practice_forget","left","","","",""
"html-keyboard-response","97","414603","0.0-3.0-3.0-3.4","g43fsrj877ku9h9","practice_cue","59e0d7d6ac0af70001b365b4","5f60e3c0a3b16e07647b2ff9","5f646a537652ac1ed8ec0de1","false","null","<div style=""align-items: center; display: flex; color: dodgerblue; font-size: 90px""><b>o</b></div>","null","","","","forget_cue","","","","","","","","","","","","","","","",""
"html-keyboard-response","98","415306","0.0-3.0-3.0-0.5","g43fsrj877ku9h9","practice_cue","59e0d7d6ac0af70001b365b4","5f60e3c0a3b16e07647b2ff9","5f646a537652ac1ed8ec0de1","false","null","<span style=""color: black; font-size: 48px"">M + N</span>","null","","","","resp_prompt","","","","","","","","","","","","","","","",""
"categorize-image","99","415977","0.0-3.0-3.0-1.5","g43fsrj877ku9h9","practice_cue","59e0d7d6ac0af70001b365b4","5f60e3c0a3b16e07647b2ff9","5f646a537652ac1ed8ec0de1","true","666.2950000027195","./Stimuli/ImagesPractice/SM97.jpg","83","","","","test","true","M + N","83","","SM","SM97.jpg","forget","old","38","3","practice_forget","left","","","",""
"html-keyboard-response","100","417979","0.0-3.0-3.0-3.5","g43fsrj877ku9h9","practice_cue","59e0d7d6ac0af70001b365b4","5f60e3c0a3b16e07647b2ff9","5f646a537652ac1ed8ec0de1","false","null","<div style=""align-items: center; display: flex; color: darkorange; font-size: 90px""><b>ø</b></div>","null","","","","forget_cue","","","","","","","","","","","","","","","",""
"html-keyboard-response","101","418683","0.0-3.0-3.0-0.6","g43fsrj877ku9h9","practice_cue","59e0d7d6ac0af70001b365b4","5f60e3c0a3b16e07647b2ff9","5f646a537652ac1ed8ec0de1","false","null","<span style=""color: black; font-size: 48px"">N + M</span>","null","","","","resp_prompt","","","","","","","","","","","","","","","",""
"categorize-image","102","419495","0.0-3.0-3.0-1.6","g43fsrj877ku9h9","practice_cue","59e0d7d6ac0af70001b365b4","5f60e3c0a3b16e07647b2ff9","5f646a537652ac1ed8ec0de1","true","806.6400000025169","./Stimuli/ImagesPractice/SN221.jpg","83","","","","test","true","N + M","83","","SN","SN221.jpg","remember","old","39","3","practice_forget","left","","","",""
"html-keyboard-response","103","421498","0.0-3.0-3.0-3.6","g43fsrj877ku9h9","practice_cue","59e0d7d6ac0af70001b365b4","5f60e3c0a3b16e07647b2ff9","5f646a537652ac1ed8ec0de1","false","null","<div style=""align-items: center; display: flex; color: dodgerblue; font-size: 90px""><b>o</b></div>","null","","","","forget_cue","","","","","","","","","","","","","","","",""
"html-keyboard-response","104","422201","0.0-3.0-3.0-0.7","g43fsrj877ku9h9","practice_cue","59e0d7d6ac0af70001b365b4","5f60e3c0a3b16e07647b2ff9","5f646a537652ac1ed8ec0de1","false","null","<span style=""color: black; font-size: 48px"">N + M</span>","null","","","","resp_prompt","","","","","","","","","","","","","","","",""
"categorize-image","105","423056","0.0-3.0-3.0-1.7","g43fsrj877ku9h9","practice_cue","59e0d7d6ac0af70001b365b4","5f60e3c0a3b16e07647b2ff9","5f646a537652ac1ed8ec0de1","true","850.2000000007683","./Stimuli/ImagesPractice/LN109.jpg","76","","","","test","false","N + M","83","","LN","LN109.jpg","forget","old","40","3","practice_forget","right","","","",""
"html-keyboard-response","106","423559","0.0-3.0-3.0-2.7-0.7","g43fsrj877ku9h9","practice_cue","59e0d7d6ac0af70001b365b4","5f60e3c0a3b16e07647b2ff9","5f646a537652ac1ed8ec0de1","false","null","<span style=""color: red; font-size: 48px"">Error!</span>","null","","","","feedback","","","","","","","","","","","","","","","",""
"html-keyboard-response","107","425561","0.0-3.0-3.0-3.7","g43fsrj877ku9h9","practice_cue","59e0d7d6ac0af70001b365b4","5f60e3c0a3b16e07647b2ff9","5f646a537652ac1ed8ec0de1","false","null","<div style=""align-items: center; display: flex; color: darkorange; font-size: 90px""><b>ø</b></div>","null","","","","forget_cue","","","","","","","","","","","","","","","",""
"html-keyboard-response","108","426264","0.0-3.0-3.0-0.8","g43fsrj877ku9h9","practice_cue","59e0d7d6ac0af70001b365b4","5f60e3c0a3b16e07647b2ff9","5f646a537652ac1ed8ec0de1","false","null","<span style=""color: black; font-size: 48px"">M + N</span>","null","","","","resp_prompt","","","","","","","","","","","","","","","",""
"categorize-image","109","427164","0.0-3.0-3.0-1.8","g43fsrj877ku9h9","practice_cue","59e0d7d6ac0af70001b365b4","5f60e3c0a3b16e07647b2ff9","5f646a537652ac1ed8ec0de1","true","894.26999999705","./Stimuli/ImagesPractice/SN76.jpg","76","","","","test","true","M + N","76","","SN","SN76.jpg","remember","old","41","3","practice_forget","right","","","",""
"html-keyboard-response","110","429167","0.0-3.0-3.0-3.8","g43fsrj877ku9h9","practice_cue","59e0d7d6ac0af70001b365b4","5f60e3c0a3b16e07647b2ff9","5f646a537652ac1ed8ec0de1","false","null","<div style=""align-items: center; display: flex; color: dodgerblue; font-size: 90px""><b>o</b></div>","null","","","","forget_cue","","","","","","","","","","","","","","","",""
"html-keyboard-response","111","429870","0.0-3.0-3.0-0.9","g43fsrj877ku9h9","practice_cue","59e0d7d6ac0af70001b365b4","5f60e3c0a3b16e07647b2ff9","5f646a537652ac1ed8ec0de1","false","null","<span style=""color: black; font-size: 48px"">N + M</span>","null","","","","resp_prompt","","","","","","","","","","","","","","","",""
"categorize-image","112","431073","0.0-3.0-3.0-1.9","g43fsrj877ku9h9","practice_cue","59e0d7d6ac0af70001b365b4","5f60e3c0a3b16e07647b2ff9","5f646a537652ac1ed8ec0de1","true","1196.92500000383","./Stimuli/ImagesPractice/LN2.jpg","83","","","","test","true","N + M","83","","LN","LN2.jpg","remember","old","42","3","practice_forget","left","","","",""
"html-keyboard-response","113","433076","0.0-3.0-3.0-3.9","g43fsrj877ku9h9","practice_cue","59e0d7d6ac0af70001b365b4","5f60e3c0a3b16e07647b2ff9","5f646a537652ac1ed8ec0de1","false","null","<div style=""align-items: center; display: flex; color: dodgerblue; font-size: 90px""><b>o</b></div>","null","","","","forget_cue","","","","","","","","","","","","","","","",""
"html-keyboard-response","114","433779","0.0-3.0-3.0-0.10","g43fsrj877ku9h9","practice_cue","59e0d7d6ac0af70001b365b4","5f60e3c0a3b16e07647b2ff9","5f646a537652ac1ed8ec0de1","false","null","<span style=""color: black; font-size: 48px"">M + N</span>","null","","","","resp_prompt","","","","","","","","","","","","","","","",""
"categorize-image","115","434897","0.0-3.0-3.0-1.10","g43fsrj877ku9h9","practice_cue","59e0d7d6ac0af70001b365b4","5f60e3c0a3b16e07647b2ff9","5f646a537652ac1ed8ec0de1","true","1112.9999999975553","./Stimuli/ImagesPractice/LM239.jpg","83","","","","test","true","M + N","83","","LM","LM239.jpg","forget","old","43","3","practice_forget","left","","","",""
"html-keyboard-response","116","436901","0.0-3.0-3.0-3.10","g43fsrj877ku9h9","practice_cue","59e0d7d6ac0af70001b365b4","5f60e3c0a3b16e07647b2ff9","5f646a537652ac1ed8ec0de1","false","null","<div style=""align-items: center; display: flex; color: darkorange; font-size: 90px""><b>ø</b></div>","null","","","","forget_cue","","","","","","","","","","","","","","","",""
"html-keyboard-response","117","437603","0.0-3.0-3.0-0.11","g43fsrj877ku9h9","practice_cue","59e0d7d6ac0af70001b365b4","5f60e3c0a3b16e07647b2ff9","5f646a537652ac1ed8ec0de1","false","null","<span style=""color: black; font-size: 48px"">M + N</span>","null","","","","resp_prompt","","","","","","","","","","","","","","","",""
"categorize-image","118","438707","0.0-3.0-3.0-1.11","g43fsrj877ku9h9","practice_cue","59e0d7d6ac0af70001b365b4","5f60e3c0a3b16e07647b2ff9","5f646a537652ac1ed8ec0de1","true","1097.5350000007893","./Stimuli/ImagesPractice/SN75.jpg","76","","","","test","true","M + N","76","","SN","SN75.jpg","forget","old","44","3","practice_forget","right","","","",""
"html-keyboard-response","119","440711","0.0-3.0-3.0-3.11","g43fsrj877ku9h9","practice_cue","59e0d7d6ac0af70001b365b4","5f60e3c0a3b16e07647b2ff9","5f646a537652ac1ed8ec0de1","false","null","<div style=""align-items: center; display: flex; color: darkorange; font-size: 90px""><b>ø</b></div>","null","","","","forget_cue","","","","","","","","","","","","","","","",""
"html-keyboard-response","120","441413","0.0-3.0-3.0-0.12","g43fsrj877ku9h9","practice_cue","59e0d7d6ac0af70001b365b4","5f60e3c0a3b16e07647b2ff9","5f646a537652ac1ed8ec0de1","false","null","<span style=""color: black; font-size: 48px"">N + M</span>","null","","","","resp_prompt","","","","","","","","","","","","","","","",""
"categorize-image","121","442222","0.0-3.0-3.0-1.12","g43fsrj877ku9h9","practice_cue","59e0d7d6ac0af70001b365b4","5f60e3c0a3b16e07647b2ff9","5f646a537652ac1ed8ec0de1","true","803.0450000005658","./Stimuli/ImagesPractice/LM55.jpg","76","","","","test","true","N + M","76","","LM","LM55.jpg","remember","old","45","3","practice_forget","right","","","",""
"html-keyboard-response","122","444224","0.0-3.0-3.0-3.12","g43fsrj877ku9h9","practice_cue","59e0d7d6ac0af70001b365b4","5f60e3c0a3b16e07647b2ff9","5f646a537652ac1ed8ec0de1","false","null","<div style=""align-items: center; display: flex; color: dodgerblue; font-size: 90px""><b>o</b></div>","null","","","","forget_cue","","","","","","","","","","","","","","","",""
"html-keyboard-response","123","444926","0.0-3.0-3.0-0.13","g43fsrj877ku9h9","practice_cue","59e0d7d6ac0af70001b365b4","5f60e3c0a3b16e07647b2ff9","5f646a537652ac1ed8ec0de1","false","null","<span style=""color: black; font-size: 48px"">M + N</span>","null","","","","resp_prompt","","","","","","","","","","","","","","","",""
"categorize-image","124","445672","0.0-3.0-3.0-1.13","g43fsrj877ku9h9","practice_cue","59e0d7d6ac0af70001b365b4","5f60e3c0a3b16e07647b2ff9","5f646a537652ac1ed8ec0de1","true","739.9399999994785","./Stimuli/ImagesPractice/SM37.jpg","83","","","","test","true","M + N","83","","SM","SM37.jpg","remember","old","46","3","practice_forget","left","","","",""
"html-keyboard-response","125","447675","0.0-3.0-3.0-3.13","g43fsrj877ku9h9","practice_cue","59e0d7d6ac0af70001b365b4","5f60e3c0a3b16e07647b2ff9","5f646a537652ac1ed8ec0de1","false","null","<div style=""align-items: center; display: flex; color: dodgerblue; font-size: 90px""><b>o</b></div>","null","","","","forget_cue","","","","","","","","","","","","","","","",""
"html-keyboard-response","126","448378","0.0-3.0-3.0-0.14","g43fsrj877ku9h9","practice_cue","59e0d7d6ac0af70001b365b4","5f60e3c0a3b16e07647b2ff9","5f646a537652ac1ed8ec0de1","false","null","<span style=""color: black; font-size: 48px"">N + M</span>","null","","","","resp_prompt","","","","","","","","","","","","","","","",""
"categorize-image","127","449317","0.0-3.0-3.0-1.14","g43fsrj877ku9h9","practice_cue","59e0d7d6ac0af70001b365b4","5f60e3c0a3b16e07647b2ff9","5f646a537652ac1ed8ec0de1","true","934.4349999955739","./Stimuli/ImagesPractice/SN220.jpg","83","","","","test","true","N + M","83","","SN","SN220.jpg","remember","old","47","3","practice_forget","left","","","",""
"html-keyboard-response","128","451319","0.0-3.0-3.0-3.14","g43fsrj877ku9h9","practice_cue","59e0d7d6ac0af70001b365b4","5f60e3c0a3b16e07647b2ff9","5f646a537652ac1ed8ec0de1","false","null","<div style=""align-items: center; display: flex; color: dodgerblue; font-size: 90px""><b>o</b></div>","null","","","","forget_cue","","","","","","","","","","","","","","","",""
"html-keyboard-response","129","452022","0.0-3.0-3.0-0.15","g43fsrj877ku9h9","practice_cue","59e0d7d6ac0af70001b365b4","5f60e3c0a3b16e07647b2ff9","5f646a537652ac1ed8ec0de1","false","null","<span style=""color: black; font-size: 48px"">N + M</span>","null","","","","resp_prompt","","","","","","","","","","","","","","","",""
"categorize-image","130","452776","0.0-3.0-3.0-1.15","g43fsrj877ku9h9","practice_cue","59e0d7d6ac0af70001b365b4","5f60e3c0a3b16e07647b2ff9","5f646a537652ac1ed8ec0de1","true","748.0849999992643","./Stimuli/ImagesPractice/SN205.jpg","83","","","","test","true","N + M","83","","SN","SN205.jpg","forget","old","48","3","practice_forget","left","","","",""
"html-keyboard-response","131","454779","0.0-3.0-3.0-3.15","g43fsrj877ku9h9","practice_cue","59e0d7d6ac0af70001b365b4","5f60e3c0a3b16e07647b2ff9","5f646a537652ac1ed8ec0de1","false","null","<div style=""align-items: center; display: flex; color: darkorange; font-size: 90px""><b>ø</b></div>","null","","","","forget_cue","","","","","","","","","","","","","","","",""
"html-keyboard-response","132","458350","0.0-3.0-4.0","g43fsrj877ku9h9","break","59e0d7d6ac0af70001b365b4","5f60e3c0a3b16e07647b2ff9","5f646a537652ac1ed8ec0de1","false","3567.635000006703","<p style='font-size: 32px;'>Break</><br><br><br><br><br><p style='font-size: 24px;'>In the last block, you committed 1 errors and did not respond in time on 0 trials.
</p><p style='font-size: 24px;'>Try to respond as fast and accurately as possible in the next block as well! </p><p style='font-size: 24px;'>Press SPACE to continue.</p>","32","","","","","","","","","","","","","","","","","","","",""
"html-keyboard-response","133","474746","0.0-3.0-5.0","g43fsrj877ku9h9","instructions","59e0d7d6ac0af70001b365b4","5f60e3c0a3b16e07647b2ff9","5f646a537652ac1ed8ec0de1","false","16394.280000000435","<div align=left> Now, to practice, we kindly ask you to remember as many of the to-be-remembered pictures<br>of the previous learning phase as possible.<br><br>The pictures you were instructed to remember were the pictures followed by a <span style='color: dodgerblue; font-size: 28px'>O</span>.<br><br>In this memory test phase, you will also see some new pictures.<br>It is your task to remember whether you were presented with this specific picture in this study so far or not.<br>If you recognize an object (you have already seen it in this study), it is an OLD object. <br>If you do not recognize an object (you have NOT seen it in this study), it is a NEW object. <br><strong> Attention</strong>: As already mentioned, <span style='color: darkorange; font-size:28px'>Ø</span>-pictures will <strong>never</strong> appear in this memory test (neither as new objects). <br><br>Press SPACE to continue. </div>","32","","","","","","","","","","","","","","","","","","","",""
"html-keyboard-response","134","497864","0.0-3.0-6.0","g43fsrj877ku9h9","instructions","59e0d7d6ac0af70001b365b4","5f60e3c0a3b16e07647b2ff9","5f646a537652ac1ed8ec0de1","false","23115.859999998065","<div align=left> M and N no longer will appear on the left/right of the fixation cross. <br>Instead there will be a note at the bottom of the left or right side  <br>indicating which key you should press for an old or new object:  <br> <br>Press the <strong>right</strong> key to classify an object as <strong>old</strong> and press the <strong>left</strong>, to classify an object as <strong>new</strong>.<br>Please classify the objects as new/old by again placing your index finger on the 'S' and 'L' keys <br>and press them accordingly.<br><br><strong>Old:</strong> This object has been presented before. <br><strong>New:</strong> This object has <strong>not</strong> been presented.<br><br>Now please put your right and left index fingers on the 'S' and 'L' keys of your keyboard. <br>Please respond as fast and as accurately as possible!<br><br>Press SPACE to continue. </div>","32","","","","","","","","","","","","","","","","","","","",""
"categorize-image","135","501273","0.0-3.0-7.0-0.0","g43fsrj877ku9h9","practice_recog","59e0d7d6ac0af70001b365b4","5f60e3c0a3b16e07647b2ff9","5f646a537652ac1ed8ec0de1","true","2903.019999997923","./Stimuli/ImagesPractice/LM55.jpg","76","","","","test","true","","76","","LM","LM55.jpg","","old","49","4","practice_recog","right","","","",""
"categorize-image","136","503152","0.0-3.0-7.0-0.1","g43fsrj877ku9h9","practice_recog","59e0d7d6ac0af70001b365b4","5f60e3c0a3b16e07647b2ff9","5f646a537652ac1ed8ec0de1","true","1374.0500000058091","./Stimuli/ImagesPractice/SN221.jpg","76","","","","test","true","","76","","SN","SN221.jpg","","old","50","4","practice_recog","right","","","",""
"categorize-image","137","504629","0.0-3.0-7.0-0.2","g43fsrj877ku9h9","practice_recog","59e0d7d6ac0af70001b365b4","5f60e3c0a3b16e07647b2ff9","5f646a537652ac1ed8ec0de1","true","972.154999995837","./Stimuli/ImagesPractice/SM62.jpg","76","","","","test","true","","76","","SM","SM62.jpg","","old","51","4","practice_recog","right","","","",""
"categorize-image","138","506046","0.0-3.0-7.0-0.3","g43fsrj877ku9h9","practice_recog","59e0d7d6ac0af70001b365b4","5f60e3c0a3b16e07647b2ff9","5f646a537652ac1ed8ec0de1","true","912.5849999982165","./Stimuli/ImagesPractice/LN2.jpg","76","","","","test","true","","76","","LN","LN2.jpg","","old","52","4","practice_recog","right","","","",""
"categorize-image","139","507425","0.0-3.0-7.0-0.4","g43fsrj877ku9h9","practice_recog","59e0d7d6ac0af70001b365b4","5f60e3c0a3b16e07647b2ff9","5f646a537652ac1ed8ec0de1","true","873.8000000012107","./Stimuli/ImagesPractice/LN17.jpg","83","","","","test","true","","83","","LN","LN17.jpg","","new","53","4","practice_recog","left","","","",""
"categorize-image","140","508787","0.0-3.0-7.0-0.5","g43fsrj877ku9h9","practice_recog","59e0d7d6ac0af70001b365b4","5f60e3c0a3b16e07647b2ff9","5f646a537652ac1ed8ec0de1","true","857.7599999989616","./Stimuli/ImagesPractice/LM147.jpg","83","","","","test","true","","83","","LM","LM147.jpg","","new","54","4","practice_recog","left","","","",""
"categorize-image","141","510097","0.0-3.0-7.0-0.6","g43fsrj877ku9h9","practice_recog","59e0d7d6ac0af70001b365b4","5f60e3c0a3b16e07647b2ff9","5f646a537652ac1ed8ec0de1","true","805.2500000048894","./Stimuli/ImagesPractice/LM224.jpg","83","","","","test","true","","83","","LM","LM224.jpg","","new","55","4","practice_recog","left","","","",""
"categorize-image","142","511253","0.0-3.0-7.0-0.7","g43fsrj877ku9h9","practice_recog","59e0d7d6ac0af70001b365b4","5f60e3c0a3b16e07647b2ff9","5f646a537652ac1ed8ec0de1","true","651.9299999999348","./Stimuli/ImagesPractice/LM230.jpg","83","","","","test","true","","83","","LM","LM230.jpg","","new","56","4","practice_recog","left","","","",""
"categorize-image","143","512751","0.0-3.0-7.0-0.8","g43fsrj877ku9h9","practice_recog","59e0d7d6ac0af70001b365b4","5f60e3c0a3b16e07647b2ff9","5f646a537652ac1ed8ec0de1","true","991.9000000009546","./Stimuli/ImagesPractice/SN220.jpg","76","","","","test","true","","76","","SN","SN220.jpg","","old","57","4","practice_recog","right","","","",""
"categorize-image","144","514130","0.0-3.0-7.0-0.9","g43fsrj877ku9h9","practice_recog","59e0d7d6ac0af70001b365b4","5f60e3c0a3b16e07647b2ff9","5f646a537652ac1ed8ec0de1","true","874.1550000049174","./Stimuli/ImagesPractice/SM37.jpg","76","","","","test","true","","76","","SM","SM37.jpg","","old","58","4","practice_recog","right","","","",""
"categorize-image","145","515260","0.0-3.0-7.0-0.10","g43fsrj877ku9h9","practice_recog","59e0d7d6ac0af70001b365b4","5f60e3c0a3b16e07647b2ff9","5f646a537652ac1ed8ec0de1","true","625.6099999954458","./Stimuli/ImagesPractice/LN15.jpg","76","","","","test","true","","76","","LN","LN15.jpg","","old","59","4","practice_recog","right","","","",""
"categorize-image","146","516664","0.0-3.0-7.0-0.11","g43fsrj877ku9h9","practice_recog","59e0d7d6ac0af70001b365b4","5f60e3c0a3b16e07647b2ff9","5f646a537652ac1ed8ec0de1","true","898.0699999956414","./Stimuli/ImagesPractice/LN4.jpg","83","","","","test","true","","83","","LN","LN4.jpg","","new","60","4","practice_recog","left","","","",""
"categorize-image","147","518504","0.0-3.0-7.0-0.12","g43fsrj877ku9h9","practice_recog","59e0d7d6ac0af70001b365b4","5f60e3c0a3b16e07647b2ff9","5f646a537652ac1ed8ec0de1","true","1335.5450000016717","./Stimuli/ImagesPractice/SM61.jpg","83","","","","test","true","","83","","SM","SM61.jpg","","new","61","4","practice_recog","left","","","",""
"categorize-image","148","519754","0.0-3.0-7.0-0.13","g43fsrj877ku9h9","practice_recog","59e0d7d6ac0af70001b365b4","5f60e3c0a3b16e07647b2ff9","5f646a537652ac1ed8ec0de1","true","745.0550000066869","./Stimuli/ImagesPractice/SM98.jpg","83","","","","test","true","","83","","SM","SM98.jpg","","new","62","4","practice_recog","left","","","",""
"categorize-image","149","520931","0.0-3.0-7.0-0.14","g43fsrj877ku9h9","practice_recog","59e0d7d6ac0af70001b365b4","5f60e3c0a3b16e07647b2ff9","5f646a537652ac1ed8ec0de1","true","673.524999998277","./Stimuli/ImagesPractice/LM143.jpg","83","","","","test","true","","83","","LM","LM143.jpg","","new","63","4","practice_recog","left","","","",""
"categorize-image","150","522240","0.0-3.0-7.0-0.15","g43fsrj877ku9h9","practice_recog","59e0d7d6ac0af70001b365b4","5f60e3c0a3b16e07647b2ff9","5f646a537652ac1ed8ec0de1","true","804.3550000002142","./Stimuli/ImagesPractice/SN76.jpg","76","","","","test","true","","76","","SN","SN76.jpg","","old","64","4","practice_recog","right","","","",""
"html-keyboard-response","151","524955","0.0-3.0-8.0","g43fsrj877ku9h9","instructions","59e0d7d6ac0af70001b365b4","5f60e3c0a3b16e07647b2ff9","5f646a537652ac1ed8ec0de1","false","2712.680000004242","<div align=left> Great!<br><br>Are you ready to continue?<br>If you want to reread the instructions and redo the practice trials, please <br>press „Z“.<br><br>You can proceed when you are ready.<br><br>After the presentation of each object, you will receive an instruction whether to <br>remember or to forget the object.<br>We will test your memory of the following pictures only at the very end of <br>the experiment after all learning blocks are completed. <br><br>Press SPACE to CONTINUE when you are ready. </div>","32","","","","","","","","","","","","","","","","","","","",""
"html-keyboard-response","152","526002","0.0-4.0-0.0","g43fsrj877ku9h9","instructions","59e0d7d6ac0af70001b365b4","5f60e3c0a3b16e07647b2ff9","5f646a537652ac1ed8ec0de1","false","1044.9399999998277","<div align=left> The actual experiment is about to start.<br>The practice trials are over!<br><br>Please always respond both fast and accurately!<br><br>Remember: <br> <br><li> Please place your index fingers on the <strong>'S'</strong> and <strong>'L'</strong> keys <br>to respond as fast and accurately as possible.</li><li> Every picture can be classified as either mechanical or non-mechanical.</li><li> If you do not respond in time or commit an error, you will receive a corresponding feedback.<br> Please try to respond as <strong> fast </strong> and as <strong> accurately as possible </strong>.</li><li> Remember the <span style='color: dodgerblue; font-size: 28px'>O</span> pictures. <br></li><li> Please minimize distractions and stay focused. </li><br><br>Press SPACE to START.</div>","32","","","","","","","","","","","","","","","","","","","",""
"html-keyboard-response","153","526704","0.0-4.0-1.0-0.0","g43fsrj877ku9h9","prime","59e0d7d6ac0af70001b365b4","5f60e3c0a3b16e07647b2ff9","5f646a537652ac1ed8ec0de1","false","null","<span style=""color: black; font-size: 48px"">N + M</span>","null","","","","resp_prompt","","","","","","","","","","","","","","","",""
"categorize-image","154","527457","0.0-4.0-1.0-1.0","g43fsrj877ku9h9","prime","59e0d7d6ac0af70001b365b4","5f60e3c0a3b16e07647b2ff9","5f646a537652ac1ed8ec0de1","true","747.029999998631","./Stimuli/SelectedImages/SM/SM128.bmp","76","","","","test","true","N + M","76","repetition","SM","SM128.bmp","remember","","65","4","prime1","right","","","",""
"html-keyboard-response","155","529460","0.0-4.0-1.0-3.0","g43fsrj877ku9h9","prime","59e0d7d6ac0af70001b365b4","5f60e3c0a3b16e07647b2ff9","5f646a537652ac1ed8ec0de1","false","null","<div style=""align-items: center; display: flex; color: dodgerblue; font-size: 90px""><b>o</b></div>","null","","","","forget_cue","","","","","","","","","","","","","","","",""
"html-keyboard-response","156","530163","0.0-4.0-1.0-0.1","g43fsrj877ku9h9","prime","59e0d7d6ac0af70001b365b4","5f60e3c0a3b16e07647b2ff9","5f646a537652ac1ed8ec0de1","false","null","<span style=""color: black; font-size: 48px"">M + N</span>","null","","","","resp_prompt","","","","","","","","","","","","","","","",""
"categorize-image","157","531270","0.0-4.0-1.0-1.1","g43fsrj877ku9h9","prime","59e0d7d6ac0af70001b365b4","5f60e3c0a3b16e07647b2ff9","5f646a537652ac1ed8ec0de1","true","1099.5949999997392","./Stimuli/SelectedImages/SN/SN64.bmp","76","","","","test","true","M + N","76","switch","SN","SN64.bmp","remember","","66","4","prime1","right","","","",""
"html-keyboard-response","158","533274","0.0-4.0-1.0-3.1","g43fsrj877ku9h9","prime","59e0d7d6ac0af70001b365b4","5f60e3c0a3b16e07647b2ff9","5f646a537652ac1ed8ec0de1","false","null","<div style=""align-items: center; display: flex; color: dodgerblue; font-size: 90px""><b>o</b></div>","null","","","","forget_cue","","","","","","","","","","","","","","","",""
"html-keyboard-response","159","533976","0.0-4.0-1.0-0.2","g43fsrj877ku9h9","prime","59e0d7d6ac0af70001b365b4","5f60e3c0a3b16e07647b2ff9","5f646a537652ac1ed8ec0de1","false","null","<span style=""color: black; font-size: 48px"">N + M</span>","null","","","","resp_prompt","","","","","","","","","","","","","","","",""
"categorize-image","160","535137","0.0-4.0-1.0-1.2","g43fsrj877ku9h9","prime","59e0d7d6ac0af70001b365b4","5f60e3c0a3b16e07647b2ff9","5f646a537652ac1ed8ec0de1","true","1154.594999999972","./Stimuli/SelectedImages/LN/LN28.bmp","83","","","","test","true","N + M","83","switch","LN","LN28.bmp","forget","","67","4","prime1","left","","","",""
"html-keyboard-response","161","537141","0.0-4.0-1.0-3.2","g43fsrj877ku9h9","prime","59e0d7d6ac0af70001b365b4","5f60e3c0a3b16e07647b2ff9","5f646a537652ac1ed8ec0de1","false","null","<div style=""align-items: center; display: flex; color: darkorange; font-size: 90px""><b>ø</b></div>","null","","","","forget_cue","","","","","","","","","","","","","","","",""
"html-keyboard-response","162","537847","0.0-4.0-1.0-0.3","g43fsrj877ku9h9","prime","59e0d7d6ac0af70001b365b4","5f60e3c0a3b16e07647b2ff9","5f646a537652ac1ed8ec0de1","false","null","<span style=""color: black; font-size: 48px"">N + M</span>","null","","","","resp_prompt","","","","","","","","","","","","","","","",""
"categorize-image","163","538904","0.0-4.0-1.0-1.3","g43fsrj877ku9h9","prime","59e0d7d6ac0af70001b365b4","5f60e3c0a3b16e07647b2ff9","5f646a537652ac1ed8ec0de1","true","1050.7450000005774","./Stimuli/SelectedImages/LN/LN166.bmp","83","","","","test","true","N + M","83","switch","LN","LN166.bmp","remember","","68","4","prime1","left","","","",""
"html-keyboard-response","164","540906","0.0-4.0-1.0-3.3","g43fsrj877ku9h9","prime","59e0d7d6ac0af70001b365b4","5f60e3c0a3b16e07647b2ff9","5f646a537652ac1ed8ec0de1","false","null","<div style=""align-items: center; display: flex; color: dodgerblue; font-size: 90px""><b>o</b></div>","null","","","","forget_cue","","","","","","","","","","","","","","","",""
"html-keyboard-response","165","541609","0.0-4.0-1.0-0.4","g43fsrj877ku9h9","prime","59e0d7d6ac0af70001b365b4","5f60e3c0a3b16e07647b2ff9","5f646a537652ac1ed8ec0de1","false","null","<span style=""color: black; font-size: 48px"">N + M</span>","null","","","","resp_prompt","","","","","","","","","","","","","","","",""
"categorize-image","166","542503","0.0-4.0-1.0-1.4","g43fsrj877ku9h9","prime","59e0d7d6ac0af70001b365b4","5f60e3c0a3b16e07647b2ff9","5f646a537652ac1ed8ec0de1","true","887.7500000017462","./Stimuli/SelectedImages/LN/LN101.bmp","83","","","","test","true","N + M","83","repetition","LN","LN101.bmp","forget","","69","4","prime1","left","","","",""
"html-keyboard-response","167","544506","0.0-4.0-1.0-3.4","g43fsrj877ku9h9","prime","59e0d7d6ac0af70001b365b4","5f60e3c0a3b16e07647b2ff9","5f646a537652ac1ed8ec0de1","false","null","<div style=""align-items: center; display: flex; color: darkorange; font-size: 90px""><b>ø</b></div>","null","","","","forget_cue","","","","","","","","","","","","","","","",""
"html-keyboard-response","168","545209","0.0-4.0-1.0-0.5","g43fsrj877ku9h9","prime","59e0d7d6ac0af70001b365b4","5f60e3c0a3b16e07647b2ff9","5f646a537652ac1ed8ec0de1","false","null","<span style=""color: black; font-size: 48px"">N + M</span>","null","","","","resp_prompt","","","","","","","","","","","","","","","",""
"categorize-image","169","546137","0.0-4.0-1.0-1.5","g43fsrj877ku9h9","prime","59e0d7d6ac0af70001b365b4","5f60e3c0a3b16e07647b2ff9","5f646a537652ac1ed8ec0de1","true","920.9899999988265","./Stimuli/SelectedImages/LN/LN12.bmp","83","","","","test","true","N + M","83","repetition","LN","LN12.bmp","remember","","70","4","prime1","left","","","",""
"html-keyboard-response","170","548139","0.0-4.0-1.0-3.5","g43fsrj877ku9h9","prime","59e0d7d6ac0af70001b365b4","5f60e3c0a3b16e07647b2ff9","5f646a537652ac1ed8ec0de1","false","null","<div style=""align-items: center; display: flex; color: dodgerblue; font-size: 90px""><b>o</b></div>","null","","","","forget_cue","","","","","","","","","","","","","","","",""
"html-keyboard-response","171","548841","0.0-4.0-1.0-0.6","g43fsrj877ku9h9","prime","59e0d7d6ac0af70001b365b4","5f60e3c0a3b16e07647b2ff9","5f646a537652ac1ed8ec0de1","false","null","<span style=""color: black; font-size: 48px"">M + N</span>","null","","","","resp_prompt","","","","","","","","","","","","","","","",""
"categorize-image","172","549838","0.0-4.0-1.0-1.6","g43fsrj877ku9h9","prime","59e0d7d6ac0af70001b365b4","5f60e3c0a3b16e07647b2ff9","5f646a537652ac1ed8ec0de1","true","991.1649999994552","./Stimuli/SelectedImages/SM/SM195.bmp","83","","","","test","true","M + N","83","switch","SM","SM195.bmp","remember","","71","4","prime1","left","","","",""
"html-keyboard-response","173","551841","0.0-4.0-1.0-3.6","g43fsrj877ku9h9","prime","59e0d7d6ac0af70001b365b4","5f60e3c0a3b16e07647b2ff9","5f646a537652ac1ed8ec0de1","false","null","<div style=""align-items: center; display: flex; color: dodgerblue; font-size: 90px""><b>o</b></div>","null","","","","forget_cue","","","","","","","","","","","","","","","",""
"html-keyboard-response","174","552544","0.0-4.0-1.0-0.7","g43fsrj877ku9h9","prime","59e0d7d6ac0af70001b365b4","5f60e3c0a3b16e07647b2ff9","5f646a537652ac1ed8ec0de1","false","null","<span style=""color: black; font-size: 48px"">M + N</span>","null","","","","resp_prompt","","","","","","","","","","","","","","","",""
"categorize-image","175","553712","0.0-4.0-1.0-1.7","g43fsrj877ku9h9","prime","59e0d7d6ac0af70001b365b4","5f60e3c0a3b16e07647b2ff9","5f646a537652ac1ed8ec0de1","true","1162.340000002645","./Stimuli/SelectedImages/SN/SN187.bmp","76","","","","test","true","M + N","76","repetition","SN","SN187.bmp","forget","","72","4","prime1","right","","","",""
"html-keyboard-response","176","555714","0.0-4.0-1.0-3.7","g43fsrj877ku9h9","prime","59e0d7d6ac0af70001b365b4","5f60e3c0a3b16e07647b2ff9","5f646a537652ac1ed8ec0de1","false","null","<div style=""align-items: center; display: flex; color: darkorange; font-size: 90px""><b>ø</b></div>","null","","","","forget_cue","","","","","","","","","","","","","","","",""
"html-keyboard-response","177","556417","0.0-4.0-1.0-0.8","g43fsrj877ku9h9","prime","59e0d7d6ac0af70001b365b4","5f60e3c0a3b16e07647b2ff9","5f646a537652ac1ed8ec0de1","false","null","<span style=""color: black; font-size: 48px"">M + N</span>","null","","","","resp_prompt","","","","","","","","","","","","","","","",""
"categorize-image","178","557262","0.0-4.0-1.0-1.8","g43fsrj877ku9h9","prime","59e0d7d6ac0af70001b365b4","5f60e3c0a3b16e07647b2ff9","5f646a537652ac1ed8ec0de1","true","838.6049999971874","./Stimuli/SelectedImages/SM/SM213.bmp","83","","","","test","true","M + N","83","repetition","SM","SM213.bmp","remember","","73","4","prime1","left","","","",""
"html-keyboard-response","179","559264","0.0-4.0-1.0-3.8","g43fsrj877ku9h9","prime","59e0d7d6ac0af70001b365b4","5f60e3c0a3b16e07647b2ff9","5f646a537652ac1ed8ec0de1","false","null","<div style=""align-items: center; display: flex; color: dodgerblue; font-size: 90px""><b>o</b></div>","null","","","","forget_cue","","","","","","","","","","","","","","","",""
"html-keyboard-response","180","559966","0.0-4.0-1.0-0.9","g43fsrj877ku9h9","prime","59e0d7d6ac0af70001b365b4","5f60e3c0a3b16e07647b2ff9","5f646a537652ac1ed8ec0de1","false","null","<span style=""color: black; font-size: 48px"">M + N</span>","null","","","","resp_prompt","","","","","","","","","","","","","","","",""
"categorize-image","181","561088","0.0-4.0-1.0-1.9","g43fsrj877ku9h9","prime","59e0d7d6ac0af70001b365b4","5f60e3c0a3b16e07647b2ff9","5f646a537652ac1ed8ec0de1","true","1116.314999999362","./Stimuli/SelectedImages/SM/SM108.bmp","83","","","","test","true","M + N","83","repetition","SM","SM108.bmp","forget","","74","4","prime1","left","","","",""
"html-keyboard-response","182","563091","0.0-4.0-1.0-3.9","g43fsrj877ku9h9","prime","59e0d7d6ac0af70001b365b4","5f60e3c0a3b16e07647b2ff9","5f646a537652ac1ed8ec0de1","false","null","<div style=""align-items: center; display: flex; color: darkorange; font-size: 90px""><b>ø</b></div>","null","","","","forget_cue","","","","","","","","","","","","","","","",""
"html-keyboard-response","183","563794","0.0-4.0-1.0-0.10","g43fsrj877ku9h9","prime","59e0d7d6ac0af70001b365b4","5f60e3c0a3b16e07647b2ff9","5f646a537652ac1ed8ec0de1","false","null","<span style=""color: black; font-size: 48px"">M + N</span>","null","","","","resp_prompt","","","","","","","","","","","","","","","",""
"categorize-image","184","564648","0.0-4.0-1.0-1.10","g43fsrj877ku9h9","prime","59e0d7d6ac0af70001b365b4","5f60e3c0a3b16e07647b2ff9","5f646a537652ac1ed8ec0de1","true","848.5250000011874","./Stimuli/SelectedImages/LN/LN128.bmp","76","","","","test","true","M + N","76","switch","LN","LN128.bmp","forget","","75","4","prime1","right","","","",""
"html-keyboard-response","185","566650","0.0-4.0-1.0-3.10","g43fsrj877ku9h9","prime","59e0d7d6ac0af70001b365b4","5f60e3c0a3b16e07647b2ff9","5f646a537652ac1ed8ec0de1","false","null","<div style=""align-items: center; display: flex; color: darkorange; font-size: 90px""><b>ø</b></div>","null","","","","forget_cue","","","","","","","","","","","","","","","",""
"html-keyboard-response","186","567353","0.0-4.0-1.0-0.11","g43fsrj877ku9h9","prime","59e0d7d6ac0af70001b365b4","5f60e3c0a3b16e07647b2ff9","5f646a537652ac1ed8ec0de1","false","null","<span style=""color: black; font-size: 48px"">N + M</span>","null","","","","resp_prompt","","","","","","","","","","","","","","","",""
"categorize-image","187","568091","0.0-4.0-1.0-1.11","g43fsrj877ku9h9","prime","59e0d7d6ac0af70001b365b4","5f60e3c0a3b16e07647b2ff9","5f646a537652ac1ed8ec0de1","true","731.615000004298","./Stimuli/SelectedImages/LN/LN111.bmp","83","","","","test","true","N + M","83","repetition","LN","LN111.bmp","remember","","76","4","prime1","left","","","",""
"html-keyboard-response","188","570094","0.0-4.0-1.0-3.11","g43fsrj877ku9h9","prime","59e0d7d6ac0af70001b365b4","5f60e3c0a3b16e07647b2ff9","5f646a537652ac1ed8ec0de1","false","null","<div style=""align-items: center; display: flex; color: dodgerblue; font-size: 90px""><b>o</b></div>","null","","","","forget_cue","","","","","","","","","","","","","","","",""
"html-keyboard-response","189","570797","0.0-4.0-1.0-0.12","g43fsrj877ku9h9","prime","59e0d7d6ac0af70001b365b4","5f60e3c0a3b16e07647b2ff9","5f646a537652ac1ed8ec0de1","false","null","<span style=""color: black; font-size: 48px"">N + M</span>","null","","","","resp_prompt","","","","","","","","","","","","","","","",""
"categorize-image","190","571775","0.0-4.0-1.0-1.12","g43fsrj877ku9h9","prime","59e0d7d6ac0af70001b365b4","5f60e3c0a3b16e07647b2ff9","5f646a537652ac1ed8ec0de1","true","972.1550000030547","./Stimuli/SelectedImages/SM/SM207.bmp","76","","","","test","true","N + M","76","switch","SM","SM207.bmp","forget","","77","4","prime1","right","","","",""
"html-keyboard-response","191","573778","0.0-4.0-1.0-3.12","g43fsrj877ku9h9","prime","59e0d7d6ac0af70001b365b4","5f60e3c0a3b16e07647b2ff9","5f646a537652ac1ed8ec0de1","false","null","<div style=""align-items: center; display: flex; color: darkorange; font-size: 90px""><b>ø</b></div>","null","","","","forget_cue","","","","","","","","","","","","","","","",""
"html-keyboard-response","192","574481","0.0-4.0-1.0-0.13","g43fsrj877ku9h9","prime","59e0d7d6ac0af70001b365b4","5f60e3c0a3b16e07647b2ff9","5f646a537652ac1ed8ec0de1","false","null","<span style=""color: black; font-size: 48px"">N + M</span>","null","","","","resp_prompt","","","","","","","","","","","","","","","",""
"categorize-image","193","575435","0.0-4.0-1.0-1.13","g43fsrj877ku9h9","prime","59e0d7d6ac0af70001b365b4","5f60e3c0a3b16e07647b2ff9","5f646a537652ac1ed8ec0de1","true","947.9449999998324","./Stimuli/SelectedImages/SM/SM106.bmp","76","","","","test","true","N + M","76","repetition","SM","SM106.bmp","forget","","78","4","prime1","right","","","",""
"html-keyboard-response","194","577437","0.0-4.0-1.0-3.13","g43fsrj877ku9h9","prime","59e0d7d6ac0af70001b365b4","5f60e3c0a3b16e07647b2ff9","5f646a537652ac1ed8ec0de1","false","null","<div style=""align-items: center; display: flex; color: darkorange; font-size: 90px""><b>ø</b></div>","null","","","","forget_cue","","","","","","","","","","","","","","","",""
"html-keyboard-response","195","578141","0.0-4.0-1.0-0.14","g43fsrj877ku9h9","prime","59e0d7d6ac0af70001b365b4","5f60e3c0a3b16e07647b2ff9","5f646a537652ac1ed8ec0de1","false","null","<span style=""color: black; font-size: 48px"">N + M</span>","null","","","","resp_prompt","","","","","","","","","","","","","","","",""
"categorize-image","196","578880","0.0-4.0-1.0-1.14","g43fsrj877ku9h9","prime","59e0d7d6ac0af70001b365b4","5f60e3c0a3b16e07647b2ff9","5f646a537652ac1ed8ec0de1","true","733.6150000046473","./Stimuli/SelectedImages/SN/SN111.bmp","83","","","","test","true","N + M","83","switch","SN","SN111.bmp","forget","","79","4","prime1","left","","","",""
"html-keyboard-response","197","580883","0.0-4.0-1.0-3.14","g43fsrj877ku9h9","prime","59e0d7d6ac0af70001b365b4","5f60e3c0a3b16e07647b2ff9","5f646a537652ac1ed8ec0de1","false","null","<div style=""align-items: center; display: flex; color: darkorange; font-size: 90px""><b>ø</b></div>","null","","","","forget_cue","","","","","","","","","","","","","","","",""
"html-keyboard-response","198","581585","0.0-4.0-1.0-0.15","g43fsrj877ku9h9","prime","59e0d7d6ac0af70001b365b4","5f60e3c0a3b16e07647b2ff9","5f646a537652ac1ed8ec0de1","false","null","<span style=""color: black; font-size: 48px"">N + M</span>","null","","","","resp_prompt","","","","","","","","","","","","","","","",""
"categorize-image","199","582285","0.0-4.0-1.0-1.15","g43fsrj877ku9h9","prime","59e0d7d6ac0af70001b365b4","5f60e3c0a3b16e07647b2ff9","5f646a537652ac1ed8ec0de1","true","694.470000002184","./Stimuli/SelectedImages/SN/SN27.bmp","83","","","","test","true","N + M","83","repetition","SN","SN27.bmp","remember","","80","4","prime1","left","","","",""
"html-keyboard-response","200","584287","0.0-4.0-1.0-3.15","g43fsrj877ku9h9","prime","59e0d7d6ac0af70001b365b4","5f60e3c0a3b16e07647b2ff9","5f646a537652ac1ed8ec0de1","false","null","<div style=""align-items: center; display: flex; color: dodgerblue; font-size: 90px""><b>o</b></div>","null","","","","forget_cue","","","","","","","","","","","","","","","",""
"html-keyboard-response","201","584990","0.0-4.0-1.0-0.16","g43fsrj877ku9h9","prime","59e0d7d6ac0af70001b365b4","5f60e3c0a3b16e07647b2ff9","5f646a537652ac1ed8ec0de1","false","null","<span style=""color: black; font-size: 48px"">M + N</span>","null","","","","resp_prompt","","","","","","","","","","","","","","","",""
"categorize-image","202","585966","0.0-4.0-1.0-1.16","g43fsrj877ku9h9","prime","59e0d7d6ac0af70001b365b4","5f60e3c0a3b16e07647b2ff9","5f646a537652ac1ed8ec0de1","true","970.215000001248","./Stimuli/SelectedImages/SM/SM78.bmp","76","","","","test","false","M + N","83","switch","SM","SM78.bmp","remember","","81","4","prime1","right","","","",""
"html-keyboard-response","203","586469","0.0-4.0-1.0-2.16-0.16","g43fsrj877ku9h9","prime","59e0d7d6ac0af70001b365b4","5f60e3c0a3b16e07647b2ff9","5f646a537652ac1ed8ec0de1","false","null","<span style=""color: red; font-size: 48px"">Error!</span>","null","","","","feedback","","","","","","","","","","","","","","","",""
"html-keyboard-response","204","588471","0.0-4.0-1.0-3.16","g43fsrj877ku9h9","prime","59e0d7d6ac0af70001b365b4","5f60e3c0a3b16e07647b2ff9","5f646a537652ac1ed8ec0de1","false","null","<div style=""align-items: center; display: flex; color: dodgerblue; font-size: 90px""><b>o</b></div>","null","","","","forget_cue","","","","","","","","","","","","","","","",""
"html-keyboard-response","205","589174","0.0-4.0-1.0-0.17","g43fsrj877ku9h9","prime","59e0d7d6ac0af70001b365b4","5f60e3c0a3b16e07647b2ff9","5f646a537652ac1ed8ec0de1","false","null","<span style=""color: black; font-size: 48px"">M + N</span>","null","","","","resp_prompt","","","","","","","","","","","","","","","",""
"categorize-image","206","590037","0.0-4.0-1.0-1.17","g43fsrj877ku9h9","prime","59e0d7d6ac0af70001b365b4","5f60e3c0a3b16e07647b2ff9","5f646a537652ac1ed8ec0de1","true","856.3949999952456","./Stimuli/SelectedImages/LN/LN13.bmp","76","","","","test","true","M + N","76","repetition","LN","LN13.bmp","remember","","82","4","prime1","right","","","",""
"html-keyboard-response","207","592039","0.0-4.0-1.0-3.17","g43fsrj877ku9h9","prime","59e0d7d6ac0af70001b365b4","5f60e3c0a3b16e07647b2ff9","5f646a537652ac1ed8ec0de1","false","null","<div style=""align-items: center; display: flex; color: dodgerblue; font-size: 90px""><b>o</b></div>","null","","","","forget_cue","","","","","","","","","","","","","","","",""
"html-keyboard-response","208","592741","0.0-4.0-1.0-0.18","g43fsrj877ku9h9","prime","59e0d7d6ac0af70001b365b4","5f60e3c0a3b16e07647b2ff9","5f646a537652ac1ed8ec0de1","false","null","<span style=""color: black; font-size: 48px"">M + N</span>","null","","","","resp_prompt","","","","","","","","","","","","","","","",""
"categorize-image","209","593636","0.0-4.0-1.0-1.18","g43fsrj877ku9h9","prime","59e0d7d6ac0af70001b365b4","5f60e3c0a3b16e07647b2ff9","5f646a537652ac1ed8ec0de1","true","887.5750000006519","./Stimuli/SelectedImages/SN/SN181.bmp","76","","","","test","true","M + N","76","switch","SN","SN181.bmp","remember","","83","4","prime1","right","","","",""
"html-keyboard-response","210","595637","0.0-4.0-1.0-3.18","g43fsrj877ku9h9","prime","59e0d7d6ac0af70001b365b4","5f60e3c0a3b16e07647b2ff9","5f646a537652ac1ed8ec0de1","false","null","<div style=""align-items: center; display: flex; color: dodgerblue; font-size: 90px""><b>o</b></div>","null","","","","forget_cue","","","","","","","","","","","","","","","",""
"html-keyboard-response","211","596340","0.0-4.0-1.0-0.19","g43fsrj877ku9h9","prime","59e0d7d6ac0af70001b365b4","5f60e3c0a3b16e07647b2ff9","5f646a537652ac1ed8ec0de1","false","null","<span style=""color: black; font-size: 48px"">M + N</span>","null","","","","resp_prompt","","","","","","","","","","","","","","","",""
"categorize-image","212","597728","0.0-4.0-1.0-1.19","g43fsrj877ku9h9","prime","59e0d7d6ac0af70001b365b4","5f60e3c0a3b16e07647b2ff9","5f646a537652ac1ed8ec0de1","true","1381.9650000005495","./Stimuli/SelectedImages/LN/LN82.bmp","76","","","","test","true","M + N","76","repetition","LN","LN82.bmp","remember","","84","4","prime1","right","","","",""
"html-keyboard-response","213","599731","0.0-4.0-1.0-3.19","g43fsrj877ku9h9","prime","59e0d7d6ac0af70001b365b4","5f60e3c0a3b16e07647b2ff9","5f646a537652ac1ed8ec0de1","false","null","<div style=""align-items: center; display: flex; color: dodgerblue; font-size: 90px""><b>o</b></div>","null","","","","forget_cue","","","","","","","","","","","","","","","",""
"html-keyboard-response","214","600433","0.0-4.0-1.0-0.20","g43fsrj877ku9h9","prime","59e0d7d6ac0af70001b365b4","5f60e3c0a3b16e07647b2ff9","5f646a537652ac1ed8ec0de1","false","null","<span style=""color: black; font-size: 48px"">M + N</span>","null","","","","resp_prompt","","","","","","","","","","","","","","","",""
"categorize-image","215","601892","0.0-4.0-1.0-1.20","g43fsrj877ku9h9","prime","59e0d7d6ac0af70001b365b4","5f60e3c0a3b16e07647b2ff9","5f646a537652ac1ed8ec0de1","true","1454.45000000461","./Stimuli/SelectedImages/SM/SM17.bmp","83","","","","test","true","M + N","83","repetition","SM","SM17.bmp","forget","","85","4","prime1","left","","","",""
"html-keyboard-response","216","603894","0.0-4.0-1.0-3.20","g43fsrj877ku9h9","prime","59e0d7d6ac0af70001b365b4","5f60e3c0a3b16e07647b2ff9","5f646a537652ac1ed8ec0de1","false","null","<div style=""align-items: center; display: flex; color: darkorange; font-size: 90px""><b>ø</b></div>","null","","","","forget_cue","","","","","","","","","","","","","","","",""
"html-keyboard-response","217","604597","0.0-4.0-1.0-0.21","g43fsrj877ku9h9","prime","59e0d7d6ac0af70001b365b4","5f60e3c0a3b16e07647b2ff9","5f646a537652ac1ed8ec0de1","false","null","<span style=""color: black; font-size: 48px"">N + M</span>","null","","","","resp_prompt","","","","","","","","","","","","","","","",""
"categorize-image","218","606080","0.0-4.0-1.0-1.21","g43fsrj877ku9h9","prime","59e0d7d6ac0af70001b365b4","5f60e3c0a3b16e07647b2ff9","5f646a537652ac1ed8ec0de1","true","1477.1299999991897","./Stimuli/SelectedImages/LM/LM235.bmp","76","","","","test","true","N + M","76","switch","LM","LM235.bmp","forget","","86","4","prime1","right","","","",""
"html-keyboard-response","219","608083","0.0-4.0-1.0-3.21","g43fsrj877ku9h9","prime","59e0d7d6ac0af70001b365b4","5f60e3c0a3b16e07647b2ff9","5f646a537652ac1ed8ec0de1","false","null","<div style=""align-items: center; display: flex; color: darkorange; font-size: 90px""><b>ø</b></div>","null","","","","forget_cue","","","","","","","","","","","","","","","",""
"html-keyboard-response","220","608786","0.0-4.0-1.0-0.22","g43fsrj877ku9h9","prime","59e0d7d6ac0af70001b365b4","5f60e3c0a3b16e07647b2ff9","5f646a537652ac1ed8ec0de1","false","null","<span style=""color: black; font-size: 48px"">M + N</span>","null","","","","resp_prompt","","","","","","","","","","","","","","","",""
"categorize-image","221","609750","0.0-4.0-1.0-1.22","g43fsrj877ku9h9","prime","59e0d7d6ac0af70001b365b4","5f60e3c0a3b16e07647b2ff9","5f646a537652ac1ed8ec0de1","true","957.2800000023562","./Stimuli/SelectedImages/SN/SN93.bmp","76","","","","test","true","M + N","76","switch","SN","SN93.bmp","forget","","87","4","prime1","right","","","",""
"html-keyboard-response","222","611752","0.0-4.0-1.0-3.22","g43fsrj877ku9h9","prime","59e0d7d6ac0af70001b365b4","5f60e3c0a3b16e07647b2ff9","5f646a537652ac1ed8ec0de1","false","null","<div style=""align-items: center; display: flex; color: darkorange; font-size: 90px""><b>ø</b></div>","null","","","","forget_cue","","","","","","","","","","","","","","","",""
"html-keyboard-response","223","612455","0.0-4.0-1.0-0.23","g43fsrj877ku9h9","prime","59e0d7d6ac0af70001b365b4","5f60e3c0a3b16e07647b2ff9","5f646a537652ac1ed8ec0de1","false","null","<span style=""color: black; font-size: 48px"">N + M</span>","null","","","","resp_prompt","","","","","","","","","","","","","","","",""
"categorize-image","224","614238","0.0-4.0-1.0-1.23","g43fsrj877ku9h9","prime","59e0d7d6ac0af70001b365b4","5f60e3c0a3b16e07647b2ff9","5f646a537652ac1ed8ec0de1","true","1777.3049999959767","./Stimuli/SelectedImages/LN/LN131.bmp","83","","","","test","true","N + M","83","repetition","LN","LN131.bmp","forget","","88","4","prime1","left","","","",""
"html-keyboard-response","225","616241","0.0-4.0-1.0-3.23","g43fsrj877ku9h9","prime","59e0d7d6ac0af70001b365b4","5f60e3c0a3b16e07647b2ff9","5f646a537652ac1ed8ec0de1","false","null","<div style=""align-items: center; display: flex; color: darkorange; font-size: 90px""><b>ø</b></div>","null","","","","forget_cue","","","","","","","","","","","","","","","",""
"html-keyboard-response","226","616944","0.0-4.0-1.0-0.24","g43fsrj877ku9h9","prime","59e0d7d6ac0af70001b365b4","5f60e3c0a3b16e07647b2ff9","5f646a537652ac1ed8ec0de1","false","null","<span style=""color: black; font-size: 48px"">M + N</span>","null","","","","resp_prompt","","","","","","","","","","","","","","","",""
"categorize-image","227","617864","0.0-4.0-1.0-1.24","g43fsrj877ku9h9","prime","59e0d7d6ac0af70001b365b4","5f60e3c0a3b16e07647b2ff9","5f646a537652ac1ed8ec0de1","true","914.3100000001723","./Stimuli/SelectedImages/LM/LM157.bmp","83","","","","test","true","M + N","83","repetition","LM","LM157.bmp","forget","","89","4","prime1","left","","","",""
"html-keyboard-response","228","619867","0.0-4.0-1.0-3.24","g43fsrj877ku9h9","prime","59e0d7d6ac0af70001b365b4","5f60e3c0a3b16e07647b2ff9","5f646a537652ac1ed8ec0de1","false","null","<div style=""align-items: center; display: flex; color: darkorange; font-size: 90px""><b>ø</b></div>","null","","","","forget_cue","","","","","","","","","","","","","","","",""
"html-keyboard-response","229","620570","0.0-4.0-1.0-0.25","g43fsrj877ku9h9","prime","59e0d7d6ac0af70001b365b4","5f60e3c0a3b16e07647b2ff9","5f646a537652ac1ed8ec0de1","false","null","<span style=""color: black; font-size: 48px"">N + M</span>","null","","","","resp_prompt","","","","","","","","","","","","","","","",""
"categorize-image","230","621404","0.0-4.0-1.0-1.25","g43fsrj877ku9h9","prime","59e0d7d6ac0af70001b365b4","5f60e3c0a3b16e07647b2ff9","5f646a537652ac1ed8ec0de1","true","827.3949999929173","./Stimuli/SelectedImages/SM/SM205.bmp","76","","","","test","true","N + M","76","switch","SM","SM205.bmp","remember","","90","4","prime1","right","","","",""
"html-keyboard-response","231","623406","0.0-4.0-1.0-3.25","g43fsrj877ku9h9","prime","59e0d7d6ac0af70001b365b4","5f60e3c0a3b16e07647b2ff9","5f646a537652ac1ed8ec0de1","false","null","<div style=""align-items: center; display: flex; color: dodgerblue; font-size: 90px""><b>o</b></div>","null","","","","forget_cue","","","","","","","","","","","","","","","",""
"html-keyboard-response","232","624108","0.0-4.0-1.0-0.26","g43fsrj877ku9h9","prime","59e0d7d6ac0af70001b365b4","5f60e3c0a3b16e07647b2ff9","5f646a537652ac1ed8ec0de1","false","null","<span style=""color: black; font-size: 48px"">M + N</span>","null","","","","resp_prompt","","","","","","","","","","","","","","","",""
"categorize-image","233","624989","0.0-4.0-1.0-1.26","g43fsrj877ku9h9","prime","59e0d7d6ac0af70001b365b4","5f60e3c0a3b16e07647b2ff9","5f646a537652ac1ed8ec0de1","true","874.934999999823","./Stimuli/SelectedImages/LN/LN92.bmp","76","","","","test","true","M + N","76","repetition","LN","LN92.bmp","forget","","91","4","prime1","right","","","",""
"html-keyboard-response","234","626992","0.0-4.0-1.0-3.26","g43fsrj877ku9h9","prime","59e0d7d6ac0af70001b365b4","5f60e3c0a3b16e07647b2ff9","5f646a537652ac1ed8ec0de1","false","null","<div style=""align-items: center; display: flex; color: darkorange; font-size: 90px""><b>ø</b></div>","null","","","","forget_cue","","","","","","","","","","","","","","","",""
"html-keyboard-response","235","627694","0.0-4.0-1.0-0.27","g43fsrj877ku9h9","prime","59e0d7d6ac0af70001b365b4","5f60e3c0a3b16e07647b2ff9","5f646a537652ac1ed8ec0de1","false","null","<span style=""color: black; font-size: 48px"">M + N</span>","null","","","","resp_prompt","","","","","","","","","","","","","","","",""
"categorize-image","236","628923","0.0-4.0-1.0-1.27","g43fsrj877ku9h9","prime","59e0d7d6ac0af70001b365b4","5f60e3c0a3b16e07647b2ff9","5f646a537652ac1ed8ec0de1","true","1221.4699999967124","./Stimuli/SelectedImages/LM/LM209.bmp","83","","","","test","true","M + N","83","repetition","LM","LM209.bmp","remember","","92","4","prime1","left","","","",""
"html-keyboard-response","237","630926","0.0-4.0-1.0-3.27","g43fsrj877ku9h9","prime","59e0d7d6ac0af70001b365b4","5f60e3c0a3b16e07647b2ff9","5f646a537652ac1ed8ec0de1","false","null","<div style=""align-items: center; display: flex; color: dodgerblue; font-size: 90px""><b>o</b></div>","null","","","","forget_cue","","","","","","","","","","","","","","","",""
"html-keyboard-response","238","631628","0.0-4.0-1.0-0.28","g43fsrj877ku9h9","prime","59e0d7d6ac0af70001b365b4","5f60e3c0a3b16e07647b2ff9","5f646a537652ac1ed8ec0de1","false","null","<span style=""color: black; font-size: 48px"">N + M</span>","null","","","","resp_prompt","","","","","","","","","","","","","","","",""
"categorize-image","239","632566","0.0-4.0-1.0-1.28","g43fsrj877ku9h9","prime","59e0d7d6ac0af70001b365b4","5f60e3c0a3b16e07647b2ff9","5f646a537652ac1ed8ec0de1","true","931.2350000037113","./Stimuli/SelectedImages/SM/SM148.bmp","76","","","","test","true","N + M","76","repetition","SM","SM148.bmp","remember","","93","4","prime1","right","","","",""
"html-keyboard-response","240","634569","0.0-4.0-1.0-3.28","g43fsrj877ku9h9","prime","59e0d7d6ac0af70001b365b4","5f60e3c0a3b16e07647b2ff9","5f646a537652ac1ed8ec0de1","false","null","<div style=""align-items: center; display: flex; color: dodgerblue; font-size: 90px""><b>o</b></div>","null","","","","forget_cue","","","","","","","","","","","","","","","",""
"html-keyboard-response","241","635272","0.0-4.0-1.0-0.29","g43fsrj877ku9h9","prime","59e0d7d6ac0af70001b365b4","5f60e3c0a3b16e07647b2ff9","5f646a537652ac1ed8ec0de1","false","null","<span style=""color: black; font-size: 48px"">N + M</span>","null","","","","resp_prompt","","","","","","","","","","","","","","","",""
"categorize-image","242","636499","0.0-4.0-1.0-1.29","g43fsrj877ku9h9","prime","59e0d7d6ac0af70001b365b4","5f60e3c0a3b16e07647b2ff9","5f646a537652ac1ed8ec0de1","true","1221.7049999963492","./Stimuli/SelectedImages/LM/LM48.bmp","76","","","","test","true","N + M","76","repetition","LM","LM48.bmp","forget","","94","4","prime1","right","","","",""
"html-keyboard-response","243","638501","0.0-4.0-1.0-3.29","g43fsrj877ku9h9","prime","59e0d7d6ac0af70001b365b4","5f60e3c0a3b16e07647b2ff9","5f646a537652ac1ed8ec0de1","false","null","<div style=""align-items: center; display: flex; color: darkorange; font-size: 90px""><b>ø</b></div>","null","","","","forget_cue","","","","","","","","","","","","","","","",""
"html-keyboard-response","244","639204","0.0-4.0-1.0-0.30","g43fsrj877ku9h9","prime","59e0d7d6ac0af70001b365b4","5f60e3c0a3b16e07647b2ff9","5f646a537652ac1ed8ec0de1","false","null","<span style=""color: black; font-size: 48px"">M + N</span>","null","","","","resp_prompt","","","","","","","","","","","","","","","",""
"categorize-image","245","640068","0.0-4.0-1.0-1.30","g43fsrj877ku9h9","prime","59e0d7d6ac0af70001b365b4","5f60e3c0a3b16e07647b2ff9","5f646a537652ac1ed8ec0de1","true","856.1400000035064","./Stimuli/SelectedImages/LN/LN150.bmp","76","","","","test","true","M + N","76","switch","LN","LN150.bmp","remember","","95","4","prime1","right","","","",""
