"trial_type","trial_index","time_elapsed","internal_node_id","subject","exp_part","prolific_PID","study_ID","session_ID","use","rt","stimulus","key_press","button_pressed","responses","question_order","trial_part","correct","resp_map","correct_resp","probe_condition","category","image","forget_condition","list","trial_num","block_num","block","response","test_part","n_span","sequence","num_spaces"
"pavlovia","0","8","0.0-0.0","1n5hn7uebuoqfdt","","5edfb0770fb0722aa3839b6d","5f60e3c0a3b16e07647b2ff9","5f64c46b798ceb01bff780a2","false","","","","","","","","","","","","","","","","","","","","","","",""
"html-keyboard-response","1","16748","0.0-1.0-0.0-0.0","1n5hn7uebuoqfdt","welcome","5edfb0770fb0722aa3839b6d","5f60e3c0a3b16e07647b2ff9","5f64c46b798ceb01bff780a2","false","16736.73499999859","<div align=left>Dear participant, <br> thank you for participating in an online study of the Cognition, Action, and Sustainability Unit of the University of Freiburg! <br> <br>The aim of this study is to examine our ability to remember previously learned information. <br>Our goal is to find out, whether our memory improves, when we only remember information that is relevant to us. <br>The experiment will take about 35 minutes to complete. <br> <br>Please, note that you can only participate in this study if you are using a device with a keyboard (PC, Laptop etc.) <br>and not if you are using a mobile device such as a tablet or smartphone.<br> <br>Press 'SPACE' to proceed to the experiment. </div>","32","","","","","","","","","","","","","","","","","","","",""
"html-keyboard-response","2","52011","0.0-1.0-0.0-1.0","1n5hn7uebuoqfdt","welcome","5edfb0770fb0722aa3839b6d","5f60e3c0a3b16e07647b2ff9","5f64c46b798ceb01bff780a2","false","35260.5650000005","<div align=left><strong> Time Course of this experiment: </strong> <br><br> <strong> 1.</strong>  First, please fill in some information regarding your demographic data. <br><br> <strong> 2.</strong>  Next, your task will be to classify everyday objects. <br>In addition, you will be asked to remember certain objects and recall them later. <br>Working on these tasks requires your undivided attention and concentration.<br>It is therefore essential that you eliminate any sources of distraction in your  <br>environment and ensure that you will not be disturbed. <br><br><strong> 3.</strong>  At the end of the experiment, you will be asked to answer a few additional questions. <br> <br><strong> Important:</strong> After finishing the experiment, only close the browser window <br> by clicking on the 'end the experiment'-button when you are asked to do so. <br>Closing the browser window prematurely will make the allocation of your participation credit impossible. <br><br> Press 'SPACE' to start the experiment. </div>","32","","","","","","","","","","","","","","","","","","","",""
"html-button-response","3","84118","0.0-1.0-0.0-2.0","1n5hn7uebuoqfdt","welcome","5edfb0770fb0722aa3839b6d","5f60e3c0a3b16e07647b2ff9","5f64c46b798ceb01bff780a2","true","32117.78499999855","<div align=left><strong> Informed consent </strong>  <br>The aim of our research is to better understand human behavior and mental processes. <br>In the following study your behavior (e.g. choices, reaction times) will be studied. <br> <br><strong> Voluntariness and Anonymity </strong> <br>Your participation in this study is  <strong> voluntary</strong>.<br>You may withdraw your consent to participate at any time without providing a reason for doing so and without fear of prejudice. <br><br>As no personal data will be collected, <strong>your data and your person cannot be connected after data collection</strong> – the data-set is anonymous. <br>Respectively, deletion of your data will not be possible after data collection has been completed, as we cannot retrace your data-set.<br>The results and anonymized data collected in this study will be published as a scientific publication. <br>This will happen in an <strong>anonymized format</strong>, so that no data can be traced back to a specific person. <br> <br>The anonymized data of this study will be made available to other researchers and/or in a data archive on the Internet as a means of transparency and to enable subsequent re-use. By doing so, this study follows the recommendations of the Deutsche Forschungsgemeinschaft (DFG, German Research Foundation) and Deutsche Gesellschaft für Psychologie (DGPS, German Psychological Society) regarding quality assurance in research.<br>If you have any questions now or after the experiment, please contact our team (experiments@cs.uni-freiburg.de).<br><br><br>I hereby declare, that I understand the above described conditions of participation and I agree to participate under these conditions. <br><br> </div>","","0","","","","","","","","","","","","","","","","","","",""
"html-keyboard-response","4","126516","0.0-1.0-0.0-3.0","1n5hn7uebuoqfdt","welcome","5edfb0770fb0722aa3839b6d","5f60e3c0a3b16e07647b2ff9","5f64c46b798ceb01bff780a2","false","42377.43500000215","<div align=left><strong> General information concerning the experiment </strong>  <br> <br>Please follow the instructions:<ol> <li><strong> Do not leave this tab (your browser window) during the experiment and do not reload this tab! </strong>  <br>If you do switch tabs/windows during the experiment (to check your mail or visit another website, for example), <br>the experiment will end automatically and you will <strong>not receive credit</strong> for your participation. <br>Repeated participation or resumption of the experiment is impossible.</li> <br><li>Please close all other programs for the duration of your participation. </li> <br><li>Please mute or turn off your phone and put it out of your reach. </li> <br><li>Please also take off any disturbing accessories (such as wristwatches, bracelets, etc.). </li> <br><li>If you have music playing in the background, please turn it off now. </li> <br></ol>Thank you! <br>Press 'SPACE' to continue. </div>","32","","","","","","","","","","","","","","","","","","","",""
"survey-text","5","132237","0.0-1.0-1.0-0.0","1n5hn7uebuoqfdt","demographics","5edfb0770fb0722aa3839b6d","5f60e3c0a3b16e07647b2ff9","5f64c46b798ceb01bff780a2","true","5714.739999999438","","","","{""age"":""25""}","","","","","","","","","","","","","","","","","",""
"survey-multi-choice","6","170845","0.0-1.0-1.0-1.0","1n5hn7uebuoqfdt","demographics","5edfb0770fb0722aa3839b6d","5f60e3c0a3b16e07647b2ff9","5f64c46b798ceb01bff780a2","true","38603.815000002214","","","","{""gender"":""female"",""school"":""others"",""education"":""other""}","[0,1,2]","","","","","","","","","","","","","","","","",""
"html-keyboard-response","7","198533","0.0-1.0-2.0","1n5hn7uebuoqfdt","instructions","5edfb0770fb0722aa3839b6d","5f60e3c0a3b16e07647b2ff9","5f64c46b798ceb01bff780a2","false","27697.049999998853","<div align=left> The experiment is now about to start: <br> <br>In the following part, you will be presented pictures of everyday objects. <br>Your first task is to <strong>classify these objects. </strong> <br> <br> You will classify them either as mechanical or non-mechanical objects. <br> <br>Objects that include any kind of technical mechanism (for example, wheels, switches, levers, <br> electronic components) fall under the category of <strong>mechanical</strong> objects. <br>Only objects without any kind of technical mechanism should be classified as <strong>non-mechanical</strong>. <br><br>Press 'SPACE' to continue. </div>","32","","","","","","","","","","","","","","","","","","","",""
"html-keyboard-response","8","294103","0.0-2.0-0.0","1n5hn7uebuoqfdt","instructions","5edfb0770fb0722aa3839b6d","5f60e3c0a3b16e07647b2ff9","5f64c46b798ceb01bff780a2","false","95555.35000000239","<div align=justify>You will classify the objects using the <strong>'S'</strong> and the <strong>'L'</strong> keys on your keyboard.<br>For doing so, please place your <strong>left index finger</strong> on the <strong>'S'</strong> key and place your <strong>right index finger</strong> on the <strong>'L'</strong> key. <br><br> Each trial starts with an instruction, indicating which key ('S'/'L') you need to press to classify <br>the object as mechanical (letter M) or non-mechanical (letter N).<br>The instruction <strong>M + N</strong> indicates that, in the current trial, by pressing the left key ('S') you classify the displayed object as mechanical (M) <br> and by pressing the right key ('L') you classify the object as non-mechanical (N). <br>The instruction <strong>N + M</strong> on the other hand indicates that by pressing the left key ('S') you classify the displayed object as non-mechanical (N) <br> and by pressing the right key ('L') you classify the object as mechanical (M). <br><br>Please press the key corresponding to the correct classification as fast as possible as soon as the object is displayed and try to avoid making mistakes.<br>If you do not respond within a 2 second window, a corresponding feedback will be displayed and the next trial will start.<br> The experiment is divided into multiple blocks to give you the opportunity to take a break after each block. <br>First, you can now practice this task. <br><br>Please place your <strong>LEFT INDEX FINGER</strong> on the 'S' key and your <strong>RIGHT INDEX FINGER</strong> on the 'L' key now. <br><br>Press SPACE to continue.</div>","32","","","","","","","","","","","","","","","","","","","",""
"html-keyboard-response","9","302541","0.0-2.0-1.0","1n5hn7uebuoqfdt","instructions","5edfb0770fb0722aa3839b6d","5f60e3c0a3b16e07647b2ff9","5f64c46b798ceb01bff780a2","false","8436.219999999565","<div align=left> You will now have time to practice this task.<br><br>Remember: <br> <br><li>Please place your index fingers on the <strong>'S'</strong> and <strong>'L'</strong> keys <br>to respond as fast and accurately as possible.</li><li>Every picture can be classified as either mechanical or non-mechanical.</li><li>If you do not respond in time or commit an error, you will receive a corresponding feedback. </li><li> Please try to respond as <strong> fast </strong> and as <strong> accurately as possible </strong> .<br><li>To ensure optimal results, please minimize distractions and stay focused. </li><br><br>Press SPACE to continue.</div>","32","","","","","","","","","","","","","","","","","","","",""
"html-keyboard-response","10","303249","0.0-2.0-2.0-0.0","1n5hn7uebuoqfdt","practice_no_cue","5edfb0770fb0722aa3839b6d","5f60e3c0a3b16e07647b2ff9","5f64c46b798ceb01bff780a2","false","null","<span style=""color: black; font-size: 48px"">N + M</span>","null","","","","resp_prompt","","","","","","","","","","","","","","","",""
"categorize-image","11","304728","0.0-2.0-2.0-1.0","1n5hn7uebuoqfdt","practice_no_cue","5edfb0770fb0722aa3839b6d","5f60e3c0a3b16e07647b2ff9","5f64c46b798ceb01bff780a2","true","962.3549999996321","./Stimuli/ImagesPractice/LM230.jpg","76","","","","test","true","N + M","76","","LM","LM230.jpg","forget","old","1","1","start","right","","","",""
"html-keyboard-response","12","305432","0.0-2.0-2.0-0.1","1n5hn7uebuoqfdt","practice_no_cue","5edfb0770fb0722aa3839b6d","5f60e3c0a3b16e07647b2ff9","5f64c46b798ceb01bff780a2","false","null","<span style=""color: black; font-size: 48px"">N + M</span>","null","","","","resp_prompt","","","","","","","","","","","","","","","",""
"categorize-image","13","306779","0.0-2.0-2.0-1.1","1n5hn7uebuoqfdt","practice_no_cue","5edfb0770fb0722aa3839b6d","5f60e3c0a3b16e07647b2ff9","5f64c46b798ceb01bff780a2","true","835.234999998589","./Stimuli/ImagesPractice/LM224.jpg","76","","","","test","true","N + M","76","","LM","LM224.jpg","remember","old","2","1","start","right","","","",""
"html-keyboard-response","14","307482","0.0-2.0-2.0-0.2","1n5hn7uebuoqfdt","practice_no_cue","5edfb0770fb0722aa3839b6d","5f60e3c0a3b16e07647b2ff9","5f64c46b798ceb01bff780a2","false","null","<span style=""color: black; font-size: 48px"">N + M</span>","null","","","","resp_prompt","","","","","","","","","","","","","","","",""
"categorize-image","15","308712","0.0-2.0-2.0-1.2","1n5hn7uebuoqfdt","practice_no_cue","5edfb0770fb0722aa3839b6d","5f60e3c0a3b16e07647b2ff9","5f64c46b798ceb01bff780a2","true","713.4100000002654","./Stimuli/ImagesPractice/SM98.jpg","76","","","","test","true","N + M","76","","SM","SM98.jpg","remember","old","3","1","start","right","","","",""
"html-keyboard-response","16","309415","0.0-2.0-2.0-0.3","1n5hn7uebuoqfdt","practice_no_cue","5edfb0770fb0722aa3839b6d","5f60e3c0a3b16e07647b2ff9","5f64c46b798ceb01bff780a2","false","null","<span style=""color: black; font-size: 48px"">N + M</span>","null","","","","resp_prompt","","","","","","","","","","","","","","","",""
"categorize-image","17","310678","0.0-2.0-2.0-1.3","1n5hn7uebuoqfdt","practice_no_cue","5edfb0770fb0722aa3839b6d","5f60e3c0a3b16e07647b2ff9","5f64c46b798ceb01bff780a2","true","748.2999999992317","./Stimuli/ImagesPractice/SN75.jpg","83","","","","test","true","N + M","83","","SN","SN75.jpg","forget","old","4","1","start","left","","","",""
"html-keyboard-response","18","311384","0.0-2.0-2.0-0.4","1n5hn7uebuoqfdt","practice_no_cue","5edfb0770fb0722aa3839b6d","5f60e3c0a3b16e07647b2ff9","5f64c46b798ceb01bff780a2","false","null","<span style=""color: black; font-size: 48px"">N + M</span>","null","","","","resp_prompt","","","","","","","","","","","","","","","",""
"categorize-image","19","312812","0.0-2.0-2.0-1.4","1n5hn7uebuoqfdt","practice_no_cue","5edfb0770fb0722aa3839b6d","5f60e3c0a3b16e07647b2ff9","5f64c46b798ceb01bff780a2","true","923.9500000003609","./Stimuli/ImagesPractice/SN220.jpg","83","","","","test","true","N + M","83","","SN","SN220.jpg","forget","old","5","1","start","left","","","",""
"html-keyboard-response","20","313516","0.0-2.0-2.0-0.5","1n5hn7uebuoqfdt","practice_no_cue","5edfb0770fb0722aa3839b6d","5f60e3c0a3b16e07647b2ff9","5f64c46b798ceb01bff780a2","false","null","<span style=""color: black; font-size: 48px"">M + N</span>","null","","","","resp_prompt","","","","","","","","","","","","","","","",""
"categorize-image","21","315179","0.0-2.0-2.0-1.5","1n5hn7uebuoqfdt","practice_no_cue","5edfb0770fb0722aa3839b6d","5f60e3c0a3b16e07647b2ff9","5f64c46b798ceb01bff780a2","true","1160.4550000011222","./Stimuli/ImagesPractice/SM35.jpg","83","","","","test","true","M + N","83","","SM","SM35.jpg","remember","old","6","1","start","left","","","",""
"html-keyboard-response","22","315881","0.0-2.0-2.0-0.6","1n5hn7uebuoqfdt","practice_no_cue","5edfb0770fb0722aa3839b6d","5f60e3c0a3b16e07647b2ff9","5f64c46b798ceb01bff780a2","false","null","<span style=""color: black; font-size: 48px"">M + N</span>","null","","","","resp_prompt","","","","","","","","","","","","","","","",""
"categorize-image","23","317245","0.0-2.0-2.0-1.6","1n5hn7uebuoqfdt","practice_no_cue","5edfb0770fb0722aa3839b6d","5f60e3c0a3b16e07647b2ff9","5f64c46b798ceb01bff780a2","true","857.9150000005029","./Stimuli/ImagesPractice/LN2.jpg","76","","","","test","true","M + N","76","","LN","LN2.jpg","forget","old","7","1","start","right","","","",""
"html-keyboard-response","24","317949","0.0-2.0-2.0-0.7","1n5hn7uebuoqfdt","practice_no_cue","5edfb0770fb0722aa3839b6d","5f60e3c0a3b16e07647b2ff9","5f64c46b798ceb01bff780a2","false","null","<span style=""color: black; font-size: 48px"">M + N</span>","null","","","","resp_prompt","","","","","","","","","","","","","","","",""
"categorize-image","25","319196","0.0-2.0-2.0-1.7","1n5hn7uebuoqfdt","practice_no_cue","5edfb0770fb0722aa3839b6d","5f60e3c0a3b16e07647b2ff9","5f64c46b798ceb01bff780a2","true","742.4800000007963","./Stimuli/ImagesPractice/SM37.jpg","83","","","","test","true","M + N","83","","SM","SM37.jpg","remember","old","8","1","start","left","","","",""
"html-keyboard-response","26","319898","0.0-2.0-2.0-0.8","1n5hn7uebuoqfdt","practice_no_cue","5edfb0770fb0722aa3839b6d","5f60e3c0a3b16e07647b2ff9","5f64c46b798ceb01bff780a2","false","null","<span style=""color: black; font-size: 48px"">N + M</span>","null","","","","resp_prompt","","","","","","","","","","","","","","","",""
"categorize-image","27","321677","0.0-2.0-2.0-1.8","1n5hn7uebuoqfdt","practice_no_cue","5edfb0770fb0722aa3839b6d","5f60e3c0a3b16e07647b2ff9","5f64c46b798ceb01bff780a2","true","1264.9899999996996","./Stimuli/ImagesPractice/LM239.jpg","76","","","","test","true","N + M","76","","LM","LM239.jpg","remember","old","9","1","start","right","","","",""
"html-keyboard-response","28","322382","0.0-2.0-2.0-0.9","1n5hn7uebuoqfdt","practice_no_cue","5edfb0770fb0722aa3839b6d","5f60e3c0a3b16e07647b2ff9","5f64c46b798ceb01bff780a2","false","null","<span style=""color: black; font-size: 48px"">N + M</span>","null","","","","resp_prompt","","","","","","","","","","","","","","","",""
"categorize-image","29","323762","0.0-2.0-2.0-1.9","1n5hn7uebuoqfdt","practice_no_cue","5edfb0770fb0722aa3839b6d","5f60e3c0a3b16e07647b2ff9","5f64c46b798ceb01bff780a2","true","877.3650000002817","./Stimuli/ImagesPractice/LN72.jpg","83","","","","test","true","N + M","83","","LN","LN72.jpg","remember","old","10","1","start","left","","","",""
"html-keyboard-response","30","324465","0.0-2.0-2.0-0.10","1n5hn7uebuoqfdt","practice_no_cue","5edfb0770fb0722aa3839b6d","5f60e3c0a3b16e07647b2ff9","5f64c46b798ceb01bff780a2","false","null","<span style=""color: black; font-size: 48px"">M + N</span>","null","","","","resp_prompt","","","","","","","","","","","","","","","",""
"categorize-image","31","325795","0.0-2.0-2.0-1.10","1n5hn7uebuoqfdt","practice_no_cue","5edfb0770fb0722aa3839b6d","5f60e3c0a3b16e07647b2ff9","5f64c46b798ceb01bff780a2","true","827.1099999983562","./Stimuli/ImagesPractice/LM147.jpg","83","","","","test","true","M + N","83","","LM","LM147.jpg","remember","old","11","1","start","left","","","",""
"html-keyboard-response","32","326498","0.0-2.0-2.0-0.11","1n5hn7uebuoqfdt","practice_no_cue","5edfb0770fb0722aa3839b6d","5f60e3c0a3b16e07647b2ff9","5f64c46b798ceb01bff780a2","false","null","<span style=""color: black; font-size: 48px"">M + N</span>","null","","","","resp_prompt","","","","","","","","","","","","","","","",""
"categorize-image","33","327829","0.0-2.0-2.0-1.11","1n5hn7uebuoqfdt","practice_no_cue","5edfb0770fb0722aa3839b6d","5f60e3c0a3b16e07647b2ff9","5f64c46b798ceb01bff780a2","true","825.0450000014389","./Stimuli/ImagesPractice/SN76.jpg","76","","","","test","true","M + N","76","","SN","SN76.jpg","forget","old","12","1","start","right","","","",""
"html-keyboard-response","34","328531","0.0-2.0-2.0-0.12","1n5hn7uebuoqfdt","practice_no_cue","5edfb0770fb0722aa3839b6d","5f60e3c0a3b16e07647b2ff9","5f64c46b798ceb01bff780a2","false","null","<span style=""color: black; font-size: 48px"">M + N</span>","null","","","","resp_prompt","","","","","","","","","","","","","","","",""
"categorize-image","35","329694","0.0-2.0-2.0-1.12","1n5hn7uebuoqfdt","practice_no_cue","5edfb0770fb0722aa3839b6d","5f60e3c0a3b16e07647b2ff9","5f64c46b798ceb01bff780a2","true","655.5299999999697","./Stimuli/ImagesPractice/SM62.jpg","83","","","","test","true","M + N","83","","SM","SM62.jpg","remember","old","13","1","start","left","","","",""
"html-keyboard-response","36","330398","0.0-2.0-2.0-0.13","1n5hn7uebuoqfdt","practice_no_cue","5edfb0770fb0722aa3839b6d","5f60e3c0a3b16e07647b2ff9","5f64c46b798ceb01bff780a2","false","null","<span style=""color: black; font-size: 48px"">M + N</span>","null","","","","resp_prompt","","","","","","","","","","","","","","","",""
"categorize-image","37","331596","0.0-2.0-2.0-1.13","1n5hn7uebuoqfdt","practice_no_cue","5edfb0770fb0722aa3839b6d","5f60e3c0a3b16e07647b2ff9","5f64c46b798ceb01bff780a2","true","692.654999998922","./Stimuli/ImagesPractice/SM97.jpg","83","","","","test","true","M + N","83","","SM","SM97.jpg","forget","old","14","1","start","left","","","",""
"html-keyboard-response","38","332298","0.0-2.0-2.0-0.14","1n5hn7uebuoqfdt","practice_no_cue","5edfb0770fb0722aa3839b6d","5f60e3c0a3b16e07647b2ff9","5f64c46b798ceb01bff780a2","false","null","<span style=""color: black; font-size: 48px"">N + M</span>","null","","","","resp_prompt","","","","","","","","","","","","","","","",""
"categorize-image","39","333527","0.0-2.0-2.0-1.14","1n5hn7uebuoqfdt","practice_no_cue","5edfb0770fb0722aa3839b6d","5f60e3c0a3b16e07647b2ff9","5f64c46b798ceb01bff780a2","true","720.5399999984074","./Stimuli/ImagesPractice/LN15.jpg","83","","","","test","true","N + M","83","","LN","LN15.jpg","forget","old","15","1","start","left","","","",""
"html-keyboard-response","40","334231","0.0-2.0-2.0-0.15","1n5hn7uebuoqfdt","practice_no_cue","5edfb0770fb0722aa3839b6d","5f60e3c0a3b16e07647b2ff9","5f64c46b798ceb01bff780a2","false","null","<span style=""color: black; font-size: 48px"">M + N</span>","null","","","","resp_prompt","","","","","","","","","","","","","","","",""
"categorize-image","41","335462","0.0-2.0-2.0-1.15","1n5hn7uebuoqfdt","practice_no_cue","5edfb0770fb0722aa3839b6d","5f60e3c0a3b16e07647b2ff9","5f64c46b798ceb01bff780a2","true","723.1549999996787","./Stimuli/ImagesPractice/LM143.jpg","83","","","","test","true","M + N","83","","LM","LM143.jpg","forget","old","16","1","start","left","","","",""
"html-keyboard-response","42","342621","0.0-2.0-3.0","1n5hn7uebuoqfdt","break","5edfb0770fb0722aa3839b6d","5f60e3c0a3b16e07647b2ff9","5f64c46b798ceb01bff780a2","false","7155.989999999292","<p style='font-size: 32px;'>Break</><br><br><br><br><br><p style='font-size: 24px;'>In the last block, you committed 0 errors and did not respond in time on 0 trials.
</p><p style='font-size: 24px;'>Try to respond as fast and accurately as possible in the next block as well! </p><p style='font-size: 24px;'>Press SPACE to continue.</p>","32","","","","","","","","","","","","","","","","","","","",""
"html-keyboard-response","43","349068","0.0-2.0-4.0","1n5hn7uebuoqfdt","instructions","5edfb0770fb0722aa3839b6d","5f60e3c0a3b16e07647b2ff9","5f64c46b798ceb01bff780a2","false","6445.31499999715","<div align=left> Great!<br><br>Are you ready to continue?<br><br>If you want to reread the instructions and redo the practice trials, <br>please press „Z“. <br><br>Press SPACE to CONTINUE with the experiment when you are ready. </div>","32","","","","","","","","","","","","","","","","","","","",""
"html-keyboard-response","44","397672","0.0-3.0-0.0","1n5hn7uebuoqfdt","instructions","5edfb0770fb0722aa3839b6d","5f60e3c0a3b16e07647b2ff9","5f64c46b798ceb01bff780a2","false","48597.23999999912","<div align=left>Great!<br> <strong>Attention</strong>! You will now receive a second, additional task! <br><br>To this point it was you <strong>first task</strong> to correctly <strong>classify objects</strong>. <br><br>As mentioned in the beginning, we aim to examine how well humans can remember previously learned information.<br>We would like to find out whether our memory improves if we only remember information that is relevant to us. <br><br>Therefore, your <strong>second task</strong> will be to <strong>remember</strong> the pictures you are to categorize. <br> After the learning phase, there will be a memory test phase, in which you will be asked to indicate whether you have seen a picture before or not. <br>Some, but not all pictures shown in the learning phase will appear in the memory test phase.<br>After classifying a picture, you will be told whether you should remember it for the memory test phase or not. <br>Thus, some pictures can be forgotten, whereas others have to be remembered. <br><br>Note: From now on, feedback will only be displayed if you responded incorrectly or not in time.<br><br>Press SPACE to continue.</div>","32","","","","","","","","","","","","","","","","","","","",""
"html-keyboard-response","45","418695","0.0-3.0-1.0","1n5hn7uebuoqfdt","instructions","5edfb0770fb0722aa3839b6d","5f60e3c0a3b16e07647b2ff9","5f64c46b798ceb01bff780a2","false","21021.530000001774","<div align=left>In the following part, you will thus have to remember only some pictures. <br>Immediately after seeing and classifying the picture, a symbol will be displayed, indicating whether you should remember or forget the previous picture. <br><br>A <span style='color: dodgerblue; font-size: 28px'>O</span> indicates REMEMBER. That means, you have to remember this picture, because it will be tested later. <br><br>A <span style='color: darkorange; font-size:28px'>Ø</span> indicates FORGET. You do not have to remember this picture. <br><br> As you will have to remember a lot of pictures, it will be hard for you to remember all of them. <br>It will put you at an advantage if you instantly forget the pictures you are not asked to remember. <br> This will make it easier for you to remember the pictures that will be tested afterwards. <br><br>Press SPACE to continue.</div>","32","","","","","","","","","","","","","","","","","","","",""
"html-keyboard-response","46","435287","0.0-3.0-2.0","1n5hn7uebuoqfdt","instructions","5edfb0770fb0722aa3839b6d","5f60e3c0a3b16e07647b2ff9","5f64c46b798ceb01bff780a2","false","16589.82499999914","<div align=left> Now you have the chance to practice both tasks together.<br><br>Remember: <br> <br><li>Please place your index fingers on the <strong>'S'</strong> and <strong>'L'</strong> keys <br>to respond as fast and accurately as possible.</li><li>Every picture can be classified as either mechanical or non-mechanical.</li><li>If you do not respond in time or commit an error, you will receive a corresponding feedback. <br>Please try to respond as <strong> fast </strong> and as <strong> accurately as possible </strong>.</li><li> Please remember only the to-be-remembered <span style='color: dodgerblue; font-size: 28px'>O</span> pictures. <br></li><li> Please minimize distractions and stay focused. </li><br><br>Press SPACE to START</div>","32","","","","","","","","","","","","","","","","","","","",""
"html-keyboard-response","47","435993","0.0-3.0-3.0-0.0","1n5hn7uebuoqfdt","practice_cue","5edfb0770fb0722aa3839b6d","5f60e3c0a3b16e07647b2ff9","5f64c46b798ceb01bff780a2","false","null","<span style=""color: black; font-size: 48px"">M + N</span>","null","","","","resp_prompt","","","","","","","","","","","","","","","",""
"categorize-image","48","436712","0.0-3.0-3.0-1.0","1n5hn7uebuoqfdt","practice_cue","5edfb0770fb0722aa3839b6d","5f60e3c0a3b16e07647b2ff9","5f64c46b798ceb01bff780a2","true","714.1699999993434","./Stimuli/ImagesPractice/SN76.jpg","76","","","","test","true","M + N","76","","SN","SN76.jpg","forget","old","17","2","practice_forget","right","","","",""
"html-keyboard-response","49","438727","0.0-3.0-3.0-3.0","1n5hn7uebuoqfdt","practice_cue","5edfb0770fb0722aa3839b6d","5f60e3c0a3b16e07647b2ff9","5f64c46b798ceb01bff780a2","false","null","<div style=""align-items: center; display: flex; color: darkorange; font-size: 90px""><b>ø</b></div>","null","","","","forget_cue","","","","","","","","","","","","","","","",""
"html-keyboard-response","50","439433","0.0-3.0-3.0-0.1","1n5hn7uebuoqfdt","practice_cue","5edfb0770fb0722aa3839b6d","5f60e3c0a3b16e07647b2ff9","5f64c46b798ceb01bff780a2","false","null","<span style=""color: black; font-size: 48px"">M + N</span>","null","","","","resp_prompt","","","","","","","","","","","","","","","",""
"categorize-image","51","440232","0.0-3.0-3.0-1.1","1n5hn7uebuoqfdt","practice_cue","5edfb0770fb0722aa3839b6d","5f60e3c0a3b16e07647b2ff9","5f64c46b798ceb01bff780a2","true","794.0900000030524","./Stimuli/ImagesPractice/SM97.jpg","83","","","","test","true","M + N","83","","SM","SM97.jpg","forget","old","18","2","practice_forget","left","","","",""
"html-keyboard-response","52","442244","0.0-3.0-3.0-3.1","1n5hn7uebuoqfdt","practice_cue","5edfb0770fb0722aa3839b6d","5f60e3c0a3b16e07647b2ff9","5f64c46b798ceb01bff780a2","false","null","<div style=""align-items: center; display: flex; color: darkorange; font-size: 90px""><b>ø</b></div>","null","","","","forget_cue","","","","","","","","","","","","","","","",""
"html-keyboard-response","53","442950","0.0-3.0-3.0-0.2","1n5hn7uebuoqfdt","practice_cue","5edfb0770fb0722aa3839b6d","5f60e3c0a3b16e07647b2ff9","5f64c46b798ceb01bff780a2","false","null","<span style=""color: black; font-size: 48px"">N + M</span>","null","","","","resp_prompt","","","","","","","","","","","","","","","",""
"categorize-image","54","443863","0.0-3.0-3.0-1.2","1n5hn7uebuoqfdt","practice_cue","5edfb0770fb0722aa3839b6d","5f60e3c0a3b16e07647b2ff9","5f64c46b798ceb01bff780a2","true","909.7800000017742","./Stimuli/ImagesPractice/LN72.jpg","83","","","","test","true","N + M","83","","LN","LN72.jpg","remember","old","19","2","practice_forget","left","","","",""
"html-keyboard-response","55","445877","0.0-3.0-3.0-3.2","1n5hn7uebuoqfdt","practice_cue","5edfb0770fb0722aa3839b6d","5f60e3c0a3b16e07647b2ff9","5f64c46b798ceb01bff780a2","false","null","<div style=""align-items: center; display: flex; color: dodgerblue; font-size: 90px""><b>o</b></div>","null","","","","forget_cue","","","","","","","","","","","","","","","",""
"html-keyboard-response","56","446583","0.0-3.0-3.0-0.3","1n5hn7uebuoqfdt","practice_cue","5edfb0770fb0722aa3839b6d","5f60e3c0a3b16e07647b2ff9","5f64c46b798ceb01bff780a2","false","null","<span style=""color: black; font-size: 48px"">M + N</span>","null","","","","resp_prompt","","","","","","","","","","","","","","","",""
"categorize-image","57","447440","0.0-3.0-3.0-1.3","1n5hn7uebuoqfdt","practice_cue","5edfb0770fb0722aa3839b6d","5f60e3c0a3b16e07647b2ff9","5f64c46b798ceb01bff780a2","true","853.6099999982398","./Stimuli/ImagesPractice/SM62.jpg","83","","","","test","true","M + N","83","","SM","SM62.jpg","remember","old","20","2","practice_forget","left","","","",""
"html-keyboard-response","58","449444","0.0-3.0-3.0-3.3","1n5hn7uebuoqfdt","practice_cue","5edfb0770fb0722aa3839b6d","5f60e3c0a3b16e07647b2ff9","5f64c46b798ceb01bff780a2","false","null","<div style=""align-items: center; display: flex; color: dodgerblue; font-size: 90px""><b>o</b></div>","null","","","","forget_cue","","","","","","","","","","","","","","","",""
"html-keyboard-response","59","450149","0.0-3.0-3.0-0.4","1n5hn7uebuoqfdt","practice_cue","5edfb0770fb0722aa3839b6d","5f60e3c0a3b16e07647b2ff9","5f64c46b798ceb01bff780a2","false","null","<span style=""color: black; font-size: 48px"">N + M</span>","null","","","","resp_prompt","","","","","","","","","","","","","","","",""
"categorize-image","60","450887","0.0-3.0-3.0-1.4","1n5hn7uebuoqfdt","practice_cue","5edfb0770fb0722aa3839b6d","5f60e3c0a3b16e07647b2ff9","5f64c46b798ceb01bff780a2","true","734.549999997369","./Stimuli/ImagesPractice/SM98.jpg","76","","","","test","true","N + M","76","","SM","SM98.jpg","remember","old","21","2","practice_forget","right","","","",""
"html-keyboard-response","61","452893","0.0-3.0-3.0-3.4","1n5hn7uebuoqfdt","practice_cue","5edfb0770fb0722aa3839b6d","5f60e3c0a3b16e07647b2ff9","5f64c46b798ceb01bff780a2","false","null","<div style=""align-items: center; display: flex; color: dodgerblue; font-size: 90px""><b>o</b></div>","null","","","","forget_cue","","","","","","","","","","","","","","","",""
"html-keyboard-response","62","453601","0.0-3.0-3.0-0.5","1n5hn7uebuoqfdt","practice_cue","5edfb0770fb0722aa3839b6d","5f60e3c0a3b16e07647b2ff9","5f64c46b798ceb01bff780a2","false","null","<span style=""color: black; font-size: 48px"">M + N</span>","null","","","","resp_prompt","","","","","","","","","","","","","","","",""
"categorize-image","63","454303","0.0-3.0-3.0-1.5","1n5hn7uebuoqfdt","practice_cue","5edfb0770fb0722aa3839b6d","5f60e3c0a3b16e07647b2ff9","5f64c46b798ceb01bff780a2","true","697.8000000017928","./Stimuli/ImagesPractice/SM37.jpg","83","","","","test","true","M + N","83","","SM","SM37.jpg","remember","old","22","2","practice_forget","left","","","",""
"html-keyboard-response","64","456310","0.0-3.0-3.0-3.5","1n5hn7uebuoqfdt","practice_cue","5edfb0770fb0722aa3839b6d","5f60e3c0a3b16e07647b2ff9","5f64c46b798ceb01bff780a2","false","null","<div style=""align-items: center; display: flex; color: dodgerblue; font-size: 90px""><b>o</b></div>","null","","","","forget_cue","","","","","","","","","","","","","","","",""
"html-keyboard-response","65","457015","0.0-3.0-3.0-0.6","1n5hn7uebuoqfdt","practice_cue","5edfb0770fb0722aa3839b6d","5f60e3c0a3b16e07647b2ff9","5f64c46b798ceb01bff780a2","false","null","<span style=""color: black; font-size: 48px"">M + N</span>","null","","","","resp_prompt","","","","","","","","","","","","","","","",""
"categorize-image","66","457783","0.0-3.0-3.0-1.6","1n5hn7uebuoqfdt","practice_cue","5edfb0770fb0722aa3839b6d","5f60e3c0a3b16e07647b2ff9","5f64c46b798ceb01bff780a2","true","764.774999999674","./Stimuli/ImagesPractice/SM35.jpg","83","","","","test","true","M + N","83","","SM","SM35.jpg","remember","old","23","2","practice_forget","left","","","",""
"html-keyboard-response","67","459793","0.0-3.0-3.0-3.6","1n5hn7uebuoqfdt","practice_cue","5edfb0770fb0722aa3839b6d","5f60e3c0a3b16e07647b2ff9","5f64c46b798ceb01bff780a2","false","null","<div style=""align-items: center; display: flex; color: dodgerblue; font-size: 90px""><b>o</b></div>","null","","","","forget_cue","","","","","","","","","","","","","","","",""
"html-keyboard-response","68","460500","0.0-3.0-3.0-0.7","1n5hn7uebuoqfdt","practice_cue","5edfb0770fb0722aa3839b6d","5f60e3c0a3b16e07647b2ff9","5f64c46b798ceb01bff780a2","false","null","<span style=""color: black; font-size: 48px"">M + N</span>","null","","","","resp_prompt","","","","","","","","","","","","","","","",""
"categorize-image","69","461358","0.0-3.0-3.0-1.7","1n5hn7uebuoqfdt","practice_cue","5edfb0770fb0722aa3839b6d","5f60e3c0a3b16e07647b2ff9","5f64c46b798ceb01bff780a2","true","853.7550000000629","./Stimuli/ImagesPractice/LN2.jpg","76","","","","test","true","M + N","76","","LN","LN2.jpg","forget","old","24","2","practice_forget","right","","","",""
"html-keyboard-response","70","463360","0.0-3.0-3.0-3.7","1n5hn7uebuoqfdt","practice_cue","5edfb0770fb0722aa3839b6d","5f60e3c0a3b16e07647b2ff9","5f64c46b798ceb01bff780a2","false","null","<div style=""align-items: center; display: flex; color: darkorange; font-size: 90px""><b>ø</b></div>","null","","","","forget_cue","","","","","","","","","","","","","","","",""
"html-keyboard-response","71","464065","0.0-3.0-3.0-0.8","1n5hn7uebuoqfdt","practice_cue","5edfb0770fb0722aa3839b6d","5f60e3c0a3b16e07647b2ff9","5f64c46b798ceb01bff780a2","false","null","<span style=""color: black; font-size: 48px"">N + M</span>","null","","","","resp_prompt","","","","","","","","","","","","","","","",""
"categorize-image","72","465014","0.0-3.0-3.0-1.8","1n5hn7uebuoqfdt","practice_cue","5edfb0770fb0722aa3839b6d","5f60e3c0a3b16e07647b2ff9","5f64c46b798ceb01bff780a2","true","945.3149999972666","./Stimuli/ImagesPractice/LM230.jpg","76","","","","test","true","N + M","76","","LM","LM230.jpg","forget","old","25","2","practice_forget","right","","","",""
"html-keyboard-response","73","467025","0.0-3.0-3.0-3.8","1n5hn7uebuoqfdt","practice_cue","5edfb0770fb0722aa3839b6d","5f60e3c0a3b16e07647b2ff9","5f64c46b798ceb01bff780a2","false","null","<div style=""align-items: center; display: flex; color: darkorange; font-size: 90px""><b>ø</b></div>","null","","","","forget_cue","","","","","","","","","","","","","","","",""
"html-keyboard-response","74","467731","0.0-3.0-3.0-0.9","1n5hn7uebuoqfdt","practice_cue","5edfb0770fb0722aa3839b6d","5f60e3c0a3b16e07647b2ff9","5f64c46b798ceb01bff780a2","false","null","<span style=""color: black; font-size: 48px"">N + M</span>","null","","","","resp_prompt","","","","","","","","","","","","","","","",""
"categorize-image","75","468655","0.0-3.0-3.0-1.9","1n5hn7uebuoqfdt","practice_cue","5edfb0770fb0722aa3839b6d","5f60e3c0a3b16e07647b2ff9","5f64c46b798ceb01bff780a2","true","920.2800000021234","./Stimuli/ImagesPractice/LM224.jpg","76","","","","test","true","N + M","76","","LM","LM224.jpg","remember","old","26","2","practice_forget","right","","","",""
"html-keyboard-response","76","470659","0.0-3.0-3.0-3.9","1n5hn7uebuoqfdt","practice_cue","5edfb0770fb0722aa3839b6d","5f60e3c0a3b16e07647b2ff9","5f64c46b798ceb01bff780a2","false","null","<div style=""align-items: center; display: flex; color: dodgerblue; font-size: 90px""><b>o</b></div>","null","","","","forget_cue","","","","","","","","","","","","","","","",""
"html-keyboard-response","77","471363","0.0-3.0-3.0-0.10","1n5hn7uebuoqfdt","practice_cue","5edfb0770fb0722aa3839b6d","5f60e3c0a3b16e07647b2ff9","5f64c46b798ceb01bff780a2","false","null","<span style=""color: black; font-size: 48px"">N + M</span>","null","","","","resp_prompt","","","","","","","","","","","","","","","",""
"categorize-image","78","472174","0.0-3.0-3.0-1.10","1n5hn7uebuoqfdt","practice_cue","5edfb0770fb0722aa3839b6d","5f60e3c0a3b16e07647b2ff9","5f64c46b798ceb01bff780a2","true","805.4849999971921","./Stimuli/ImagesPractice/SN220.jpg","83","","","","test","true","N + M","83","","SN","SN220.jpg","forget","old","27","2","practice_forget","left","","","",""
"html-keyboard-response","79","474177","0.0-3.0-3.0-3.10","1n5hn7uebuoqfdt","practice_cue","5edfb0770fb0722aa3839b6d","5f60e3c0a3b16e07647b2ff9","5f64c46b798ceb01bff780a2","false","null","<div style=""align-items: center; display: flex; color: darkorange; font-size: 90px""><b>ø</b></div>","null","","","","forget_cue","","","","","","","","","","","","","","","",""
"html-keyboard-response","80","474879","0.0-3.0-3.0-0.11","1n5hn7uebuoqfdt","practice_cue","5edfb0770fb0722aa3839b6d","5f60e3c0a3b16e07647b2ff9","5f64c46b798ceb01bff780a2","false","null","<span style=""color: black; font-size: 48px"">N + M</span>","null","","","","resp_prompt","","","","","","","","","","","","","","","",""
"categorize-image","81","475798","0.0-3.0-3.0-1.11","1n5hn7uebuoqfdt","practice_cue","5edfb0770fb0722aa3839b6d","5f60e3c0a3b16e07647b2ff9","5f64c46b798ceb01bff780a2","true","914.7400000002235","./Stimuli/ImagesPractice/LM239.jpg","76","","","","test","true","N + M","76","","LM","LM239.jpg","remember","old","28","2","practice_forget","right","","","",""
"html-keyboard-response","82","477809","0.0-3.0-3.0-3.11","1n5hn7uebuoqfdt","practice_cue","5edfb0770fb0722aa3839b6d","5f60e3c0a3b16e07647b2ff9","5f64c46b798ceb01bff780a2","false","null","<div style=""align-items: center; display: flex; color: dodgerblue; font-size: 90px""><b>o</b></div>","null","","","","forget_cue","","","","","","","","","","","","","","","",""
"html-keyboard-response","83","478522","0.0-3.0-3.0-0.12","1n5hn7uebuoqfdt","practice_cue","5edfb0770fb0722aa3839b6d","5f60e3c0a3b16e07647b2ff9","5f64c46b798ceb01bff780a2","false","null","<span style=""color: black; font-size: 48px"">M + N</span>","null","","","","resp_prompt","","","","","","","","","","","","","","","",""
"categorize-image","84","479326","0.0-3.0-3.0-1.12","1n5hn7uebuoqfdt","practice_cue","5edfb0770fb0722aa3839b6d","5f60e3c0a3b16e07647b2ff9","5f64c46b798ceb01bff780a2","true","800.1050000020768","./Stimuli/ImagesPractice/LM143.jpg","83","","","","test","true","M + N","83","","LM","LM143.jpg","forget","old","29","2","practice_forget","left","","","",""
"html-keyboard-response","85","481328","0.0-3.0-3.0-3.12","1n5hn7uebuoqfdt","practice_cue","5edfb0770fb0722aa3839b6d","5f60e3c0a3b16e07647b2ff9","5f64c46b798ceb01bff780a2","false","null","<div style=""align-items: center; display: flex; color: darkorange; font-size: 90px""><b>ø</b></div>","null","","","","forget_cue","","","","","","","","","","","","","","","",""
"html-keyboard-response","86","482033","0.0-3.0-3.0-0.13","1n5hn7uebuoqfdt","practice_cue","5edfb0770fb0722aa3839b6d","5f60e3c0a3b16e07647b2ff9","5f64c46b798ceb01bff780a2","false","null","<span style=""color: black; font-size: 48px"">M + N</span>","null","","","","resp_prompt","","","","","","","","","","","","","","","",""
"categorize-image","87","482813","0.0-3.0-3.0-1.13","1n5hn7uebuoqfdt","practice_cue","5edfb0770fb0722aa3839b6d","5f60e3c0a3b16e07647b2ff9","5f64c46b798ceb01bff780a2","true","776.3799999993062","./Stimuli/ImagesPractice/LM147.jpg","83","","","","test","true","M + N","83","","LM","LM147.jpg","remember","old","30","2","practice_forget","left","","","",""
"html-keyboard-response","88","484825","0.0-3.0-3.0-3.13","1n5hn7uebuoqfdt","practice_cue","5edfb0770fb0722aa3839b6d","5f60e3c0a3b16e07647b2ff9","5f64c46b798ceb01bff780a2","false","null","<div style=""align-items: center; display: flex; color: dodgerblue; font-size: 90px""><b>o</b></div>","null","","","","forget_cue","","","","","","","","","","","","","","","",""
"html-keyboard-response","89","485527","0.0-3.0-3.0-0.14","1n5hn7uebuoqfdt","practice_cue","5edfb0770fb0722aa3839b6d","5f60e3c0a3b16e07647b2ff9","5f64c46b798ceb01bff780a2","false","null","<span style=""color: black; font-size: 48px"">N + M</span>","null","","","","resp_prompt","","","","","","","","","","","","","","","",""
"categorize-image","90","486709","0.0-3.0-3.0-1.14","1n5hn7uebuoqfdt","practice_cue","5edfb0770fb0722aa3839b6d","5f60e3c0a3b16e07647b2ff9","5f64c46b798ceb01bff780a2","true","1178.3549999999814","./Stimuli/ImagesPractice/LN15.jpg","83","","","","test","true","N + M","83","","LN","LN15.jpg","forget","old","31","2","practice_forget","left","","","",""
"html-keyboard-response","91","488725","0.0-3.0-3.0-3.14","1n5hn7uebuoqfdt","practice_cue","5edfb0770fb0722aa3839b6d","5f60e3c0a3b16e07647b2ff9","5f64c46b798ceb01bff780a2","false","null","<div style=""align-items: center; display: flex; color: darkorange; font-size: 90px""><b>ø</b></div>","null","","","","forget_cue","","","","","","","","","","","","","","","",""
"html-keyboard-response","92","489430","0.0-3.0-3.0-0.15","1n5hn7uebuoqfdt","practice_cue","5edfb0770fb0722aa3839b6d","5f60e3c0a3b16e07647b2ff9","5f64c46b798ceb01bff780a2","false","null","<span style=""color: black; font-size: 48px"">N + M</span>","null","","","","resp_prompt","","","","","","","","","","","","","","","",""
"categorize-image","93","490534","0.0-3.0-3.0-1.15","1n5hn7uebuoqfdt","practice_cue","5edfb0770fb0722aa3839b6d","5f60e3c0a3b16e07647b2ff9","5f64c46b798ceb01bff780a2","true","1100.7549999994226","./Stimuli/ImagesPractice/SN75.jpg","83","","","","test","true","N + M","83","","SN","SN75.jpg","forget","old","32","2","practice_forget","left","","","",""
"html-keyboard-response","94","492541","0.0-3.0-3.0-3.15","1n5hn7uebuoqfdt","practice_cue","5edfb0770fb0722aa3839b6d","5f60e3c0a3b16e07647b2ff9","5f64c46b798ceb01bff780a2","false","null","<div style=""align-items: center; display: flex; color: darkorange; font-size: 90px""><b>ø</b></div>","null","","","","forget_cue","","","","","","","","","","","","","","","",""
"html-keyboard-response","95","499851","0.0-3.0-4.0","1n5hn7uebuoqfdt","break","5edfb0770fb0722aa3839b6d","5f60e3c0a3b16e07647b2ff9","5f64c46b798ceb01bff780a2","false","7306.515000000189","<p style='font-size: 32px;'>Break</><br><br><br><br><br><p style='font-size: 24px;'>In the last block, you committed 0 errors and did not respond in time on 0 trials.
</p><p style='font-size: 24px;'>Try to respond as fast and accurately as possible in the next block as well! </p><p style='font-size: 24px;'>Press SPACE to continue.</p>","32","","","","","","","","","","","","","","","","","","","",""
"html-keyboard-response","96","532535","0.0-3.0-5.0","1n5hn7uebuoqfdt","instructions","5edfb0770fb0722aa3839b6d","5f60e3c0a3b16e07647b2ff9","5f64c46b798ceb01bff780a2","false","32678.59999999928","<div align=left> Now, to practice, we kindly ask you to remember as many of the to-be-remembered pictures<br>of the previous learning phase as possible.<br><br>The pictures you were instructed to remember were the pictures followed by a <span style='color: dodgerblue; font-size: 28px'>O</span>.<br><br>In this memory test phase, you will also see some new pictures.<br>It is your task to remember whether you were presented with this specific picture in this study so far or not.<br>If you recognize an object (you have already seen it in this study), it is an OLD object. <br>If you do not recognize an object (you have NOT seen it in this study), it is a NEW object. <br><strong> Attention</strong>: As already mentioned, <span style='color: darkorange; font-size:28px'>Ø</span>-pictures will <strong>never</strong> appear in this memory test (neither as new objects). <br><br>Press SPACE to continue. </div>","32","","","","","","","","","","","","","","","","","","","",""
"html-keyboard-response","97","587637","0.0-3.0-6.0","1n5hn7uebuoqfdt","instructions","5edfb0770fb0722aa3839b6d","5f60e3c0a3b16e07647b2ff9","5f64c46b798ceb01bff780a2","false","55100.024999999674","<div align=left> M and N no longer will appear on the left/right of the fixation cross. <br>Instead there will be a note at the bottom of the left or right side  <br>indicating which key you should press for an old or new object:  <br> <br>Press the <strong>right</strong> key to classify an object as <strong>old</strong> and press the <strong>left</strong>, to classify an object as <strong>new</strong>.<br>Please classify the objects as new/old by again placing your index finger on the 'S' and 'L' keys <br>and press them accordingly.<br><br><strong>Old:</strong> This object has been presented before. <br><strong>New:</strong> This object has <strong>not</strong> been presented.<br><br>Now please put your right and left index fingers on the 'S' and 'L' keys of your keyboard. <br>Please respond as fast and as accurately as possible!<br><br>Press SPACE to continue. </div>","32","","","","","","","","","","","","","","","","","","","",""
"categorize-image","98","589944","0.0-3.0-7.0-0.0","1n5hn7uebuoqfdt","practice_recog","5edfb0770fb0722aa3839b6d","5f60e3c0a3b16e07647b2ff9","5f64c46b798ceb01bff780a2","true","1803.074999999837","./Stimuli/ImagesPractice/LM55.jpg","76","","","","test","true","","76","","LM","LM55.jpg","","new","33","3","practice_recog","right","","","",""
"categorize-image","99","591726","0.0-3.0-7.0-0.1","1n5hn7uebuoqfdt","practice_recog","5edfb0770fb0722aa3839b6d","5f60e3c0a3b16e07647b2ff9","5f64c46b798ceb01bff780a2","true","1265.4400000028545","./Stimuli/ImagesPractice/SN221.jpg","76","","","","test","true","","76","","SN","SN221.jpg","","new","34","3","practice_recog","right","","","",""
"categorize-image","100","593535","0.0-3.0-7.0-0.2","1n5hn7uebuoqfdt","practice_recog","5edfb0770fb0722aa3839b6d","5f60e3c0a3b16e07647b2ff9","5f64c46b798ceb01bff780a2","true","1307.5000000026776","./Stimuli/ImagesPractice/LM224.jpg","83","","","","test","true","","83","","LM","LM224.jpg","","old","35","3","practice_recog","left","","","",""
"categorize-image","101","595152","0.0-3.0-7.0-0.3","1n5hn7uebuoqfdt","practice_recog","5edfb0770fb0722aa3839b6d","5f60e3c0a3b16e07647b2ff9","5f64c46b798ceb01bff780a2","true","1106.0399999987567","./Stimuli/ImagesPractice/SM37.jpg","83","","","","test","true","","83","","SM","SM37.jpg","","old","36","3","practice_recog","left","","","",""
"categorize-image","102","596736","0.0-3.0-7.0-0.4","1n5hn7uebuoqfdt","practice_recog","5edfb0770fb0722aa3839b6d","5f60e3c0a3b16e07647b2ff9","5f64c46b798ceb01bff780a2","true","1081.5150000016438","./Stimuli/ImagesPractice/SM98.jpg","83","","","","test","true","","83","","SM","SM98.jpg","","old","37","3","practice_recog","left","","","",""
"categorize-image","103","598318","0.0-3.0-7.0-0.5","1n5hn7uebuoqfdt","practice_recog","5edfb0770fb0722aa3839b6d","5f60e3c0a3b16e07647b2ff9","5f64c46b798ceb01bff780a2","true","1065.644999998738","./Stimuli/ImagesPractice/SM61.jpg","76","","","","test","true","","76","","SM","SM61.jpg","","new","38","3","practice_recog","right","","","",""
"categorize-image","104","599834","0.0-3.0-7.0-0.6","1n5hn7uebuoqfdt","practice_recog","5edfb0770fb0722aa3839b6d","5f60e3c0a3b16e07647b2ff9","5f64c46b798ceb01bff780a2","true","1002.6249999973224","./Stimuli/ImagesPractice/LN72.jpg","83","","","","test","true","","83","","LN","LN72.jpg","","old","39","3","practice_recog","left","","","",""
"categorize-image","105","601269","0.0-3.0-7.0-0.7","1n5hn7uebuoqfdt","practice_recog","5edfb0770fb0722aa3839b6d","5f60e3c0a3b16e07647b2ff9","5f64c46b798ceb01bff780a2","true","926.6400000015274","./Stimuli/ImagesPractice/LN109.jpg","76","","","","test","true","","76","","LN","LN109.jpg","","new","40","3","practice_recog","right","","","",""
"categorize-image","106","603251","0.0-3.0-7.0-0.8","1n5hn7uebuoqfdt","practice_recog","5edfb0770fb0722aa3839b6d","5f60e3c0a3b16e07647b2ff9","5f64c46b798ceb01bff780a2","true","1476.1949999992503","./Stimuli/ImagesPractice/LM147.jpg","83","","","","test","true","","83","","LM","LM147.jpg","","old","41","3","practice_recog","left","","","",""
"categorize-image","107","604853","0.0-3.0-7.0-0.9","1n5hn7uebuoqfdt","practice_recog","5edfb0770fb0722aa3839b6d","5f60e3c0a3b16e07647b2ff9","5f64c46b798ceb01bff780a2","true","1094.0500000033062","./Stimuli/ImagesPractice/LM239.jpg","83","","","","test","true","","83","","LM","LM239.jpg","","old","42","3","practice_recog","left","","","",""
"categorize-image","108","606451","0.0-3.0-7.0-0.10","1n5hn7uebuoqfdt","practice_recog","5edfb0770fb0722aa3839b6d","5f60e3c0a3b16e07647b2ff9","5f64c46b798ceb01bff780a2","true","1084.2049999991432","./Stimuli/ImagesPractice/SM35.jpg","83","","","","test","true","","83","","SM","SM35.jpg","","old","43","3","practice_recog","left","","","",""
"categorize-image","109","607935","0.0-3.0-7.0-0.11","1n5hn7uebuoqfdt","practice_recog","5edfb0770fb0722aa3839b6d","5f60e3c0a3b16e07647b2ff9","5f64c46b798ceb01bff780a2","true","974.1700000013225","./Stimuli/ImagesPractice/LN4.jpg","76","","","","test","true","","76","","LN","LN4.jpg","","new","44","3","practice_recog","right","","","",""
"categorize-image","110","609534","0.0-3.0-7.0-0.12","1n5hn7uebuoqfdt","practice_recog","5edfb0770fb0722aa3839b6d","5f60e3c0a3b16e07647b2ff9","5f64c46b798ceb01bff780a2","true","1091.1500000001397","./Stimuli/ImagesPractice/SM62.jpg","83","","","","test","true","","83","","SM","SM62.jpg","","old","45","3","practice_recog","left","","","",""
"categorize-image","111","611402","0.0-3.0-7.0-0.13","1n5hn7uebuoqfdt","practice_recog","5edfb0770fb0722aa3839b6d","5f60e3c0a3b16e07647b2ff9","5f64c46b798ceb01bff780a2","true","1362.7549999982584","./Stimuli/ImagesPractice/SN205.jpg","76","","","","test","true","","76","","SN","SN205.jpg","","new","46","3","practice_recog","right","","","",""
"categorize-image","112","612818","0.0-3.0-7.0-0.14","1n5hn7uebuoqfdt","practice_recog","5edfb0770fb0722aa3839b6d","5f60e3c0a3b16e07647b2ff9","5f64c46b798ceb01bff780a2","true","902.5350000010803","./Stimuli/ImagesPractice/SN222.jpg","76","","","","test","true","","76","","SN","SN222.jpg","","new","47","3","practice_recog","right","","","",""
"categorize-image","113","614435","0.0-3.0-7.0-0.15","1n5hn7uebuoqfdt","practice_recog","5edfb0770fb0722aa3839b6d","5f60e3c0a3b16e07647b2ff9","5f64c46b798ceb01bff780a2","true","1110.725000002305","./Stimuli/ImagesPractice/LN17.jpg","76","","","","test","true","","76","","LN","LN17.jpg","","new","48","3","practice_recog","right","","","",""
"html-keyboard-response","114","631315","0.0-3.0-8.0","1n5hn7uebuoqfdt","instructions","5edfb0770fb0722aa3839b6d","5f60e3c0a3b16e07647b2ff9","5f64c46b798ceb01bff780a2","false","16877.974999999395","<div align=left> Great!<br><br>Are you ready to continue?<br>If you want to reread the instructions and redo the practice trials, please <br>press „Z“.<br><br>You can proceed when you are ready.<br><br>After the presentation of each object, you will receive an instruction whether to <br>remember or to forget the object.<br>We will test your memory of the following pictures only at the very end of <br>the experiment after all learning blocks are completed. <br><br>Press SPACE to CONTINUE when you are ready. </div>","32","","","","","","","","","","","","","","","","","","","",""
"html-keyboard-response","115","655933","0.0-4.0-0.0","1n5hn7uebuoqfdt","instructions","5edfb0770fb0722aa3839b6d","5f60e3c0a3b16e07647b2ff9","5f64c46b798ceb01bff780a2","false","24613.975000000326","<div align=left> The actual experiment is about to start.<br>The practice trials are over!<br><br>Please always respond both fast and accurately!<br><br>Remember: <br> <br><li> Please place your index fingers on the <strong>'S'</strong> and <strong>'L'</strong> keys <br>to respond as fast and accurately as possible.</li><li> Every picture can be classified as either mechanical or non-mechanical.</li><li> If you do not respond in time or commit an error, you will receive a corresponding feedback.<br> Please try to respond as <strong> fast </strong> and as <strong> accurately as possible </strong>.</li><li> Remember the <span style='color: dodgerblue; font-size: 28px'>O</span> pictures. <br></li><li> Please minimize distractions and stay focused. </li><br><br>Press SPACE to START.</div>","32","","","","","","","","","","","","","","","","","","","",""
"html-keyboard-response","116","656639","0.0-4.0-1.0-0.0","1n5hn7uebuoqfdt","prime","5edfb0770fb0722aa3839b6d","5f60e3c0a3b16e07647b2ff9","5f64c46b798ceb01bff780a2","false","null","<span style=""color: black; font-size: 48px"">N + M</span>","null","","","","resp_prompt","","","","","","","","","","","","","","","",""
"categorize-image","117","657782","0.0-4.0-1.0-1.0","1n5hn7uebuoqfdt","prime","5edfb0770fb0722aa3839b6d","5f60e3c0a3b16e07647b2ff9","5f64c46b798ceb01bff780a2","true","1138.284999997355","./Stimuli/SelectedImages/SM/SM207.bmp","76","","","","test","true","N + M","76","switch","SM","SM207.bmp","remember","","49","3","prime1","right","","","",""
"html-keyboard-response","118","659785","0.0-4.0-1.0-3.0","1n5hn7uebuoqfdt","prime","5edfb0770fb0722aa3839b6d","5f60e3c0a3b16e07647b2ff9","5f64c46b798ceb01bff780a2","false","null","<div style=""align-items: center; display: flex; color: dodgerblue; font-size: 90px""><b>o</b></div>","null","","","","forget_cue","","","","","","","","","","","","","","","",""
"html-keyboard-response","119","660488","0.0-4.0-1.0-0.1","1n5hn7uebuoqfdt","prime","5edfb0770fb0722aa3839b6d","5f60e3c0a3b16e07647b2ff9","5f64c46b798ceb01bff780a2","false","null","<span style=""color: black; font-size: 48px"">M + N</span>","null","","","","resp_prompt","","","","","","","","","","","","","","","",""
"categorize-image","120","661525","0.0-4.0-1.0-1.1","1n5hn7uebuoqfdt","prime","5edfb0770fb0722aa3839b6d","5f60e3c0a3b16e07647b2ff9","5f64c46b798ceb01bff780a2","true","1033.4049999982817","./Stimuli/SelectedImages/LN/LN28.bmp","76","","","","test","true","M + N","76","repetition","LN","LN28.bmp","forget","","50","3","prime1","right","","","",""
"html-keyboard-response","121","663533","0.0-4.0-1.0-3.1","1n5hn7uebuoqfdt","prime","5edfb0770fb0722aa3839b6d","5f60e3c0a3b16e07647b2ff9","5f64c46b798ceb01bff780a2","false","null","<div style=""align-items: center; display: flex; color: darkorange; font-size: 90px""><b>ø</b></div>","null","","","","forget_cue","","","","","","","","","","","","","","","",""
"html-keyboard-response","122","664239","0.0-4.0-1.0-0.2","1n5hn7uebuoqfdt","prime","5edfb0770fb0722aa3839b6d","5f60e3c0a3b16e07647b2ff9","5f64c46b798ceb01bff780a2","false","null","<span style=""color: black; font-size: 48px"">N + M</span>","null","","","","resp_prompt","","","","","","","","","","","","","","","",""
"categorize-image","123","665133","0.0-4.0-1.0-1.2","1n5hn7uebuoqfdt","prime","5edfb0770fb0722aa3839b6d","5f60e3c0a3b16e07647b2ff9","5f64c46b798ceb01bff780a2","true","890.7900000013178","./Stimuli/SelectedImages/SM/SM106.bmp","76","","","","test","true","N + M","76","switch","SM","SM106.bmp","forget","","51","3","prime1","right","","","",""
"html-keyboard-response","124","667135","0.0-4.0-1.0-3.2","1n5hn7uebuoqfdt","prime","5edfb0770fb0722aa3839b6d","5f60e3c0a3b16e07647b2ff9","5f64c46b798ceb01bff780a2","false","null","<div style=""align-items: center; display: flex; color: darkorange; font-size: 90px""><b>ø</b></div>","null","","","","forget_cue","","","","","","","","","","","","","","","",""
"html-keyboard-response","125","667852","0.0-4.0-1.0-0.3","1n5hn7uebuoqfdt","prime","5edfb0770fb0722aa3839b6d","5f60e3c0a3b16e07647b2ff9","5f64c46b798ceb01bff780a2","false","null","<span style=""color: black; font-size: 48px"">M + N</span>","null","","","","resp_prompt","","","","","","","","","","","","","","","",""
"categorize-image","126","668670","0.0-4.0-1.0-1.3","1n5hn7uebuoqfdt","prime","5edfb0770fb0722aa3839b6d","5f60e3c0a3b16e07647b2ff9","5f64c46b798ceb01bff780a2","true","815.3549999988172","./Stimuli/SelectedImages/SM/SM200.bmp","83","","","","test","true","M + N","83","repetition","SM","SM200.bmp","remember","","52","3","prime1","left","","","",""
"html-keyboard-response","127","670683","0.0-4.0-1.0-3.3","1n5hn7uebuoqfdt","prime","5edfb0770fb0722aa3839b6d","5f60e3c0a3b16e07647b2ff9","5f64c46b798ceb01bff780a2","false","null","<div style=""align-items: center; display: flex; color: dodgerblue; font-size: 90px""><b>o</b></div>","null","","","","forget_cue","","","","","","","","","","","","","","","",""
"html-keyboard-response","128","671388","0.0-4.0-1.0-0.4","1n5hn7uebuoqfdt","prime","5edfb0770fb0722aa3839b6d","5f60e3c0a3b16e07647b2ff9","5f64c46b798ceb01bff780a2","false","null","<span style=""color: black; font-size: 48px"">M + N</span>","null","","","","resp_prompt","","","","","","","","","","","","","","","",""
"categorize-image","129","672589","0.0-4.0-1.0-1.4","1n5hn7uebuoqfdt","prime","5edfb0770fb0722aa3839b6d","5f60e3c0a3b16e07647b2ff9","5f64c46b798ceb01bff780a2","true","1196.3949999990873","./Stimuli/SelectedImages/LM/LM157.bmp","83","","","","test","true","M + N","83","repetition","LM","LM157.bmp","forget","","53","3","prime1","left","","","",""
"html-keyboard-response","130","674601","0.0-4.0-1.0-3.4","1n5hn7uebuoqfdt","prime","5edfb0770fb0722aa3839b6d","5f60e3c0a3b16e07647b2ff9","5f64c46b798ceb01bff780a2","false","null","<div style=""align-items: center; display: flex; color: darkorange; font-size: 90px""><b>ø</b></div>","null","","","","forget_cue","","","","","","","","","","","","","","","",""
"html-keyboard-response","131","675303","0.0-4.0-1.0-0.5","1n5hn7uebuoqfdt","prime","5edfb0770fb0722aa3839b6d","5f60e3c0a3b16e07647b2ff9","5f64c46b798ceb01bff780a2","false","null","<span style=""color: black; font-size: 48px"">M + N</span>","null","","","","resp_prompt","","","","","","","","","","","","","","","",""
"categorize-image","132","676141","0.0-4.0-1.0-1.5","1n5hn7uebuoqfdt","prime","5edfb0770fb0722aa3839b6d","5f60e3c0a3b16e07647b2ff9","5f64c46b798ceb01bff780a2","true","834.0499999977183","./Stimuli/SelectedImages/SN/SN181.bmp","76","","","","test","true","M + N","76","repetition","SN","SN181.bmp","forget","","54","3","prime1","right","","","",""
"html-keyboard-response","133","678150","0.0-4.0-1.0-3.5","1n5hn7uebuoqfdt","prime","5edfb0770fb0722aa3839b6d","5f60e3c0a3b16e07647b2ff9","5f64c46b798ceb01bff780a2","false","null","<div style=""align-items: center; display: flex; color: darkorange; font-size: 90px""><b>ø</b></div>","null","","","","forget_cue","","","","","","","","","","","","","","","",""
"html-keyboard-response","134","678858","0.0-4.0-1.0-0.6","1n5hn7uebuoqfdt","prime","5edfb0770fb0722aa3839b6d","5f60e3c0a3b16e07647b2ff9","5f64c46b798ceb01bff780a2","false","null","<span style=""color: black; font-size: 48px"">M + N</span>","null","","","","resp_prompt","","","","","","","","","","","","","","","",""
"categorize-image","135","679549","0.0-4.0-1.0-1.6","1n5hn7uebuoqfdt","prime","5edfb0770fb0722aa3839b6d","5f60e3c0a3b16e07647b2ff9","5f64c46b798ceb01bff780a2","true","687.450000001234","./Stimuli/SelectedImages/SM/SM76.bmp","83","","","","test","true","M + N","83","switch","SM","SM76.bmp","remember","","55","3","prime1","left","","","",""
"html-keyboard-response","136","681551","0.0-4.0-1.0-3.6","1n5hn7uebuoqfdt","prime","5edfb0770fb0722aa3839b6d","5f60e3c0a3b16e07647b2ff9","5f64c46b798ceb01bff780a2","false","null","<div style=""align-items: center; display: flex; color: dodgerblue; font-size: 90px""><b>o</b></div>","null","","","","forget_cue","","","","","","","","","","","","","","","",""
"html-keyboard-response","137","682254","0.0-4.0-1.0-0.7","1n5hn7uebuoqfdt","prime","5edfb0770fb0722aa3839b6d","5f60e3c0a3b16e07647b2ff9","5f64c46b798ceb01bff780a2","false","null","<span style=""color: black; font-size: 48px"">N + M</span>","null","","","","resp_prompt","","","","","","","","","","","","","","","",""
"categorize-image","138","682973","0.0-4.0-1.0-1.7","1n5hn7uebuoqfdt","prime","5edfb0770fb0722aa3839b6d","5f60e3c0a3b16e07647b2ff9","5f64c46b798ceb01bff780a2","true","714.7600000025705","./Stimuli/SelectedImages/LM/LM100.bmp","76","","","","test","true","N + M","76","repetition","LM","LM100.bmp","remember","","56","3","prime1","right","","","",""
"html-keyboard-response","139","684983","0.0-4.0-1.0-3.7","1n5hn7uebuoqfdt","prime","5edfb0770fb0722aa3839b6d","5f60e3c0a3b16e07647b2ff9","5f64c46b798ceb01bff780a2","false","null","<div style=""align-items: center; display: flex; color: dodgerblue; font-size: 90px""><b>o</b></div>","null","","","","forget_cue","","","","","","","","","","","","","","","",""
"html-keyboard-response","140","685687","0.0-4.0-1.0-0.8","1n5hn7uebuoqfdt","prime","5edfb0770fb0722aa3839b6d","5f60e3c0a3b16e07647b2ff9","5f64c46b798ceb01bff780a2","false","null","<span style=""color: black; font-size: 48px"">M + N</span>","null","","","","resp_prompt","","","","","","","","","","","","","","","",""
"categorize-image","141","686500","0.0-4.0-1.0-1.8","1n5hn7uebuoqfdt","prime","5edfb0770fb0722aa3839b6d","5f60e3c0a3b16e07647b2ff9","5f64c46b798ceb01bff780a2","true","809.9899999978952","./Stimuli/SelectedImages/LM/LM59.bmp","83","","","","test","true","M + N","83","repetition","LM","LM59.bmp","remember","","57","3","prime1","left","","","",""
"html-keyboard-response","142","688516","0.0-4.0-1.0-3.8","1n5hn7uebuoqfdt","prime","5edfb0770fb0722aa3839b6d","5f60e3c0a3b16e07647b2ff9","5f64c46b798ceb01bff780a2","false","null","<div style=""align-items: center; display: flex; color: dodgerblue; font-size: 90px""><b>o</b></div>","null","","","","forget_cue","","","","","","","","","","","","","","","",""
"html-keyboard-response","143","689222","0.0-4.0-1.0-0.9","1n5hn7uebuoqfdt","prime","5edfb0770fb0722aa3839b6d","5f60e3c0a3b16e07647b2ff9","5f64c46b798ceb01bff780a2","false","null","<span style=""color: black; font-size: 48px"">M + N</span>","null","","","","resp_prompt","","","","","","","","","","","","","","","",""
"categorize-image","144","690021","0.0-4.0-1.0-1.9","1n5hn7uebuoqfdt","prime","5edfb0770fb0722aa3839b6d","5f60e3c0a3b16e07647b2ff9","5f64c46b798ceb01bff780a2","true","795.5600000023842","./Stimuli/SelectedImages/LM/LM129.bmp","83","","","","test","true","M + N","83","repetition","LM","LM129.bmp","forget","","58","3","prime1","left","","","",""
"html-keyboard-response","145","692033","0.0-4.0-1.0-3.9","1n5hn7uebuoqfdt","prime","5edfb0770fb0722aa3839b6d","5f60e3c0a3b16e07647b2ff9","5f64c46b798ceb01bff780a2","false","null","<div style=""align-items: center; display: flex; color: darkorange; font-size: 90px""><b>ø</b></div>","null","","","","forget_cue","","","","","","","","","","","","","","","",""
"html-keyboard-response","146","692738","0.0-4.0-1.0-0.10","1n5hn7uebuoqfdt","prime","5edfb0770fb0722aa3839b6d","5f60e3c0a3b16e07647b2ff9","5f64c46b798ceb01bff780a2","false","null","<span style=""color: black; font-size: 48px"">N + M</span>","null","","","","resp_prompt","","","","","","","","","","","","","","","",""
"categorize-image","147","693340","0.0-4.0-1.0-1.10","1n5hn7uebuoqfdt","prime","5edfb0770fb0722aa3839b6d","5f60e3c0a3b16e07647b2ff9","5f64c46b798ceb01bff780a2","true","598.5150000015274","./Stimuli/SelectedImages/SM/SM184.bmp","76","","","","test","true","N + M","76","switch","SM","SM184.bmp","forget","","59","3","prime1","right","","","",""
"html-keyboard-response","148","695349","0.0-4.0-1.0-3.10","1n5hn7uebuoqfdt","prime","5edfb0770fb0722aa3839b6d","5f60e3c0a3b16e07647b2ff9","5f64c46b798ceb01bff780a2","false","null","<div style=""align-items: center; display: flex; color: darkorange; font-size: 90px""><b>ø</b></div>","null","","","","forget_cue","","","","","","","","","","","","","","","",""
"html-keyboard-response","149","696054","0.0-4.0-1.0-0.11","1n5hn7uebuoqfdt","prime","5edfb0770fb0722aa3839b6d","5f60e3c0a3b16e07647b2ff9","5f64c46b798ceb01bff780a2","false","null","<span style=""color: black; font-size: 48px"">N + M</span>","null","","","","resp_prompt","","","","","","","","","","","","","","","",""
"categorize-image","150","697148","0.0-4.0-1.0-1.11","1n5hn7uebuoqfdt","prime","5edfb0770fb0722aa3839b6d","5f60e3c0a3b16e07647b2ff9","5f64c46b798ceb01bff780a2","true","1091.1400000004796","./Stimuli/SelectedImages/LN/LN131.bmp","83","","","","test","true","N + M","83","repetition","LN","LN131.bmp","forget","","60","3","prime1","left","","","",""
"html-keyboard-response","151","699151","0.0-4.0-1.0-3.11","1n5hn7uebuoqfdt","prime","5edfb0770fb0722aa3839b6d","5f60e3c0a3b16e07647b2ff9","5f64c46b798ceb01bff780a2","false","null","<div style=""align-items: center; display: flex; color: darkorange; font-size: 90px""><b>ø</b></div>","null","","","","forget_cue","","","","","","","","","","","","","","","",""
"html-keyboard-response","152","699856","0.0-4.0-1.0-0.12","1n5hn7uebuoqfdt","prime","5edfb0770fb0722aa3839b6d","5f60e3c0a3b16e07647b2ff9","5f64c46b798ceb01bff780a2","false","null","<span style=""color: black; font-size: 48px"">M + N</span>","null","","","","resp_prompt","","","","","","","","","","","","","","","",""
"categorize-image","153","700621","0.0-4.0-1.0-1.12","1n5hn7uebuoqfdt","prime","5edfb0770fb0722aa3839b6d","5f60e3c0a3b16e07647b2ff9","5f64c46b798ceb01bff780a2","true","761.3049999999348","./Stimuli/SelectedImages/LM/LM179.bmp","83","","","","test","true","M + N","83","switch","LM","LM179.bmp","remember","","61","3","prime1","left","","","",""
"html-keyboard-response","154","702632","0.0-4.0-1.0-3.12","1n5hn7uebuoqfdt","prime","5edfb0770fb0722aa3839b6d","5f60e3c0a3b16e07647b2ff9","5f64c46b798ceb01bff780a2","false","null","<div style=""align-items: center; display: flex; color: dodgerblue; font-size: 90px""><b>o</b></div>","null","","","","forget_cue","","","","","","","","","","","","","","","",""
"html-keyboard-response","155","703336","0.0-4.0-1.0-0.13","1n5hn7uebuoqfdt","prime","5edfb0770fb0722aa3839b6d","5f60e3c0a3b16e07647b2ff9","5f64c46b798ceb01bff780a2","false","null","<span style=""color: black; font-size: 48px"">N + M</span>","null","","","","resp_prompt","","","","","","","","","","","","","","","",""
"categorize-image","156","704028","0.0-4.0-1.0-1.13","1n5hn7uebuoqfdt","prime","5edfb0770fb0722aa3839b6d","5f60e3c0a3b16e07647b2ff9","5f64c46b798ceb01bff780a2","true","688.1649999995716","./Stimuli/SelectedImages/SM/SM74.bmp","76","","","","test","true","N + M","76","repetition","SM","SM74.bmp","remember","","62","3","prime1","right","","","",""
"html-keyboard-response","157","706034","0.0-4.0-1.0-3.13","1n5hn7uebuoqfdt","prime","5edfb0770fb0722aa3839b6d","5f60e3c0a3b16e07647b2ff9","5f64c46b798ceb01bff780a2","false","null","<div style=""align-items: center; display: flex; color: dodgerblue; font-size: 90px""><b>o</b></div>","null","","","","forget_cue","","","","","","","","","","","","","","","",""
"html-keyboard-response","158","706750","0.0-4.0-1.0-0.14","1n5hn7uebuoqfdt","prime","5edfb0770fb0722aa3839b6d","5f60e3c0a3b16e07647b2ff9","5f64c46b798ceb01bff780a2","false","null","<span style=""color: black; font-size: 48px"">N + M</span>","null","","","","resp_prompt","","","","","","","","","","","","","","","",""
"categorize-image","159","707444","0.0-4.0-1.0-1.14","1n5hn7uebuoqfdt","prime","5edfb0770fb0722aa3839b6d","5f60e3c0a3b16e07647b2ff9","5f64c46b798ceb01bff780a2","true","690.1250000010477","./Stimuli/SelectedImages/LM/LM167.bmp","76","","","","test","true","N + M","76","repetition","LM","LM167.bmp","remember","","63","3","prime1","right","","","",""
"html-keyboard-response","160","709449","0.0-4.0-1.0-3.14","1n5hn7uebuoqfdt","prime","5edfb0770fb0722aa3839b6d","5f60e3c0a3b16e07647b2ff9","5f64c46b798ceb01bff780a2","false","null","<div style=""align-items: center; display: flex; color: dodgerblue; font-size: 90px""><b>o</b></div>","null","","","","forget_cue","","","","","","","","","","","","","","","",""
"html-keyboard-response","161","710158","0.0-4.0-1.0-0.15","1n5hn7uebuoqfdt","prime","5edfb0770fb0722aa3839b6d","5f60e3c0a3b16e07647b2ff9","5f64c46b798ceb01bff780a2","false","null","<span style=""color: black; font-size: 48px"">M + N</span>","null","","","","resp_prompt","","","","","","","","","","","","","","","",""
"categorize-image","162","711244","0.0-4.0-1.0-1.15","1n5hn7uebuoqfdt","prime","5edfb0770fb0722aa3839b6d","5f60e3c0a3b16e07647b2ff9","5f64c46b798ceb01bff780a2","true","1083.505000002333","./Stimuli/SelectedImages/SN/SN60.bmp","76","","","","test","true","M + N","76","switch","SN","SN60.bmp","remember","","64","3","prime1","right","","","",""
"html-keyboard-response","163","713249","0.0-4.0-1.0-3.15","1n5hn7uebuoqfdt","prime","5edfb0770fb0722aa3839b6d","5f60e3c0a3b16e07647b2ff9","5f64c46b798ceb01bff780a2","false","null","<div style=""align-items: center; display: flex; color: dodgerblue; font-size: 90px""><b>o</b></div>","null","","","","forget_cue","","","","","","","","","","","","","","","",""
"html-keyboard-response","164","713953","0.0-4.0-1.0-0.16","1n5hn7uebuoqfdt","prime","5edfb0770fb0722aa3839b6d","5f60e3c0a3b16e07647b2ff9","5f64c46b798ceb01bff780a2","false","null","<span style=""color: black; font-size: 48px"">M + N</span>","null","","","","resp_prompt","","","","","","","","","","","","","","","",""
"categorize-image","165","714843","0.0-4.0-1.0-1.16","1n5hn7uebuoqfdt","prime","5edfb0770fb0722aa3839b6d","5f60e3c0a3b16e07647b2ff9","5f64c46b798ceb01bff780a2","true","886.5749999968102","./Stimuli/SelectedImages/LN/LN9.bmp","76","","","","test","true","M + N","76","repetition","LN","LN9.bmp","remember","","65","3","prime1","right","","","",""
"html-keyboard-response","166","716862","0.0-4.0-1.0-3.16","1n5hn7uebuoqfdt","prime","5edfb0770fb0722aa3839b6d","5f60e3c0a3b16e07647b2ff9","5f64c46b798ceb01bff780a2","false","null","<div style=""align-items: center; display: flex; color: dodgerblue; font-size: 90px""><b>o</b></div>","null","","","","forget_cue","","","","","","","","","","","","","","","",""
"html-keyboard-response","167","717565","0.0-4.0-1.0-0.17","1n5hn7uebuoqfdt","prime","5edfb0770fb0722aa3839b6d","5f60e3c0a3b16e07647b2ff9","5f64c46b798ceb01bff780a2","false","null","<span style=""color: black; font-size: 48px"">N + M</span>","null","","","","resp_prompt","","","","","","","","","","","","","","","",""
"categorize-image","168","718361","0.0-4.0-1.0-1.17","1n5hn7uebuoqfdt","prime","5edfb0770fb0722aa3839b6d","5f60e3c0a3b16e07647b2ff9","5f64c46b798ceb01bff780a2","true","791.4149999998044","./Stimuli/SelectedImages/LM/LM51.bmp","76","","","","test","true","N + M","76","repetition","LM","LM51.bmp","forget","","66","3","prime1","right","","","",""
"html-keyboard-response","169","720363","0.0-4.0-1.0-3.17","1n5hn7uebuoqfdt","prime","5edfb0770fb0722aa3839b6d","5f60e3c0a3b16e07647b2ff9","5f64c46b798ceb01bff780a2","false","null","<div style=""align-items: center; display: flex; color: darkorange; font-size: 90px""><b>ø</b></div>","null","","","","forget_cue","","","","","","","","","","","","","","","",""
"html-keyboard-response","170","721080","0.0-4.0-1.0-0.18","1n5hn7uebuoqfdt","prime","5edfb0770fb0722aa3839b6d","5f60e3c0a3b16e07647b2ff9","5f64c46b798ceb01bff780a2","false","null","<span style=""color: black; font-size: 48px"">M + N</span>","null","","","","resp_prompt","","","","","","","","","","","","","","","",""
"categorize-image","171","721793","0.0-4.0-1.0-1.18","1n5hn7uebuoqfdt","prime","5edfb0770fb0722aa3839b6d","5f60e3c0a3b16e07647b2ff9","5f64c46b798ceb01bff780a2","true","709.1849999997066","./Stimuli/SelectedImages/LM/LM216.bmp","83","","","","test","true","M + N","83","switch","LM","LM216.bmp","remember","","67","3","prime1","left","","","",""
"html-keyboard-response","172","723798","0.0-4.0-1.0-3.18","1n5hn7uebuoqfdt","prime","5edfb0770fb0722aa3839b6d","5f60e3c0a3b16e07647b2ff9","5f64c46b798ceb01bff780a2","false","null","<div style=""align-items: center; display: flex; color: dodgerblue; font-size: 90px""><b>o</b></div>","null","","","","forget_cue","","","","","","","","","","","","","","","",""
"html-keyboard-response","173","724515","0.0-4.0-1.0-0.19","1n5hn7uebuoqfdt","prime","5edfb0770fb0722aa3839b6d","5f60e3c0a3b16e07647b2ff9","5f64c46b798ceb01bff780a2","false","null","<span style=""color: black; font-size: 48px"">N + M</span>","null","","","","resp_prompt","","","","","","","","","","","","","","","",""
"categorize-image","174","725336","0.0-4.0-1.0-1.19","1n5hn7uebuoqfdt","prime","5edfb0770fb0722aa3839b6d","5f60e3c0a3b16e07647b2ff9","5f64c46b798ceb01bff780a2","true","817.5000000010477","./Stimuli/SelectedImages/SN/SN140.bmp","83","","","","test","true","N + M","83","repetition","SN","SN140.bmp","remember","","68","3","prime1","left","","","",""
"html-keyboard-response","175","727345","0.0-4.0-1.0-3.19","1n5hn7uebuoqfdt","prime","5edfb0770fb0722aa3839b6d","5f60e3c0a3b16e07647b2ff9","5f64c46b798ceb01bff780a2","false","null","<div style=""align-items: center; display: flex; color: dodgerblue; font-size: 90px""><b>o</b></div>","null","","","","forget_cue","","","","","","","","","","","","","","","",""
"html-keyboard-response","176","728050","0.0-4.0-1.0-0.20","1n5hn7uebuoqfdt","prime","5edfb0770fb0722aa3839b6d","5f60e3c0a3b16e07647b2ff9","5f64c46b798ceb01bff780a2","false","null","<span style=""color: black; font-size: 48px"">N + M</span>","null","","","","resp_prompt","","","","","","","","","","","","","","","",""
"categorize-image","177","729184","0.0-4.0-1.0-1.20","1n5hn7uebuoqfdt","prime","5edfb0770fb0722aa3839b6d","5f60e3c0a3b16e07647b2ff9","5f64c46b798ceb01bff780a2","true","1130.4850000014994","./Stimuli/SelectedImages/LN/LN150.bmp","83","","","","test","true","N + M","83","switch","LN","LN150.bmp","forget","","69","3","prime1","left","","","",""
"html-keyboard-response","178","731195","0.0-4.0-1.0-3.20","1n5hn7uebuoqfdt","prime","5edfb0770fb0722aa3839b6d","5f60e3c0a3b16e07647b2ff9","5f64c46b798ceb01bff780a2","false","null","<div style=""align-items: center; display: flex; color: darkorange; font-size: 90px""><b>ø</b></div>","null","","","","forget_cue","","","","","","","","","","","","","","","",""
"html-keyboard-response","179","731899","0.0-4.0-1.0-0.21","1n5hn7uebuoqfdt","prime","5edfb0770fb0722aa3839b6d","5f60e3c0a3b16e07647b2ff9","5f64c46b798ceb01bff780a2","false","null","<span style=""color: black; font-size: 48px"">N + M</span>","null","","","","resp_prompt","","","","","","","","","","","","","","","",""
"categorize-image","180","732833","0.0-4.0-1.0-1.21","1n5hn7uebuoqfdt","prime","5edfb0770fb0722aa3839b6d","5f60e3c0a3b16e07647b2ff9","5f64c46b798ceb01bff780a2","true","929.6799999974901","./Stimuli/SelectedImages/SN/SN240.bmp","83","","","","test","true","N + M","83","repetition","SN","SN240.bmp","remember","","70","3","prime1","left","","","",""
"html-keyboard-response","181","734844","0.0-4.0-1.0-3.21","1n5hn7uebuoqfdt","prime","5edfb0770fb0722aa3839b6d","5f60e3c0a3b16e07647b2ff9","5f64c46b798ceb01bff780a2","false","null","<div style=""align-items: center; display: flex; color: dodgerblue; font-size: 90px""><b>o</b></div>","null","","","","forget_cue","","","","","","","","","","","","","","","",""
"html-keyboard-response","182","735553","0.0-4.0-1.0-0.22","1n5hn7uebuoqfdt","prime","5edfb0770fb0722aa3839b6d","5f60e3c0a3b16e07647b2ff9","5f64c46b798ceb01bff780a2","false","null","<span style=""color: black; font-size: 48px"">M + N</span>","null","","","","resp_prompt","","","","","","","","","","","","","","","",""
"categorize-image","183","736528","0.0-4.0-1.0-1.22","1n5hn7uebuoqfdt","prime","5edfb0770fb0722aa3839b6d","5f60e3c0a3b16e07647b2ff9","5f64c46b798ceb01bff780a2","true","970.7649999981513","./Stimuli/SelectedImages/LN/LN12.bmp","76","","","","test","true","M + N","76","repetition","LN","LN12.bmp","remember","","71","3","prime1","right","","","",""
"html-keyboard-response","184","738544","0.0-4.0-1.0-3.22","1n5hn7uebuoqfdt","prime","5edfb0770fb0722aa3839b6d","5f60e3c0a3b16e07647b2ff9","5f64c46b798ceb01bff780a2","false","null","<div style=""align-items: center; display: flex; color: dodgerblue; font-size: 90px""><b>o</b></div>","null","","","","forget_cue","","","","","","","","","","","","","","","",""
"html-keyboard-response","185","739250","0.0-4.0-1.0-0.23","1n5hn7uebuoqfdt","prime","5edfb0770fb0722aa3839b6d","5f60e3c0a3b16e07647b2ff9","5f64c46b798ceb01bff780a2","false","null","<span style=""color: black; font-size: 48px"">N + M</span>","null","","","","resp_prompt","","","","","","","","","","","","","","","",""
"categorize-image","186","740560","0.0-4.0-1.0-1.23","1n5hn7uebuoqfdt","prime","5edfb0770fb0722aa3839b6d","5f60e3c0a3b16e07647b2ff9","5f64c46b798ceb01bff780a2","true","1305.5199999980396","./Stimuli/SelectedImages/SN/SN179.bmp","83","","","","test","true","N + M","83","switch","SN","SN179.bmp","forget","","72","3","prime1","left","","","",""
"html-keyboard-response","187","742562","0.0-4.0-1.0-3.23","1n5hn7uebuoqfdt","prime","5edfb0770fb0722aa3839b6d","5f60e3c0a3b16e07647b2ff9","5f64c46b798ceb01bff780a2","false","null","<div style=""align-items: center; display: flex; color: darkorange; font-size: 90px""><b>ø</b></div>","null","","","","forget_cue","","","","","","","","","","","","","","","",""
"html-keyboard-response","188","743268","0.0-4.0-1.0-0.24","1n5hn7uebuoqfdt","prime","5edfb0770fb0722aa3839b6d","5f60e3c0a3b16e07647b2ff9","5f64c46b798ceb01bff780a2","false","null","<span style=""color: black; font-size: 48px"">M + N</span>","null","","","","resp_prompt","","","","","","","","","","","","","","","",""
"categorize-image","189","744240","0.0-4.0-1.0-1.24","1n5hn7uebuoqfdt","prime","5edfb0770fb0722aa3839b6d","5f60e3c0a3b16e07647b2ff9","5f64c46b798ceb01bff780a2","true","969.0799999989104","./Stimuli/SelectedImages/SN/SN128.bmp","76","","","","test","true","M + N","76","repetition","SN","SN128.bmp","remember","","73","3","prime1","right","","","",""
"html-keyboard-response","190","746245","0.0-4.0-1.0-3.24","1n5hn7uebuoqfdt","prime","5edfb0770fb0722aa3839b6d","5f60e3c0a3b16e07647b2ff9","5f64c46b798ceb01bff780a2","false","null","<div style=""align-items: center; display: flex; color: dodgerblue; font-size: 90px""><b>o</b></div>","null","","","","forget_cue","","","","","","","","","","","","","","","",""
"html-keyboard-response","191","746950","0.0-4.0-1.0-0.25","1n5hn7uebuoqfdt","prime","5edfb0770fb0722aa3839b6d","5f60e3c0a3b16e07647b2ff9","5f64c46b798ceb01bff780a2","false","null","<span style=""color: black; font-size: 48px"">N + M</span>","null","","","","resp_prompt","","","","","","","","","","","","","","","",""
"categorize-image","192","747760","0.0-4.0-1.0-1.25","1n5hn7uebuoqfdt","prime","5edfb0770fb0722aa3839b6d","5f60e3c0a3b16e07647b2ff9","5f64c46b798ceb01bff780a2","true","805.8500000006752","./Stimuli/SelectedImages/LN/LN111.bmp","83","","","","test","true","N + M","83","repetition","LN","LN111.bmp","remember","","74","3","prime1","left","","","",""
"html-keyboard-response","193","749761","0.0-4.0-1.0-3.25","1n5hn7uebuoqfdt","prime","5edfb0770fb0722aa3839b6d","5f60e3c0a3b16e07647b2ff9","5f64c46b798ceb01bff780a2","false","null","<div style=""align-items: center; display: flex; color: dodgerblue; font-size: 90px""><b>o</b></div>","null","","","","forget_cue","","","","","","","","","","","","","","","",""
"html-keyboard-response","194","750465","0.0-4.0-1.0-0.26","1n5hn7uebuoqfdt","prime","5edfb0770fb0722aa3839b6d","5f60e3c0a3b16e07647b2ff9","5f64c46b798ceb01bff780a2","false","null","<span style=""color: black; font-size: 48px"">M + N</span>","null","","","","resp_prompt","","","","","","","","","","","","","","","",""
"categorize-image","195","751415","0.0-4.0-1.0-1.26","1n5hn7uebuoqfdt","prime","5edfb0770fb0722aa3839b6d","5f60e3c0a3b16e07647b2ff9","5f64c46b798ceb01bff780a2","true","946.3050000013318","./Stimuli/SelectedImages/LN/LN101.bmp","76","","","","test","true","M + N","76","switch","LN","LN101.bmp","remember","","75","3","prime1","right","","","",""
"html-keyboard-response","196","753427","0.0-4.0-1.0-3.26","1n5hn7uebuoqfdt","prime","5edfb0770fb0722aa3839b6d","5f60e3c0a3b16e07647b2ff9","5f64c46b798ceb01bff780a2","false","null","<div style=""align-items: center; display: flex; color: dodgerblue; font-size: 90px""><b>o</b></div>","null","","","","forget_cue","","","","","","","","","","","","","","","",""
"html-keyboard-response","197","754134","0.0-4.0-1.0-0.27","1n5hn7uebuoqfdt","prime","5edfb0770fb0722aa3839b6d","5f60e3c0a3b16e07647b2ff9","5f64c46b798ceb01bff780a2","false","null","<span style=""color: black; font-size: 48px"">N + M</span>","null","","","","resp_prompt","","","","","","","","","","","","","","","",""
"categorize-image","198","755328","0.0-4.0-1.0-1.27","1n5hn7uebuoqfdt","prime","5edfb0770fb0722aa3839b6d","5f60e3c0a3b16e07647b2ff9","5f64c46b798ceb01bff780a2","true","1190.9049999994459","./Stimuli/SelectedImages/SM/SM195.bmp","76","","","","test","true","N + M","76","repetition","SM","SM195.bmp","remember","","76","3","prime1","right","","","",""
"html-keyboard-response","199","757344","0.0-4.0-1.0-3.27","1n5hn7uebuoqfdt","prime","5edfb0770fb0722aa3839b6d","5f60e3c0a3b16e07647b2ff9","5f64c46b798ceb01bff780a2","false","null","<div style=""align-items: center; display: flex; color: dodgerblue; font-size: 90px""><b>o</b></div>","null","","","","forget_cue","","","","","","","","","","","","","","","",""
"html-keyboard-response","200","758049","0.0-4.0-1.0-0.28","1n5hn7uebuoqfdt","prime","5edfb0770fb0722aa3839b6d","5f60e3c0a3b16e07647b2ff9","5f64c46b798ceb01bff780a2","false","null","<span style=""color: black; font-size: 48px"">M + N</span>","null","","","","resp_prompt","","","","","","","","","","","","","","","",""
"categorize-image","201","758991","0.0-4.0-1.0-1.28","1n5hn7uebuoqfdt","prime","5edfb0770fb0722aa3839b6d","5f60e3c0a3b16e07647b2ff9","5f64c46b798ceb01bff780a2","true","938.0400000009686","./Stimuli/SelectedImages/SN/SN52.bmp","76","","","","test","true","M + N","76","repetition","SN","SN52.bmp","remember","","77","3","prime1","right","","","",""
"html-keyboard-response","202","760994","0.0-4.0-1.0-3.28","1n5hn7uebuoqfdt","prime","5edfb0770fb0722aa3839b6d","5f60e3c0a3b16e07647b2ff9","5f64c46b798ceb01bff780a2","false","null","<div style=""align-items: center; display: flex; color: dodgerblue; font-size: 90px""><b>o</b></div>","null","","","","forget_cue","","","","","","","","","","","","","","","",""
"html-keyboard-response","203","761697","0.0-4.0-1.0-0.29","1n5hn7uebuoqfdt","prime","5edfb0770fb0722aa3839b6d","5f60e3c0a3b16e07647b2ff9","5f64c46b798ceb01bff780a2","false","null","<span style=""color: black; font-size: 48px"">N + M</span>","null","","","","resp_prompt","","","","","","","","","","","","","","","",""
"categorize-image","204","762599","0.0-4.0-1.0-1.29","1n5hn7uebuoqfdt","prime","5edfb0770fb0722aa3839b6d","5f60e3c0a3b16e07647b2ff9","5f64c46b798ceb01bff780a2","true","897.4749999979977","./Stimuli/SelectedImages/LN/LN149.bmp","83","","","","test","true","N + M","83","repetition","LN","LN149.bmp","forget","","78","3","prime1","left","","","",""
"html-keyboard-response","205","764610","0.0-4.0-1.0-3.29","1n5hn7uebuoqfdt","prime","5edfb0770fb0722aa3839b6d","5f60e3c0a3b16e07647b2ff9","5f64c46b798ceb01bff780a2","false","null","<div style=""align-items: center; display: flex; color: darkorange; font-size: 90px""><b>ø</b></div>","null","","","","forget_cue","","","","","","","","","","","","","","","",""
"html-keyboard-response","206","765315","0.0-4.0-1.0-0.30","1n5hn7uebuoqfdt","prime","5edfb0770fb0722aa3839b6d","5f60e3c0a3b16e07647b2ff9","5f64c46b798ceb01bff780a2","false","null","<span style=""color: black; font-size: 48px"">N + M</span>","null","","","","resp_prompt","","","","","","","","","","","","","","","",""
"categorize-image","207","766072","0.0-4.0-1.0-1.30","1n5hn7uebuoqfdt","prime","5edfb0770fb0722aa3839b6d","5f60e3c0a3b16e07647b2ff9","5f64c46b798ceb01bff780a2","true","753.2250000004424","./Stimuli/SelectedImages/SM/SM73.bmp","76","","","","test","true","N + M","76","repetition","SM","SM73.bmp","forget","","79","3","prime1","right","","","",""
"html-keyboard-response","208","768077","0.0-4.0-1.0-3.30","1n5hn7uebuoqfdt","prime","5edfb0770fb0722aa3839b6d","5f60e3c0a3b16e07647b2ff9","5f64c46b798ceb01bff780a2","false","null","<div style=""align-items: center; display: flex; color: darkorange; font-size: 90px""><b>ø</b></div>","null","","","","forget_cue","","","","","","","","","","","","","","","",""
"html-keyboard-response","209","768782","0.0-4.0-1.0-0.31","1n5hn7uebuoqfdt","prime","5edfb0770fb0722aa3839b6d","5f60e3c0a3b16e07647b2ff9","5f64c46b798ceb01bff780a2","false","null","<span style=""color: black; font-size: 48px"">N + M</span>","null","","","","resp_prompt","","","","","","","","","","","","","","","",""
"categorize-image","210","769719","0.0-4.0-1.0-1.31","1n5hn7uebuoqfdt","prime","5edfb0770fb0722aa3839b6d","5f60e3c0a3b16e07647b2ff9","5f64c46b798ceb01bff780a2","true","932.894999998156","./Stimuli/SelectedImages/LM/LM103.bmp","76","","","","test","true","N + M","76","switch","LM","LM103.bmp","remember","","80","3","prime1","right","","","",""
"html-keyboard-response","211","771727","0.0-4.0-1.0-3.31","1n5hn7uebuoqfdt","prime","5edfb0770fb0722aa3839b6d","5f60e3c0a3b16e07647b2ff9","5f64c46b798ceb01bff780a2","false","null","<div style=""align-items: center; display: flex; color: dodgerblue; font-size: 90px""><b>o</b></div>","null","","","","forget_cue","","","","","","","","","","","","","","","",""
"html-keyboard-response","212","772432","0.0-4.0-1.0-0.32","1n5hn7uebuoqfdt","prime","5edfb0770fb0722aa3839b6d","5f60e3c0a3b16e07647b2ff9","5f64c46b798ceb01bff780a2","false","null","<span style=""color: black; font-size: 48px"">M + N</span>","null","","","","resp_prompt","","","","","","","","","","","","","","","",""
"categorize-image","213","773439","0.0-4.0-1.0-1.32","1n5hn7uebuoqfdt","prime","5edfb0770fb0722aa3839b6d","5f60e3c0a3b16e07647b2ff9","5f64c46b798ceb01bff780a2","true","1003.3199999998324","./Stimuli/SelectedImages/LM/LM209.bmp","83","","","","test","true","M + N","83","switch","LM","LM209.bmp","forget","","81","3","prime1","left","","","",""
"html-keyboard-response","214","775443","0.0-4.0-1.0-3.32","1n5hn7uebuoqfdt","prime","5edfb0770fb0722aa3839b6d","5f60e3c0a3b16e07647b2ff9","5f64c46b798ceb01bff780a2","false","null","<div style=""align-items: center; display: flex; color: darkorange; font-size: 90px""><b>ø</b></div>","null","","","","forget_cue","","","","","","","","","","","","","","","",""
"html-keyboard-response","215","776150","0.0-4.0-1.0-0.33","1n5hn7uebuoqfdt","prime","5edfb0770fb0722aa3839b6d","5f60e3c0a3b16e07647b2ff9","5f64c46b798ceb01bff780a2","false","null","<span style=""color: black; font-size: 48px"">M + N</span>","null","","","","resp_prompt","","","","","","","","","","","","","","","",""
"categorize-image","216","776839","0.0-4.0-1.0-1.33","1n5hn7uebuoqfdt","prime","5edfb0770fb0722aa3839b6d","5f60e3c0a3b16e07647b2ff9","5f64c46b798ceb01bff780a2","true","685.6000000007916","./Stimuli/SelectedImages/SN/SN111.bmp","76","","","","test","true","M + N","76","switch","SN","SN111.bmp","forget","","82","3","prime1","right","","","",""
"html-keyboard-response","217","778843","0.0-4.0-1.0-3.33","1n5hn7uebuoqfdt","prime","5edfb0770fb0722aa3839b6d","5f60e3c0a3b16e07647b2ff9","5f64c46b798ceb01bff780a2","false","null","<div style=""align-items: center; display: flex; color: darkorange; font-size: 90px""><b>ø</b></div>","null","","","","forget_cue","","","","","","","","","","","","","","","",""
"html-keyboard-response","218","779550","0.0-4.0-1.0-0.34","1n5hn7uebuoqfdt","prime","5edfb0770fb0722aa3839b6d","5f60e3c0a3b16e07647b2ff9","5f64c46b798ceb01bff780a2","false","null","<span style=""color: black; font-size: 48px"">M + N</span>","null","","","","resp_prompt","","","","","","","","","","","","","","","",""
"categorize-image","219","780384","0.0-4.0-1.0-1.34","1n5hn7uebuoqfdt","prime","5edfb0770fb0722aa3839b6d","5f60e3c0a3b16e07647b2ff9","5f64c46b798ceb01bff780a2","true","829.7100000018254","./Stimuli/SelectedImages/SM/SM128.bmp","83","","","","test","true","M + N","83","repetition","SM","SM128.bmp","forget","","83","3","prime1","left","","","",""
"html-keyboard-response","220","782397","0.0-4.0-1.0-3.34","1n5hn7uebuoqfdt","prime","5edfb0770fb0722aa3839b6d","5f60e3c0a3b16e07647b2ff9","5f64c46b798ceb01bff780a2","false","null","<div style=""align-items: center; display: flex; color: darkorange; font-size: 90px""><b>ø</b></div>","null","","","","forget_cue","","","","","","","","","","","","","","","",""
"html-keyboard-response","221","783101","0.0-4.0-1.0-0.35","1n5hn7uebuoqfdt","prime","5edfb0770fb0722aa3839b6d","5f60e3c0a3b16e07647b2ff9","5f64c46b798ceb01bff780a2","false","null","<span style=""color: black; font-size: 48px"">N + M</span>","null","","","","resp_prompt","","","","","","","","","","","","","","","",""
"categorize-image","222","783792","0.0-4.0-1.0-1.35","1n5hn7uebuoqfdt","prime","5edfb0770fb0722aa3839b6d","5f60e3c0a3b16e07647b2ff9","5f64c46b798ceb01bff780a2","true","686.88999999722","./Stimuli/SelectedImages/LM/LM235.bmp","76","","","","test","true","N + M","76","repetition","LM","LM235.bmp","forget","","84","3","prime1","right","","","",""
"html-keyboard-response","223","785795","0.0-4.0-1.0-3.35","1n5hn7uebuoqfdt","prime","5edfb0770fb0722aa3839b6d","5f60e3c0a3b16e07647b2ff9","5f64c46b798ceb01bff780a2","false","null","<div style=""align-items: center; display: flex; color: darkorange; font-size: 90px""><b>ø</b></div>","null","","","","forget_cue","","","","","","","","","","","","","","","",""
"html-keyboard-response","224","786500","0.0-4.0-1.0-0.36","1n5hn7uebuoqfdt","prime","5edfb0770fb0722aa3839b6d","5f60e3c0a3b16e07647b2ff9","5f64c46b798ceb01bff780a2","false","null","<span style=""color: black; font-size: 48px"">N + M</span>","null","","","","resp_prompt","","","","","","","","","","","","","","","",""
"categorize-image","225","787264","0.0-4.0-1.0-1.36","1n5hn7uebuoqfdt","prime","5edfb0770fb0722aa3839b6d","5f60e3c0a3b16e07647b2ff9","5f64c46b798ceb01bff780a2","true","761.3949999978067","./Stimuli/SelectedImages/LN/LN128.bmp","83","","","","test","true","N + M","83","switch","LN","LN128.bmp","remember","","85","3","prime1","left","","","",""
"html-keyboard-response","226","789278","0.0-4.0-1.0-3.36","1n5hn7uebuoqfdt","prime","5edfb0770fb0722aa3839b6d","5f60e3c0a3b16e07647b2ff9","5f64c46b798ceb01bff780a2","false","null","<div style=""align-items: center; display: flex; color: dodgerblue; font-size: 90px""><b>o</b></div>","null","","","","forget_cue","","","","","","","","","","","","","","","",""
"html-keyboard-response","227","789983","0.0-4.0-1.0-0.37","1n5hn7uebuoqfdt","prime","5edfb0770fb0722aa3839b6d","5f60e3c0a3b16e07647b2ff9","5f64c46b798ceb01bff780a2","false","null","<span style=""color: black; font-size: 48px"">M + N</span>","null","","","","resp_prompt","","","","","","","","","","","","","","","",""
"categorize-image","228","790944","0.0-4.0-1.0-1.37","1n5hn7uebuoqfdt","prime","5edfb0770fb0722aa3839b6d","5f60e3c0a3b16e07647b2ff9","5f64c46b798ceb01bff780a2","true","956.9850000006845","./Stimuli/SelectedImages/SM/SM213.bmp","83","","","","test","true","M + N","83","repetition","SM","SM213.bmp","remember","","86","3","prime1","left","","","",""
"html-keyboard-response","229","792961","0.0-4.0-1.0-3.37","1n5hn7uebuoqfdt","prime","5edfb0770fb0722aa3839b6d","5f60e3c0a3b16e07647b2ff9","5f64c46b798ceb01bff780a2","false","null","<div style=""align-items: center; display: flex; color: dodgerblue; font-size: 90px""><b>o</b></div>","null","","","","forget_cue","","","","","","","","","","","","","","","",""
"html-keyboard-response","230","793665","0.0-4.0-1.0-0.38","1n5hn7uebuoqfdt","prime","5edfb0770fb0722aa3839b6d","5f60e3c0a3b16e07647b2ff9","5f64c46b798ceb01bff780a2","false","null","<span style=""color: black; font-size: 48px"">N + M</span>","null","","","","resp_prompt","","","","","","","","","","","","","","","",""
"categorize-image","231","794487","0.0-4.0-1.0-1.38","1n5hn7uebuoqfdt","prime","5edfb0770fb0722aa3839b6d","5f60e3c0a3b16e07647b2ff9","5f64c46b798ceb01bff780a2","true","818.4150000015507","./Stimuli/SelectedImages/SN/SN182.bmp","83","","","","test","true","N + M","83","repetition","SN","SN182.bmp","forget","","87","3","prime1","left","","","",""
"html-keyboard-response","232","796495","0.0-4.0-1.0-3.38","1n5hn7uebuoqfdt","prime","5edfb0770fb0722aa3839b6d","5f60e3c0a3b16e07647b2ff9","5f64c46b798ceb01bff780a2","false","null","<div style=""align-items: center; display: flex; color: darkorange; font-size: 90px""><b>ø</b></div>","null","","","","forget_cue","","","","","","","","","","","","","","","",""
"html-keyboard-response","233","797200","0.0-4.0-1.0-0.39","1n5hn7uebuoqfdt","prime","5edfb0770fb0722aa3839b6d","5f60e3c0a3b16e07647b2ff9","5f64c46b798ceb01bff780a2","false","null","<span style=""color: black; font-size: 48px"">M + N</span>","null","","","","resp_prompt","","","","","","","","","","","","","","","",""
"categorize-image","234","797928","0.0-4.0-1.0-1.39","1n5hn7uebuoqfdt","prime","5edfb0770fb0722aa3839b6d","5f60e3c0a3b16e07647b2ff9","5f64c46b798ceb01bff780a2","true","724.4549999994924","./Stimuli/SelectedImages/SN/SN18.bmp","76","","","","test","true","M + N","76","repetition","SN","SN18.bmp","forget","","88","3","prime1","right","","","",""
"html-keyboard-response","235","799944","0.0-4.0-1.0-3.39","1n5hn7uebuoqfdt","prime","5edfb0770fb0722aa3839b6d","5f60e3c0a3b16e07647b2ff9","5f64c46b798ceb01bff780a2","false","null","<div style=""align-items: center; display: flex; color: darkorange; font-size: 90px""><b>ø</b></div>","null","","","","forget_cue","","","","","","","","","","","","","","","",""
"html-keyboard-response","236","800649","0.0-4.0-1.0-0.40","1n5hn7uebuoqfdt","prime","5edfb0770fb0722aa3839b6d","5f60e3c0a3b16e07647b2ff9","5f64c46b798ceb01bff780a2","false","null","<span style=""color: black; font-size: 48px"">M + N</span>","null","","","","resp_prompt","","","","","","","","","","","","","","","",""
"categorize-image","237","801343","0.0-4.0-1.0-1.40","1n5hn7uebuoqfdt","prime","5edfb0770fb0722aa3839b6d","5f60e3c0a3b16e07647b2ff9","5f64c46b798ceb01bff780a2","true","689.0999999996275","./Stimuli/SelectedImages/SN/SN64.bmp","76","","","","test","true","M + N","76","switch","SN","SN64.bmp","forget","","89","3","prime1","right","","","",""
"html-keyboard-response","238","803345","0.0-4.0-1.0-3.40","1n5hn7uebuoqfdt","prime","5edfb0770fb0722aa3839b6d","5f60e3c0a3b16e07647b2ff9","5f64c46b798ceb01bff780a2","false","null","<div style=""align-items: center; display: flex; color: darkorange; font-size: 90px""><b>ø</b></div>","null","","","","forget_cue","","","","","","","","","","","","","","","",""
"html-keyboard-response","239","804047","0.0-4.0-1.0-0.41","1n5hn7uebuoqfdt","prime","5edfb0770fb0722aa3839b6d","5f60e3c0a3b16e07647b2ff9","5f64c46b798ceb01bff780a2","false","null","<span style=""color: black; font-size: 48px"">M + N</span>","null","","","","resp_prompt","","","","","","","","","","","","","","","",""
"categorize-image","240","804879","0.0-4.0-1.0-1.41","1n5hn7uebuoqfdt","prime","5edfb0770fb0722aa3839b6d","5f60e3c0a3b16e07647b2ff9","5f64c46b798ceb01bff780a2","true","828.03000000061","./Stimuli/SelectedImages/LN/LN13.bmp","76","","","","test","true","M + N","76","switch","LN","LN13.bmp","forget","","90","3","prime1","right","","","",""
"html-keyboard-response","241","806894","0.0-4.0-1.0-3.41","1n5hn7uebuoqfdt","prime","5edfb0770fb0722aa3839b6d","5f60e3c0a3b16e07647b2ff9","5f64c46b798ceb01bff780a2","false","null","<div style=""align-items: center; display: flex; color: darkorange; font-size: 90px""><b>ø</b></div>","null","","","","forget_cue","","","","","","","","","","","","","","","",""
"html-keyboard-response","242","807601","0.0-4.0-1.0-0.42","1n5hn7uebuoqfdt","prime","5edfb0770fb0722aa3839b6d","5f60e3c0a3b16e07647b2ff9","5f64c46b798ceb01bff780a2","false","null","<span style=""color: black; font-size: 48px"">M + N</span>","null","","","","resp_prompt","","","","","","","","","","","","","","","",""
"categorize-image","243","808472","0.0-4.0-1.0-1.42","1n5hn7uebuoqfdt","prime","5edfb0770fb0722aa3839b6d","5f60e3c0a3b16e07647b2ff9","5f64c46b798ceb01bff780a2","true","866.4900000003399","./Stimuli/SelectedImages/LM/LM57.bmp","83","","","","test","true","M + N","83","switch","LM","LM57.bmp","forget","","91","3","prime1","left","","","",""
"html-keyboard-response","244","810477","0.0-4.0-1.0-3.42","1n5hn7uebuoqfdt","prime","5edfb0770fb0722aa3839b6d","5f60e3c0a3b16e07647b2ff9","5f64c46b798ceb01bff780a2","false","null","<div style=""align-items: center; display: flex; color: darkorange; font-size: 90px""><b>ø</b></div>","null","","","","forget_cue","","","","","","","","","","","","","","","",""
"html-keyboard-response","245","811183","0.0-4.0-1.0-0.43","1n5hn7uebuoqfdt","prime","5edfb0770fb0722aa3839b6d","5f60e3c0a3b16e07647b2ff9","5f64c46b798ceb01bff780a2","false","null","<span style=""color: black; font-size: 48px"">N + M</span>","null","","","","resp_prompt","","","","","","","","","","","","","","","",""
"categorize-image","246","811792","0.0-4.0-1.0-1.43","1n5hn7uebuoqfdt","prime","5edfb0770fb0722aa3839b6d","5f60e3c0a3b16e07647b2ff9","5f64c46b798ceb01bff780a2","true","603.7699999979232","./Stimuli/SelectedImages/LM/LM75.bmp","76","","","","test","true","N + M","76","switch","LM","LM75.bmp","remember","","92","3","prime1","right","","","",""
"html-keyboard-response","247","813795","0.0-4.0-1.0-3.43","1n5hn7uebuoqfdt","prime","5edfb0770fb0722aa3839b6d","5f60e3c0a3b16e07647b2ff9","5f64c46b798ceb01bff780a2","false","null","<div style=""align-items: center; display: flex; color: dodgerblue; font-size: 90px""><b>o</b></div>","null","","","","forget_cue","","","","","","","","","","","","","","","",""
"html-keyboard-response","248","814498","0.0-4.0-1.0-0.44","1n5hn7uebuoqfdt","prime","5edfb0770fb0722aa3839b6d","5f60e3c0a3b16e07647b2ff9","5f64c46b798ceb01bff780a2","false","null","<span style=""color: black; font-size: 48px"">N + M</span>","null","","","","resp_prompt","","","","","","","","","","","","","","","",""
"categorize-image","249","815631","0.0-4.0-1.0-1.44","1n5hn7uebuoqfdt","prime","5edfb0770fb0722aa3839b6d","5f60e3c0a3b16e07647b2ff9","5f64c46b798ceb01bff780a2","true","1129.2749999994412","./Stimuli/SelectedImages/LN/LN82.bmp","83","","","","test","true","N + M","83","switch","LN","LN82.bmp","forget","","93","3","prime1","left","","","",""
"html-keyboard-response","250","817643","0.0-4.0-1.0-3.44","1n5hn7uebuoqfdt","prime","5edfb0770fb0722aa3839b6d","5f60e3c0a3b16e07647b2ff9","5f64c46b798ceb01bff780a2","false","null","<div style=""align-items: center; display: flex; color: darkorange; font-size: 90px""><b>ø</b></div>","null","","","","forget_cue","","","","","","","","","","","","","","","",""
"html-keyboard-response","251","818349","0.0-4.0-1.0-0.45","1n5hn7uebuoqfdt","prime","5edfb0770fb0722aa3839b6d","5f60e3c0a3b16e07647b2ff9","5f64c46b798ceb01bff780a2","false","null","<span style=""color: black; font-size: 48px"">N + M</span>","null","","","","resp_prompt","","","","","","","","","","","","","","","",""
"categorize-image","252","819440","0.0-4.0-1.0-1.45","1n5hn7uebuoqfdt","prime","5edfb0770fb0722aa3839b6d","5f60e3c0a3b16e07647b2ff9","5f64c46b798ceb01bff780a2","true","1085.86000000278","./Stimuli/SelectedImages/LM/LM48.bmp","76","","","","test","true","N + M","76","switch","LM","LM48.bmp","forget","","94","3","prime1","right","","","",""
