"trial_type","trial_index","time_elapsed","internal_node_id","subject","exp_part","prolific_PID","study_ID","session_ID","use","rt","stimulus","key_press","button_pressed","responses","question_order","trial_part","correct","resp_map","correct_resp","probe_condition","category","image","forget_condition","list","trial_num","block_num","block","response","test_part","n_span","sequence","num_spaces"
"pavlovia","0","3","0.0-0.0","0skhk9pwaluu84b","","5dd05d80b2204f1487f7812c","5f60e3c0a3b16e07647b2ff9","5f60ef50c998980116aa245e","false","","","","","","","","","","","","","","","","","","","","","","",""
"html-keyboard-response","1","16637","0.0-1.0-0.0-0.0","0skhk9pwaluu84b","welcome","5dd05d80b2204f1487f7812c","5f60e3c0a3b16e07647b2ff9","5f60ef50c998980116aa245e","false","16631","<div align=left>Dear participant, <br> thank you for participating in an online study of the Cognition, Action, and Sustainability Unit of the University of Freiburg! <br> <br>The aim of this study is to examine our ability to remember previously learned information. <br>Our goal is to find out, whether our memory improves, when we only remember information that is relevant to us. <br>The experiment will take about 35 minutes to complete. <br> <br>Please, note that you can only participate in this study if you are using a device with a keyboard (PC, Laptop etc.) <br>and not if you are using a mobile device such as a tablet or smartphone.<br> <br>Press 'SPACE' to proceed to the experiment. </div>","32","","","","","","","","","","","","","","","","","","","",""
"html-keyboard-response","2","38995","0.0-1.0-0.0-1.0","0skhk9pwaluu84b","welcome","5dd05d80b2204f1487f7812c","5f60e3c0a3b16e07647b2ff9","5f60ef50c998980116aa245e","false","22355","<div align=left><strong> Time Course of this experiment: </strong> <br><br> <strong> 1.</strong>  First, please fill in some information regarding your demographic data. <br><br> <strong> 2.</strong>  Next, your task will be to classify everyday objects. <br>In addition, you will be asked to remember certain objects and recall them later. <br>Working on these tasks requires your undivided attention and concentration.<br>It is therefore essential that you eliminate any sources of distraction in your  <br>environment and ensure that you will not be disturbed. <br><br><strong> 3.</strong>  At the end of the experiment, you will be asked to answer a few additional questions. <br> <br><strong> Important:</strong> After finishing the experiment, only close the browser window <br> by clicking on the 'end the experiment'-button when you are asked to do so. <br>Closing the browser window prematurely will make the allocation of your participation credit impossible. <br><br> Press 'SPACE' to start the experiment. </div>","32","","","","","","","","","","","","","","","","","","","",""
"html-button-response","3","49150","0.0-1.0-0.0-2.0","0skhk9pwaluu84b","welcome","5dd05d80b2204f1487f7812c","5f60e3c0a3b16e07647b2ff9","5f60ef50c998980116aa245e","true","10153","<div align=left><strong> Informed consent </strong>  <br>The aim of our research is to better understand human behavior and mental processes. <br>In the following study your behavior (e.g. choices, reaction times) will be studied. <br> <br><strong> Voluntariness and Anonymity </strong> <br>Your participation in this study is  <strong> voluntary</strong>.<br>You may withdraw your consent to participate at any time without providing a reason for doing so and without fear of prejudice. <br><br>As no personal data will be collected, <strong>your data and your person cannot be connected after data collection</strong> – the data-set is anonymous. <br>Respectively, deletion of your data will not be possible after data collection has been completed, as we cannot retrace your data-set.<br>The results and anonymized data collected in this study will be published as a scientific publication. <br>This will happen in an <strong>anonymized format</strong>, so that no data can be traced back to a specific person. <br> <br>The anonymized data of this study will be made available to other researchers and/or in a data archive on the Internet as a means of transparency and to enable subsequent re-use. By doing so, this study follows the recommendations of the Deutsche Forschungsgemeinschaft (DFG, German Research Foundation) and Deutsche Gesellschaft für Psychologie (DGPS, German Psychological Society) regarding quality assurance in research.<br>If you have any questions now or after the experiment, please contact our team (experiments@cs.uni-freiburg.de).<br><br><br>I hereby declare, that I understand the above described conditions of participation and I agree to participate under these conditions. <br><br> </div>","","0","","","","","","","","","","","","","","","","","","",""
"html-keyboard-response","4","73029","0.0-1.0-0.0-3.0","0skhk9pwaluu84b","welcome","5dd05d80b2204f1487f7812c","5f60e3c0a3b16e07647b2ff9","5f60ef50c998980116aa245e","false","23878","<div align=left><strong> General information concerning the experiment </strong>  <br> <br>Please follow the instructions:<ol> <li><strong> Do not leave this tab (your browser window) during the experiment and do not reload this tab! </strong>  <br>If you do switch tabs/windows during the experiment (to check your mail or visit another website, for example), <br>the experiment will end automatically and you will <strong>not receive credit</strong> for your participation. <br>Repeated participation or resumption of the experiment is impossible.</li> <br><li>Please close all other programs for the duration of your participation. </li> <br><li>Please mute or turn off your phone and put it out of your reach. </li> <br><li>Please also take off any disturbing accessories (such as wristwatches, bracelets, etc.). </li> <br><li>If you have music playing in the background, please turn it off now. </li> <br></ol>Thank you! <br>Press 'SPACE' to continue. </div>","32","","","","","","","","","","","","","","","","","","","",""
"survey-text","5","77458","0.0-1.0-1.0-0.0","0skhk9pwaluu84b","demographics","5dd05d80b2204f1487f7812c","5f60e3c0a3b16e07647b2ff9","5f60ef50c998980116aa245e","true","4425","","","","{""age"":""36""}","","","","","","","","","","","","","","","","","",""
"survey-multi-choice","6","93256","0.0-1.0-1.0-1.0","0skhk9pwaluu84b","demographics","5dd05d80b2204f1487f7812c","5f60e3c0a3b16e07647b2ff9","5f60ef50c998980116aa245e","true","15795","","","","{""gender"":""male"",""school"":""high school"",""education"":""No school-leaving qualifications""}","[0,1,2]","","","","","","","","","","","","","","","","",""
"html-keyboard-response","7","108523","0.0-1.0-2.0","0skhk9pwaluu84b","instructions","5dd05d80b2204f1487f7812c","5f60e3c0a3b16e07647b2ff9","5f60ef50c998980116aa245e","false","15266","<div align=left> The experiment is now about to start: <br> <br>In the following part, you will be presented pictures of everyday objects. <br>Your first task is to <strong>classify these objects. </strong> <br> <br> You will classify them either as mechanical or non-mechanical objects. <br> <br>Objects that include any kind of technical mechanism (for example, wheels, switches, levers, <br> electronic components) fall under the category of <strong>mechanical</strong> objects. <br>Only objects without any kind of technical mechanism should be classified as <strong>non-mechanical</strong>. <br><br>Press 'SPACE' to continue. </div>","32","","","","","","","","","","","","","","","","","","","",""
"html-keyboard-response","8","160969","0.0-2.0-0.0","0skhk9pwaluu84b","instructions","5dd05d80b2204f1487f7812c","5f60e3c0a3b16e07647b2ff9","5f60ef50c998980116aa245e","false","52445","<div align=justify>You will classify the objects using the <strong>'S'</strong> and the <strong>'L'</strong> keys on your keyboard.<br>For doing so, please place your <strong>left index finger</strong> on the <strong>'S'</strong> key and place your <strong>right index finger</strong> on the <strong>'L'</strong> key. <br><br> Each trial starts with an instruction, indicating which key ('S'/'L') you need to press to classify <br>the object as mechanical (letter M) or non-mechanical (letter N).<br>The instruction <strong>M + N</strong> indicates that, in the current trial, by pressing the left key ('S') you classify the displayed object as mechanical (M) <br> and by pressing the right key ('L') you classify the object as non-mechanical (N). <br>The instruction <strong>N + M</strong> on the other hand indicates that by pressing the left key ('S') you classify the displayed object as non-mechanical (N) <br> and by pressing the right key ('L') you classify the object as mechanical (M). <br><br>Please press the key corresponding to the correct classification as fast as possible as soon as the object is displayed and try to avoid making mistakes.<br>If you do not respond within a 2 second window, a corresponding feedback will be displayed and the next trial will start.<br> The experiment is divided into multiple blocks to give you the opportunity to take a break after each block. <br>First, you can now practice this task. <br><br>Please place your <strong>LEFT INDEX FINGER</strong> on the 'S' key and your <strong>RIGHT INDEX FINGER</strong> on the 'L' key now. <br><br>Press SPACE to continue.</div>","32","","","","","","","","","","","","","","","","","","","",""
"html-keyboard-response","9","172113","0.0-2.0-1.0","0skhk9pwaluu84b","instructions","5dd05d80b2204f1487f7812c","5f60e3c0a3b16e07647b2ff9","5f60ef50c998980116aa245e","false","11144","<div align=left> You will now have time to practice this task.<br><br>Remember: <br> <br><li>Please place your index fingers on the <strong>'S'</strong> and <strong>'L'</strong> keys <br>to respond as fast and accurately as possible.</li><li>Every picture can be classified as either mechanical or non-mechanical.</li><li>If you do not respond in time or commit an error, you will receive a corresponding feedback. </li><li> Please try to respond as <strong> fast </strong> and as <strong> accurately as possible </strong> .<br><li>To ensure optimal results, please minimize distractions and stay focused. </li><br><br>Press SPACE to continue.</div>","32","","","","","","","","","","","","","","","","","","","",""
"html-keyboard-response","10","172831","0.0-2.0-2.0-0.0","0skhk9pwaluu84b","practice_no_cue","5dd05d80b2204f1487f7812c","5f60e3c0a3b16e07647b2ff9","5f60ef50c998980116aa245e","false","null","<span style=""color: black; font-size: 48px"">N + M</span>","null","","","","resp_prompt","","","","","","","","","","","","","","","",""
"categorize-image","11","174271","0.0-2.0-2.0-1.0","0skhk9pwaluu84b","practice_no_cue","5dd05d80b2204f1487f7812c","5f60e3c0a3b16e07647b2ff9","5f60ef50c998980116aa245e","true","929","./Stimuli/ImagesPractice/LN2.jpg","76","","","","test","false","N + M","83","","LN","LN2.jpg","forget","old","1","1","start","right","","","",""
"html-keyboard-response","12","174990","0.0-2.0-2.0-0.1","0skhk9pwaluu84b","practice_no_cue","5dd05d80b2204f1487f7812c","5f60e3c0a3b16e07647b2ff9","5f60ef50c998980116aa245e","false","null","<span style=""color: black; font-size: 48px"">N + M</span>","null","","","","resp_prompt","","","","","","","","","","","","","","","",""
"categorize-image","13","175631","0.0-2.0-2.0-1.1","0skhk9pwaluu84b","practice_no_cue","5dd05d80b2204f1487f7812c","5f60e3c0a3b16e07647b2ff9","5f60ef50c998980116aa245e","true","129","./Stimuli/ImagesPractice/SN221.jpg","83","","","","test","true","N + M","83","","SN","SN221.jpg","remember","old","2","1","start","left","","","",""
"html-keyboard-response","14","176351","0.0-2.0-2.0-0.2","0skhk9pwaluu84b","practice_no_cue","5dd05d80b2204f1487f7812c","5f60e3c0a3b16e07647b2ff9","5f60ef50c998980116aa245e","false","null","<span style=""color: black; font-size: 48px"">N + M</span>","null","","","","resp_prompt","","","","","","","","","","","","","","","",""
"categorize-image","15","177490","0.0-2.0-2.0-1.2","0skhk9pwaluu84b","practice_no_cue","5dd05d80b2204f1487f7812c","5f60e3c0a3b16e07647b2ff9","5f60ef50c998980116aa245e","true","633","./Stimuli/ImagesPractice/LN15.jpg","83","","","","test","true","N + M","83","","LN","LN15.jpg","remember","old","3","1","start","left","","","",""
"html-keyboard-response","16","178211","0.0-2.0-2.0-0.3","0skhk9pwaluu84b","practice_no_cue","5dd05d80b2204f1487f7812c","5f60e3c0a3b16e07647b2ff9","5f60ef50c998980116aa245e","false","null","<span style=""color: black; font-size: 48px"">M + N</span>","null","","","","resp_prompt","","","","","","","","","","","","","","","",""
"categorize-image","17","179251","0.0-2.0-2.0-1.3","0skhk9pwaluu84b","practice_no_cue","5dd05d80b2204f1487f7812c","5f60e3c0a3b16e07647b2ff9","5f60ef50c998980116aa245e","true","519","./Stimuli/ImagesPractice/SM61.jpg","76","","","","test","false","M + N","83","","SM","SM61.jpg","remember","old","4","1","start","right","","","",""
"html-keyboard-response","18","179970","0.0-2.0-2.0-0.4","0skhk9pwaluu84b","practice_no_cue","5dd05d80b2204f1487f7812c","5f60e3c0a3b16e07647b2ff9","5f60ef50c998980116aa245e","false","null","<span style=""color: black; font-size: 48px"">N + M</span>","null","","","","resp_prompt","","","","","","","","","","","","","","","",""
"categorize-image","19","181190","0.0-2.0-2.0-1.4","0skhk9pwaluu84b","practice_no_cue","5dd05d80b2204f1487f7812c","5f60e3c0a3b16e07647b2ff9","5f60ef50c998980116aa245e","true","703","./Stimuli/ImagesPractice/LN72.jpg","83","","","","test","true","N + M","83","","LN","LN72.jpg","forget","old","5","1","start","left","","","",""
"html-keyboard-response","20","181910","0.0-2.0-2.0-0.5","0skhk9pwaluu84b","practice_no_cue","5dd05d80b2204f1487f7812c","5f60e3c0a3b16e07647b2ff9","5f60ef50c998980116aa245e","false","null","<span style=""color: black; font-size: 48px"">M + N</span>","null","","","","resp_prompt","","","","","","","","","","","","","","","",""
"categorize-image","21","183051","0.0-2.0-2.0-1.5","0skhk9pwaluu84b","practice_no_cue","5dd05d80b2204f1487f7812c","5f60e3c0a3b16e07647b2ff9","5f60ef50c998980116aa245e","true","618","./Stimuli/ImagesPractice/LM143.jpg","76","","","","test","false","M + N","83","","LM","LM143.jpg","remember","old","6","1","start","right","","","",""
"html-keyboard-response","22","183771","0.0-2.0-2.0-0.6","0skhk9pwaluu84b","practice_no_cue","5dd05d80b2204f1487f7812c","5f60e3c0a3b16e07647b2ff9","5f60ef50c998980116aa245e","false","null","<span style=""color: black; font-size: 48px"">M + N</span>","null","","","","resp_prompt","","","","","","","","","","","","","","","",""
"categorize-image","23","185211","0.0-2.0-2.0-1.6","0skhk9pwaluu84b","practice_no_cue","5dd05d80b2204f1487f7812c","5f60e3c0a3b16e07647b2ff9","5f60ef50c998980116aa245e","true","919","./Stimuli/ImagesPractice/LM239.jpg","83","","","","test","true","M + N","83","","LM","LM239.jpg","forget","old","7","1","start","left","","","",""
"html-keyboard-response","24","185930","0.0-2.0-2.0-0.7","0skhk9pwaluu84b","practice_no_cue","5dd05d80b2204f1487f7812c","5f60e3c0a3b16e07647b2ff9","5f60ef50c998980116aa245e","false","null","<span style=""color: black; font-size: 48px"">N + M</span>","null","","","","resp_prompt","","","","","","","","","","","","","","","",""
"categorize-image","25","187371","0.0-2.0-2.0-1.7","0skhk9pwaluu84b","practice_no_cue","5dd05d80b2204f1487f7812c","5f60e3c0a3b16e07647b2ff9","5f60ef50c998980116aa245e","true","920","./Stimuli/ImagesPractice/LN4.jpg","83","","","","test","true","N + M","83","","LN","LN4.jpg","forget","old","8","1","start","left","","","",""
"html-keyboard-response","26","188090","0.0-2.0-2.0-0.8","0skhk9pwaluu84b","practice_no_cue","5dd05d80b2204f1487f7812c","5f60e3c0a3b16e07647b2ff9","5f60ef50c998980116aa245e","false","null","<span style=""color: black; font-size: 48px"">M + N</span>","null","","","","resp_prompt","","","","","","","","","","","","","","","",""
"categorize-image","27","189441","0.0-2.0-2.0-1.8","0skhk9pwaluu84b","practice_no_cue","5dd05d80b2204f1487f7812c","5f60e3c0a3b16e07647b2ff9","5f60ef50c998980116aa245e","true","840","./Stimuli/ImagesPractice/LM147.jpg","76","","","","test","false","M + N","83","","LM","LM147.jpg","remember","old","9","1","start","right","","","",""
"html-keyboard-response","28","190150","0.0-2.0-2.0-0.9","0skhk9pwaluu84b","practice_no_cue","5dd05d80b2204f1487f7812c","5f60e3c0a3b16e07647b2ff9","5f60ef50c998980116aa245e","false","null","<span style=""color: black; font-size: 48px"">M + N</span>","null","","","","resp_prompt","","","","","","","","","","","","","","","",""
"categorize-image","29","191271","0.0-2.0-2.0-1.9","0skhk9pwaluu84b","practice_no_cue","5dd05d80b2204f1487f7812c","5f60e3c0a3b16e07647b2ff9","5f60ef50c998980116aa245e","true","612","./Stimuli/ImagesPractice/SM62.jpg","83","","","","test","true","M + N","83","","SM","SM62.jpg","forget","old","10","1","start","left","","","",""
"html-keyboard-response","30","191990","0.0-2.0-2.0-0.10","0skhk9pwaluu84b","practice_no_cue","5dd05d80b2204f1487f7812c","5f60e3c0a3b16e07647b2ff9","5f60ef50c998980116aa245e","false","null","<span style=""color: black; font-size: 48px"">N + M</span>","null","","","","resp_prompt","","","","","","","","","","","","","","","",""
"categorize-image","31","193410","0.0-2.0-2.0-1.10","0skhk9pwaluu84b","practice_no_cue","5dd05d80b2204f1487f7812c","5f60e3c0a3b16e07647b2ff9","5f60ef50c998980116aa245e","true","909","./Stimuli/ImagesPractice/LM230.jpg","76","","","","test","true","N + M","76","","LM","LM230.jpg","remember","old","11","1","start","right","","","",""
"html-keyboard-response","32","194130","0.0-2.0-2.0-0.11","0skhk9pwaluu84b","practice_no_cue","5dd05d80b2204f1487f7812c","5f60e3c0a3b16e07647b2ff9","5f60ef50c998980116aa245e","false","null","<span style=""color: black; font-size: 48px"">M + N</span>","null","","","","resp_prompt","","","","","","","","","","","","","","","",""
"categorize-image","33","195230","0.0-2.0-2.0-1.11","0skhk9pwaluu84b","practice_no_cue","5dd05d80b2204f1487f7812c","5f60e3c0a3b16e07647b2ff9","5f60ef50c998980116aa245e","true","585","./Stimuli/ImagesPractice/LM55.jpg","83","","","","test","true","M + N","83","","LM","LM55.jpg","forget","old","12","1","start","left","","","",""
"html-keyboard-response","34","195951","0.0-2.0-2.0-0.12","0skhk9pwaluu84b","practice_no_cue","5dd05d80b2204f1487f7812c","5f60e3c0a3b16e07647b2ff9","5f60ef50c998980116aa245e","false","null","<span style=""color: black; font-size: 48px"">M + N</span>","null","","","","resp_prompt","","","","","","","","","","","","","","","",""
"categorize-image","35","197050","0.0-2.0-2.0-1.12","0skhk9pwaluu84b","practice_no_cue","5dd05d80b2204f1487f7812c","5f60e3c0a3b16e07647b2ff9","5f60ef50c998980116aa245e","true","589","./Stimuli/ImagesPractice/SM98.jpg","83","","","","test","true","M + N","83","","SM","SM98.jpg","remember","old","13","1","start","left","","","",""
"html-keyboard-response","36","197770","0.0-2.0-2.0-0.13","0skhk9pwaluu84b","practice_no_cue","5dd05d80b2204f1487f7812c","5f60e3c0a3b16e07647b2ff9","5f60ef50c998980116aa245e","false","null","<span style=""color: black; font-size: 48px"">N + M</span>","null","","","","resp_prompt","","","","","","","","","","","","","","","",""
"categorize-image","37","198810","0.0-2.0-2.0-1.13","0skhk9pwaluu84b","practice_no_cue","5dd05d80b2204f1487f7812c","5f60e3c0a3b16e07647b2ff9","5f60ef50c998980116aa245e","true","521","./Stimuli/ImagesPractice/SM97.jpg","76","","","","test","true","N + M","76","","SM","SM97.jpg","remember","old","14","1","start","right","","","",""
"html-keyboard-response","38","199530","0.0-2.0-2.0-0.14","0skhk9pwaluu84b","practice_no_cue","5dd05d80b2204f1487f7812c","5f60e3c0a3b16e07647b2ff9","5f60ef50c998980116aa245e","false","null","<span style=""color: black; font-size: 48px"">N + M</span>","null","","","","resp_prompt","","","","","","","","","","","","","","","",""
"categorize-image","39","200730","0.0-2.0-2.0-1.14","0skhk9pwaluu84b","practice_no_cue","5dd05d80b2204f1487f7812c","5f60e3c0a3b16e07647b2ff9","5f60ef50c998980116aa245e","true","697","./Stimuli/ImagesPractice/LM224.jpg","76","","","","test","true","N + M","76","","LM","LM224.jpg","forget","old","15","1","start","right","","","",""
"html-keyboard-response","40","201451","0.0-2.0-2.0-0.15","0skhk9pwaluu84b","practice_no_cue","5dd05d80b2204f1487f7812c","5f60e3c0a3b16e07647b2ff9","5f60ef50c998980116aa245e","false","null","<span style=""color: black; font-size: 48px"">M + N</span>","null","","","","resp_prompt","","","","","","","","","","","","","","","",""
"categorize-image","41","202650","0.0-2.0-2.0-1.15","0skhk9pwaluu84b","practice_no_cue","5dd05d80b2204f1487f7812c","5f60e3c0a3b16e07647b2ff9","5f60ef50c998980116aa245e","true","681","./Stimuli/ImagesPractice/LN109.jpg","76","","","","test","true","M + N","76","","LN","LN109.jpg","forget","old","16","1","start","right","","","",""
"html-keyboard-response","42","208166","0.0-2.0-3.0","0skhk9pwaluu84b","break","5dd05d80b2204f1487f7812c","5f60e3c0a3b16e07647b2ff9","5f60ef50c998980116aa245e","false","5513","<p style='font-size: 32px;'>Break</><br><br><br><br><br><p style='font-size: 24px;'>In the last block, you committed 4 errors and did not respond in time on 0 trials.
</p><p style='font-size: 24px;'>Try to respond as fast and accurately as possible in the next block as well! </p><p style='font-size: 24px;'>Press SPACE to continue.</p>","32","","","","","","","","","","","","","","","","","","","",""
"html-keyboard-response","43","218055","0.0-2.0-4.0","0skhk9pwaluu84b","instructions","5dd05d80b2204f1487f7812c","5f60e3c0a3b16e07647b2ff9","5f60ef50c998980116aa245e","false","9888","<div align=left> Great!<br><br>Are you ready to continue?<br><br>If you want to reread the instructions and redo the practice trials, <br>please press „Z“. <br><br>Press SPACE to CONTINUE with the experiment when you are ready. </div>","32","","","","","","","","","","","","","","","","","","","",""
"html-keyboard-response","44","240539","0.0-3.0-0.0","0skhk9pwaluu84b","instructions","5dd05d80b2204f1487f7812c","5f60e3c0a3b16e07647b2ff9","5f60ef50c998980116aa245e","false","22481","<div align=left>Great!<br> <strong>Attention</strong>! You will now receive a second, additional task! <br><br>To this point it was you <strong>first task</strong> to correctly <strong>classify objects</strong>. <br><br>As mentioned in the beginning, we aim to examine how well humans can remember previously learned information.<br>We would like to find out whether our memory improves if we only remember information that is relevant to us. <br><br>Therefore, your <strong>second task</strong> will be to <strong>remember</strong> the pictures you are to categorize. <br> After the learning phase, there will be a memory test phase, in which you will be asked to indicate whether you have seen a picture before or not. <br>Some, but not all pictures shown in the learning phase will appear in the memory test phase.<br>After classifying a picture, you will be told whether you should remember it for the memory test phase or not. <br>Thus, some pictures can be forgotten, whereas others have to be remembered. <br><br>Note: From now on, feedback will only be displayed if you responded incorrectly or not in time.<br><br>Press SPACE to continue.</div>","32","","","","","","","","","","","","","","","","","","","",""
"html-keyboard-response","45","267550","0.0-3.0-1.0","0skhk9pwaluu84b","instructions","5dd05d80b2204f1487f7812c","5f60e3c0a3b16e07647b2ff9","5f60ef50c998980116aa245e","false","27011","<div align=left>In the following part, you will thus have to remember only some pictures. <br>Immediately after seeing and classifying the picture, a symbol will be displayed, indicating whether you should remember or forget the previous picture. <br><br>A <span style='color: dodgerblue; font-size: 28px'>O</span> indicates REMEMBER. That means, you have to remember this picture, because it will be tested later. <br><br>A <span style='color: darkorange; font-size:28px'>Ø</span> indicates FORGET. You do not have to remember this picture. <br><br> As you will have to remember a lot of pictures, it will be hard for you to remember all of them. <br>It will put you at an advantage if you instantly forget the pictures you are not asked to remember. <br> This will make it easier for you to remember the pictures that will be tested afterwards. <br><br>Press SPACE to continue.</div>","32","","","","","","","","","","","","","","","","","","","",""
"html-keyboard-response","46","279342","0.0-3.0-2.0","0skhk9pwaluu84b","instructions","5dd05d80b2204f1487f7812c","5f60e3c0a3b16e07647b2ff9","5f60ef50c998980116aa245e","false","11792","<div align=left> Now you have the chance to practice both tasks together.<br><br>Remember: <br> <br><li>Please place your index fingers on the <strong>'S'</strong> and <strong>'L'</strong> keys <br>to respond as fast and accurately as possible.</li><li>Every picture can be classified as either mechanical or non-mechanical.</li><li>If you do not respond in time or commit an error, you will receive a corresponding feedback. <br>Please try to respond as <strong> fast </strong> and as <strong> accurately as possible </strong>.</li><li> Please remember only the to-be-remembered <span style='color: dodgerblue; font-size: 28px'>O</span> pictures. <br></li><li> Please minimize distractions and stay focused. </li><br><br>Press SPACE to START</div>","32","","","","","","","","","","","","","","","","","","","",""
"html-keyboard-response","47","280060","0.0-3.0-3.0-0.0","0skhk9pwaluu84b","practice_cue","5dd05d80b2204f1487f7812c","5f60e3c0a3b16e07647b2ff9","5f60ef50c998980116aa245e","false","null","<span style=""color: black; font-size: 48px"">M + N</span>","null","","","","resp_prompt","","","","","","","","","","","","","","","",""
"categorize-image","48","280848","0.0-3.0-3.0-1.0","0skhk9pwaluu84b","practice_cue","5dd05d80b2204f1487f7812c","5f60e3c0a3b16e07647b2ff9","5f60ef50c998980116aa245e","true","784","./Stimuli/ImagesPractice/LM147.jpg","83","","","","test","true","M + N","83","","LM","LM147.jpg","remember","old","17","2","practice_forget","left","","","",""
"html-keyboard-response","49","282860","0.0-3.0-3.0-3.0","0skhk9pwaluu84b","practice_cue","5dd05d80b2204f1487f7812c","5f60e3c0a3b16e07647b2ff9","5f60ef50c998980116aa245e","false","null","<div style=""align-items: center; display: flex; color: dodgerblue; font-size: 90px""><b>o</b></div>","null","","","","forget_cue","","","","","","","","","","","","","","","",""
"html-keyboard-response","50","283580","0.0-3.0-3.0-0.1","0skhk9pwaluu84b","practice_cue","5dd05d80b2204f1487f7812c","5f60e3c0a3b16e07647b2ff9","5f60ef50c998980116aa245e","false","null","<span style=""color: black; font-size: 48px"">M + N</span>","null","","","","resp_prompt","","","","","","","","","","","","","","","",""
"categorize-image","51","284615","0.0-3.0-3.0-1.1","0skhk9pwaluu84b","practice_cue","5dd05d80b2204f1487f7812c","5f60e3c0a3b16e07647b2ff9","5f60ef50c998980116aa245e","true","1034","./Stimuli/ImagesPractice/LN109.jpg","76","","","","test","true","M + N","76","","LN","LN109.jpg","forget","old","18","2","practice_forget","right","","","",""
"html-keyboard-response","52","286621","0.0-3.0-3.0-3.1","0skhk9pwaluu84b","practice_cue","5dd05d80b2204f1487f7812c","5f60e3c0a3b16e07647b2ff9","5f60ef50c998980116aa245e","false","null","<div style=""align-items: center; display: flex; color: darkorange; font-size: 90px""><b>ø</b></div>","null","","","","forget_cue","","","","","","","","","","","","","","","",""
"html-keyboard-response","53","287341","0.0-3.0-3.0-0.2","0skhk9pwaluu84b","practice_cue","5dd05d80b2204f1487f7812c","5f60e3c0a3b16e07647b2ff9","5f60ef50c998980116aa245e","false","null","<span style=""color: black; font-size: 48px"">N + M</span>","null","","","","resp_prompt","","","","","","","","","","","","","","","",""
"categorize-image","54","287535","0.0-3.0-3.0-1.2","0skhk9pwaluu84b","practice_cue","5dd05d80b2204f1487f7812c","5f60e3c0a3b16e07647b2ff9","5f60ef50c998980116aa245e","true","193","./Stimuli/ImagesPractice/LN72.jpg","83","","","","test","true","N + M","83","","LN","LN72.jpg","forget","old","19","2","practice_forget","left","","","",""
"html-keyboard-response","55","289540","0.0-3.0-3.0-3.2","0skhk9pwaluu84b","practice_cue","5dd05d80b2204f1487f7812c","5f60e3c0a3b16e07647b2ff9","5f60ef50c998980116aa245e","false","null","<div style=""align-items: center; display: flex; color: darkorange; font-size: 90px""><b>ø</b></div>","null","","","","forget_cue","","","","","","","","","","","","","","","",""
"html-keyboard-response","56","290260","0.0-3.0-3.0-0.3","0skhk9pwaluu84b","practice_cue","5dd05d80b2204f1487f7812c","5f60e3c0a3b16e07647b2ff9","5f60ef50c998980116aa245e","false","null","<span style=""color: black; font-size: 48px"">N + M</span>","null","","","","resp_prompt","","","","","","","","","","","","","","","",""
"categorize-image","57","291072","0.0-3.0-3.0-1.3","0skhk9pwaluu84b","practice_cue","5dd05d80b2204f1487f7812c","5f60e3c0a3b16e07647b2ff9","5f60ef50c998980116aa245e","true","808","./Stimuli/ImagesPractice/LM230.jpg","76","","","","test","true","N + M","76","","LM","LM230.jpg","remember","old","20","2","practice_forget","right","","","",""
"html-keyboard-response","58","293080","0.0-3.0-3.0-3.3","0skhk9pwaluu84b","practice_cue","5dd05d80b2204f1487f7812c","5f60e3c0a3b16e07647b2ff9","5f60ef50c998980116aa245e","false","null","<div style=""align-items: center; display: flex; color: dodgerblue; font-size: 90px""><b>o</b></div>","null","","","","forget_cue","","","","","","","","","","","","","","","",""
"html-keyboard-response","59","293801","0.0-3.0-3.0-0.4","0skhk9pwaluu84b","practice_cue","5dd05d80b2204f1487f7812c","5f60e3c0a3b16e07647b2ff9","5f60ef50c998980116aa245e","false","null","<span style=""color: black; font-size: 48px"">M + N</span>","null","","","","resp_prompt","","","","","","","","","","","","","","","",""
"categorize-image","60","294330","0.0-3.0-3.0-1.4","0skhk9pwaluu84b","practice_cue","5dd05d80b2204f1487f7812c","5f60e3c0a3b16e07647b2ff9","5f60ef50c998980116aa245e","true","528","./Stimuli/ImagesPractice/LM55.jpg","83","","","","test","true","M + N","83","","LM","LM55.jpg","forget","old","21","2","practice_forget","left","","","",""
"html-keyboard-response","61","296340","0.0-3.0-3.0-3.4","0skhk9pwaluu84b","practice_cue","5dd05d80b2204f1487f7812c","5f60e3c0a3b16e07647b2ff9","5f60ef50c998980116aa245e","false","null","<div style=""align-items: center; display: flex; color: darkorange; font-size: 90px""><b>ø</b></div>","null","","","","forget_cue","","","","","","","","","","","","","","","",""
"html-keyboard-response","62","297056","0.0-3.0-3.0-0.5","0skhk9pwaluu84b","practice_cue","5dd05d80b2204f1487f7812c","5f60e3c0a3b16e07647b2ff9","5f60ef50c998980116aa245e","false","null","<span style=""color: black; font-size: 48px"">N + M</span>","null","","","","resp_prompt","","","","","","","","","","","","","","","",""
"categorize-image","63","297962","0.0-3.0-3.0-1.5","0skhk9pwaluu84b","practice_cue","5dd05d80b2204f1487f7812c","5f60e3c0a3b16e07647b2ff9","5f60ef50c998980116aa245e","true","904","./Stimuli/ImagesPractice/LN2.jpg","83","","","","test","true","N + M","83","","LN","LN2.jpg","forget","old","22","2","practice_forget","left","","","",""
"html-keyboard-response","64","299981","0.0-3.0-3.0-3.5","0skhk9pwaluu84b","practice_cue","5dd05d80b2204f1487f7812c","5f60e3c0a3b16e07647b2ff9","5f60ef50c998980116aa245e","false","null","<div style=""align-items: center; display: flex; color: darkorange; font-size: 90px""><b>ø</b></div>","null","","","","forget_cue","","","","","","","","","","","","","","","",""
"html-keyboard-response","65","300700","0.0-3.0-3.0-0.6","0skhk9pwaluu84b","practice_cue","5dd05d80b2204f1487f7812c","5f60e3c0a3b16e07647b2ff9","5f60ef50c998980116aa245e","false","null","<span style=""color: black; font-size: 48px"">M + N</span>","null","","","","resp_prompt","","","","","","","","","","","","","","","",""
"categorize-image","66","301922","0.0-3.0-3.0-1.6","0skhk9pwaluu84b","practice_cue","5dd05d80b2204f1487f7812c","5f60e3c0a3b16e07647b2ff9","5f60ef50c998980116aa245e","true","1219","./Stimuli/ImagesPractice/LM239.jpg","83","","","","test","true","M + N","83","","LM","LM239.jpg","forget","old","23","2","practice_forget","left","","","",""
"html-keyboard-response","67","303941","0.0-3.0-3.0-3.6","0skhk9pwaluu84b","practice_cue","5dd05d80b2204f1487f7812c","5f60e3c0a3b16e07647b2ff9","5f60ef50c998980116aa245e","false","null","<div style=""align-items: center; display: flex; color: darkorange; font-size: 90px""><b>ø</b></div>","null","","","","forget_cue","","","","","","","","","","","","","","","",""
"html-keyboard-response","68","304660","0.0-3.0-3.0-0.7","0skhk9pwaluu84b","practice_cue","5dd05d80b2204f1487f7812c","5f60e3c0a3b16e07647b2ff9","5f60ef50c998980116aa245e","false","null","<span style=""color: black; font-size: 48px"">M + N</span>","null","","","","resp_prompt","","","","","","","","","","","","","","","",""
"categorize-image","69","305843","0.0-3.0-3.0-1.7","0skhk9pwaluu84b","practice_cue","5dd05d80b2204f1487f7812c","5f60e3c0a3b16e07647b2ff9","5f60ef50c998980116aa245e","true","1181","./Stimuli/ImagesPractice/SM61.jpg","76","","","","test","false","M + N","83","","SM","SM61.jpg","remember","old","24","2","practice_forget","right","","","",""
"html-keyboard-response","70","306361","0.0-3.0-3.0-2.7-0.7","0skhk9pwaluu84b","practice_cue","5dd05d80b2204f1487f7812c","5f60e3c0a3b16e07647b2ff9","5f60ef50c998980116aa245e","false","null","<span style=""color: red; font-size: 48px"">Error!</span>","null","","","","feedback","","","","","","","","","","","","","","","",""
"html-keyboard-response","71","308380","0.0-3.0-3.0-3.7","0skhk9pwaluu84b","practice_cue","5dd05d80b2204f1487f7812c","5f60e3c0a3b16e07647b2ff9","5f60ef50c998980116aa245e","false","null","<div style=""align-items: center; display: flex; color: dodgerblue; font-size: 90px""><b>o</b></div>","null","","","","forget_cue","","","","","","","","","","","","","","","",""
"html-keyboard-response","72","309100","0.0-3.0-3.0-0.8","0skhk9pwaluu84b","practice_cue","5dd05d80b2204f1487f7812c","5f60e3c0a3b16e07647b2ff9","5f60ef50c998980116aa245e","false","null","<span style=""color: black; font-size: 48px"">N + M</span>","null","","","","resp_prompt","","","","","","","","","","","","","","","",""
"categorize-image","73","310244","0.0-3.0-3.0-1.8","0skhk9pwaluu84b","practice_cue","5dd05d80b2204f1487f7812c","5f60e3c0a3b16e07647b2ff9","5f60ef50c998980116aa245e","true","1140","./Stimuli/ImagesPractice/LN4.jpg","83","","","","test","true","N + M","83","","LN","LN4.jpg","forget","old","25","2","practice_forget","left","","","",""
"html-keyboard-response","74","312260","0.0-3.0-3.0-3.8","0skhk9pwaluu84b","practice_cue","5dd05d80b2204f1487f7812c","5f60e3c0a3b16e07647b2ff9","5f60ef50c998980116aa245e","false","null","<div style=""align-items: center; display: flex; color: darkorange; font-size: 90px""><b>ø</b></div>","null","","","","forget_cue","","","","","","","","","","","","","","","",""
"html-keyboard-response","75","312981","0.0-3.0-3.0-0.9","0skhk9pwaluu84b","practice_cue","5dd05d80b2204f1487f7812c","5f60e3c0a3b16e07647b2ff9","5f60ef50c998980116aa245e","false","null","<span style=""color: black; font-size: 48px"">N + M</span>","null","","","","resp_prompt","","","","","","","","","","","","","","","",""
"categorize-image","76","313740","0.0-3.0-3.0-1.9","0skhk9pwaluu84b","practice_cue","5dd05d80b2204f1487f7812c","5f60e3c0a3b16e07647b2ff9","5f60ef50c998980116aa245e","true","756","./Stimuli/ImagesPractice/LN15.jpg","83","","","","test","true","N + M","83","","LN","LN15.jpg","remember","old","26","2","practice_forget","left","","","",""
"html-keyboard-response","77","315741","0.0-3.0-3.0-3.9","0skhk9pwaluu84b","practice_cue","5dd05d80b2204f1487f7812c","5f60e3c0a3b16e07647b2ff9","5f60ef50c998980116aa245e","false","null","<div style=""align-items: center; display: flex; color: dodgerblue; font-size: 90px""><b>o</b></div>","null","","","","forget_cue","","","","","","","","","","","","","","","",""
"html-keyboard-response","78","316461","0.0-3.0-3.0-0.10","0skhk9pwaluu84b","practice_cue","5dd05d80b2204f1487f7812c","5f60e3c0a3b16e07647b2ff9","5f60ef50c998980116aa245e","false","null","<span style=""color: black; font-size: 48px"">M + N</span>","null","","","","resp_prompt","","","","","","","","","","","","","","","",""
"categorize-image","79","317812","0.0-3.0-3.0-1.10","0skhk9pwaluu84b","practice_cue","5dd05d80b2204f1487f7812c","5f60e3c0a3b16e07647b2ff9","5f60ef50c998980116aa245e","true","1351","./Stimuli/ImagesPractice/SM98.jpg","83","","","","test","true","M + N","83","","SM","SM98.jpg","remember","old","27","2","practice_forget","left","","","",""
"html-keyboard-response","80","319821","0.0-3.0-3.0-3.10","0skhk9pwaluu84b","practice_cue","5dd05d80b2204f1487f7812c","5f60e3c0a3b16e07647b2ff9","5f60ef50c998980116aa245e","false","null","<div style=""align-items: center; display: flex; color: dodgerblue; font-size: 90px""><b>o</b></div>","null","","","","forget_cue","","","","","","","","","","","","","","","",""
"html-keyboard-response","81","320540","0.0-3.0-3.0-0.11","0skhk9pwaluu84b","practice_cue","5dd05d80b2204f1487f7812c","5f60e3c0a3b16e07647b2ff9","5f60ef50c998980116aa245e","false","null","<span style=""color: black; font-size: 48px"">N + M</span>","null","","","","resp_prompt","","","","","","","","","","","","","","","",""
"categorize-image","82","321373","0.0-3.0-3.0-1.11","0skhk9pwaluu84b","practice_cue","5dd05d80b2204f1487f7812c","5f60e3c0a3b16e07647b2ff9","5f60ef50c998980116aa245e","true","829","./Stimuli/ImagesPractice/LM224.jpg","83","","","","test","false","N + M","76","","LM","LM224.jpg","forget","old","28","2","practice_forget","left","","","",""
"html-keyboard-response","83","321890","0.0-3.0-3.0-2.11-0.11","0skhk9pwaluu84b","practice_cue","5dd05d80b2204f1487f7812c","5f60e3c0a3b16e07647b2ff9","5f60ef50c998980116aa245e","false","null","<span style=""color: red; font-size: 48px"">Error!</span>","null","","","","feedback","","","","","","","","","","","","","","","",""
"html-keyboard-response","84","323911","0.0-3.0-3.0-3.11","0skhk9pwaluu84b","practice_cue","5dd05d80b2204f1487f7812c","5f60e3c0a3b16e07647b2ff9","5f60ef50c998980116aa245e","false","null","<div style=""align-items: center; display: flex; color: darkorange; font-size: 90px""><b>ø</b></div>","null","","","","forget_cue","","","","","","","","","","","","","","","",""
"html-keyboard-response","85","324621","0.0-3.0-3.0-0.12","0skhk9pwaluu84b","practice_cue","5dd05d80b2204f1487f7812c","5f60e3c0a3b16e07647b2ff9","5f60ef50c998980116aa245e","false","null","<span style=""color: black; font-size: 48px"">N + M</span>","null","","","","resp_prompt","","","","","","","","","","","","","","","",""
"categorize-image","86","325813","0.0-3.0-3.0-1.12","0skhk9pwaluu84b","practice_cue","5dd05d80b2204f1487f7812c","5f60e3c0a3b16e07647b2ff9","5f60ef50c998980116aa245e","true","1190","./Stimuli/ImagesPractice/SM97.jpg","76","","","","test","true","N + M","76","","SM","SM97.jpg","remember","old","29","2","practice_forget","right","","","",""
"html-keyboard-response","87","327821","0.0-3.0-3.0-3.12","0skhk9pwaluu84b","practice_cue","5dd05d80b2204f1487f7812c","5f60e3c0a3b16e07647b2ff9","5f60ef50c998980116aa245e","false","null","<div style=""align-items: center; display: flex; color: dodgerblue; font-size: 90px""><b>o</b></div>","null","","","","forget_cue","","","","","","","","","","","","","","","",""
"html-keyboard-response","88","328540","0.0-3.0-3.0-0.13","0skhk9pwaluu84b","practice_cue","5dd05d80b2204f1487f7812c","5f60e3c0a3b16e07647b2ff9","5f60ef50c998980116aa245e","false","null","<span style=""color: black; font-size: 48px"">M + N</span>","null","","","","resp_prompt","","","","","","","","","","","","","","","",""
"categorize-image","89","329645","0.0-3.0-3.0-1.13","0skhk9pwaluu84b","practice_cue","5dd05d80b2204f1487f7812c","5f60e3c0a3b16e07647b2ff9","5f60ef50c998980116aa245e","true","1102","./Stimuli/ImagesPractice/LM143.jpg","76","","","","test","false","M + N","83","","LM","LM143.jpg","remember","old","30","2","practice_forget","right","","","",""
"html-keyboard-response","90","330160","0.0-3.0-3.0-2.13-0.13","0skhk9pwaluu84b","practice_cue","5dd05d80b2204f1487f7812c","5f60e3c0a3b16e07647b2ff9","5f60ef50c998980116aa245e","false","null","<span style=""color: red; font-size: 48px"">Error!</span>","null","","","","feedback","","","","","","","","","","","","","","","",""
"html-keyboard-response","91","332181","0.0-3.0-3.0-3.13","0skhk9pwaluu84b","practice_cue","5dd05d80b2204f1487f7812c","5f60e3c0a3b16e07647b2ff9","5f60ef50c998980116aa245e","false","null","<div style=""align-items: center; display: flex; color: dodgerblue; font-size: 90px""><b>o</b></div>","null","","","","forget_cue","","","","","","","","","","","","","","","",""
"html-keyboard-response","92","332900","0.0-3.0-3.0-0.14","0skhk9pwaluu84b","practice_cue","5dd05d80b2204f1487f7812c","5f60e3c0a3b16e07647b2ff9","5f60ef50c998980116aa245e","false","null","<span style=""color: black; font-size: 48px"">M + N</span>","null","","","","resp_prompt","","","","","","","","","","","","","","","",""
"categorize-image","93","334310","0.0-3.0-3.0-1.14","0skhk9pwaluu84b","practice_cue","5dd05d80b2204f1487f7812c","5f60e3c0a3b16e07647b2ff9","5f60ef50c998980116aa245e","true","1407","./Stimuli/ImagesPractice/SM62.jpg","83","","","","test","true","M + N","83","","SM","SM62.jpg","forget","old","31","2","practice_forget","left","","","",""
"html-keyboard-response","94","336321","0.0-3.0-3.0-3.14","0skhk9pwaluu84b","practice_cue","5dd05d80b2204f1487f7812c","5f60e3c0a3b16e07647b2ff9","5f60ef50c998980116aa245e","false","null","<div style=""align-items: center; display: flex; color: darkorange; font-size: 90px""><b>ø</b></div>","null","","","","forget_cue","","","","","","","","","","","","","","","",""
"html-keyboard-response","95","337041","0.0-3.0-3.0-0.15","0skhk9pwaluu84b","practice_cue","5dd05d80b2204f1487f7812c","5f60e3c0a3b16e07647b2ff9","5f60ef50c998980116aa245e","false","null","<span style=""color: black; font-size: 48px"">N + M</span>","null","","","","resp_prompt","","","","","","","","","","","","","","","",""
"categorize-image","96","338111","0.0-3.0-3.0-1.15","0skhk9pwaluu84b","practice_cue","5dd05d80b2204f1487f7812c","5f60e3c0a3b16e07647b2ff9","5f60ef50c998980116aa245e","true","1068","./Stimuli/ImagesPractice/SN221.jpg","83","","","","test","true","N + M","83","","SN","SN221.jpg","remember","old","32","2","practice_forget","left","","","",""
"html-keyboard-response","97","340121","0.0-3.0-3.0-3.15","0skhk9pwaluu84b","practice_cue","5dd05d80b2204f1487f7812c","5f60e3c0a3b16e07647b2ff9","5f60ef50c998980116aa245e","false","null","<div style=""align-items: center; display: flex; color: dodgerblue; font-size: 90px""><b>o</b></div>","null","","","","forget_cue","","","","","","","","","","","","","","","",""
"html-keyboard-response","98","343813","0.0-3.0-4.0","0skhk9pwaluu84b","break","5dd05d80b2204f1487f7812c","5f60e3c0a3b16e07647b2ff9","5f60ef50c998980116aa245e","false","3691","<p style='font-size: 32px;'>Break</><br><br><br><br><br><p style='font-size: 24px;'>In the last block, you committed 3 errors and did not respond in time on 0 trials.
</p><p style='font-size: 24px;'>Try to respond as fast and accurately as possible in the next block as well! </p><p style='font-size: 24px;'>Press SPACE to continue.</p>","32","","","","","","","","","","","","","","","","","","","",""
"html-keyboard-response","99","359176","0.0-3.0-5.0","0skhk9pwaluu84b","instructions","5dd05d80b2204f1487f7812c","5f60e3c0a3b16e07647b2ff9","5f60ef50c998980116aa245e","false","15361","<div align=left> Now, to practice, we kindly ask you to remember as many of the to-be-remembered pictures<br>of the previous learning phase as possible.<br><br>The pictures you were instructed to remember were the pictures followed by a <span style='color: dodgerblue; font-size: 28px'>O</span>.<br><br>In this memory test phase, you will also see some new pictures.<br>It is your task to remember whether you were presented with this specific picture in this study so far or not.<br>If you recognize an object (you have already seen it in this study), it is an OLD object. <br>If you do not recognize an object (you have NOT seen it in this study), it is a NEW object. <br><strong> Attention</strong>: As already mentioned, <span style='color: darkorange; font-size:28px'>Ø</span>-pictures will <strong>never</strong> appear in this memory test (neither as new objects). <br><br>Press SPACE to continue. </div>","32","","","","","","","","","","","","","","","","","","","",""
"html-keyboard-response","100","379298","0.0-3.0-6.0","0skhk9pwaluu84b","instructions","5dd05d80b2204f1487f7812c","5f60e3c0a3b16e07647b2ff9","5f60ef50c998980116aa245e","false","20120","<div align=left> M and N no longer will appear on the left/right of the fixation cross. <br>Instead there will be a note at the bottom of the left or right side  <br>indicating which key you should press for an old or new object:  <br> <br>Press the <strong>right</strong> key to classify an object as <strong>old</strong> and press the <strong>left</strong>, to classify an object as <strong>new</strong>.<br>Please classify the objects as new/old by again placing your index finger on the 'S' and 'L' keys <br>and press them accordingly.<br><br><strong>Old:</strong> This object has been presented before. <br><strong>New:</strong> This object has <strong>not</strong> been presented.<br><br>Now please put your right and left index fingers on the 'S' and 'L' keys of your keyboard. <br>Please respond as fast and as accurately as possible!<br><br>Press SPACE to continue. </div>","32","","","","","","","","","","","","","","","","","","","",""
"categorize-image","101","382280","0.0-3.0-7.0-0.0","0skhk9pwaluu84b","practice_recog","5dd05d80b2204f1487f7812c","5f60e3c0a3b16e07647b2ff9","5f60ef50c998980116aa245e","true","2470","./Stimuli/ImagesPractice/SM98.jpg","83","","","","test","true","","83","","SM","SM98.jpg","","old","33","3","practice_recog","left","","","",""
"categorize-image","102","383901","0.0-3.0-7.0-0.1","0skhk9pwaluu84b","practice_recog","5dd05d80b2204f1487f7812c","5f60e3c0a3b16e07647b2ff9","5f60ef50c998980116aa245e","true","1104","./Stimuli/ImagesPractice/SN222.jpg","76","","","","test","true","","76","","SN","SN222.jpg","","new","34","3","practice_recog","right","","","",""
"categorize-image","103","385101","0.0-3.0-7.0-0.2","0skhk9pwaluu84b","practice_recog","5dd05d80b2204f1487f7812c","5f60e3c0a3b16e07647b2ff9","5f60ef50c998980116aa245e","true","693","./Stimuli/ImagesPractice/SM97.jpg","83","","","","test","true","","83","","SM","SM97.jpg","","old","35","3","practice_recog","left","","","",""
"categorize-image","104","386360","0.0-3.0-7.0-0.3","0skhk9pwaluu84b","practice_recog","5dd05d80b2204f1487f7812c","5f60e3c0a3b16e07647b2ff9","5f60ef50c998980116aa245e","true","750","./Stimuli/ImagesPractice/LM143.jpg","83","","","","test","true","","83","","LM","LM143.jpg","","old","36","3","practice_recog","left","","","",""
"categorize-image","105","387621","0.0-3.0-7.0-0.4","0skhk9pwaluu84b","practice_recog","5dd05d80b2204f1487f7812c","5f60e3c0a3b16e07647b2ff9","5f60ef50c998980116aa245e","true","753","./Stimuli/ImagesPractice/SM37.jpg","76","","","","test","true","","76","","SM","SM37.jpg","","new","37","3","practice_recog","right","","","",""
"categorize-image","106","389001","0.0-3.0-7.0-0.5","0skhk9pwaluu84b","practice_recog","5dd05d80b2204f1487f7812c","5f60e3c0a3b16e07647b2ff9","5f60ef50c998980116aa245e","true","861","./Stimuli/ImagesPractice/LM230.jpg","83","","","","test","true","","83","","LM","LM230.jpg","","old","38","3","practice_recog","left","","","",""
"categorize-image","107","390441","0.0-3.0-7.0-0.6","0skhk9pwaluu84b","practice_recog","5dd05d80b2204f1487f7812c","5f60e3c0a3b16e07647b2ff9","5f60ef50c998980116aa245e","true","938","./Stimuli/ImagesPractice/LM147.jpg","83","","","","test","true","","83","","LM","LM147.jpg","","old","39","3","practice_recog","left","","","",""
"categorize-image","108","391641","0.0-3.0-7.0-0.7","0skhk9pwaluu84b","practice_recog","5dd05d80b2204f1487f7812c","5f60e3c0a3b16e07647b2ff9","5f60ef50c998980116aa245e","true","690","./Stimuli/ImagesPractice/SN205.jpg","76","","","","test","true","","76","","SN","SN205.jpg","","new","40","3","practice_recog","right","","","",""
"categorize-image","109","392920","0.0-3.0-7.0-0.8","0skhk9pwaluu84b","practice_recog","5dd05d80b2204f1487f7812c","5f60e3c0a3b16e07647b2ff9","5f60ef50c998980116aa245e","true","778","./Stimuli/ImagesPractice/LN17.jpg","76","","","","test","true","","76","","LN","LN17.jpg","","new","41","3","practice_recog","right","","","",""
"categorize-image","110","394181","0.0-3.0-7.0-0.9","0skhk9pwaluu84b","practice_recog","5dd05d80b2204f1487f7812c","5f60e3c0a3b16e07647b2ff9","5f60ef50c998980116aa245e","true","754","./Stimuli/ImagesPractice/LN15.jpg","83","","","","test","true","","83","","LN","LN15.jpg","","old","42","3","practice_recog","left","","","",""
"categorize-image","111","395300","0.0-3.0-7.0-0.10","0skhk9pwaluu84b","practice_recog","5dd05d80b2204f1487f7812c","5f60e3c0a3b16e07647b2ff9","5f60ef50c998980116aa245e","true","606","./Stimuli/ImagesPractice/SN75.jpg","76","","","","test","true","","76","","SN","SN75.jpg","","new","43","3","practice_recog","right","","","",""
"categorize-image","112","396601","0.0-3.0-7.0-0.11","0skhk9pwaluu84b","practice_recog","5dd05d80b2204f1487f7812c","5f60e3c0a3b16e07647b2ff9","5f60ef50c998980116aa245e","true","797","./Stimuli/ImagesPractice/SN76.jpg","76","","","","test","true","","76","","SN","SN76.jpg","","new","44","3","practice_recog","right","","","",""
"categorize-image","113","397920","0.0-3.0-7.0-0.12","0skhk9pwaluu84b","practice_recog","5dd05d80b2204f1487f7812c","5f60e3c0a3b16e07647b2ff9","5f60ef50c998980116aa245e","true","810","./Stimuli/ImagesPractice/SM61.jpg","83","","","","test","true","","83","","SM","SM61.jpg","","old","45","3","practice_recog","left","","","",""
"categorize-image","114","399181","0.0-3.0-7.0-0.13","0skhk9pwaluu84b","practice_recog","5dd05d80b2204f1487f7812c","5f60e3c0a3b16e07647b2ff9","5f60ef50c998980116aa245e","true","747","./Stimuli/ImagesPractice/SN220.jpg","76","","","","test","true","","76","","SN","SN220.jpg","","new","46","3","practice_recog","right","","","",""
"categorize-image","115","400461","0.0-3.0-7.0-0.14","0skhk9pwaluu84b","practice_recog","5dd05d80b2204f1487f7812c","5f60e3c0a3b16e07647b2ff9","5f60ef50c998980116aa245e","true","776","./Stimuli/ImagesPractice/SN221.jpg","83","","","","test","true","","83","","SN","SN221.jpg","","old","47","3","practice_recog","left","","","",""
"categorize-image","116","401938","0.0-3.0-7.0-0.15","0skhk9pwaluu84b","practice_recog","5dd05d80b2204f1487f7812c","5f60e3c0a3b16e07647b2ff9","5f60ef50c998980116aa245e","true","975","./Stimuli/ImagesPractice/SM35.jpg","76","","","","test","true","","76","","SM","SM35.jpg","","new","48","3","practice_recog","right","","","",""
"html-keyboard-response","117","414639","0.0-3.0-8.0","0skhk9pwaluu84b","instructions","5dd05d80b2204f1487f7812c","5f60e3c0a3b16e07647b2ff9","5f60ef50c998980116aa245e","false","12699","<div align=left> Great!<br><br>Are you ready to continue?<br>If you want to reread the instructions and redo the practice trials, please <br>press „Z“.<br><br>You can proceed when you are ready.<br><br>After the presentation of each object, you will receive an instruction whether to <br>remember or to forget the object.<br>We will test your memory of the following pictures only at the very end of <br>the experiment after all learning blocks are completed. <br><br>Press SPACE to CONTINUE when you are ready. </div>","32","","","","","","","","","","","","","","","","","","","",""
"html-keyboard-response","118","424623","0.0-4.0-0.0","0skhk9pwaluu84b","instructions","5dd05d80b2204f1487f7812c","5f60e3c0a3b16e07647b2ff9","5f60ef50c998980116aa245e","false","9983","<div align=left> The actual experiment is about to start.<br>The practice trials are over!<br><br>Please always respond both fast and accurately!<br><br>Remember: <br> <br><li> Please place your index fingers on the <strong>'S'</strong> and <strong>'L'</strong> keys <br>to respond as fast and accurately as possible.</li><li> Every picture can be classified as either mechanical or non-mechanical.</li><li> If you do not respond in time or commit an error, you will receive a corresponding feedback.<br> Please try to respond as <strong> fast </strong> and as <strong> accurately as possible </strong>.</li><li> Remember the <span style='color: dodgerblue; font-size: 28px'>O</span> pictures. <br></li><li> Please minimize distractions and stay focused. </li><br><br>Press SPACE to START.</div>","32","","","","","","","","","","","","","","","","","","","",""
"html-keyboard-response","119","425341","0.0-4.0-1.0-0.0","0skhk9pwaluu84b","prime","5dd05d80b2204f1487f7812c","5f60e3c0a3b16e07647b2ff9","5f60ef50c998980116aa245e","false","null","<span style=""color: black; font-size: 48px"">N + M</span>","null","","","","resp_prompt","","","","","","","","","","","","","","","",""
"categorize-image","120","426809","0.0-4.0-1.0-1.0","0skhk9pwaluu84b","prime","5dd05d80b2204f1487f7812c","5f60e3c0a3b16e07647b2ff9","5f60ef50c998980116aa245e","true","1466","./Stimuli/SelectedImages/SM/SM148.bmp","76","","","","test","true","N + M","76","switch","SM","SM148.bmp","remember","","49","3","prime1","right","","","",""
"html-keyboard-response","121","428820","0.0-4.0-1.0-3.0","0skhk9pwaluu84b","prime","5dd05d80b2204f1487f7812c","5f60e3c0a3b16e07647b2ff9","5f60ef50c998980116aa245e","false","null","<div style=""align-items: center; display: flex; color: dodgerblue; font-size: 90px""><b>o</b></div>","null","","","","forget_cue","","","","","","","","","","","","","","","",""
"html-keyboard-response","122","429540","0.0-4.0-1.0-0.1","0skhk9pwaluu84b","prime","5dd05d80b2204f1487f7812c","5f60e3c0a3b16e07647b2ff9","5f60ef50c998980116aa245e","false","null","<span style=""color: black; font-size: 48px"">N + M</span>","null","","","","resp_prompt","","","","","","","","","","","","","","","",""
"categorize-image","123","430650","0.0-4.0-1.0-1.1","0skhk9pwaluu84b","prime","5dd05d80b2204f1487f7812c","5f60e3c0a3b16e07647b2ff9","5f60ef50c998980116aa245e","true","1106","./Stimuli/SelectedImages/SM/SM207.bmp","76","","","","test","true","N + M","76","repetition","SM","SM207.bmp","remember","","50","3","prime1","right","","","",""
"html-keyboard-response","124","432661","0.0-4.0-1.0-3.1","0skhk9pwaluu84b","prime","5dd05d80b2204f1487f7812c","5f60e3c0a3b16e07647b2ff9","5f60ef50c998980116aa245e","false","null","<div style=""align-items: center; display: flex; color: dodgerblue; font-size: 90px""><b>o</b></div>","null","","","","forget_cue","","","","","","","","","","","","","","","",""
"html-keyboard-response","125","433381","0.0-4.0-1.0-0.2","0skhk9pwaluu84b","prime","5dd05d80b2204f1487f7812c","5f60e3c0a3b16e07647b2ff9","5f60ef50c998980116aa245e","false","null","<span style=""color: black; font-size: 48px"">N + M</span>","null","","","","resp_prompt","","","","","","","","","","","","","","","",""
"categorize-image","126","434025","0.0-4.0-1.0-1.2","0skhk9pwaluu84b","prime","5dd05d80b2204f1487f7812c","5f60e3c0a3b16e07647b2ff9","5f60ef50c998980116aa245e","true","644","./Stimuli/SelectedImages/LN/LN12.bmp","83","","","","test","true","N + M","83","switch","LN","LN12.bmp","remember","","51","3","prime1","left","","","",""
"html-keyboard-response","127","436040","0.0-4.0-1.0-3.2","0skhk9pwaluu84b","prime","5dd05d80b2204f1487f7812c","5f60e3c0a3b16e07647b2ff9","5f60ef50c998980116aa245e","false","null","<div style=""align-items: center; display: flex; color: dodgerblue; font-size: 90px""><b>o</b></div>","null","","","","forget_cue","","","","","","","","","","","","","","","",""
"html-keyboard-response","128","436760","0.0-4.0-1.0-0.3","0skhk9pwaluu84b","prime","5dd05d80b2204f1487f7812c","5f60e3c0a3b16e07647b2ff9","5f60ef50c998980116aa245e","false","null","<span style=""color: black; font-size: 48px"">M + N</span>","null","","","","resp_prompt","","","","","","","","","","","","","","","",""
"categorize-image","129","437906","0.0-4.0-1.0-1.3","0skhk9pwaluu84b","prime","5dd05d80b2204f1487f7812c","5f60e3c0a3b16e07647b2ff9","5f60ef50c998980116aa245e","true","1143","./Stimuli/SelectedImages/LN/LN59.bmp","76","","","","test","true","M + N","76","repetition","LN","LN59.bmp","forget","","52","3","prime1","right","","","",""
"html-keyboard-response","130","439921","0.0-4.0-1.0-3.3","0skhk9pwaluu84b","prime","5dd05d80b2204f1487f7812c","5f60e3c0a3b16e07647b2ff9","5f60ef50c998980116aa245e","false","null","<div style=""align-items: center; display: flex; color: darkorange; font-size: 90px""><b>ø</b></div>","null","","","","forget_cue","","","","","","","","","","","","","","","",""
"html-keyboard-response","131","440640","0.0-4.0-1.0-0.4","0skhk9pwaluu84b","prime","5dd05d80b2204f1487f7812c","5f60e3c0a3b16e07647b2ff9","5f60ef50c998980116aa245e","false","null","<span style=""color: black; font-size: 48px"">M + N</span>","null","","","","resp_prompt","","","","","","","","","","","","","","","",""
"categorize-image","132","441675","0.0-4.0-1.0-1.4","0skhk9pwaluu84b","prime","5dd05d80b2204f1487f7812c","5f60e3c0a3b16e07647b2ff9","5f60ef50c998980116aa245e","true","1032","./Stimuli/SelectedImages/LM/LM48.bmp","83","","","","test","true","M + N","83","switch","LM","LM48.bmp","forget","","53","3","prime1","left","","","",""
"html-keyboard-response","133","443680","0.0-4.0-1.0-3.4","0skhk9pwaluu84b","prime","5dd05d80b2204f1487f7812c","5f60e3c0a3b16e07647b2ff9","5f60ef50c998980116aa245e","false","null","<div style=""align-items: center; display: flex; color: darkorange; font-size: 90px""><b>ø</b></div>","null","","","","forget_cue","","","","","","","","","","","","","","","",""
"html-keyboard-response","134","444400","0.0-4.0-1.0-0.5","0skhk9pwaluu84b","prime","5dd05d80b2204f1487f7812c","5f60e3c0a3b16e07647b2ff9","5f60ef50c998980116aa245e","false","null","<span style=""color: black; font-size: 48px"">N + M</span>","null","","","","resp_prompt","","","","","","","","","","","","","","","",""
"categorize-image","135","445331","0.0-4.0-1.0-1.5","0skhk9pwaluu84b","prime","5dd05d80b2204f1487f7812c","5f60e3c0a3b16e07647b2ff9","5f60ef50c998980116aa245e","true","929","./Stimuli/SelectedImages/LM/LM167.bmp","76","","","","test","true","N + M","76","switch","LM","LM167.bmp","forget","","54","3","prime1","right","","","",""
"html-keyboard-response","136","447340","0.0-4.0-1.0-3.5","0skhk9pwaluu84b","prime","5dd05d80b2204f1487f7812c","5f60e3c0a3b16e07647b2ff9","5f60ef50c998980116aa245e","false","null","<div style=""align-items: center; display: flex; color: darkorange; font-size: 90px""><b>ø</b></div>","null","","","","forget_cue","","","","","","","","","","","","","","","",""
"html-keyboard-response","137","448060","0.0-4.0-1.0-0.6","0skhk9pwaluu84b","prime","5dd05d80b2204f1487f7812c","5f60e3c0a3b16e07647b2ff9","5f60ef50c998980116aa245e","false","null","<span style=""color: black; font-size: 48px"">M + N</span>","null","","","","resp_prompt","","","","","","","","","","","","","","","",""
"categorize-image","138","448812","0.0-4.0-1.0-1.6","0skhk9pwaluu84b","prime","5dd05d80b2204f1487f7812c","5f60e3c0a3b16e07647b2ff9","5f60ef50c998980116aa245e","true","748","./Stimuli/SelectedImages/LM/LM209.bmp","83","","","","test","true","M + N","83","switch","LM","LM209.bmp","forget","","55","3","prime1","left","","","",""
"html-keyboard-response","139","450821","0.0-4.0-1.0-3.6","0skhk9pwaluu84b","prime","5dd05d80b2204f1487f7812c","5f60e3c0a3b16e07647b2ff9","5f60ef50c998980116aa245e","false","null","<div style=""align-items: center; display: flex; color: darkorange; font-size: 90px""><b>ø</b></div>","null","","","","forget_cue","","","","","","","","","","","","","","","",""
"html-keyboard-response","140","451541","0.0-4.0-1.0-0.7","0skhk9pwaluu84b","prime","5dd05d80b2204f1487f7812c","5f60e3c0a3b16e07647b2ff9","5f60ef50c998980116aa245e","false","null","<span style=""color: black; font-size: 48px"">N + M</span>","null","","","","resp_prompt","","","","","","","","","","","","","","","",""
"categorize-image","141","452644","0.0-4.0-1.0-1.7","0skhk9pwaluu84b","prime","5dd05d80b2204f1487f7812c","5f60e3c0a3b16e07647b2ff9","5f60ef50c998980116aa245e","true","1102","./Stimuli/SelectedImages/SN/SN128.bmp","83","","","","test","true","N + M","83","switch","SN","SN128.bmp","forget","","56","3","prime1","left","","","",""
"html-keyboard-response","142","454661","0.0-4.0-1.0-3.7","0skhk9pwaluu84b","prime","5dd05d80b2204f1487f7812c","5f60e3c0a3b16e07647b2ff9","5f60ef50c998980116aa245e","false","null","<div style=""align-items: center; display: flex; color: darkorange; font-size: 90px""><b>ø</b></div>","null","","","","forget_cue","","","","","","","","","","","","","","","",""
"html-keyboard-response","143","455381","0.0-4.0-1.0-0.8","0skhk9pwaluu84b","prime","5dd05d80b2204f1487f7812c","5f60e3c0a3b16e07647b2ff9","5f60ef50c998980116aa245e","false","null","<span style=""color: black; font-size: 48px"">N + M</span>","null","","","","resp_prompt","","","","","","","","","","","","","","","",""
"categorize-image","144","456061","0.0-4.0-1.0-1.8","0skhk9pwaluu84b","prime","5dd05d80b2204f1487f7812c","5f60e3c0a3b16e07647b2ff9","5f60ef50c998980116aa245e","true","678","./Stimuli/SelectedImages/LM/LM150.bmp","76","","","","test","true","N + M","76","switch","LM","LM150.bmp","remember","","57","3","prime1","right","","","",""
"html-keyboard-response","145","458080","0.0-4.0-1.0-3.8","0skhk9pwaluu84b","prime","5dd05d80b2204f1487f7812c","5f60e3c0a3b16e07647b2ff9","5f60ef50c998980116aa245e","false","null","<div style=""align-items: center; display: flex; color: dodgerblue; font-size: 90px""><b>o</b></div>","null","","","","forget_cue","","","","","","","","","","","","","","","",""
"html-keyboard-response","146","458801","0.0-4.0-1.0-0.9","0skhk9pwaluu84b","prime","5dd05d80b2204f1487f7812c","5f60e3c0a3b16e07647b2ff9","5f60ef50c998980116aa245e","false","null","<span style=""color: black; font-size: 48px"">M + N</span>","null","","","","resp_prompt","","","","","","","","","","","","","","","",""
"categorize-image","147","460005","0.0-4.0-1.0-1.9","0skhk9pwaluu84b","prime","5dd05d80b2204f1487f7812c","5f60e3c0a3b16e07647b2ff9","5f60ef50c998980116aa245e","true","1203","./Stimuli/SelectedImages/LM/LM103.bmp","83","","","","test","true","M + N","83","repetition","LM","LM103.bmp","forget","","58","3","prime1","left","","","",""
"html-keyboard-response","148","462021","0.0-4.0-1.0-3.9","0skhk9pwaluu84b","prime","5dd05d80b2204f1487f7812c","5f60e3c0a3b16e07647b2ff9","5f60ef50c998980116aa245e","false","null","<div style=""align-items: center; display: flex; color: darkorange; font-size: 90px""><b>ø</b></div>","null","","","","forget_cue","","","","","","","","","","","","","","","",""
"html-keyboard-response","149","462741","0.0-4.0-1.0-0.10","0skhk9pwaluu84b","prime","5dd05d80b2204f1487f7812c","5f60e3c0a3b16e07647b2ff9","5f60ef50c998980116aa245e","false","null","<span style=""color: black; font-size: 48px"">N + M</span>","null","","","","resp_prompt","","","","","","","","","","","","","","","",""
"categorize-image","150","463518","0.0-4.0-1.0-1.10","0skhk9pwaluu84b","prime","5dd05d80b2204f1487f7812c","5f60e3c0a3b16e07647b2ff9","5f60ef50c998980116aa245e","true","774","./Stimuli/SelectedImages/LN/LN101.bmp","83","","","","test","true","N + M","83","switch","LN","LN101.bmp","remember","","59","3","prime1","left","","","",""
"html-keyboard-response","151","465531","0.0-4.0-1.0-3.10","0skhk9pwaluu84b","prime","5dd05d80b2204f1487f7812c","5f60e3c0a3b16e07647b2ff9","5f60ef50c998980116aa245e","false","null","<div style=""align-items: center; display: flex; color: dodgerblue; font-size: 90px""><b>o</b></div>","null","","","","forget_cue","","","","","","","","","","","","","","","",""
"html-keyboard-response","152","466251","0.0-4.0-1.0-0.11","0skhk9pwaluu84b","prime","5dd05d80b2204f1487f7812c","5f60e3c0a3b16e07647b2ff9","5f60ef50c998980116aa245e","false","null","<span style=""color: black; font-size: 48px"">M + N</span>","null","","","","resp_prompt","","","","","","","","","","","","","","","",""
"categorize-image","153","467134","0.0-4.0-1.0-1.11","0skhk9pwaluu84b","prime","5dd05d80b2204f1487f7812c","5f60e3c0a3b16e07647b2ff9","5f60ef50c998980116aa245e","true","881","./Stimuli/SelectedImages/LM/LM58.bmp","76","","","","test","false","M + N","83","repetition","LM","LM58.bmp","forget","","60","3","prime1","right","","","",""
"html-keyboard-response","154","467651","0.0-4.0-1.0-2.11-0.11","0skhk9pwaluu84b","prime","5dd05d80b2204f1487f7812c","5f60e3c0a3b16e07647b2ff9","5f60ef50c998980116aa245e","false","null","<span style=""color: red; font-size: 48px"">Error!</span>","null","","","","feedback","","","","","","","","","","","","","","","",""
"html-keyboard-response","155","469671","0.0-4.0-1.0-3.11","0skhk9pwaluu84b","prime","5dd05d80b2204f1487f7812c","5f60e3c0a3b16e07647b2ff9","5f60ef50c998980116aa245e","false","null","<div style=""align-items: center; display: flex; color: darkorange; font-size: 90px""><b>ø</b></div>","null","","","","forget_cue","","","","","","","","","","","","","","","",""
"html-keyboard-response","156","470391","0.0-4.0-1.0-0.12","0skhk9pwaluu84b","prime","5dd05d80b2204f1487f7812c","5f60e3c0a3b16e07647b2ff9","5f60ef50c998980116aa245e","false","null","<span style=""color: black; font-size: 48px"">M + N</span>","null","","","","resp_prompt","","","","","","","","","","","","","","","",""
"categorize-image","157","471469","0.0-4.0-1.0-1.12","0skhk9pwaluu84b","prime","5dd05d80b2204f1487f7812c","5f60e3c0a3b16e07647b2ff9","5f60ef50c998980116aa245e","true","1077","./Stimuli/SelectedImages/LN/LN166.bmp","76","","","","test","true","M + N","76","repetition","LN","LN166.bmp","forget","","61","3","prime1","right","","","",""
"html-keyboard-response","158","473471","0.0-4.0-1.0-3.12","0skhk9pwaluu84b","prime","5dd05d80b2204f1487f7812c","5f60e3c0a3b16e07647b2ff9","5f60ef50c998980116aa245e","false","null","<div style=""align-items: center; display: flex; color: darkorange; font-size: 90px""><b>ø</b></div>","null","","","","forget_cue","","","","","","","","","","","","","","","",""
"html-keyboard-response","159","474191","0.0-4.0-1.0-0.13","0skhk9pwaluu84b","prime","5dd05d80b2204f1487f7812c","5f60e3c0a3b16e07647b2ff9","5f60ef50c998980116aa245e","false","null","<span style=""color: black; font-size: 48px"">M + N</span>","null","","","","resp_prompt","","","","","","","","","","","","","","","",""
"categorize-image","160","474895","0.0-4.0-1.0-1.13","0skhk9pwaluu84b","prime","5dd05d80b2204f1487f7812c","5f60e3c0a3b16e07647b2ff9","5f60ef50c998980116aa245e","true","700","./Stimuli/SelectedImages/LM/LM157.bmp","83","","","","test","true","M + N","83","repetition","LM","LM157.bmp","remember","","62","3","prime1","left","","","",""
"html-keyboard-response","161","476911","0.0-4.0-1.0-3.13","0skhk9pwaluu84b","prime","5dd05d80b2204f1487f7812c","5f60e3c0a3b16e07647b2ff9","5f60ef50c998980116aa245e","false","null","<div style=""align-items: center; display: flex; color: dodgerblue; font-size: 90px""><b>o</b></div>","null","","","","forget_cue","","","","","","","","","","","","","","","",""
"html-keyboard-response","162","477631","0.0-4.0-1.0-0.14","0skhk9pwaluu84b","prime","5dd05d80b2204f1487f7812c","5f60e3c0a3b16e07647b2ff9","5f60ef50c998980116aa245e","false","null","<span style=""color: black; font-size: 48px"">M + N</span>","null","","","","resp_prompt","","","","","","","","","","","","","","","",""
"categorize-image","163","478215","0.0-4.0-1.0-1.14","0skhk9pwaluu84b","prime","5dd05d80b2204f1487f7812c","5f60e3c0a3b16e07647b2ff9","5f60ef50c998980116aa245e","true","581","./Stimuli/SelectedImages/SM/SM213.bmp","83","","","","test","true","M + N","83","repetition","SM","SM213.bmp","forget","","63","3","prime1","left","","","",""
"html-keyboard-response","164","480230","0.0-4.0-1.0-3.14","0skhk9pwaluu84b","prime","5dd05d80b2204f1487f7812c","5f60e3c0a3b16e07647b2ff9","5f60ef50c998980116aa245e","false","null","<div style=""align-items: center; display: flex; color: darkorange; font-size: 90px""><b>ø</b></div>","null","","","","forget_cue","","","","","","","","","","","","","","","",""
"html-keyboard-response","165","480951","0.0-4.0-1.0-0.15","0skhk9pwaluu84b","prime","5dd05d80b2204f1487f7812c","5f60e3c0a3b16e07647b2ff9","5f60ef50c998980116aa245e","false","null","<span style=""color: black; font-size: 48px"">N + M</span>","null","","","","resp_prompt","","","","","","","","","","","","","","","",""
"categorize-image","166","481935","0.0-4.0-1.0-1.15","0skhk9pwaluu84b","prime","5dd05d80b2204f1487f7812c","5f60e3c0a3b16e07647b2ff9","5f60ef50c998980116aa245e","true","982","./Stimuli/SelectedImages/LM/LM59.bmp","76","","","","test","true","N + M","76","repetition","LM","LM59.bmp","remember","","64","3","prime1","right","","","",""
"html-keyboard-response","167","483951","0.0-4.0-1.0-3.15","0skhk9pwaluu84b","prime","5dd05d80b2204f1487f7812c","5f60e3c0a3b16e07647b2ff9","5f60ef50c998980116aa245e","false","null","<div style=""align-items: center; display: flex; color: dodgerblue; font-size: 90px""><b>o</b></div>","null","","","","forget_cue","","","","","","","","","","","","","","","",""
"html-keyboard-response","168","484671","0.0-4.0-1.0-0.16","0skhk9pwaluu84b","prime","5dd05d80b2204f1487f7812c","5f60e3c0a3b16e07647b2ff9","5f60ef50c998980116aa245e","false","null","<span style=""color: black; font-size: 48px"">N + M</span>","null","","","","resp_prompt","","","","","","","","","","","","","","","",""
"categorize-image","169","485360","0.0-4.0-1.0-1.16","0skhk9pwaluu84b","prime","5dd05d80b2204f1487f7812c","5f60e3c0a3b16e07647b2ff9","5f60ef50c998980116aa245e","true","687","./Stimuli/SelectedImages/LN/LN131.bmp","83","","","","test","true","N + M","83","switch","LN","LN131.bmp","forget","","65","3","prime1","left","","","",""
"html-keyboard-response","170","487371","0.0-4.0-1.0-3.16","0skhk9pwaluu84b","prime","5dd05d80b2204f1487f7812c","5f60e3c0a3b16e07647b2ff9","5f60ef50c998980116aa245e","false","null","<div style=""align-items: center; display: flex; color: darkorange; font-size: 90px""><b>ø</b></div>","null","","","","forget_cue","","","","","","","","","","","","","","","",""
"html-keyboard-response","171","488081","0.0-4.0-1.0-0.17","0skhk9pwaluu84b","prime","5dd05d80b2204f1487f7812c","5f60e3c0a3b16e07647b2ff9","5f60ef50c998980116aa245e","false","null","<span style=""color: black; font-size: 48px"">N + M</span>","null","","","","resp_prompt","","","","","","","","","","","","","","","",""
"categorize-image","172","488808","0.0-4.0-1.0-1.17","0skhk9pwaluu84b","prime","5dd05d80b2204f1487f7812c","5f60e3c0a3b16e07647b2ff9","5f60ef50c998980116aa245e","true","725","./Stimuli/SelectedImages/SM/SM17.bmp","76","","","","test","true","N + M","76","repetition","SM","SM17.bmp","forget","","66","3","prime1","right","","","",""
"html-keyboard-response","173","490820","0.0-4.0-1.0-3.17","0skhk9pwaluu84b","prime","5dd05d80b2204f1487f7812c","5f60e3c0a3b16e07647b2ff9","5f60ef50c998980116aa245e","false","null","<div style=""align-items: center; display: flex; color: darkorange; font-size: 90px""><b>ø</b></div>","null","","","","forget_cue","","","","","","","","","","","","","","","",""
"html-keyboard-response","174","491540","0.0-4.0-1.0-0.18","0skhk9pwaluu84b","prime","5dd05d80b2204f1487f7812c","5f60e3c0a3b16e07647b2ff9","5f60ef50c998980116aa245e","false","null","<span style=""color: black; font-size: 48px"">N + M</span>","null","","","","resp_prompt","","","","","","","","","","","","","","","",""
"categorize-image","175","492176","0.0-4.0-1.0-1.18","0skhk9pwaluu84b","prime","5dd05d80b2204f1487f7812c","5f60e3c0a3b16e07647b2ff9","5f60ef50c998980116aa245e","true","634","./Stimuli/SelectedImages/LN/LN92.bmp","83","","","","test","true","N + M","83","repetition","LN","LN92.bmp","forget","","67","3","prime1","left","","","",""
"html-keyboard-response","176","494181","0.0-4.0-1.0-3.18","0skhk9pwaluu84b","prime","5dd05d80b2204f1487f7812c","5f60e3c0a3b16e07647b2ff9","5f60ef50c998980116aa245e","false","null","<div style=""align-items: center; display: flex; color: darkorange; font-size: 90px""><b>ø</b></div>","null","","","","forget_cue","","","","","","","","","","","","","","","",""
"html-keyboard-response","177","494901","0.0-4.0-1.0-0.19","0skhk9pwaluu84b","prime","5dd05d80b2204f1487f7812c","5f60e3c0a3b16e07647b2ff9","5f60ef50c998980116aa245e","false","null","<span style=""color: black; font-size: 48px"">N + M</span>","null","","","","resp_prompt","","","","","","","","","","","","","","","",""
"categorize-image","178","495609","0.0-4.0-1.0-1.19","0skhk9pwaluu84b","prime","5dd05d80b2204f1487f7812c","5f60e3c0a3b16e07647b2ff9","5f60ef50c998980116aa245e","true","705","./Stimuli/SelectedImages/SM/SM108.bmp","76","","","","test","true","N + M","76","repetition","SM","SM108.bmp","forget","","68","3","prime1","right","","","",""
"html-keyboard-response","179","497619","0.0-4.0-1.0-3.19","0skhk9pwaluu84b","prime","5dd05d80b2204f1487f7812c","5f60e3c0a3b16e07647b2ff9","5f60ef50c998980116aa245e","false","null","<div style=""align-items: center; display: flex; color: darkorange; font-size: 90px""><b>ø</b></div>","null","","","","forget_cue","","","","","","","","","","","","","","","",""
"html-keyboard-response","180","498320","0.0-4.0-1.0-0.20","0skhk9pwaluu84b","prime","5dd05d80b2204f1487f7812c","5f60e3c0a3b16e07647b2ff9","5f60ef50c998980116aa245e","false","null","<span style=""color: black; font-size: 48px"">N + M</span>","null","","","","resp_prompt","","","","","","","","","","","","","","","",""
"categorize-image","181","499033","0.0-4.0-1.0-1.20","0skhk9pwaluu84b","prime","5dd05d80b2204f1487f7812c","5f60e3c0a3b16e07647b2ff9","5f60ef50c998980116aa245e","true","710","./Stimuli/SelectedImages/SN/SN60.bmp","83","","","","test","true","N + M","83","repetition","SN","SN60.bmp","remember","","69","3","prime1","left","","","",""
"html-keyboard-response","182","501041","0.0-4.0-1.0-3.20","0skhk9pwaluu84b","prime","5dd05d80b2204f1487f7812c","5f60e3c0a3b16e07647b2ff9","5f60ef50c998980116aa245e","false","null","<div style=""align-items: center; display: flex; color: dodgerblue; font-size: 90px""><b>o</b></div>","null","","","","forget_cue","","","","","","","","","","","","","","","",""
"html-keyboard-response","183","501761","0.0-4.0-1.0-0.21","0skhk9pwaluu84b","prime","5dd05d80b2204f1487f7812c","5f60e3c0a3b16e07647b2ff9","5f60ef50c998980116aa245e","false","null","<span style=""color: black; font-size: 48px"">N + M</span>","null","","","","resp_prompt","","","","","","","","","","","","","","","",""
"categorize-image","184","502722","0.0-4.0-1.0-1.21","0skhk9pwaluu84b","prime","5dd05d80b2204f1487f7812c","5f60e3c0a3b16e07647b2ff9","5f60ef50c998980116aa245e","true","959","./Stimuli/SelectedImages/SN/SN179.bmp","83","","","","test","true","N + M","83","repetition","SN","SN179.bmp","forget","","70","3","prime1","left","","","",""
"html-keyboard-response","185","504740","0.0-4.0-1.0-3.21","0skhk9pwaluu84b","prime","5dd05d80b2204f1487f7812c","5f60e3c0a3b16e07647b2ff9","5f60ef50c998980116aa245e","false","null","<div style=""align-items: center; display: flex; color: darkorange; font-size: 90px""><b>ø</b></div>","null","","","","forget_cue","","","","","","","","","","","","","","","",""
"html-keyboard-response","186","505461","0.0-4.0-1.0-0.22","0skhk9pwaluu84b","prime","5dd05d80b2204f1487f7812c","5f60e3c0a3b16e07647b2ff9","5f60ef50c998980116aa245e","false","null","<span style=""color: black; font-size: 48px"">N + M</span>","null","","","","resp_prompt","","","","","","","","","","","","","","","",""
"categorize-image","187","506059","0.0-4.0-1.0-1.22","0skhk9pwaluu84b","prime","5dd05d80b2204f1487f7812c","5f60e3c0a3b16e07647b2ff9","5f60ef50c998980116aa245e","true","594","./Stimuli/SelectedImages/LM/LM51.bmp","76","","","","test","true","N + M","76","repetition","LM","LM51.bmp","forget","","71","3","prime1","right","","","",""
"html-keyboard-response","188","508061","0.0-4.0-1.0-3.22","0skhk9pwaluu84b","prime","5dd05d80b2204f1487f7812c","5f60e3c0a3b16e07647b2ff9","5f60ef50c998980116aa245e","false","null","<div style=""align-items: center; display: flex; color: darkorange; font-size: 90px""><b>ø</b></div>","null","","","","forget_cue","","","","","","","","","","","","","","","",""
"html-keyboard-response","189","508780","0.0-4.0-1.0-0.23","0skhk9pwaluu84b","prime","5dd05d80b2204f1487f7812c","5f60e3c0a3b16e07647b2ff9","5f60ef50c998980116aa245e","false","null","<span style=""color: black; font-size: 48px"">M + N</span>","null","","","","resp_prompt","","","","","","","","","","","","","","","",""
"categorize-image","190","509883","0.0-4.0-1.0-1.23","0skhk9pwaluu84b","prime","5dd05d80b2204f1487f7812c","5f60e3c0a3b16e07647b2ff9","5f60ef50c998980116aa245e","true","1099","./Stimuli/SelectedImages/LN/LN82.bmp","76","","","","test","true","M + N","76","switch","LN","LN82.bmp","remember","","72","3","prime1","right","","","",""
"html-keyboard-response","191","511901","0.0-4.0-1.0-3.23","0skhk9pwaluu84b","prime","5dd05d80b2204f1487f7812c","5f60e3c0a3b16e07647b2ff9","5f60ef50c998980116aa245e","false","null","<div style=""align-items: center; display: flex; color: dodgerblue; font-size: 90px""><b>o</b></div>","null","","","","forget_cue","","","","","","","","","","","","","","","",""
"html-keyboard-response","192","512621","0.0-4.0-1.0-0.24","0skhk9pwaluu84b","prime","5dd05d80b2204f1487f7812c","5f60e3c0a3b16e07647b2ff9","5f60ef50c998980116aa245e","false","null","<span style=""color: black; font-size: 48px"">M + N</span>","null","","","","resp_prompt","","","","","","","","","","","","","","","",""
"categorize-image","193","513772","0.0-4.0-1.0-1.24","0skhk9pwaluu84b","prime","5dd05d80b2204f1487f7812c","5f60e3c0a3b16e07647b2ff9","5f60ef50c998980116aa245e","true","1148","./Stimuli/SelectedImages/SM/SM74.bmp","83","","","","test","true","M + N","83","switch","SM","SM74.bmp","remember","","73","3","prime1","left","","","",""
"html-keyboard-response","194","515781","0.0-4.0-1.0-3.24","0skhk9pwaluu84b","prime","5dd05d80b2204f1487f7812c","5f60e3c0a3b16e07647b2ff9","5f60ef50c998980116aa245e","false","null","<div style=""align-items: center; display: flex; color: dodgerblue; font-size: 90px""><b>o</b></div>","null","","","","forget_cue","","","","","","","","","","","","","","","",""
"html-keyboard-response","195","516501","0.0-4.0-1.0-0.25","0skhk9pwaluu84b","prime","5dd05d80b2204f1487f7812c","5f60e3c0a3b16e07647b2ff9","5f60ef50c998980116aa245e","false","null","<span style=""color: black; font-size: 48px"">M + N</span>","null","","","","resp_prompt","","","","","","","","","","","","","","","",""
"categorize-image","196","517284","0.0-4.0-1.0-1.25","0skhk9pwaluu84b","prime","5dd05d80b2204f1487f7812c","5f60e3c0a3b16e07647b2ff9","5f60ef50c998980116aa245e","true","780","./Stimuli/SelectedImages/SN/SN49.bmp","76","","","","test","true","M + N","76","repetition","SN","SN49.bmp","forget","","74","3","prime1","right","","","",""
"html-keyboard-response","197","519301","0.0-4.0-1.0-3.25","0skhk9pwaluu84b","prime","5dd05d80b2204f1487f7812c","5f60e3c0a3b16e07647b2ff9","5f60ef50c998980116aa245e","false","null","<div style=""align-items: center; display: flex; color: darkorange; font-size: 90px""><b>ø</b></div>","null","","","","forget_cue","","","","","","","","","","","","","","","",""
"html-keyboard-response","198","520020","0.0-4.0-1.0-0.26","0skhk9pwaluu84b","prime","5dd05d80b2204f1487f7812c","5f60e3c0a3b16e07647b2ff9","5f60ef50c998980116aa245e","false","null","<span style=""color: black; font-size: 48px"">M + N</span>","null","","","","resp_prompt","","","","","","","","","","","","","","","",""
"categorize-image","199","520644","0.0-4.0-1.0-1.26","0skhk9pwaluu84b","prime","5dd05d80b2204f1487f7812c","5f60e3c0a3b16e07647b2ff9","5f60ef50c998980116aa245e","true","620","./Stimuli/SelectedImages/LM/LM179.bmp","83","","","","test","true","M + N","83","switch","LM","LM179.bmp","remember","","75","3","prime1","left","","","",""
"html-keyboard-response","200","522661","0.0-4.0-1.0-3.26","0skhk9pwaluu84b","prime","5dd05d80b2204f1487f7812c","5f60e3c0a3b16e07647b2ff9","5f60ef50c998980116aa245e","false","null","<div style=""align-items: center; display: flex; color: dodgerblue; font-size: 90px""><b>o</b></div>","null","","","","forget_cue","","","","","","","","","","","","","","","",""
"html-keyboard-response","201","523380","0.0-4.0-1.0-0.27","0skhk9pwaluu84b","prime","5dd05d80b2204f1487f7812c","5f60e3c0a3b16e07647b2ff9","5f60ef50c998980116aa245e","false","null","<span style=""color: black; font-size: 48px"">M + N</span>","null","","","","resp_prompt","","","","","","","","","","","","","","","",""
"categorize-image","202","523980","0.0-4.0-1.0-1.27","0skhk9pwaluu84b","prime","5dd05d80b2204f1487f7812c","5f60e3c0a3b16e07647b2ff9","5f60ef50c998980116aa245e","true","598","./Stimuli/SelectedImages/LM/LM75.bmp","83","","","","test","true","M + N","83","switch","LM","LM75.bmp","remember","","76","3","prime1","left","","","",""
"html-keyboard-response","203","526001","0.0-4.0-1.0-3.27","0skhk9pwaluu84b","prime","5dd05d80b2204f1487f7812c","5f60e3c0a3b16e07647b2ff9","5f60ef50c998980116aa245e","false","null","<div style=""align-items: center; display: flex; color: dodgerblue; font-size: 90px""><b>o</b></div>","null","","","","forget_cue","","","","","","","","","","","","","","","",""
"html-keyboard-response","204","526721","0.0-4.0-1.0-0.28","0skhk9pwaluu84b","prime","5dd05d80b2204f1487f7812c","5f60e3c0a3b16e07647b2ff9","5f60ef50c998980116aa245e","false","null","<span style=""color: black; font-size: 48px"">N + M</span>","null","","","","resp_prompt","","","","","","","","","","","","","","","",""
"categorize-image","205","527677","0.0-4.0-1.0-1.28","0skhk9pwaluu84b","prime","5dd05d80b2204f1487f7812c","5f60e3c0a3b16e07647b2ff9","5f60ef50c998980116aa245e","true","953","./Stimuli/SelectedImages/SN/SN182.bmp","83","","","","test","true","N + M","83","switch","SN","SN182.bmp","remember","","77","3","prime1","left","","","",""
"html-keyboard-response","206","529691","0.0-4.0-1.0-3.28","0skhk9pwaluu84b","prime","5dd05d80b2204f1487f7812c","5f60e3c0a3b16e07647b2ff9","5f60ef50c998980116aa245e","false","null","<div style=""align-items: center; display: flex; color: dodgerblue; font-size: 90px""><b>o</b></div>","null","","","","forget_cue","","","","","","","","","","","","","","","",""
"html-keyboard-response","207","530411","0.0-4.0-1.0-0.29","0skhk9pwaluu84b","prime","5dd05d80b2204f1487f7812c","5f60e3c0a3b16e07647b2ff9","5f60ef50c998980116aa245e","false","null","<span style=""color: black; font-size: 48px"">N + M</span>","null","","","","resp_prompt","","","","","","","","","","","","","","","",""
"categorize-image","208","531396","0.0-4.0-1.0-1.29","0skhk9pwaluu84b","prime","5dd05d80b2204f1487f7812c","5f60e3c0a3b16e07647b2ff9","5f60ef50c998980116aa245e","true","984","./Stimuli/SelectedImages/LN/LN111.bmp","83","","","","test","true","N + M","83","repetition","LN","LN111.bmp","forget","","78","3","prime1","left","","","",""
"html-keyboard-response","209","533411","0.0-4.0-1.0-3.29","0skhk9pwaluu84b","prime","5dd05d80b2204f1487f7812c","5f60e3c0a3b16e07647b2ff9","5f60ef50c998980116aa245e","false","null","<div style=""align-items: center; display: flex; color: darkorange; font-size: 90px""><b>ø</b></div>","null","","","","forget_cue","","","","","","","","","","","","","","","",""
"html-keyboard-response","210","534131","0.0-4.0-1.0-0.30","0skhk9pwaluu84b","prime","5dd05d80b2204f1487f7812c","5f60e3c0a3b16e07647b2ff9","5f60ef50c998980116aa245e","false","null","<span style=""color: black; font-size: 48px"">N + M</span>","null","","","","resp_prompt","","","","","","","","","","","","","","","",""
"categorize-image","211","534862","0.0-4.0-1.0-1.30","0skhk9pwaluu84b","prime","5dd05d80b2204f1487f7812c","5f60e3c0a3b16e07647b2ff9","5f60ef50c998980116aa245e","true","729","./Stimuli/SelectedImages/SN/SN64.bmp","83","","","","test","true","N + M","83","switch","SN","SN64.bmp","remember","","79","3","prime1","left","","","",""
"html-keyboard-response","212","536881","0.0-4.0-1.0-3.30","0skhk9pwaluu84b","prime","5dd05d80b2204f1487f7812c","5f60e3c0a3b16e07647b2ff9","5f60ef50c998980116aa245e","false","null","<div style=""align-items: center; display: flex; color: dodgerblue; font-size: 90px""><b>o</b></div>","null","","","","forget_cue","","","","","","","","","","","","","","","",""
"html-keyboard-response","213","537601","0.0-4.0-1.0-0.31","0skhk9pwaluu84b","prime","5dd05d80b2204f1487f7812c","5f60e3c0a3b16e07647b2ff9","5f60ef50c998980116aa245e","false","null","<span style=""color: black; font-size: 48px"">M + N</span>","null","","","","resp_prompt","","","","","","","","","","","","","","","",""
"categorize-image","214","538846","0.0-4.0-1.0-1.31","0skhk9pwaluu84b","prime","5dd05d80b2204f1487f7812c","5f60e3c0a3b16e07647b2ff9","5f60ef50c998980116aa245e","true","1243","./Stimuli/SelectedImages/SM/SM195.bmp","83","","","","test","true","M + N","83","repetition","SM","SM195.bmp","remember","","80","3","prime1","left","","","",""
"html-keyboard-response","215","540860","0.0-4.0-1.0-3.31","0skhk9pwaluu84b","prime","5dd05d80b2204f1487f7812c","5f60e3c0a3b16e07647b2ff9","5f60ef50c998980116aa245e","false","null","<div style=""align-items: center; display: flex; color: dodgerblue; font-size: 90px""><b>o</b></div>","null","","","","forget_cue","","","","","","","","","","","","","","","",""
"html-keyboard-response","216","541580","0.0-4.0-1.0-0.32","0skhk9pwaluu84b","prime","5dd05d80b2204f1487f7812c","5f60e3c0a3b16e07647b2ff9","5f60ef50c998980116aa245e","false","null","<span style=""color: black; font-size: 48px"">M + N</span>","null","","","","resp_prompt","","","","","","","","","","","","","","","",""
"categorize-image","217","542286","0.0-4.0-1.0-1.32","0skhk9pwaluu84b","prime","5dd05d80b2204f1487f7812c","5f60e3c0a3b16e07647b2ff9","5f60ef50c998980116aa245e","true","703","./Stimuli/SelectedImages/LN/LN9.bmp","76","","","","test","true","M + N","76","switch","LN","LN9.bmp","forget","","81","3","prime1","right","","","",""
"html-keyboard-response","218","544291","0.0-4.0-1.0-3.32","0skhk9pwaluu84b","prime","5dd05d80b2204f1487f7812c","5f60e3c0a3b16e07647b2ff9","5f60ef50c998980116aa245e","false","null","<div style=""align-items: center; display: flex; color: darkorange; font-size: 90px""><b>ø</b></div>","null","","","","forget_cue","","","","","","","","","","","","","","","",""
"html-keyboard-response","219","545006","0.0-4.0-1.0-0.33","0skhk9pwaluu84b","prime","5dd05d80b2204f1487f7812c","5f60e3c0a3b16e07647b2ff9","5f60ef50c998980116aa245e","false","null","<span style=""color: black; font-size: 48px"">N + M</span>","null","","","","resp_prompt","","","","","","","","","","","","","","","",""
"categorize-image","220","546023","0.0-4.0-1.0-1.33","0skhk9pwaluu84b","prime","5dd05d80b2204f1487f7812c","5f60e3c0a3b16e07647b2ff9","5f60ef50c998980116aa245e","true","1014","./Stimuli/SelectedImages/LN/LN150.bmp","83","","","","test","true","N + M","83","repetition","LN","LN150.bmp","remember","","82","3","prime1","left","","","",""
"html-keyboard-response","221","548030","0.0-4.0-1.0-3.33","0skhk9pwaluu84b","prime","5dd05d80b2204f1487f7812c","5f60e3c0a3b16e07647b2ff9","5f60ef50c998980116aa245e","false","null","<div style=""align-items: center; display: flex; color: dodgerblue; font-size: 90px""><b>o</b></div>","null","","","","forget_cue","","","","","","","","","","","","","","","",""
"html-keyboard-response","222","548750","0.0-4.0-1.0-0.34","0skhk9pwaluu84b","prime","5dd05d80b2204f1487f7812c","5f60e3c0a3b16e07647b2ff9","5f60ef50c998980116aa245e","false","null","<span style=""color: black; font-size: 48px"">N + M</span>","null","","","","resp_prompt","","","","","","","","","","","","","","","",""
"categorize-image","223","549471","0.0-4.0-1.0-1.34","0skhk9pwaluu84b","prime","5dd05d80b2204f1487f7812c","5f60e3c0a3b16e07647b2ff9","5f60ef50c998980116aa245e","true","718","./Stimuli/SelectedImages/SM/SM184.bmp","76","","","","test","true","N + M","76","switch","SM","SM184.bmp","forget","","83","3","prime1","right","","","",""
"html-keyboard-response","224","551491","0.0-4.0-1.0-3.34","0skhk9pwaluu84b","prime","5dd05d80b2204f1487f7812c","5f60e3c0a3b16e07647b2ff9","5f60ef50c998980116aa245e","false","null","<div style=""align-items: center; display: flex; color: darkorange; font-size: 90px""><b>ø</b></div>","null","","","","forget_cue","","","","","","","","","","","","","","","",""
"html-keyboard-response","225","552211","0.0-4.0-1.0-0.35","0skhk9pwaluu84b","prime","5dd05d80b2204f1487f7812c","5f60e3c0a3b16e07647b2ff9","5f60ef50c998980116aa245e","false","null","<span style=""color: black; font-size: 48px"">N + M</span>","null","","","","resp_prompt","","","","","","","","","","","","","","","",""
"categorize-image","226","553223","0.0-4.0-1.0-1.35","0skhk9pwaluu84b","prime","5dd05d80b2204f1487f7812c","5f60e3c0a3b16e07647b2ff9","5f60ef50c998980116aa245e","true","1010","./Stimuli/SelectedImages/LN/LN149.bmp","83","","","","test","true","N + M","83","repetition","LN","LN149.bmp","remember","","84","3","prime1","left","","","",""
"html-keyboard-response","227","555240","0.0-4.0-1.0-3.35","0skhk9pwaluu84b","prime","5dd05d80b2204f1487f7812c","5f60e3c0a3b16e07647b2ff9","5f60ef50c998980116aa245e","false","null","<div style=""align-items: center; display: flex; color: dodgerblue; font-size: 90px""><b>o</b></div>","null","","","","forget_cue","","","","","","","","","","","","","","","",""
"html-keyboard-response","228","555961","0.0-4.0-1.0-0.36","0skhk9pwaluu84b","prime","5dd05d80b2204f1487f7812c","5f60e3c0a3b16e07647b2ff9","5f60ef50c998980116aa245e","false","null","<span style=""color: black; font-size: 48px"">N + M</span>","null","","","","resp_prompt","","","","","","","","","","","","","","","",""
"categorize-image","229","556896","0.0-4.0-1.0-1.36","0skhk9pwaluu84b","prime","5dd05d80b2204f1487f7812c","5f60e3c0a3b16e07647b2ff9","5f60ef50c998980116aa245e","true","933","./Stimuli/SelectedImages/LM/LM129.bmp","76","","","","test","true","N + M","76","switch","LM","LM129.bmp","forget","","85","3","prime1","right","","","",""
"html-keyboard-response","230","558901","0.0-4.0-1.0-3.36","0skhk9pwaluu84b","prime","5dd05d80b2204f1487f7812c","5f60e3c0a3b16e07647b2ff9","5f60ef50c998980116aa245e","false","null","<div style=""align-items: center; display: flex; color: darkorange; font-size: 90px""><b>ø</b></div>","null","","","","forget_cue","","","","","","","","","","","","","","","",""
"html-keyboard-response","231","559621","0.0-4.0-1.0-0.37","0skhk9pwaluu84b","prime","5dd05d80b2204f1487f7812c","5f60e3c0a3b16e07647b2ff9","5f60ef50c998980116aa245e","false","null","<span style=""color: black; font-size: 48px"">M + N</span>","null","","","","resp_prompt","","","","","","","","","","","","","","","",""
"categorize-image","232","560633","0.0-4.0-1.0-1.37","0skhk9pwaluu84b","prime","5dd05d80b2204f1487f7812c","5f60e3c0a3b16e07647b2ff9","5f60ef50c998980116aa245e","true","1009","./Stimuli/SelectedImages/SN/SN52.bmp","76","","","","test","true","M + N","76","repetition","SN","SN52.bmp","remember","","86","3","prime1","right","","","",""
"html-keyboard-response","233","562640","0.0-4.0-1.0-3.37","0skhk9pwaluu84b","prime","5dd05d80b2204f1487f7812c","5f60e3c0a3b16e07647b2ff9","5f60ef50c998980116aa245e","false","null","<div style=""align-items: center; display: flex; color: dodgerblue; font-size: 90px""><b>o</b></div>","null","","","","forget_cue","","","","","","","","","","","","","","","",""
"html-keyboard-response","234","563361","0.0-4.0-1.0-0.38","0skhk9pwaluu84b","prime","5dd05d80b2204f1487f7812c","5f60e3c0a3b16e07647b2ff9","5f60ef50c998980116aa245e","false","null","<span style=""color: black; font-size: 48px"">M + N</span>","null","","","","resp_prompt","","","","","","","","","","","","","","","",""
"categorize-image","235","564361","0.0-4.0-1.0-1.38","0skhk9pwaluu84b","prime","5dd05d80b2204f1487f7812c","5f60e3c0a3b16e07647b2ff9","5f60ef50c998980116aa245e","true","998","./Stimuli/SelectedImages/SN/SN140.bmp","76","","","","test","true","M + N","76","switch","SN","SN140.bmp","forget","","87","3","prime1","right","","","",""
"html-keyboard-response","236","566381","0.0-4.0-1.0-3.38","0skhk9pwaluu84b","prime","5dd05d80b2204f1487f7812c","5f60e3c0a3b16e07647b2ff9","5f60ef50c998980116aa245e","false","null","<div style=""align-items: center; display: flex; color: darkorange; font-size: 90px""><b>ø</b></div>","null","","","","forget_cue","","","","","","","","","","","","","","","",""
"html-keyboard-response","237","567101","0.0-4.0-1.0-0.39","0skhk9pwaluu84b","prime","5dd05d80b2204f1487f7812c","5f60e3c0a3b16e07647b2ff9","5f60ef50c998980116aa245e","false","null","<span style=""color: black; font-size: 48px"">N + M</span>","null","","","","resp_prompt","","","","","","","","","","","","","","","",""
"categorize-image","238","568233","0.0-4.0-1.0-1.39","0skhk9pwaluu84b","prime","5dd05d80b2204f1487f7812c","5f60e3c0a3b16e07647b2ff9","5f60ef50c998980116aa245e","true","1130","./Stimuli/SelectedImages/SM/SM128.bmp","76","","","","test","true","N + M","76","switch","SM","SM128.bmp","forget","","88","3","prime1","right","","","",""
"html-keyboard-response","239","570241","0.0-4.0-1.0-3.39","0skhk9pwaluu84b","prime","5dd05d80b2204f1487f7812c","5f60e3c0a3b16e07647b2ff9","5f60ef50c998980116aa245e","false","null","<div style=""align-items: center; display: flex; color: darkorange; font-size: 90px""><b>ø</b></div>","null","","","","forget_cue","","","","","","","","","","","","","","","",""
"html-keyboard-response","240","570951","0.0-4.0-1.0-0.40","0skhk9pwaluu84b","prime","5dd05d80b2204f1487f7812c","5f60e3c0a3b16e07647b2ff9","5f60ef50c998980116aa245e","false","null","<span style=""color: black; font-size: 48px"">N + M</span>","null","","","","resp_prompt","","","","","","","","","","","","","","","",""
"categorize-image","241","571738","0.0-4.0-1.0-1.40","0skhk9pwaluu84b","prime","5dd05d80b2204f1487f7812c","5f60e3c0a3b16e07647b2ff9","5f60ef50c998980116aa245e","true","785","./Stimuli/SelectedImages/SM/SM78.bmp","76","","","","test","true","N + M","76","switch","SM","SM78.bmp","remember","","89","3","prime1","right","","","",""
"html-keyboard-response","242","573751","0.0-4.0-1.0-3.40","0skhk9pwaluu84b","prime","5dd05d80b2204f1487f7812c","5f60e3c0a3b16e07647b2ff9","5f60ef50c998980116aa245e","false","null","<div style=""align-items: center; display: flex; color: dodgerblue; font-size: 90px""><b>o</b></div>","null","","","","forget_cue","","","","","","","","","","","","","","","",""
"html-keyboard-response","243","574471","0.0-4.0-1.0-0.41","0skhk9pwaluu84b","prime","5dd05d80b2204f1487f7812c","5f60e3c0a3b16e07647b2ff9","5f60ef50c998980116aa245e","false","null","<span style=""color: black; font-size: 48px"">M + N</span>","null","","","","resp_prompt","","","","","","","","","","","","","","","",""
"categorize-image","244","575787","0.0-4.0-1.0-1.41","0skhk9pwaluu84b","prime","5dd05d80b2204f1487f7812c","5f60e3c0a3b16e07647b2ff9","5f60ef50c998980116aa245e","true","1313","./Stimuli/SelectedImages/SN/SN27.bmp","76","","","","test","true","M + N","76","repetition","SN","SN27.bmp","forget","","90","3","prime1","right","","","",""
"html-keyboard-response","245","577791","0.0-4.0-1.0-3.41","0skhk9pwaluu84b","prime","5dd05d80b2204f1487f7812c","5f60e3c0a3b16e07647b2ff9","5f60ef50c998980116aa245e","false","null","<div style=""align-items: center; display: flex; color: darkorange; font-size: 90px""><b>ø</b></div>","null","","","","forget_cue","","","","","","","","","","","","","","","",""
"html-keyboard-response","246","578511","0.0-4.0-1.0-0.42","0skhk9pwaluu84b","prime","5dd05d80b2204f1487f7812c","5f60e3c0a3b16e07647b2ff9","5f60ef50c998980116aa245e","false","null","<span style=""color: black; font-size: 48px"">M + N</span>","null","","","","resp_prompt","","","","","","","","","","","","","","","",""
"categorize-image","247","580019","0.0-4.0-1.0-1.42","0skhk9pwaluu84b","prime","5dd05d80b2204f1487f7812c","5f60e3c0a3b16e07647b2ff9","5f60ef50c998980116aa245e","true","1506","./Stimuli/SelectedImages/SN/SN93.bmp","76","","","","test","true","M + N","76","switch","SN","SN93.bmp","forget","","91","3","prime1","right","","","",""
"html-keyboard-response","248","582030","0.0-4.0-1.0-3.42","0skhk9pwaluu84b","prime","5dd05d80b2204f1487f7812c","5f60e3c0a3b16e07647b2ff9","5f60ef50c998980116aa245e","false","null","<div style=""align-items: center; display: flex; color: darkorange; font-size: 90px""><b>ø</b></div>","null","","","","forget_cue","","","","","","","","","","","","","","","",""
"html-keyboard-response","249","582751","0.0-4.0-1.0-0.43","0skhk9pwaluu84b","prime","5dd05d80b2204f1487f7812c","5f60e3c0a3b16e07647b2ff9","5f60ef50c998980116aa245e","false","null","<span style=""color: black; font-size: 48px"">M + N</span>","null","","","","resp_prompt","","","","","","","","","","","","","","","",""
"categorize-image","250","584035","0.0-4.0-1.0-1.43","0skhk9pwaluu84b","prime","5dd05d80b2204f1487f7812c","5f60e3c0a3b16e07647b2ff9","5f60ef50c998980116aa245e","true","1282","./Stimuli/SelectedImages/LN/LN128.bmp","76","","","","test","true","M + N","76","repetition","LN","LN128.bmp","remember","","92","3","prime1","right","","","",""
"html-keyboard-response","251","586051","0.0-4.0-1.0-3.43","0skhk9pwaluu84b","prime","5dd05d80b2204f1487f7812c","5f60e3c0a3b16e07647b2ff9","5f60ef50c998980116aa245e","false","null","<div style=""align-items: center; display: flex; color: dodgerblue; font-size: 90px""><b>o</b></div>","null","","","","forget_cue","","","","","","","","","","","","","","","",""
"html-keyboard-response","252","586770","0.0-4.0-1.0-0.44","0skhk9pwaluu84b","prime","5dd05d80b2204f1487f7812c","5f60e3c0a3b16e07647b2ff9","5f60ef50c998980116aa245e","false","null","<span style=""color: black; font-size: 48px"">M + N</span>","null","","","","resp_prompt","","","","","","","","","","","","","","","",""
"categorize-image","253","587956","0.0-4.0-1.0-1.44","0skhk9pwaluu84b","prime","5dd05d80b2204f1487f7812c","5f60e3c0a3b16e07647b2ff9","5f60ef50c998980116aa245e","true","1182","./Stimuli/SelectedImages/SM/SM24.bmp","83","","","","test","true","M + N","83","switch","SM","SM24.bmp","forget","","93","3","prime1","left","","","",""
"html-keyboard-response","254","589970","0.0-4.0-1.0-3.44","0skhk9pwaluu84b","prime","5dd05d80b2204f1487f7812c","5f60e3c0a3b16e07647b2ff9","5f60ef50c998980116aa245e","false","null","<div style=""align-items: center; display: flex; color: darkorange; font-size: 90px""><b>ø</b></div>","null","","","","forget_cue","","","","","","","","","","","","","","","",""
"html-keyboard-response","255","590690","0.0-4.0-1.0-0.45","0skhk9pwaluu84b","prime","5dd05d80b2204f1487f7812c","5f60e3c0a3b16e07647b2ff9","5f60ef50c998980116aa245e","false","null","<span style=""color: black; font-size: 48px"">N + M</span>","null","","","","resp_prompt","","","","","","","","","","","","","","","",""
"categorize-image","256","591668","0.0-4.0-1.0-1.45","0skhk9pwaluu84b","prime","5dd05d80b2204f1487f7812c","5f60e3c0a3b16e07647b2ff9","5f60ef50c998980116aa245e","true","974","./Stimuli/SelectedImages/LM/LM216.bmp","76","","","","test","true","N + M","76","switch","LM","LM216.bmp","remember","","94","3","prime1","right","","","",""
"html-keyboard-response","257","593670","0.0-4.0-1.0-3.45","0skhk9pwaluu84b","prime","5dd05d80b2204f1487f7812c","5f60e3c0a3b16e07647b2ff9","5f60ef50c998980116aa245e","false","null","<div style=""align-items: center; display: flex; color: dodgerblue; font-size: 90px""><b>o</b></div>","null","","","","forget_cue","","","","","","","","","","","","","","","",""
