"trial_type","trial_index","time_elapsed","internal_node_id","subject","exp_part","prolific_PID","study_ID","session_ID","use","rt","stimulus","key_press","button_pressed","responses","question_order","trial_part","correct","resp_map","correct_resp","probe_condition","category","image","forget_condition","list","trial_num","block_num","block","response","test_part","n_span","sequence","num_spaces"
"pavlovia","0","5","0.0-0.0","bu5uxt5s13e01cg","","5d5b1ca95d31e300163ddf44","5f5a55364e9b770ed21874ff","5f60d7c84e199105f3e991f3","false","","","","","","","","","","","","","","","","","","","","","","",""
"html-keyboard-response","1","24273","0.0-1.0-0.0-0.0","bu5uxt5s13e01cg","welcome","5d5b1ca95d31e300163ddf44","5f5a55364e9b770ed21874ff","5f60d7c84e199105f3e991f3","false","24265.445000026375","<div align=left>Dear participant, <br> thank you for participating in an online study of the Cognition, Action, and Sustainability Unit of the University of Freiburg! <br> <br>The aim of this study is to examine our ability to remember previously learned information. <br>Our goal is to find out, whether our memory improves, when we only remember information that is relevant to us. <br>The experiment will take about 30 minutes to complete. <br> <br>Please, note that you can only participate in this study if you are using a device with a keyboard (PC, Laptop etc.) <br>and not if you are using a mobile device such as a tablet or smartphone.<br> <br>Press 'SPACE' to proceed to the experiment. </div>","32","","","","","","","","","","","","","","","","","","","",""
"html-keyboard-response","2","56058","0.0-1.0-0.0-1.0","bu5uxt5s13e01cg","welcome","5d5b1ca95d31e300163ddf44","5f5a55364e9b770ed21874ff","5f60d7c84e199105f3e991f3","false","31781.31500002928","<div align=left><strong> Time Course of this experiment: </strong> <br><br> <strong> 1.</strong>  First, please fill in some information regarding your demographic data. <br><br> <strong> 2.</strong>  Next, your task will be to classify everyday objects. <br>In addition, you will be asked to remember certain objects and recall them later. <br>Working on these tasks requires your undivided attention and concentration.<br>It is therefore essential that you eliminate any sources of distraction in your  <br>environment and ensure that you will not be disturbed. <br><br><strong> 3.</strong>  At the end of the experiment, you will be asked to answer a few additional questions. <br> <br><strong> Important:</strong> After finishing the experiment, only close the browser window <br> by clicking on the 'end the experiment'-button when you are asked to do so. <br>Closing the browser window prematurely will make the allocation of your participation credit impossible. <br><br> Press 'SPACE' to start the experiment. </div>","32","","","","","","","","","","","","","","","","","","","",""
"html-button-response","3","105540","0.0-1.0-0.0-2.0","bu5uxt5s13e01cg","welcome","5d5b1ca95d31e300163ddf44","5f5a55364e9b770ed21874ff","5f60d7c84e199105f3e991f3","true","49477.13500005193","<div align=left><strong> Informed consent </strong>  <br>The aim of our research is to better understand human behavior and mental processes. <br>In the following study your behavior (e.g. choices, reaction times) will be studied. <br> <br><strong> Voluntariness and Anonymity </strong> <br>Your participation in this study is  <strong> voluntary</strong>.<br>You may withdraw your consent to participate at any time without providing a reason for doing so and without fear of prejudice. <br><br>As no personal data will be collected, <strong>your data and your person cannot be connected after data collection</strong> – the data-set is anonymous. <br>Respectively, deletion of your data will not be possible after data collection has been completed, as we cannot retrace your data-set.<br>The results and anonymized data collected in this study will be published as a scientific publication. <br>This will happen in an <strong>anonymized format</strong>, so that no data can be traced back to a specific person. <br> <br>The anonymized data of this study will be made available to other researchers and/or in a data archive on the Internet as a means of transparency and to enable subsequent re-use. By doing so, this study follows the recommendations of the Deutsche Forschungsgemeinschaft (DFG, German Research Foundation) and Deutsche Gesellschaft für Psychologie (DGPS, German Psychological Society) regarding quality assurance in research.<br>If you have any questions now or after the experiment, please contact our team (experiments@cs.uni-freiburg.de).<br><br><br>I hereby declare, that I understand the above described conditions of participation and I agree to participate under these conditions. <br><br> </div>","","0","","","","","","","","","","","","","","","","","","",""
"html-keyboard-response","4","156945","0.0-1.0-0.0-3.0","bu5uxt5s13e01cg","welcome","5d5b1ca95d31e300163ddf44","5f5a55364e9b770ed21874ff","5f60d7c84e199105f3e991f3","false","51401.880000019446","<div align=left><strong> General information concerning the experiment </strong>  <br> <br>Please follow the instructions:<ol> <li><strong> Do not leave this tab (your browser window) during the experiment and do not reload this tab! </strong>  <br>If you do switch tabs/windows during the experiment (to check your mail or visit another website, for example), <br>the experiment will end automatically and you will <strong>not receive credit</strong> for your participation. <br>Repeated participation or resumption of the experiment is impossible.</li> <br><li>Please close all other programs for the duration of your participation. </li> <br><li>Please mute or turn off your phone and put it out of your reach. </li> <br><li>Please also take off any disturbing accessories (such as wristwatches, bracelets, etc.). </li> <br><li>If you have music playing in the background, please turn it off now. </li> <br></ol>Thank you! <br>Press 'SPACE' to continue. </div>","32","","","","","","","","","","","","","","","","","","","",""
"survey-text","5","174169","0.0-1.0-1.0-0.0","bu5uxt5s13e01cg","demographics","5d5b1ca95d31e300163ddf44","5f5a55364e9b770ed21874ff","5f60d7c84e199105f3e991f3","true","17216.44499991089","","","","{""age"":""21""}","","","","","","","","","","","","","","","","","",""
"survey-multi-choice","6","209405","0.0-1.0-1.0-1.0","bu5uxt5s13e01cg","demographics","5d5b1ca95d31e300163ddf44","5f5a55364e9b770ed21874ff","5f60d7c84e199105f3e991f3","true","35230.53999990225","","","","{""gender"":""female"",""school"":""middle school/secondary school/ graduation from polytechnic high school"",""education"":""Completed university degree or equivalent""}","[0,1,2]","","","","","","","","","","","","","","","","",""
"html-keyboard-response","7","231449","0.0-1.0-2.0","bu5uxt5s13e01cg","instructions","5d5b1ca95d31e300163ddf44","5f5a55364e9b770ed21874ff","5f60d7c84e199105f3e991f3","false","22041.509999893606","<div align=left> The experiment is now about to start: <br> <br>In the following part, you will be presented pictures of everyday objects. <br>Your first task is to <strong>classify these objects. </strong> <br> <br> You will classify them either as mechanical or non-mechanical objects. <br> <br>Objects that include any kind of technical mechanism (for example, wheels, switches, levers, <br> electronic components) fall under the category of <strong>mechanical</strong> objects. <br>Only objects without any kind of technical mechanism should be classified as <strong>non-mechanical</strong>. <br><br>Press 'SPACE' to continue. </div>","32","","","","","","","","","","","","","","","","","","","",""
"html-keyboard-response","8","294559","0.0-2.0-0.0","bu5uxt5s13e01cg","instructions","5d5b1ca95d31e300163ddf44","5f5a55364e9b770ed21874ff","5f60d7c84e199105f3e991f3","false","63106.020000064746","<div align=justify>You will classify the objects using the <strong>'S'</strong> and the <strong>'L'</strong> keys on your keyboard.<br>For doing so, please place your <strong>left index finger</strong> on the <strong>'S'</strong> key and place your <strong>right index finger</strong> on the <strong>'L'</strong> key. <br><br> Each trial starts with an instruction, indicating which key ('S'/'L') you need to press to classify <br>the object as mechanical (letter M) or non-mechanical (letter N).<br>The instruction <strong>M + N</strong> indicates that, in the current trial, by pressing the left key ('S') you classify the displayed object as mechanical (M) <br> and by pressing the right key ('L') you classify the object as non-mechanical (N). <br>The instruction <strong>N + M</strong> on the other hand indicates that by pressing the left key ('S') you classify the displayed object as non-mechanical (N) <br> and by pressing the right key ('L') you classify the object as mechanical (M). <br><br>Please press the key corresponding to the correct classification as fast as possible as soon as the object is displayed and try to avoid making mistakes.<br>If you do not respond within a 2 second window, a corresponding feedback will be displayed and the next trial will start.<br> The experiment is divided into multiple blocks to give you the opportunity to take a break after each block. <br>First, you can now practice this task. <br><br>Please place your <strong>LEFT INDEX FINGER</strong> on the 'S' key and your <strong>RIGHT INDEX FINGER</strong> on the 'L' key now. <br><br>Press SPACE to continue.</div>","32","","","","","","","","","","","","","","","","","","","",""
"html-keyboard-response","9","311828","0.0-2.0-1.0","bu5uxt5s13e01cg","instructions","5d5b1ca95d31e300163ddf44","5f5a55364e9b770ed21874ff","5f60d7c84e199105f3e991f3","false","17266.904999967664","<div align=left> You will now have time to practice this task.<br><br>Remember: <br> <br><li>Please place your index fingers on the <strong>'S'</strong> and <strong>'L'</strong> keys <br>to respond as fast and accurately as possible.</li><li>Every picture can be classified as either mechanical or non-mechanical.</li><li>If you do not respond in time or commit an error, you will receive a corresponding feedback. </li><li> Please try to respond as <strong> fast </strong> and as <strong> accurately as possible </strong> .<br><li>To ensure optimal results, please minimize distractions and stay focused. </li><br><br>Press SPACE to continue.</div>","32","","","","","","","","","","","","","","","","","","","",""
"html-keyboard-response","10","312532","0.0-2.0-2.0-0.0","bu5uxt5s13e01cg","practice_no_cue","5d5b1ca95d31e300163ddf44","5f5a55364e9b770ed21874ff","5f60d7c84e199105f3e991f3","false","null","<span style=""color: black; font-size: 48px"">M + N</span>","null","","","","resp_prompt","","","","","","","","","","","","","","","",""
"categorize-image","11","314169","0.0-2.0-2.0-1.0","bu5uxt5s13e01cg","practice_no_cue","5d5b1ca95d31e300163ddf44","5f5a55364e9b770ed21874ff","5f60d7c84e199105f3e991f3","true","1133.3899998571724","./Stimuli/ImagesPractice/SN222.jpg","76","","","","test","true","M + N","76","","SN","SN222.jpg","forget","old","1","1","start","right","","","",""
"html-keyboard-response","12","314875","0.0-2.0-2.0-0.1","bu5uxt5s13e01cg","practice_no_cue","5d5b1ca95d31e300163ddf44","5f5a55364e9b770ed21874ff","5f60d7c84e199105f3e991f3","false","null","<span style=""color: black; font-size: 48px"">M + N</span>","null","","","","resp_prompt","","","","","","","","","","","","","","","",""
"categorize-image","13","316188","0.0-2.0-2.0-1.1","bu5uxt5s13e01cg","practice_no_cue","5d5b1ca95d31e300163ddf44","5f5a55364e9b770ed21874ff","5f60d7c84e199105f3e991f3","true","806.0900000855327","./Stimuli/ImagesPractice/LN15.jpg","76","","","","test","true","M + N","76","","LN","LN15.jpg","remember","old","2","1","start","right","","","",""
"html-keyboard-response","14","316894","0.0-2.0-2.0-0.2","bu5uxt5s13e01cg","practice_no_cue","5d5b1ca95d31e300163ddf44","5f5a55364e9b770ed21874ff","5f60d7c84e199105f3e991f3","false","null","<span style=""color: black; font-size: 48px"">M + N</span>","null","","","","resp_prompt","","","","","","","","","","","","","","","",""
"categorize-image","15","318543","0.0-2.0-2.0-1.2","bu5uxt5s13e01cg","practice_no_cue","5d5b1ca95d31e300163ddf44","5f5a55364e9b770ed21874ff","5f60d7c84e199105f3e991f3","true","1142.2749999910593","./Stimuli/ImagesPractice/LN4.jpg","76","","","","test","true","M + N","76","","LN","LN4.jpg","forget","old","3","1","start","right","","","",""
"html-keyboard-response","16","319245","0.0-2.0-2.0-0.3","bu5uxt5s13e01cg","practice_no_cue","5d5b1ca95d31e300163ddf44","5f5a55364e9b770ed21874ff","5f60d7c84e199105f3e991f3","false","null","<span style=""color: black; font-size: 48px"">M + N</span>","null","","","","resp_prompt","","","","","","","","","","","","","","","",""
"categorize-image","17","321758","0.0-2.0-2.0-1.3","bu5uxt5s13e01cg","practice_no_cue","5d5b1ca95d31e300163ddf44","5f5a55364e9b770ed21874ff","5f60d7c84e199105f3e991f3","true","null","./Stimuli/ImagesPractice/SN205.jpg","null","","","","test","false","M + N","76","","SN","SN205.jpg","remember","old","4","1","start","too_slow","","","",""
"html-keyboard-response","18","322460","0.0-2.0-2.0-0.4","bu5uxt5s13e01cg","practice_no_cue","5d5b1ca95d31e300163ddf44","5f5a55364e9b770ed21874ff","5f60d7c84e199105f3e991f3","false","null","<span style=""color: black; font-size: 48px"">N + M</span>","null","","","","resp_prompt","","","","","","","","","","","","","","","",""
"categorize-image","19","324102","0.0-2.0-2.0-1.4","bu5uxt5s13e01cg","practice_no_cue","5d5b1ca95d31e300163ddf44","5f5a55364e9b770ed21874ff","5f60d7c84e199105f3e991f3","true","1139.7349999751896","./Stimuli/ImagesPractice/SM35.jpg","83","","","","test","false","N + M","76","","SM","SM35.jpg","remember","old","5","1","start","left","","","",""
"html-keyboard-response","20","324804","0.0-2.0-2.0-0.5","bu5uxt5s13e01cg","practice_no_cue","5d5b1ca95d31e300163ddf44","5f5a55364e9b770ed21874ff","5f60d7c84e199105f3e991f3","false","null","<span style=""color: black; font-size: 48px"">N + M</span>","null","","","","resp_prompt","","","","","","","","","","","","","","","",""
"categorize-image","21","326337","0.0-2.0-2.0-1.5","bu5uxt5s13e01cg","practice_no_cue","5d5b1ca95d31e300163ddf44","5f5a55364e9b770ed21874ff","5f60d7c84e199105f3e991f3","true","1026.3199999462813","./Stimuli/ImagesPractice/LM55.jpg","76","","","","test","true","N + M","76","","LM","LM55.jpg","forget","old","6","1","start","right","","","",""
"html-keyboard-response","22","327043","0.0-2.0-2.0-0.6","bu5uxt5s13e01cg","practice_no_cue","5d5b1ca95d31e300163ddf44","5f5a55364e9b770ed21874ff","5f60d7c84e199105f3e991f3","false","null","<span style=""color: black; font-size: 48px"">N + M</span>","null","","","","resp_prompt","","","","","","","","","","","","","","","",""
"categorize-image","23","328378","0.0-2.0-2.0-1.6","bu5uxt5s13e01cg","practice_no_cue","5d5b1ca95d31e300163ddf44","5f5a55364e9b770ed21874ff","5f60d7c84e199105f3e991f3","true","828.3400000073016","./Stimuli/ImagesPractice/LM224.jpg","76","","","","test","true","N + M","76","","LM","LM224.jpg","remember","old","7","1","start","right","","","",""
"html-keyboard-response","24","329084","0.0-2.0-2.0-0.7","bu5uxt5s13e01cg","practice_no_cue","5d5b1ca95d31e300163ddf44","5f5a55364e9b770ed21874ff","5f60d7c84e199105f3e991f3","false","null","<span style=""color: black; font-size: 48px"">N + M</span>","null","","","","resp_prompt","","","","","","","","","","","","","","","",""
"categorize-image","25","330402","0.0-2.0-2.0-1.7","bu5uxt5s13e01cg","practice_no_cue","5d5b1ca95d31e300163ddf44","5f5a55364e9b770ed21874ff","5f60d7c84e199105f3e991f3","true","811.8499999400228","./Stimuli/ImagesPractice/SM62.jpg","76","","","","test","true","N + M","76","","SM","SM62.jpg","forget","old","8","1","start","right","","","",""
"html-keyboard-response","26","331110","0.0-2.0-2.0-0.8","bu5uxt5s13e01cg","practice_no_cue","5d5b1ca95d31e300163ddf44","5f5a55364e9b770ed21874ff","5f60d7c84e199105f3e991f3","false","null","<span style=""color: black; font-size: 48px"">N + M</span>","null","","","","resp_prompt","","","","","","","","","","","","","","","",""
"categorize-image","27","332041","0.0-2.0-2.0-1.8","bu5uxt5s13e01cg","practice_no_cue","5d5b1ca95d31e300163ddf44","5f5a55364e9b770ed21874ff","5f60d7c84e199105f3e991f3","true","423.7599999178201","./Stimuli/ImagesPractice/LM239.jpg","76","","","","test","true","N + M","76","","LM","LM239.jpg","remember","old","9","1","start","right","","","",""
"html-keyboard-response","28","332747","0.0-2.0-2.0-0.9","bu5uxt5s13e01cg","practice_no_cue","5d5b1ca95d31e300163ddf44","5f5a55364e9b770ed21874ff","5f60d7c84e199105f3e991f3","false","null","<span style=""color: black; font-size: 48px"">N + M</span>","null","","","","resp_prompt","","","","","","","","","","","","","","","",""
"categorize-image","29","333784","0.0-2.0-2.0-1.9","bu5uxt5s13e01cg","practice_no_cue","5d5b1ca95d31e300163ddf44","5f5a55364e9b770ed21874ff","5f60d7c84e199105f3e991f3","true","529.8600001260638","./Stimuli/ImagesPractice/SN76.jpg","83","","","","test","true","N + M","83","","SN","SN76.jpg","forget","old","10","1","start","left","","","",""
"html-keyboard-response","30","334490","0.0-2.0-2.0-0.10","bu5uxt5s13e01cg","practice_no_cue","5d5b1ca95d31e300163ddf44","5f5a55364e9b770ed21874ff","5f60d7c84e199105f3e991f3","false","null","<span style=""color: black; font-size: 48px"">N + M</span>","null","","","","resp_prompt","","","","","","","","","","","","","","","",""
"categorize-image","31","336097","0.0-2.0-2.0-1.10","bu5uxt5s13e01cg","practice_no_cue","5d5b1ca95d31e300163ddf44","5f5a55364e9b770ed21874ff","5f60d7c84e199105f3e991f3","true","1100.4000001121312","./Stimuli/ImagesPractice/LN72.jpg","83","","","","test","true","N + M","83","","LN","LN72.jpg","remember","old","11","1","start","left","","","",""
"html-keyboard-response","32","336802","0.0-2.0-2.0-0.11","bu5uxt5s13e01cg","practice_no_cue","5d5b1ca95d31e300163ddf44","5f5a55364e9b770ed21874ff","5f60d7c84e199105f3e991f3","false","null","<span style=""color: black; font-size: 48px"">M + N</span>","null","","","","resp_prompt","","","","","","","","","","","","","","","",""
"categorize-image","33","338091","0.0-2.0-2.0-1.11","bu5uxt5s13e01cg","practice_no_cue","5d5b1ca95d31e300163ddf44","5f5a55364e9b770ed21874ff","5f60d7c84e199105f3e991f3","true","782.3699999134988","./Stimuli/ImagesPractice/LM143.jpg","76","","","","test","false","M + N","83","","LM","LM143.jpg","forget","old","12","1","start","right","","","",""
"html-keyboard-response","34","338798","0.0-2.0-2.0-0.12","bu5uxt5s13e01cg","practice_no_cue","5d5b1ca95d31e300163ddf44","5f5a55364e9b770ed21874ff","5f60d7c84e199105f3e991f3","false","null","<span style=""color: black; font-size: 48px"">M + N</span>","null","","","","resp_prompt","","","","","","","","","","","","","","","",""
"categorize-image","35","339959","0.0-2.0-2.0-1.12","bu5uxt5s13e01cg","practice_no_cue","5d5b1ca95d31e300163ddf44","5f5a55364e9b770ed21874ff","5f60d7c84e199105f3e991f3","true","654.7699999064207","./Stimuli/ImagesPractice/LM230.jpg","76","","","","test","false","M + N","83","","LM","LM230.jpg","remember","old","13","1","start","right","","","",""
"html-keyboard-response","36","340666","0.0-2.0-2.0-0.13","bu5uxt5s13e01cg","practice_no_cue","5d5b1ca95d31e300163ddf44","5f5a55364e9b770ed21874ff","5f60d7c84e199105f3e991f3","false","null","<span style=""color: black; font-size: 48px"">M + N</span>","null","","","","resp_prompt","","","","","","","","","","","","","","","",""
"categorize-image","37","341825","0.0-2.0-2.0-1.13","bu5uxt5s13e01cg","practice_no_cue","5d5b1ca95d31e300163ddf44","5f5a55364e9b770ed21874ff","5f60d7c84e199105f3e991f3","true","652.8249999973923","./Stimuli/ImagesPractice/SM98.jpg","76","","","","test","false","M + N","83","","SM","SM98.jpg","forget","old","14","1","start","right","","","",""
"html-keyboard-response","38","342527","0.0-2.0-2.0-0.14","bu5uxt5s13e01cg","practice_no_cue","5d5b1ca95d31e300163ddf44","5f5a55364e9b770ed21874ff","5f60d7c84e199105f3e991f3","false","null","<span style=""color: black; font-size: 48px"">M + N</span>","null","","","","resp_prompt","","","","","","","","","","","","","","","",""
"categorize-image","39","343549","0.0-2.0-2.0-1.14","bu5uxt5s13e01cg","practice_no_cue","5d5b1ca95d31e300163ddf44","5f5a55364e9b770ed21874ff","5f60d7c84e199105f3e991f3","true","515.5950000043958","./Stimuli/ImagesPractice/LN17.jpg","76","","","","test","true","M + N","76","","LN","LN17.jpg","remember","old","15","1","start","right","","","",""
"html-keyboard-response","40","344253","0.0-2.0-2.0-0.15","bu5uxt5s13e01cg","practice_no_cue","5d5b1ca95d31e300163ddf44","5f5a55364e9b770ed21874ff","5f60d7c84e199105f3e991f3","false","null","<span style=""color: black; font-size: 48px"">N + M</span>","null","","","","resp_prompt","","","","","","","","","","","","","","","",""
"categorize-image","41","345263","0.0-2.0-2.0-1.15","bu5uxt5s13e01cg","practice_no_cue","5d5b1ca95d31e300163ddf44","5f5a55364e9b770ed21874ff","5f60d7c84e199105f3e991f3","true","507.3799998499453","./Stimuli/ImagesPractice/LM147.jpg","76","","","","test","true","N + M","76","","LM","LM147.jpg","forget","old","16","1","start","right","","","",""
"html-keyboard-response","42","351119","0.0-2.0-3.0","bu5uxt5s13e01cg","break","5d5b1ca95d31e300163ddf44","5f5a55364e9b770ed21874ff","5f60d7c84e199105f3e991f3","false","5852.79000014998","<p style='font-size: 32px;'>Break</><br><br><br><br><br><p style='font-size: 24px;'>In the last block, you committed 4 errors and did not respond in time on 1 trials.
</p><p style='font-size: 24px;'>Try to respond as fast and accurately as possible in the next block as well! </p><p style='font-size: 24px;'>Press SPACE to continue.</p>","32","","","","","","","","","","","","","","","","","","","",""
"html-keyboard-response","43","357581","0.0-2.0-4.0","bu5uxt5s13e01cg","instructions","5d5b1ca95d31e300163ddf44","5f5a55364e9b770ed21874ff","5f60d7c84e199105f3e991f3","false","6460.105000063777","<div align=left> Great!<br><br>Are you ready to continue?<br><br>If you want to reread the instructions and redo the practice trials, <br>please press „Z“. <br><br>Press SPACE to CONTINUE with the experiment when you are ready. </div>","32","","","","","","","","","","","","","","","","","","","",""
"html-keyboard-response","44","409451","0.0-3.0-0.0","bu5uxt5s13e01cg","instructions","5d5b1ca95d31e300163ddf44","5f5a55364e9b770ed21874ff","5f60d7c84e199105f3e991f3","false","51866.200000047684","<div align=left>Great!<br> <strong>Attention</strong>! You will now receive a second, additional task! <br><br>To this point it was you <strong>first task</strong> to correctly <strong>classify objects</strong>. <br><br>As mentioned in the beginning, we aim to examine how well humans can remember previously learned information.<br>We would like to find out whether our memory improves if we only remember information that is relevant to us. <br><br>Therefore, your <strong>second task</strong> will be to <strong>remember</strong> the pictures you are to categorize. <br> After the learning phase, there will be a memory test phase, in which you will be asked to indicate whether you have seen a picture before or not. <br>Some, but not all pictures shown in the learning phase will appear in the memory test phase.<br>After classifying a picture, you will be told whether you should remember it for the memory test phase or not. <br>Thus, some pictures can be forgotten, whereas others have to be remembered. <br><br>Note: From now on, feedback will only be displayed if you responded incorrectly or not in time.<br><br>Press SPACE to continue.</div>","32","","","","","","","","","","","","","","","","","","","",""
"html-keyboard-response","45","432059","0.0-3.0-1.0","bu5uxt5s13e01cg","instructions","5d5b1ca95d31e300163ddf44","5f5a55364e9b770ed21874ff","5f60d7c84e199105f3e991f3","false","22605.845000129193","<div align=left>In the following part, you will thus have to remember only some pictures. <br>Immediately after seeing and classifying the picture, a symbol will be displayed, indicating whether you should remember or forget the previous picture. <br><br>A <span style='color: dodgerblue; font-size: 28px'>O</span> indicates REMEMBER. That means, you have to remember this picture, because it will be tested later. <br><br>A <span style='color: darkorange; font-size:28px'>Ø</span> indicates FORGET. You do not have to remember this picture. <br><br> As you will have to remember a lot of pictures, it will be hard for you to remember all of them. <br>It will put you at an advantage if you instantly forget the pictures you are not asked to remember. <br> This will make it easier for you to remember the pictures that will be tested afterwards. <br><br>Press SPACE to continue.</div>","32","","","","","","","","","","","","","","","","","","","",""
"html-keyboard-response","46","446160","0.0-3.0-2.0","bu5uxt5s13e01cg","instructions","5d5b1ca95d31e300163ddf44","5f5a55364e9b770ed21874ff","5f60d7c84e199105f3e991f3","false","14098.604999948293","<div align=left> Now you have the chance to practice both tasks together.<br><br>Remember: <br> <br><li>Please place your index fingers on the <strong>'S'</strong> and <strong>'L'</strong> keys <br>to respond as fast and accurately as possible.</li><li>Every picture can be classified as either mechanical or non-mechanical.</li><li>If you do not respond in time or commit an error, you will receive a corresponding feedback. <br>Please try to respond as <strong> fast </strong> and as <strong> accurately as possible </strong>.</li><li> Please remember only the to-be-remembered <span style='color: dodgerblue; font-size: 28px'>O</span> pictures. <br></li><li> Please minimize distractions and stay focused. </li><br><br>Press SPACE to START</div>","32","","","","","","","","","","","","","","","","","","","",""
"html-keyboard-response","47","446867","0.0-3.0-3.0-0.0","bu5uxt5s13e01cg","practice_cue","5d5b1ca95d31e300163ddf44","5f5a55364e9b770ed21874ff","5f60d7c84e199105f3e991f3","false","null","<span style=""color: black; font-size: 48px"">N + M</span>","null","","","","resp_prompt","","","","","","","","","","","","","","","",""
"categorize-image","48","447379","0.0-3.0-3.0-1.0","bu5uxt5s13e01cg","practice_cue","5d5b1ca95d31e300163ddf44","5f5a55364e9b770ed21874ff","5f60d7c84e199105f3e991f3","true","507.63999996706843","./Stimuli/ImagesPractice/SN76.jpg","83","","","","test","true","N + M","83","","SN","SN76.jpg","forget","old","17","2","practice_forget","left","","","",""
"html-keyboard-response","49","449386","0.0-3.0-3.0-3.0","bu5uxt5s13e01cg","practice_cue","5d5b1ca95d31e300163ddf44","5f5a55364e9b770ed21874ff","5f60d7c84e199105f3e991f3","false","null","<div style=""align-items: center; display: flex; color: darkorange; font-size: 90px""><b>ø</b></div>","null","","","","forget_cue","","","","","","","","","","","","","","","",""
"html-keyboard-response","50","450093","0.0-3.0-3.0-0.1","bu5uxt5s13e01cg","practice_cue","5d5b1ca95d31e300163ddf44","5f5a55364e9b770ed21874ff","5f60d7c84e199105f3e991f3","false","null","<span style=""color: black; font-size: 48px"">M + N</span>","null","","","","resp_prompt","","","","","","","","","","","","","","","",""
"categorize-image","51","451054","0.0-3.0-3.0-1.1","bu5uxt5s13e01cg","practice_cue","5d5b1ca95d31e300163ddf44","5f5a55364e9b770ed21874ff","5f60d7c84e199105f3e991f3","true","957.1249999571592","./Stimuli/ImagesPractice/SN222.jpg","76","","","","test","true","M + N","76","","SN","SN222.jpg","forget","old","18","2","practice_forget","right","","","",""
"html-keyboard-response","52","453056","0.0-3.0-3.0-3.1","bu5uxt5s13e01cg","practice_cue","5d5b1ca95d31e300163ddf44","5f5a55364e9b770ed21874ff","5f60d7c84e199105f3e991f3","false","null","<div style=""align-items: center; display: flex; color: darkorange; font-size: 90px""><b>ø</b></div>","null","","","","forget_cue","","","","","","","","","","","","","","","",""
"html-keyboard-response","53","453759","0.0-3.0-3.0-0.2","bu5uxt5s13e01cg","practice_cue","5d5b1ca95d31e300163ddf44","5f5a55364e9b770ed21874ff","5f60d7c84e199105f3e991f3","false","null","<span style=""color: black; font-size: 48px"">M + N</span>","null","","","","resp_prompt","","","","","","","","","","","","","","","",""
"categorize-image","54","454358","0.0-3.0-3.0-1.2","bu5uxt5s13e01cg","practice_cue","5d5b1ca95d31e300163ddf44","5f5a55364e9b770ed21874ff","5f60d7c84e199105f3e991f3","true","594.4099999032915","./Stimuli/ImagesPractice/LN4.jpg","83","","","","test","false","M + N","76","","LN","LN4.jpg","forget","old","19","2","practice_forget","left","","","",""
"html-keyboard-response","55","454861","0.0-3.0-3.0-2.2-0.2","bu5uxt5s13e01cg","practice_cue","5d5b1ca95d31e300163ddf44","5f5a55364e9b770ed21874ff","5f60d7c84e199105f3e991f3","false","null","<span style=""color: red; font-size: 48px"">Error!</span>","null","","","","feedback","","","","","","","","","","","","","","","",""
"html-keyboard-response","56","456867","0.0-3.0-3.0-3.2","bu5uxt5s13e01cg","practice_cue","5d5b1ca95d31e300163ddf44","5f5a55364e9b770ed21874ff","5f60d7c84e199105f3e991f3","false","null","<div style=""align-items: center; display: flex; color: darkorange; font-size: 90px""><b>ø</b></div>","null","","","","forget_cue","","","","","","","","","","","","","","","",""
"html-keyboard-response","57","457573","0.0-3.0-3.0-0.3","bu5uxt5s13e01cg","practice_cue","5d5b1ca95d31e300163ddf44","5f5a55364e9b770ed21874ff","5f60d7c84e199105f3e991f3","false","null","<span style=""color: black; font-size: 48px"">M + N</span>","null","","","","resp_prompt","","","","","","","","","","","","","","","",""
"categorize-image","58","458408","0.0-3.0-3.0-1.3","bu5uxt5s13e01cg","practice_cue","5d5b1ca95d31e300163ddf44","5f5a55364e9b770ed21874ff","5f60d7c84e199105f3e991f3","true","830.4250000510365","./Stimuli/ImagesPractice/LN15.jpg","76","","","","test","true","M + N","76","","LN","LN15.jpg","remember","old","20","2","practice_forget","right","","","",""
"html-keyboard-response","59","460414","0.0-3.0-3.0-3.3","bu5uxt5s13e01cg","practice_cue","5d5b1ca95d31e300163ddf44","5f5a55364e9b770ed21874ff","5f60d7c84e199105f3e991f3","false","null","<div style=""align-items: center; display: flex; color: dodgerblue; font-size: 90px""><b>o</b></div>","null","","","","forget_cue","","","","","","","","","","","","","","","",""
"html-keyboard-response","60","461120","0.0-3.0-3.0-0.4","bu5uxt5s13e01cg","practice_cue","5d5b1ca95d31e300163ddf44","5f5a55364e9b770ed21874ff","5f60d7c84e199105f3e991f3","false","null","<span style=""color: black; font-size: 48px"">N + M</span>","null","","","","resp_prompt","","","","","","","","","","","","","","","",""
"categorize-image","61","462121","0.0-3.0-3.0-1.4","bu5uxt5s13e01cg","practice_cue","5d5b1ca95d31e300163ddf44","5f5a55364e9b770ed21874ff","5f60d7c84e199105f3e991f3","true","996.4399999007583","./Stimuli/ImagesPractice/SM35.jpg","76","","","","test","true","N + M","76","","SM","SM35.jpg","remember","old","21","2","practice_forget","right","","","",""
"html-keyboard-response","62","464128","0.0-3.0-3.0-3.4","bu5uxt5s13e01cg","practice_cue","5d5b1ca95d31e300163ddf44","5f5a55364e9b770ed21874ff","5f60d7c84e199105f3e991f3","false","null","<div style=""align-items: center; display: flex; color: dodgerblue; font-size: 90px""><b>o</b></div>","null","","","","forget_cue","","","","","","","","","","","","","","","",""
"html-keyboard-response","63","464831","0.0-3.0-3.0-0.5","bu5uxt5s13e01cg","practice_cue","5d5b1ca95d31e300163ddf44","5f5a55364e9b770ed21874ff","5f60d7c84e199105f3e991f3","false","null","<span style=""color: black; font-size: 48px"">M + N</span>","null","","","","resp_prompt","","","","","","","","","","","","","","","",""
"categorize-image","64","465594","0.0-3.0-3.0-1.5","bu5uxt5s13e01cg","practice_cue","5d5b1ca95d31e300163ddf44","5f5a55364e9b770ed21874ff","5f60d7c84e199105f3e991f3","true","758.4349999669939","./Stimuli/ImagesPractice/SN205.jpg","76","","","","test","true","M + N","76","","SN","SN205.jpg","remember","old","22","2","practice_forget","right","","","",""
"html-keyboard-response","65","467601","0.0-3.0-3.0-3.5","bu5uxt5s13e01cg","practice_cue","5d5b1ca95d31e300163ddf44","5f5a55364e9b770ed21874ff","5f60d7c84e199105f3e991f3","false","null","<div style=""align-items: center; display: flex; color: dodgerblue; font-size: 90px""><b>o</b></div>","null","","","","forget_cue","","","","","","","","","","","","","","","",""
"html-keyboard-response","66","468302","0.0-3.0-3.0-0.6","bu5uxt5s13e01cg","practice_cue","5d5b1ca95d31e300163ddf44","5f5a55364e9b770ed21874ff","5f60d7c84e199105f3e991f3","false","null","<span style=""color: black; font-size: 48px"">N + M</span>","null","","","","resp_prompt","","","","","","","","","","","","","","","",""
"categorize-image","67","469148","0.0-3.0-3.0-1.6","bu5uxt5s13e01cg","practice_cue","5d5b1ca95d31e300163ddf44","5f5a55364e9b770ed21874ff","5f60d7c84e199105f3e991f3","true","840.6899999827147","./Stimuli/ImagesPractice/LM147.jpg","76","","","","test","true","N + M","76","","LM","LM147.jpg","forget","old","23","2","practice_forget","right","","","",""
"html-keyboard-response","68","471155","0.0-3.0-3.0-3.6","bu5uxt5s13e01cg","practice_cue","5d5b1ca95d31e300163ddf44","5f5a55364e9b770ed21874ff","5f60d7c84e199105f3e991f3","false","null","<div style=""align-items: center; display: flex; color: darkorange; font-size: 90px""><b>ø</b></div>","null","","","","forget_cue","","","","","","","","","","","","","","","",""
"html-keyboard-response","69","471857","0.0-3.0-3.0-0.7","bu5uxt5s13e01cg","practice_cue","5d5b1ca95d31e300163ddf44","5f5a55364e9b770ed21874ff","5f60d7c84e199105f3e991f3","false","null","<span style=""color: black; font-size: 48px"">M + N</span>","null","","","","resp_prompt","","","","","","","","","","","","","","","",""
"categorize-image","70","472772","0.0-3.0-3.0-1.7","bu5uxt5s13e01cg","practice_cue","5d5b1ca95d31e300163ddf44","5f5a55364e9b770ed21874ff","5f60d7c84e199105f3e991f3","true","911.0250000376254","./Stimuli/ImagesPractice/SM98.jpg","83","","","","test","true","M + N","83","","SM","SM98.jpg","forget","old","24","2","practice_forget","left","","","",""
"html-keyboard-response","71","474778","0.0-3.0-3.0-3.7","bu5uxt5s13e01cg","practice_cue","5d5b1ca95d31e300163ddf44","5f5a55364e9b770ed21874ff","5f60d7c84e199105f3e991f3","false","null","<div style=""align-items: center; display: flex; color: darkorange; font-size: 90px""><b>ø</b></div>","null","","","","forget_cue","","","","","","","","","","","","","","","",""
"html-keyboard-response","72","475482","0.0-3.0-3.0-0.8","bu5uxt5s13e01cg","practice_cue","5d5b1ca95d31e300163ddf44","5f5a55364e9b770ed21874ff","5f60d7c84e199105f3e991f3","false","null","<span style=""color: black; font-size: 48px"">N + M</span>","null","","","","resp_prompt","","","","","","","","","","","","","","","",""
"categorize-image","73","477336","0.0-3.0-3.0-1.8","bu5uxt5s13e01cg","practice_cue","5d5b1ca95d31e300163ddf44","5f5a55364e9b770ed21874ff","5f60d7c84e199105f3e991f3","true","1849.150000140071","./Stimuli/ImagesPractice/LN72.jpg","76","","","","test","false","N + M","83","","LN","LN72.jpg","remember","old","25","2","practice_forget","right","","","",""
"html-keyboard-response","74","477838","0.0-3.0-3.0-2.8-0.8","bu5uxt5s13e01cg","practice_cue","5d5b1ca95d31e300163ddf44","5f5a55364e9b770ed21874ff","5f60d7c84e199105f3e991f3","false","null","<span style=""color: red; font-size: 48px"">Error!</span>","null","","","","feedback","","","","","","","","","","","","","","","",""
"html-keyboard-response","75","479845","0.0-3.0-3.0-3.8","bu5uxt5s13e01cg","practice_cue","5d5b1ca95d31e300163ddf44","5f5a55364e9b770ed21874ff","5f60d7c84e199105f3e991f3","false","null","<div style=""align-items: center; display: flex; color: dodgerblue; font-size: 90px""><b>o</b></div>","null","","","","forget_cue","","","","","","","","","","","","","","","",""
"html-keyboard-response","76","480550","0.0-3.0-3.0-0.9","bu5uxt5s13e01cg","practice_cue","5d5b1ca95d31e300163ddf44","5f5a55364e9b770ed21874ff","5f60d7c84e199105f3e991f3","false","null","<span style=""color: black; font-size: 48px"">M + N</span>","null","","","","resp_prompt","","","","","","","","","","","","","","","",""
"categorize-image","77","481399","0.0-3.0-3.0-1.9","bu5uxt5s13e01cg","practice_cue","5d5b1ca95d31e300163ddf44","5f5a55364e9b770ed21874ff","5f60d7c84e199105f3e991f3","true","843.5550001449883","./Stimuli/ImagesPractice/LM143.jpg","83","","","","test","true","M + N","83","","LM","LM143.jpg","forget","old","26","2","practice_forget","left","","","",""
"html-keyboard-response","78","483406","0.0-3.0-3.0-3.9","bu5uxt5s13e01cg","practice_cue","5d5b1ca95d31e300163ddf44","5f5a55364e9b770ed21874ff","5f60d7c84e199105f3e991f3","false","null","<div style=""align-items: center; display: flex; color: darkorange; font-size: 90px""><b>ø</b></div>","null","","","","forget_cue","","","","","","","","","","","","","","","",""
"html-keyboard-response","79","484111","0.0-3.0-3.0-0.10","bu5uxt5s13e01cg","practice_cue","5d5b1ca95d31e300163ddf44","5f5a55364e9b770ed21874ff","5f60d7c84e199105f3e991f3","false","null","<span style=""color: black; font-size: 48px"">N + M</span>","null","","","","resp_prompt","","","","","","","","","","","","","","","",""
"categorize-image","80","485013","0.0-3.0-3.0-1.10","bu5uxt5s13e01cg","practice_cue","5d5b1ca95d31e300163ddf44","5f5a55364e9b770ed21874ff","5f60d7c84e199105f3e991f3","true","898.5249998513609","./Stimuli/ImagesPractice/LM55.jpg","83","","","","test","false","N + M","76","","LM","LM55.jpg","forget","old","27","2","practice_forget","left","","","",""
"html-keyboard-response","81","485515","0.0-3.0-3.0-2.10-0.10","bu5uxt5s13e01cg","practice_cue","5d5b1ca95d31e300163ddf44","5f5a55364e9b770ed21874ff","5f60d7c84e199105f3e991f3","false","null","<span style=""color: red; font-size: 48px"">Error!</span>","null","","","","feedback","","","","","","","","","","","","","","","",""
"html-keyboard-response","82","487522","0.0-3.0-3.0-3.10","bu5uxt5s13e01cg","practice_cue","5d5b1ca95d31e300163ddf44","5f5a55364e9b770ed21874ff","5f60d7c84e199105f3e991f3","false","null","<div style=""align-items: center; display: flex; color: darkorange; font-size: 90px""><b>ø</b></div>","null","","","","forget_cue","","","","","","","","","","","","","","","",""
"html-keyboard-response","83","488228","0.0-3.0-3.0-0.11","bu5uxt5s13e01cg","practice_cue","5d5b1ca95d31e300163ddf44","5f5a55364e9b770ed21874ff","5f60d7c84e199105f3e991f3","false","null","<span style=""color: black; font-size: 48px"">N + M</span>","null","","","","resp_prompt","","","","","","","","","","","","","","","",""
"categorize-image","84","488784","0.0-3.0-3.0-1.11","bu5uxt5s13e01cg","practice_cue","5d5b1ca95d31e300163ddf44","5f5a55364e9b770ed21874ff","5f60d7c84e199105f3e991f3","true","551.7700000200421","./Stimuli/ImagesPractice/SM62.jpg","76","","","","test","true","N + M","76","","SM","SM62.jpg","forget","old","28","2","practice_forget","right","","","",""
"html-keyboard-response","85","490790","0.0-3.0-3.0-3.11","bu5uxt5s13e01cg","practice_cue","5d5b1ca95d31e300163ddf44","5f5a55364e9b770ed21874ff","5f60d7c84e199105f3e991f3","false","null","<div style=""align-items: center; display: flex; color: darkorange; font-size: 90px""><b>ø</b></div>","null","","","","forget_cue","","","","","","","","","","","","","","","",""
"html-keyboard-response","86","491496","0.0-3.0-3.0-0.12","bu5uxt5s13e01cg","practice_cue","5d5b1ca95d31e300163ddf44","5f5a55364e9b770ed21874ff","5f60d7c84e199105f3e991f3","false","null","<span style=""color: black; font-size: 48px"">M + N</span>","null","","","","resp_prompt","","","","","","","","","","","","","","","",""
"categorize-image","87","491999","0.0-3.0-3.0-1.12","bu5uxt5s13e01cg","practice_cue","5d5b1ca95d31e300163ddf44","5f5a55364e9b770ed21874ff","5f60d7c84e199105f3e991f3","true","498.43999999575317","./Stimuli/ImagesPractice/LM230.jpg","83","","","","test","true","M + N","83","","LM","LM230.jpg","remember","old","29","2","practice_forget","left","","","",""
"html-keyboard-response","88","494001","0.0-3.0-3.0-3.12","bu5uxt5s13e01cg","practice_cue","5d5b1ca95d31e300163ddf44","5f5a55364e9b770ed21874ff","5f60d7c84e199105f3e991f3","false","null","<div style=""align-items: center; display: flex; color: dodgerblue; font-size: 90px""><b>o</b></div>","null","","","","forget_cue","","","","","","","","","","","","","","","",""
"html-keyboard-response","89","494707","0.0-3.0-3.0-0.13","bu5uxt5s13e01cg","practice_cue","5d5b1ca95d31e300163ddf44","5f5a55364e9b770ed21874ff","5f60d7c84e199105f3e991f3","false","null","<span style=""color: black; font-size: 48px"">N + M</span>","null","","","","resp_prompt","","","","","","","","","","","","","","","",""
"categorize-image","90","495376","0.0-3.0-3.0-1.13","bu5uxt5s13e01cg","practice_cue","5d5b1ca95d31e300163ddf44","5f5a55364e9b770ed21874ff","5f60d7c84e199105f3e991f3","true","664.3200002145022","./Stimuli/ImagesPractice/LM239.jpg","76","","","","test","true","N + M","76","","LM","LM239.jpg","remember","old","30","2","practice_forget","right","","","",""
"html-keyboard-response","91","497380","0.0-3.0-3.0-3.13","bu5uxt5s13e01cg","practice_cue","5d5b1ca95d31e300163ddf44","5f5a55364e9b770ed21874ff","5f60d7c84e199105f3e991f3","false","null","<div style=""align-items: center; display: flex; color: dodgerblue; font-size: 90px""><b>o</b></div>","null","","","","forget_cue","","","","","","","","","","","","","","","",""
"html-keyboard-response","92","498083","0.0-3.0-3.0-0.14","bu5uxt5s13e01cg","practice_cue","5d5b1ca95d31e300163ddf44","5f5a55364e9b770ed21874ff","5f60d7c84e199105f3e991f3","false","null","<span style=""color: black; font-size: 48px"">N + M</span>","null","","","","resp_prompt","","","","","","","","","","","","","","","",""
"categorize-image","93","498653","0.0-3.0-3.0-1.14","bu5uxt5s13e01cg","practice_cue","5d5b1ca95d31e300163ddf44","5f5a55364e9b770ed21874ff","5f60d7c84e199105f3e991f3","true","565.754999872297","./Stimuli/ImagesPractice/LM224.jpg","76","","","","test","true","N + M","76","","LM","LM224.jpg","remember","old","31","2","practice_forget","right","","","",""
"html-keyboard-response","94","500655","0.0-3.0-3.0-3.14","bu5uxt5s13e01cg","practice_cue","5d5b1ca95d31e300163ddf44","5f5a55364e9b770ed21874ff","5f60d7c84e199105f3e991f3","false","null","<div style=""align-items: center; display: flex; color: dodgerblue; font-size: 90px""><b>o</b></div>","null","","","","forget_cue","","","","","","","","","","","","","","","",""
"html-keyboard-response","95","501357","0.0-3.0-3.0-0.15","bu5uxt5s13e01cg","practice_cue","5d5b1ca95d31e300163ddf44","5f5a55364e9b770ed21874ff","5f60d7c84e199105f3e991f3","false","null","<span style=""color: black; font-size: 48px"">M + N</span>","null","","","","resp_prompt","","","","","","","","","","","","","","","",""
"categorize-image","96","502185","0.0-3.0-3.0-1.15","bu5uxt5s13e01cg","practice_cue","5d5b1ca95d31e300163ddf44","5f5a55364e9b770ed21874ff","5f60d7c84e199105f3e991f3","true","823.7200002186","./Stimuli/ImagesPractice/LN17.jpg","76","","","","test","true","M + N","76","","LN","LN17.jpg","remember","old","32","2","practice_forget","right","","","",""
"html-keyboard-response","97","504187","0.0-3.0-3.0-3.15","bu5uxt5s13e01cg","practice_cue","5d5b1ca95d31e300163ddf44","5f5a55364e9b770ed21874ff","5f60d7c84e199105f3e991f3","false","null","<div style=""align-items: center; display: flex; color: dodgerblue; font-size: 90px""><b>o</b></div>","null","","","","forget_cue","","","","","","","","","","","","","","","",""
"html-keyboard-response","98","557156","0.0-3.0-4.0","bu5uxt5s13e01cg","break","5d5b1ca95d31e300163ddf44","5f5a55364e9b770ed21874ff","5f60d7c84e199105f3e991f3","false","52965.859999880195","<p style='font-size: 32px;'>Break</><br><br><br><br><br><p style='font-size: 24px;'>In the last block, you committed 3 errors and did not respond in time on 0 trials.
</p><p style='font-size: 24px;'>Try to respond as fast and accurately as possible in the next block as well! </p><p style='font-size: 24px;'>Press SPACE to continue.</p>","32","","","","","","","","","","","","","","","","","","","",""
"html-keyboard-response","99","582434","0.0-3.0-5.0","bu5uxt5s13e01cg","instructions","5d5b1ca95d31e300163ddf44","5f5a55364e9b770ed21874ff","5f60d7c84e199105f3e991f3","false","25274.805000051856","<div align=left> Now, to practice, we kindly ask you to remember as many of the to-be-remembered pictures<br>of the previous learning phase as possible.<br><br>The pictures you were instructed to remember were the pictures followed by a <span style='color: dodgerblue; font-size: 28px'>O</span>.<br><br>In this memory test phase, you will also see some new pictures.<br>It is your task to remember whether you were presented with this specific picture in this study so far or not.<br>If you recognize an object (you have already seen it in this study), it is an OLD object. <br>If you do not recognize an object (you have NOT seen it in this study), it is a NEW object. <br><strong> Attention</strong>: As already mentioned, <span style='color: darkorange; font-size:28px'>Ø</span>-pictures will <strong>never</strong> appear in this memory test (neither as new objects). <br><br>Press SPACE to continue. </div>","32","","","","","","","","","","","","","","","","","","","",""
"html-keyboard-response","100","606003","0.0-3.0-6.0","bu5uxt5s13e01cg","instructions","5d5b1ca95d31e300163ddf44","5f5a55364e9b770ed21874ff","5f60d7c84e199105f3e991f3","false","23567.109999945387","<div align=left> M and N no longer will appear on the left/right of the fixation cross. <br>Instead there will be a note at the bottom of the left or right side  <br>indicating which key you should press for an old or new object:  <br> <br>Press the <strong>right</strong> key to classify an object as <strong>old</strong> and press the <strong>left</strong>, to classify an object as <strong>new</strong>.<br>Please classify the objects as new/old by again placing your index finger on the 'S' and 'L' keys <br>and press them accordingly.<br><br><strong>Old:</strong> This object has been presented before. <br><strong>New:</strong> This object has <strong>not</strong> been presented.<br><br>Now please put your right and left index fingers on the 'S' and 'L' keys of your keyboard. <br>Please respond as fast and as accurately as possible!<br><br>Press SPACE to continue. </div>","32","","","","","","","","","","","","","","","","","","","",""
"categorize-image","101","607648","0.0-3.0-7.0-0.0","bu5uxt5s13e01cg","practice_recog","5d5b1ca95d31e300163ddf44","5f5a55364e9b770ed21874ff","5f60d7c84e199105f3e991f3","true","1137.4250000808388","./Stimuli/ImagesPractice/LM224.jpg","83","","","","test","false","","76","","LM","LM224.jpg","","old","33","3","practice_recog","left","","","",""
"categorize-image","102","609127","0.0-3.0-7.0-0.1","bu5uxt5s13e01cg","practice_recog","5d5b1ca95d31e300163ddf44","5f5a55364e9b770ed21874ff","5f60d7c84e199105f3e991f3","true","971.7850000597537","./Stimuli/ImagesPractice/SM97.jpg","83","","","","test","true","","83","","SM","SM97.jpg","","new","34","3","practice_recog","left","","","",""
"categorize-image","103","610621","0.0-3.0-7.0-0.2","bu5uxt5s13e01cg","practice_recog","5d5b1ca95d31e300163ddf44","5f5a55364e9b770ed21874ff","5f60d7c84e199105f3e991f3","true","987.6800000201911","./Stimuli/ImagesPractice/SM61.jpg","83","","","","test","true","","83","","SM","SM61.jpg","","new","35","3","practice_recog","left","","","",""
"categorize-image","104","612838","0.0-3.0-7.0-0.3","bu5uxt5s13e01cg","practice_recog","5d5b1ca95d31e300163ddf44","5f5a55364e9b770ed21874ff","5f60d7c84e199105f3e991f3","true","1712.6050000078976","./Stimuli/ImagesPractice/SN205.jpg","76","","","","test","true","","76","","SN","SN205.jpg","","old","36","3","practice_recog","right","","","",""
"categorize-image","105","614087","0.0-3.0-7.0-0.4","bu5uxt5s13e01cg","practice_recog","5d5b1ca95d31e300163ddf44","5f5a55364e9b770ed21874ff","5f60d7c84e199105f3e991f3","true","745.7200000062585","./Stimuli/ImagesPractice/LN15.jpg","76","","","","test","true","","76","","LN","LN15.jpg","","old","37","3","practice_recog","right","","","",""
"categorize-image","106","615337","0.0-3.0-7.0-0.5","bu5uxt5s13e01cg","practice_recog","5d5b1ca95d31e300163ddf44","5f5a55364e9b770ed21874ff","5f60d7c84e199105f3e991f3","true","747.0600001979619","./Stimuli/ImagesPractice/LN17.jpg","76","","","","test","true","","76","","LN","LN17.jpg","","old","38","3","practice_recog","right","","","",""
"categorize-image","107","616786","0.0-3.0-7.0-0.6","bu5uxt5s13e01cg","practice_recog","5d5b1ca95d31e300163ddf44","5f5a55364e9b770ed21874ff","5f60d7c84e199105f3e991f3","true","946.6600001323968","./Stimuli/ImagesPractice/SN221.jpg","83","","","","test","true","","83","","SN","SN221.jpg","","new","39","3","practice_recog","left","","","",""
"categorize-image","108","618178","0.0-3.0-7.0-0.7","bu5uxt5s13e01cg","practice_recog","5d5b1ca95d31e300163ddf44","5f5a55364e9b770ed21874ff","5f60d7c84e199105f3e991f3","true","889.2050001304597","./Stimuli/ImagesPractice/SM37.jpg","83","","","","test","true","","83","","SM","SM37.jpg","","new","40","3","practice_recog","left","","","",""
"categorize-image","109","619652","0.0-3.0-7.0-0.8","bu5uxt5s13e01cg","practice_recog","5d5b1ca95d31e300163ddf44","5f5a55364e9b770ed21874ff","5f60d7c84e199105f3e991f3","true","966.2899998947978","./Stimuli/ImagesPractice/LN109.jpg","83","","","","test","true","","83","","LN","LN109.jpg","","new","41","3","practice_recog","left","","","",""
"categorize-image","110","621029","0.0-3.0-7.0-0.9","bu5uxt5s13e01cg","practice_recog","5d5b1ca95d31e300163ddf44","5f5a55364e9b770ed21874ff","5f60d7c84e199105f3e991f3","true","874.8949998989701","./Stimuli/ImagesPractice/LM239.jpg","76","","","","test","true","","76","","LM","LM239.jpg","","old","42","3","practice_recog","right","","","",""
"categorize-image","111","622266","0.0-3.0-7.0-0.10","bu5uxt5s13e01cg","practice_recog","5d5b1ca95d31e300163ddf44","5f5a55364e9b770ed21874ff","5f60d7c84e199105f3e991f3","true","730.2550000604242","./Stimuli/ImagesPractice/SM35.jpg","76","","","","test","true","","76","","SM","SM35.jpg","","old","43","3","practice_recog","right","","","",""
"categorize-image","112","623434","0.0-3.0-7.0-0.11","bu5uxt5s13e01cg","practice_recog","5d5b1ca95d31e300163ddf44","5f5a55364e9b770ed21874ff","5f60d7c84e199105f3e991f3","true","660.5199999175966","./Stimuli/ImagesPractice/LN72.jpg","76","","","","test","true","","76","","LN","LN72.jpg","","old","44","3","practice_recog","right","","","",""
"categorize-image","113","624560","0.0-3.0-7.0-0.12","bu5uxt5s13e01cg","practice_recog","5d5b1ca95d31e300163ddf44","5f5a55364e9b770ed21874ff","5f60d7c84e199105f3e991f3","true","620.9950000047684","./Stimuli/ImagesPractice/LM230.jpg","76","","","","test","true","","76","","LM","LM230.jpg","","old","45","3","practice_recog","right","","","",""
"categorize-image","114","625771","0.0-3.0-7.0-0.13","bu5uxt5s13e01cg","practice_recog","5d5b1ca95d31e300163ddf44","5f5a55364e9b770ed21874ff","5f60d7c84e199105f3e991f3","true","704.9300000071526","./Stimuli/ImagesPractice/LN2.jpg","83","","","","test","true","","83","","LN","LN2.jpg","","new","46","3","practice_recog","left","","","",""
"categorize-image","115","627069","0.0-3.0-7.0-0.14","bu5uxt5s13e01cg","practice_recog","5d5b1ca95d31e300163ddf44","5f5a55364e9b770ed21874ff","5f60d7c84e199105f3e991f3","true","792.6600000355393","./Stimuli/ImagesPractice/SN75.jpg","83","","","","test","true","","83","","SN","SN75.jpg","","new","47","3","practice_recog","left","","","",""
"categorize-image","116","628652","0.0-3.0-7.0-0.15","bu5uxt5s13e01cg","practice_recog","5d5b1ca95d31e300163ddf44","5f5a55364e9b770ed21874ff","5f60d7c84e199105f3e991f3","true","1075.0550001394004","./Stimuli/ImagesPractice/SN220.jpg","83","","","","test","true","","83","","SN","SN220.jpg","","new","48","3","practice_recog","left","","","",""
"html-keyboard-response","117","632352","0.0-3.0-8.0","bu5uxt5s13e01cg","instructions","5d5b1ca95d31e300163ddf44","5f5a55364e9b770ed21874ff","5f60d7c84e199105f3e991f3","false","3698.78500001505","<div align=left> Great!<br><br>Are you ready to continue?<br>If you want to reread the instructions and redo the practice trials, please <br>press „Z“.<br><br>You can proceed when you are ready.<br><br>After the presentation of each object, you will receive an instruction whether to <br>remember or to forget the object.<br>We will test your memory of the following pictures only at the very end of <br>the experiment after all learning blocks are completed. <br><br>Press SPACE to CONTINUE when you are ready. </div>","32","","","","","","","","","","","","","","","","","","","",""
"html-keyboard-response","118","635099","0.0-4.0-0.0","bu5uxt5s13e01cg","instructions","5d5b1ca95d31e300163ddf44","5f5a55364e9b770ed21874ff","5f60d7c84e199105f3e991f3","false","2745.6050000619143","<div align=left> The actual experiment is about to start.<br>The practice trials are over!<br><br>Please always respond both fast and accurately!<br><br>Remember: <br> <br><li> Please place your index fingers on the <strong>'S'</strong> and <strong>'L'</strong> keys <br>to respond as fast and accurately as possible.</li><li> Every picture can be classified as either mechanical or non-mechanical.</li><li> If you do not respond in time or commit an error, you will receive a corresponding feedback.<br> Please try to respond as <strong> fast </strong> and as <strong> accurately as possible </strong>.</li><li> Remember the <span style='color: dodgerblue; font-size: 28px'>O</span> pictures. <br></li><li> Please minimize distractions and stay focused. </li><br><br>Press SPACE to START.</div>","32","","","","","","","","","","","","","","","","","","","",""
"html-keyboard-response","119","635806","0.0-4.0-1.0-0.0","bu5uxt5s13e01cg","prime","5d5b1ca95d31e300163ddf44","5f5a55364e9b770ed21874ff","5f60d7c84e199105f3e991f3","false","null","<span style=""color: black; font-size: 48px"">N + M</span>","null","","","","resp_prompt","","","","","","","","","","","","","","","",""
"categorize-image","120","636455","0.0-4.0-1.0-1.0","bu5uxt5s13e01cg","prime","5d5b1ca95d31e300163ddf44","5f5a55364e9b770ed21874ff","5f60d7c84e199105f3e991f3","true","644.6849999483675","./Stimuli/SelectedImages/SN/SN182.bmp","83","","","","test","true","N + M","83","switch","SN","SN182.bmp","remember","","49","3","prime1","left","","","",""
"html-keyboard-response","121","638462","0.0-4.0-1.0-3.0","bu5uxt5s13e01cg","prime","5d5b1ca95d31e300163ddf44","5f5a55364e9b770ed21874ff","5f60d7c84e199105f3e991f3","false","null","<div style=""align-items: center; display: flex; color: dodgerblue; font-size: 90px""><b>o</b></div>","null","","","","forget_cue","","","","","","","","","","","","","","","",""
"html-keyboard-response","122","639168","0.0-4.0-1.0-0.1","bu5uxt5s13e01cg","prime","5d5b1ca95d31e300163ddf44","5f5a55364e9b770ed21874ff","5f60d7c84e199105f3e991f3","false","null","<span style=""color: black; font-size: 48px"">M + N</span>","null","","","","resp_prompt","","","","","","","","","","","","","","","",""
"categorize-image","123","640012","0.0-4.0-1.0-1.1","bu5uxt5s13e01cg","prime","5d5b1ca95d31e300163ddf44","5f5a55364e9b770ed21874ff","5f60d7c84e199105f3e991f3","true","839.1950000077486","./Stimuli/SelectedImages/SN/SN155.bmp","76","","","","test","true","M + N","76","switch","SN","SN155.bmp","remember","","50","3","prime1","right","","","",""
"html-keyboard-response","124","642013","0.0-4.0-1.0-3.1","bu5uxt5s13e01cg","prime","5d5b1ca95d31e300163ddf44","5f5a55364e9b770ed21874ff","5f60d7c84e199105f3e991f3","false","null","<div style=""align-items: center; display: flex; color: dodgerblue; font-size: 90px""><b>o</b></div>","null","","","","forget_cue","","","","","","","","","","","","","","","",""
"html-keyboard-response","125","642720","0.0-4.0-1.0-0.2","bu5uxt5s13e01cg","prime","5d5b1ca95d31e300163ddf44","5f5a55364e9b770ed21874ff","5f60d7c84e199105f3e991f3","false","null","<span style=""color: black; font-size: 48px"">N + M</span>","null","","","","resp_prompt","","","","","","","","","","","","","","","",""
"categorize-image","126","643491","0.0-4.0-1.0-1.2","bu5uxt5s13e01cg","prime","5d5b1ca95d31e300163ddf44","5f5a55364e9b770ed21874ff","5f60d7c84e199105f3e991f3","true","766.0300000570714","./Stimuli/SelectedImages/SM/SM213.bmp","83","","","","test","false","N + M","76","switch","SM","SM213.bmp","remember","","51","3","prime1","left","","","",""
"html-keyboard-response","127","643993","0.0-4.0-1.0-2.2-0.2","bu5uxt5s13e01cg","prime","5d5b1ca95d31e300163ddf44","5f5a55364e9b770ed21874ff","5f60d7c84e199105f3e991f3","false","null","<span style=""color: red; font-size: 48px"">Error!</span>","null","","","","feedback","","","","","","","","","","","","","","","",""
"html-keyboard-response","128","645999","0.0-4.0-1.0-3.2","bu5uxt5s13e01cg","prime","5d5b1ca95d31e300163ddf44","5f5a55364e9b770ed21874ff","5f60d7c84e199105f3e991f3","false","null","<div style=""align-items: center; display: flex; color: dodgerblue; font-size: 90px""><b>o</b></div>","null","","","","forget_cue","","","","","","","","","","","","","","","",""
"html-keyboard-response","129","646706","0.0-4.0-1.0-0.3","bu5uxt5s13e01cg","prime","5d5b1ca95d31e300163ddf44","5f5a55364e9b770ed21874ff","5f60d7c84e199105f3e991f3","false","null","<span style=""color: black; font-size: 48px"">M + N</span>","null","","","","resp_prompt","","","","","","","","","","","","","","","",""
"categorize-image","130","647459","0.0-4.0-1.0-1.3","bu5uxt5s13e01cg","prime","5d5b1ca95d31e300163ddf44","5f5a55364e9b770ed21874ff","5f60d7c84e199105f3e991f3","true","748.1249999254942","./Stimuli/SelectedImages/SM/SM195.bmp","83","","","","test","true","M + N","83","switch","SM","SM195.bmp","remember","","52","3","prime1","left","","","",""
"html-keyboard-response","131","649462","0.0-4.0-1.0-3.3","bu5uxt5s13e01cg","prime","5d5b1ca95d31e300163ddf44","5f5a55364e9b770ed21874ff","5f60d7c84e199105f3e991f3","false","null","<div style=""align-items: center; display: flex; color: dodgerblue; font-size: 90px""><b>o</b></div>","null","","","","forget_cue","","","","","","","","","","","","","","","",""
"html-keyboard-response","132","650163","0.0-4.0-1.0-0.4","bu5uxt5s13e01cg","prime","5d5b1ca95d31e300163ddf44","5f5a55364e9b770ed21874ff","5f60d7c84e199105f3e991f3","false","null","<span style=""color: black; font-size: 48px"">M + N</span>","null","","","","resp_prompt","","","","","","","","","","","","","","","",""
"categorize-image","133","650917","0.0-4.0-1.0-1.4","bu5uxt5s13e01cg","prime","5d5b1ca95d31e300163ddf44","5f5a55364e9b770ed21874ff","5f60d7c84e199105f3e991f3","true","749.5649999473244","./Stimuli/SelectedImages/SN/SN240.bmp","76","","","","test","true","M + N","76","switch","SN","SN240.bmp","forget","","53","3","prime1","right","","","",""
"html-keyboard-response","134","652923","0.0-4.0-1.0-3.4","bu5uxt5s13e01cg","prime","5d5b1ca95d31e300163ddf44","5f5a55364e9b770ed21874ff","5f60d7c84e199105f3e991f3","false","null","<div style=""align-items: center; display: flex; color: darkorange; font-size: 90px""><b>ø</b></div>","null","","","","forget_cue","","","","","","","","","","","","","","","",""
"html-keyboard-response","135","653630","0.0-4.0-1.0-0.5","bu5uxt5s13e01cg","prime","5d5b1ca95d31e300163ddf44","5f5a55364e9b770ed21874ff","5f60d7c84e199105f3e991f3","false","null","<span style=""color: black; font-size: 48px"">N + M</span>","null","","","","resp_prompt","","","","","","","","","","","","","","","",""
"categorize-image","136","654396","0.0-4.0-1.0-1.5","bu5uxt5s13e01cg","prime","5d5b1ca95d31e300163ddf44","5f5a55364e9b770ed21874ff","5f60d7c84e199105f3e991f3","true","762.2200001496822","./Stimuli/SelectedImages/LM/LM103.bmp","83","","","","test","false","N + M","76","switch","LM","LM103.bmp","remember","","54","3","prime1","left","","","",""
"html-keyboard-response","137","654899","0.0-4.0-1.0-2.5-0.5","bu5uxt5s13e01cg","prime","5d5b1ca95d31e300163ddf44","5f5a55364e9b770ed21874ff","5f60d7c84e199105f3e991f3","false","null","<span style=""color: red; font-size: 48px"">Error!</span>","null","","","","feedback","","","","","","","","","","","","","","","",""
"html-keyboard-response","138","656905","0.0-4.0-1.0-3.5","bu5uxt5s13e01cg","prime","5d5b1ca95d31e300163ddf44","5f5a55364e9b770ed21874ff","5f60d7c84e199105f3e991f3","false","null","<div style=""align-items: center; display: flex; color: dodgerblue; font-size: 90px""><b>o</b></div>","null","","","","forget_cue","","","","","","","","","","","","","","","",""
"html-keyboard-response","139","657611","0.0-4.0-1.0-0.6","bu5uxt5s13e01cg","prime","5d5b1ca95d31e300163ddf44","5f5a55364e9b770ed21874ff","5f60d7c84e199105f3e991f3","false","null","<span style=""color: black; font-size: 48px"">M + N</span>","null","","","","resp_prompt","","","","","","","","","","","","","","","",""
"categorize-image","140","658164","0.0-4.0-1.0-1.6","bu5uxt5s13e01cg","prime","5d5b1ca95d31e300163ddf44","5f5a55364e9b770ed21874ff","5f60d7c84e199105f3e991f3","true","548.1000000145286","./Stimuli/SelectedImages/LM/LM179.bmp","83","","","","test","true","M + N","83","repetition","LM","LM179.bmp","remember","","55","3","prime1","left","","","",""
"html-keyboard-response","141","660166","0.0-4.0-1.0-3.6","bu5uxt5s13e01cg","prime","5d5b1ca95d31e300163ddf44","5f5a55364e9b770ed21874ff","5f60d7c84e199105f3e991f3","false","null","<div style=""align-items: center; display: flex; color: dodgerblue; font-size: 90px""><b>o</b></div>","null","","","","forget_cue","","","","","","","","","","","","","","","",""
"html-keyboard-response","142","660873","0.0-4.0-1.0-0.7","bu5uxt5s13e01cg","prime","5d5b1ca95d31e300163ddf44","5f5a55364e9b770ed21874ff","5f60d7c84e199105f3e991f3","false","null","<span style=""color: black; font-size: 48px"">M + N</span>","null","","","","resp_prompt","","","","","","","","","","","","","","","",""
"categorize-image","143","661456","0.0-4.0-1.0-1.7","bu5uxt5s13e01cg","prime","5d5b1ca95d31e300163ddf44","5f5a55364e9b770ed21874ff","5f60d7c84e199105f3e991f3","true","578.660000115633","./Stimuli/SelectedImages/SN/SN187.bmp","76","","","","test","true","M + N","76","repetition","SN","SN187.bmp","forget","","56","3","prime1","right","","","",""
"html-keyboard-response","144","663462","0.0-4.0-1.0-3.7","bu5uxt5s13e01cg","prime","5d5b1ca95d31e300163ddf44","5f5a55364e9b770ed21874ff","5f60d7c84e199105f3e991f3","false","null","<div style=""align-items: center; display: flex; color: darkorange; font-size: 90px""><b>ø</b></div>","null","","","","forget_cue","","","","","","","","","","","","","","","",""
"html-keyboard-response","145","664168","0.0-4.0-1.0-0.8","bu5uxt5s13e01cg","prime","5d5b1ca95d31e300163ddf44","5f5a55364e9b770ed21874ff","5f60d7c84e199105f3e991f3","false","null","<span style=""color: black; font-size: 48px"">N + M</span>","null","","","","resp_prompt","","","","","","","","","","","","","","","",""
"categorize-image","146","664850","0.0-4.0-1.0-1.8","bu5uxt5s13e01cg","prime","5d5b1ca95d31e300163ddf44","5f5a55364e9b770ed21874ff","5f60d7c84e199105f3e991f3","true","677.3149999789894","./Stimuli/SelectedImages/LM/LM235.bmp","76","","","","test","true","N + M","76","repetition","LM","LM235.bmp","remember","","57","3","prime1","right","","","",""
"html-keyboard-response","147","666857","0.0-4.0-1.0-3.8","bu5uxt5s13e01cg","prime","5d5b1ca95d31e300163ddf44","5f5a55364e9b770ed21874ff","5f60d7c84e199105f3e991f3","false","null","<div style=""align-items: center; display: flex; color: dodgerblue; font-size: 90px""><b>o</b></div>","null","","","","forget_cue","","","","","","","","","","","","","","","",""
"html-keyboard-response","148","667562","0.0-4.0-1.0-0.9","bu5uxt5s13e01cg","prime","5d5b1ca95d31e300163ddf44","5f5a55364e9b770ed21874ff","5f60d7c84e199105f3e991f3","false","null","<span style=""color: black; font-size: 48px"">N + M</span>","null","","","","resp_prompt","","","","","","","","","","","","","","","",""
"categorize-image","149","668178","0.0-4.0-1.0-1.9","bu5uxt5s13e01cg","prime","5d5b1ca95d31e300163ddf44","5f5a55364e9b770ed21874ff","5f60d7c84e199105f3e991f3","true","611.7099998518825","./Stimuli/SelectedImages/LN/LN101.bmp","83","","","","test","true","N + M","83","switch","LN","LN101.bmp","forget","","58","3","prime1","left","","","",""
"html-keyboard-response","150","670185","0.0-4.0-1.0-3.9","bu5uxt5s13e01cg","prime","5d5b1ca95d31e300163ddf44","5f5a55364e9b770ed21874ff","5f60d7c84e199105f3e991f3","false","null","<div style=""align-items: center; display: flex; color: darkorange; font-size: 90px""><b>ø</b></div>","null","","","","forget_cue","","","","","","","","","","","","","","","",""
"html-keyboard-response","151","670888","0.0-4.0-1.0-0.10","bu5uxt5s13e01cg","prime","5d5b1ca95d31e300163ddf44","5f5a55364e9b770ed21874ff","5f60d7c84e199105f3e991f3","false","null","<span style=""color: black; font-size: 48px"">M + N</span>","null","","","","resp_prompt","","","","","","","","","","","","","","","",""
"categorize-image","152","671487","0.0-4.0-1.0-1.10","bu5uxt5s13e01cg","prime","5d5b1ca95d31e300163ddf44","5f5a55364e9b770ed21874ff","5f60d7c84e199105f3e991f3","true","594.2200000863522","./Stimuli/SelectedImages/SM/SM73.bmp","83","","","","test","true","M + N","83","repetition","SM","SM73.bmp","remember","","59","3","prime1","left","","","",""
"html-keyboard-response","153","673489","0.0-4.0-1.0-3.10","bu5uxt5s13e01cg","prime","5d5b1ca95d31e300163ddf44","5f5a55364e9b770ed21874ff","5f60d7c84e199105f3e991f3","false","null","<div style=""align-items: center; display: flex; color: dodgerblue; font-size: 90px""><b>o</b></div>","null","","","","forget_cue","","","","","","","","","","","","","","","",""
"html-keyboard-response","154","674194","0.0-4.0-1.0-0.11","bu5uxt5s13e01cg","prime","5d5b1ca95d31e300163ddf44","5f5a55364e9b770ed21874ff","5f60d7c84e199105f3e991f3","false","null","<span style=""color: black; font-size: 48px"">M + N</span>","null","","","","resp_prompt","","","","","","","","","","","","","","","",""
"categorize-image","155","674774","0.0-4.0-1.0-1.11","bu5uxt5s13e01cg","prime","5d5b1ca95d31e300163ddf44","5f5a55364e9b770ed21874ff","5f60d7c84e199105f3e991f3","true","574.9099999666214","./Stimuli/SelectedImages/SN/SN140.bmp","76","","","","test","true","M + N","76","repetition","SN","SN140.bmp","remember","","60","3","prime1","right","","","",""
"html-keyboard-response","156","676781","0.0-4.0-1.0-3.11","bu5uxt5s13e01cg","prime","5d5b1ca95d31e300163ddf44","5f5a55364e9b770ed21874ff","5f60d7c84e199105f3e991f3","false","null","<div style=""align-items: center; display: flex; color: dodgerblue; font-size: 90px""><b>o</b></div>","null","","","","forget_cue","","","","","","","","","","","","","","","",""
"html-keyboard-response","157","677487","0.0-4.0-1.0-0.12","bu5uxt5s13e01cg","prime","5d5b1ca95d31e300163ddf44","5f5a55364e9b770ed21874ff","5f60d7c84e199105f3e991f3","false","null","<span style=""color: black; font-size: 48px"">N + M</span>","null","","","","resp_prompt","","","","","","","","","","","","","","","",""
"categorize-image","158","678180","0.0-4.0-1.0-1.12","bu5uxt5s13e01cg","prime","5d5b1ca95d31e300163ddf44","5f5a55364e9b770ed21874ff","5f60d7c84e199105f3e991f3","true","688.8550000730902","./Stimuli/SelectedImages/SM/SM207.bmp","76","","","","test","true","N + M","76","repetition","SM","SM207.bmp","remember","","61","3","prime1","right","","","",""
"html-keyboard-response","159","680187","0.0-4.0-1.0-3.12","bu5uxt5s13e01cg","prime","5d5b1ca95d31e300163ddf44","5f5a55364e9b770ed21874ff","5f60d7c84e199105f3e991f3","false","null","<div style=""align-items: center; display: flex; color: dodgerblue; font-size: 90px""><b>o</b></div>","null","","","","forget_cue","","","","","","","","","","","","","","","",""
"html-keyboard-response","160","680888","0.0-4.0-1.0-0.13","bu5uxt5s13e01cg","prime","5d5b1ca95d31e300163ddf44","5f5a55364e9b770ed21874ff","5f60d7c84e199105f3e991f3","false","null","<span style=""color: black; font-size: 48px"">M + N</span>","null","","","","resp_prompt","","","","","","","","","","","","","","","",""
"categorize-image","161","681703","0.0-4.0-1.0-1.13","bu5uxt5s13e01cg","prime","5d5b1ca95d31e300163ddf44","5f5a55364e9b770ed21874ff","5f60d7c84e199105f3e991f3","true","810.374999884516","./Stimuli/SelectedImages/SM/SM74.bmp","83","","","","test","true","M + N","83","switch","SM","SM74.bmp","forget","","62","3","prime1","left","","","",""
"html-keyboard-response","162","683709","0.0-4.0-1.0-3.13","bu5uxt5s13e01cg","prime","5d5b1ca95d31e300163ddf44","5f5a55364e9b770ed21874ff","5f60d7c84e199105f3e991f3","false","null","<div style=""align-items: center; display: flex; color: darkorange; font-size: 90px""><b>ø</b></div>","null","","","","forget_cue","","","","","","","","","","","","","","","",""
"html-keyboard-response","163","684413","0.0-4.0-1.0-0.14","bu5uxt5s13e01cg","prime","5d5b1ca95d31e300163ddf44","5f5a55364e9b770ed21874ff","5f60d7c84e199105f3e991f3","false","null","<span style=""color: black; font-size: 48px"">N + M</span>","null","","","","resp_prompt","","","","","","","","","","","","","","","",""
"categorize-image","164","685017","0.0-4.0-1.0-1.14","bu5uxt5s13e01cg","prime","5d5b1ca95d31e300163ddf44","5f5a55364e9b770ed21874ff","5f60d7c84e199105f3e991f3","true","600.109999999404","./Stimuli/SelectedImages/LN/LN12.bmp","83","","","","test","true","N + M","83","switch","LN","LN12.bmp","remember","","63","3","prime1","left","","","",""
"html-keyboard-response","165","687020","0.0-4.0-1.0-3.14","bu5uxt5s13e01cg","prime","5d5b1ca95d31e300163ddf44","5f5a55364e9b770ed21874ff","5f60d7c84e199105f3e991f3","false","null","<div style=""align-items: center; display: flex; color: dodgerblue; font-size: 90px""><b>o</b></div>","null","","","","forget_cue","","","","","","","","","","","","","","","",""
"html-keyboard-response","166","687723","0.0-4.0-1.0-0.15","bu5uxt5s13e01cg","prime","5d5b1ca95d31e300163ddf44","5f5a55364e9b770ed21874ff","5f60d7c84e199105f3e991f3","false","null","<span style=""color: black; font-size: 48px"">M + N</span>","null","","","","resp_prompt","","","","","","","","","","","","","","","",""
"categorize-image","167","688365","0.0-4.0-1.0-1.15","bu5uxt5s13e01cg","prime","5d5b1ca95d31e300163ddf44","5f5a55364e9b770ed21874ff","5f60d7c84e199105f3e991f3","true","638.7950000353158","./Stimuli/SelectedImages/SM/SM200.bmp","83","","","","test","true","M + N","83","switch","SM","SM200.bmp","remember","","64","3","prime1","left","","","",""
"html-keyboard-response","168","690368","0.0-4.0-1.0-3.15","bu5uxt5s13e01cg","prime","5d5b1ca95d31e300163ddf44","5f5a55364e9b770ed21874ff","5f60d7c84e199105f3e991f3","false","null","<div style=""align-items: center; display: flex; color: dodgerblue; font-size: 90px""><b>o</b></div>","null","","","","forget_cue","","","","","","","","","","","","","","","",""
"html-keyboard-response","169","691074","0.0-4.0-1.0-0.16","bu5uxt5s13e01cg","prime","5d5b1ca95d31e300163ddf44","5f5a55364e9b770ed21874ff","5f60d7c84e199105f3e991f3","false","null","<span style=""color: black; font-size: 48px"">N + M</span>","null","","","","resp_prompt","","","","","","","","","","","","","","","",""
"categorize-image","170","691700","0.0-4.0-1.0-1.16","bu5uxt5s13e01cg","prime","5d5b1ca95d31e300163ddf44","5f5a55364e9b770ed21874ff","5f60d7c84e199105f3e991f3","true","621.4449999388307","./Stimuli/SelectedImages/LM/LM100.bmp","76","","","","test","true","N + M","76","switch","LM","LM100.bmp","forget","","65","3","prime1","right","","","",""
"html-keyboard-response","171","693703","0.0-4.0-1.0-3.16","bu5uxt5s13e01cg","prime","5d5b1ca95d31e300163ddf44","5f5a55364e9b770ed21874ff","5f60d7c84e199105f3e991f3","false","null","<div style=""align-items: center; display: flex; color: darkorange; font-size: 90px""><b>ø</b></div>","null","","","","forget_cue","","","","","","","","","","","","","","","",""
"html-keyboard-response","172","694404","0.0-4.0-1.0-0.17","bu5uxt5s13e01cg","prime","5d5b1ca95d31e300163ddf44","5f5a55364e9b770ed21874ff","5f60d7c84e199105f3e991f3","false","null","<span style=""color: black; font-size: 48px"">N + M</span>","null","","","","resp_prompt","","","","","","","","","","","","","","","",""
"categorize-image","173","695226","0.0-4.0-1.0-1.17","bu5uxt5s13e01cg","prime","5d5b1ca95d31e300163ddf44","5f5a55364e9b770ed21874ff","5f60d7c84e199105f3e991f3","true","817.805000115186","./Stimuli/SelectedImages/LM/LM150.bmp","83","","","","test","false","N + M","76","repetition","LM","LM150.bmp","forget","","66","3","prime1","left","","","",""
"html-keyboard-response","174","695727","0.0-4.0-1.0-2.17-0.17","bu5uxt5s13e01cg","prime","5d5b1ca95d31e300163ddf44","5f5a55364e9b770ed21874ff","5f60d7c84e199105f3e991f3","false","null","<span style=""color: red; font-size: 48px"">Error!</span>","null","","","","feedback","","","","","","","","","","","","","","","",""
"html-keyboard-response","175","697730","0.0-4.0-1.0-3.17","bu5uxt5s13e01cg","prime","5d5b1ca95d31e300163ddf44","5f5a55364e9b770ed21874ff","5f60d7c84e199105f3e991f3","false","null","<div style=""align-items: center; display: flex; color: darkorange; font-size: 90px""><b>ø</b></div>","null","","","","forget_cue","","","","","","","","","","","","","","","",""
"html-keyboard-response","176","698436","0.0-4.0-1.0-0.18","bu5uxt5s13e01cg","prime","5d5b1ca95d31e300163ddf44","5f5a55364e9b770ed21874ff","5f60d7c84e199105f3e991f3","false","null","<span style=""color: black; font-size: 48px"">N + M</span>","null","","","","resp_prompt","","","","","","","","","","","","","","","",""
"categorize-image","177","699038","0.0-4.0-1.0-1.18","bu5uxt5s13e01cg","prime","5d5b1ca95d31e300163ddf44","5f5a55364e9b770ed21874ff","5f60d7c84e199105f3e991f3","true","598.0549999512732","./Stimuli/SelectedImages/LM/LM129.bmp","76","","","","test","true","N + M","76","repetition","LM","LM129.bmp","forget","","67","3","prime1","right","","","",""
"html-keyboard-response","178","701045","0.0-4.0-1.0-3.18","bu5uxt5s13e01cg","prime","5d5b1ca95d31e300163ddf44","5f5a55364e9b770ed21874ff","5f60d7c84e199105f3e991f3","false","null","<div style=""align-items: center; display: flex; color: darkorange; font-size: 90px""><b>ø</b></div>","null","","","","forget_cue","","","","","","","","","","","","","","","",""
"html-keyboard-response","179","701751","0.0-4.0-1.0-0.19","bu5uxt5s13e01cg","prime","5d5b1ca95d31e300163ddf44","5f5a55364e9b770ed21874ff","5f60d7c84e199105f3e991f3","false","null","<span style=""color: black; font-size: 48px"">N + M</span>","null","","","","resp_prompt","","","","","","","","","","","","","","","",""
"categorize-image","180","702331","0.0-4.0-1.0-1.19","bu5uxt5s13e01cg","prime","5d5b1ca95d31e300163ddf44","5f5a55364e9b770ed21874ff","5f60d7c84e199105f3e991f3","true","575.5500001832843","./Stimuli/SelectedImages/LN/LN128.bmp","83","","","","test","true","N + M","83","switch","LN","LN128.bmp","forget","","68","3","prime1","left","","","",""
"html-keyboard-response","181","704337","0.0-4.0-1.0-3.19","bu5uxt5s13e01cg","prime","5d5b1ca95d31e300163ddf44","5f5a55364e9b770ed21874ff","5f60d7c84e199105f3e991f3","false","null","<div style=""align-items: center; display: flex; color: darkorange; font-size: 90px""><b>ø</b></div>","null","","","","forget_cue","","","","","","","","","","","","","","","",""
"html-keyboard-response","182","705038","0.0-4.0-1.0-0.20","bu5uxt5s13e01cg","prime","5d5b1ca95d31e300163ddf44","5f5a55364e9b770ed21874ff","5f60d7c84e199105f3e991f3","false","null","<span style=""color: black; font-size: 48px"">N + M</span>","null","","","","resp_prompt","","","","","","","","","","","","","","","",""
"categorize-image","183","705620","0.0-4.0-1.0-1.20","bu5uxt5s13e01cg","prime","5d5b1ca95d31e300163ddf44","5f5a55364e9b770ed21874ff","5f60d7c84e199105f3e991f3","true","577.2149998228997","./Stimuli/SelectedImages/SN/SN52.bmp","83","","","","test","true","N + M","83","switch","SN","SN52.bmp","forget","","69","3","prime1","left","","","",""
"html-keyboard-response","184","707627","0.0-4.0-1.0-3.20","bu5uxt5s13e01cg","prime","5d5b1ca95d31e300163ddf44","5f5a55364e9b770ed21874ff","5f60d7c84e199105f3e991f3","false","null","<div style=""align-items: center; display: flex; color: darkorange; font-size: 90px""><b>ø</b></div>","null","","","","forget_cue","","","","","","","","","","","","","","","",""
"html-keyboard-response","185","708333","0.0-4.0-1.0-0.21","bu5uxt5s13e01cg","prime","5d5b1ca95d31e300163ddf44","5f5a55364e9b770ed21874ff","5f60d7c84e199105f3e991f3","false","null","<span style=""color: black; font-size: 48px"">M + N</span>","null","","","","resp_prompt","","","","","","","","","","","","","","","",""
"categorize-image","186","708994","0.0-4.0-1.0-1.21","bu5uxt5s13e01cg","prime","5d5b1ca95d31e300163ddf44","5f5a55364e9b770ed21874ff","5f60d7c84e199105f3e991f3","true","656.2000000849366","./Stimuli/SelectedImages/LN/LN131.bmp","76","","","","test","true","M + N","76","switch","LN","LN131.bmp","remember","","70","3","prime1","right","","","",""
"html-keyboard-response","187","711000","0.0-4.0-1.0-3.21","bu5uxt5s13e01cg","prime","5d5b1ca95d31e300163ddf44","5f5a55364e9b770ed21874ff","5f60d7c84e199105f3e991f3","false","null","<div style=""align-items: center; display: flex; color: dodgerblue; font-size: 90px""><b>o</b></div>","null","","","","forget_cue","","","","","","","","","","","","","","","",""
"html-keyboard-response","188","711704","0.0-4.0-1.0-0.22","bu5uxt5s13e01cg","prime","5d5b1ca95d31e300163ddf44","5f5a55364e9b770ed21874ff","5f60d7c84e199105f3e991f3","false","null","<span style=""color: black; font-size: 48px"">M + N</span>","null","","","","resp_prompt","","","","","","","","","","","","","","","",""
"categorize-image","189","712420","0.0-4.0-1.0-1.22","bu5uxt5s13e01cg","prime","5d5b1ca95d31e300163ddf44","5f5a55364e9b770ed21874ff","5f60d7c84e199105f3e991f3","true","711.0399999655783","./Stimuli/SelectedImages/LN/LN82.bmp","83","","","","test","false","M + N","76","switch","LN","LN82.bmp","remember","","71","3","prime1","left","","","",""
"html-keyboard-response","190","712921","0.0-4.0-1.0-2.22-0.22","bu5uxt5s13e01cg","prime","5d5b1ca95d31e300163ddf44","5f5a55364e9b770ed21874ff","5f60d7c84e199105f3e991f3","false","null","<span style=""color: red; font-size: 48px"">Error!</span>","null","","","","feedback","","","","","","","","","","","","","","","",""
"html-keyboard-response","191","714928","0.0-4.0-1.0-3.22","bu5uxt5s13e01cg","prime","5d5b1ca95d31e300163ddf44","5f5a55364e9b770ed21874ff","5f60d7c84e199105f3e991f3","false","null","<div style=""align-items: center; display: flex; color: dodgerblue; font-size: 90px""><b>o</b></div>","null","","","","forget_cue","","","","","","","","","","","","","","","",""
"html-keyboard-response","192","715634","0.0-4.0-1.0-0.23","bu5uxt5s13e01cg","prime","5d5b1ca95d31e300163ddf44","5f5a55364e9b770ed21874ff","5f60d7c84e199105f3e991f3","false","null","<span style=""color: black; font-size: 48px"">N + M</span>","null","","","","resp_prompt","","","","","","","","","","","","","","","",""
"categorize-image","193","716262","0.0-4.0-1.0-1.23","bu5uxt5s13e01cg","prime","5d5b1ca95d31e300163ddf44","5f5a55364e9b770ed21874ff","5f60d7c84e199105f3e991f3","true","623.0299999006093","./Stimuli/SelectedImages/SM/SM184.bmp","76","","","","test","true","N + M","76","repetition","SM","SM184.bmp","remember","","72","3","prime1","right","","","",""
"html-keyboard-response","194","718263","0.0-4.0-1.0-3.23","bu5uxt5s13e01cg","prime","5d5b1ca95d31e300163ddf44","5f5a55364e9b770ed21874ff","5f60d7c84e199105f3e991f3","false","null","<div style=""align-items: center; display: flex; color: dodgerblue; font-size: 90px""><b>o</b></div>","null","","","","forget_cue","","","","","","","","","","","","","","","",""
"html-keyboard-response","195","718964","0.0-4.0-1.0-0.24","bu5uxt5s13e01cg","prime","5d5b1ca95d31e300163ddf44","5f5a55364e9b770ed21874ff","5f60d7c84e199105f3e991f3","false","null","<span style=""color: black; font-size: 48px"">N + M</span>","null","","","","resp_prompt","","","","","","","","","","","","","","","",""
"categorize-image","196","719509","0.0-4.0-1.0-1.24","bu5uxt5s13e01cg","prime","5d5b1ca95d31e300163ddf44","5f5a55364e9b770ed21874ff","5f60d7c84e199105f3e991f3","true","539.6199999377131","./Stimuli/SelectedImages/SM/SM108.bmp","76","","","","test","true","N + M","76","switch","SM","SM108.bmp","remember","","73","3","prime1","right","","","",""
"html-keyboard-response","197","721513","0.0-4.0-1.0-3.24","bu5uxt5s13e01cg","prime","5d5b1ca95d31e300163ddf44","5f5a55364e9b770ed21874ff","5f60d7c84e199105f3e991f3","false","null","<div style=""align-items: center; display: flex; color: dodgerblue; font-size: 90px""><b>o</b></div>","null","","","","forget_cue","","","","","","","","","","","","","","","",""
"html-keyboard-response","198","722215","0.0-4.0-1.0-0.25","bu5uxt5s13e01cg","prime","5d5b1ca95d31e300163ddf44","5f5a55364e9b770ed21874ff","5f60d7c84e199105f3e991f3","false","null","<span style=""color: black; font-size: 48px"">N + M</span>","null","","","","resp_prompt","","","","","","","","","","","","","","","",""
"categorize-image","199","722779","0.0-4.0-1.0-1.25","bu5uxt5s13e01cg","prime","5d5b1ca95d31e300163ddf44","5f5a55364e9b770ed21874ff","5f60d7c84e199105f3e991f3","true","559.2099998611957","./Stimuli/SelectedImages/LM/LM51.bmp","76","","","","test","true","N + M","76","switch","LM","LM51.bmp","forget","","74","3","prime1","right","","","",""
"html-keyboard-response","200","724783","0.0-4.0-1.0-3.25","bu5uxt5s13e01cg","prime","5d5b1ca95d31e300163ddf44","5f5a55364e9b770ed21874ff","5f60d7c84e199105f3e991f3","false","null","<div style=""align-items: center; display: flex; color: darkorange; font-size: 90px""><b>ø</b></div>","null","","","","forget_cue","","","","","","","","","","","","","","","",""
"html-keyboard-response","201","725490","0.0-4.0-1.0-0.26","bu5uxt5s13e01cg","prime","5d5b1ca95d31e300163ddf44","5f5a55364e9b770ed21874ff","5f60d7c84e199105f3e991f3","false","null","<span style=""color: black; font-size: 48px"">M + N</span>","null","","","","resp_prompt","","","","","","","","","","","","","","","",""
"categorize-image","202","726400","0.0-4.0-1.0-1.26","bu5uxt5s13e01cg","prime","5d5b1ca95d31e300163ddf44","5f5a55364e9b770ed21874ff","5f60d7c84e199105f3e991f3","true","905.714999884367","./Stimuli/SelectedImages/LM/LM216.bmp","83","","","","test","true","M + N","83","repetition","LM","LM216.bmp","remember","","75","3","prime1","left","","","",""
"html-keyboard-response","203","728406","0.0-4.0-1.0-3.26","bu5uxt5s13e01cg","prime","5d5b1ca95d31e300163ddf44","5f5a55364e9b770ed21874ff","5f60d7c84e199105f3e991f3","false","null","<div style=""align-items: center; display: flex; color: dodgerblue; font-size: 90px""><b>o</b></div>","null","","","","forget_cue","","","","","","","","","","","","","","","",""
"html-keyboard-response","204","729112","0.0-4.0-1.0-0.27","bu5uxt5s13e01cg","prime","5d5b1ca95d31e300163ddf44","5f5a55364e9b770ed21874ff","5f60d7c84e199105f3e991f3","false","null","<span style=""color: black; font-size: 48px"">M + N</span>","null","","","","resp_prompt","","","","","","","","","","","","","","","",""
"categorize-image","205","729886","0.0-4.0-1.0-1.27","bu5uxt5s13e01cg","prime","5d5b1ca95d31e300163ddf44","5f5a55364e9b770ed21874ff","5f60d7c84e199105f3e991f3","true","769.3700001109391","./Stimuli/SelectedImages/LM/LM48.bmp","83","","","","test","true","M + N","83","switch","LM","LM48.bmp","forget","","76","3","prime1","left","","","",""
"html-keyboard-response","206","731890","0.0-4.0-1.0-3.27","bu5uxt5s13e01cg","prime","5d5b1ca95d31e300163ddf44","5f5a55364e9b770ed21874ff","5f60d7c84e199105f3e991f3","false","null","<div style=""align-items: center; display: flex; color: darkorange; font-size: 90px""><b>ø</b></div>","null","","","","forget_cue","","","","","","","","","","","","","","","",""
"html-keyboard-response","207","732596","0.0-4.0-1.0-0.28","bu5uxt5s13e01cg","prime","5d5b1ca95d31e300163ddf44","5f5a55364e9b770ed21874ff","5f60d7c84e199105f3e991f3","false","null","<span style=""color: black; font-size: 48px"">M + N</span>","null","","","","resp_prompt","","","","","","","","","","","","","","","",""
"categorize-image","208","733307","0.0-4.0-1.0-1.28","bu5uxt5s13e01cg","prime","5d5b1ca95d31e300163ddf44","5f5a55364e9b770ed21874ff","5f60d7c84e199105f3e991f3","true","706.464999821037","./Stimuli/SelectedImages/LN/LN177.bmp","76","","","","test","true","M + N","76","repetition","LN","LN177.bmp","remember","","77","3","prime1","right","","","",""
"html-keyboard-response","209","735309","0.0-4.0-1.0-3.28","bu5uxt5s13e01cg","prime","5d5b1ca95d31e300163ddf44","5f5a55364e9b770ed21874ff","5f60d7c84e199105f3e991f3","false","null","<div style=""align-items: center; display: flex; color: dodgerblue; font-size: 90px""><b>o</b></div>","null","","","","forget_cue","","","","","","","","","","","","","","","",""
"html-keyboard-response","210","736014","0.0-4.0-1.0-0.29","bu5uxt5s13e01cg","prime","5d5b1ca95d31e300163ddf44","5f5a55364e9b770ed21874ff","5f60d7c84e199105f3e991f3","false","null","<span style=""color: black; font-size: 48px"">N + M</span>","null","","","","resp_prompt","","","","","","","","","","","","","","","",""
"categorize-image","211","736896","0.0-4.0-1.0-1.29","bu5uxt5s13e01cg","prime","5d5b1ca95d31e300163ddf44","5f5a55364e9b770ed21874ff","5f60d7c84e199105f3e991f3","true","877.8450000099838","./Stimuli/SelectedImages/SM/SM205.bmp","83","","","","test","false","N + M","76","switch","SM","SM205.bmp","forget","","78","3","prime1","left","","","",""
"html-keyboard-response","212","737399","0.0-4.0-1.0-2.29-0.29","bu5uxt5s13e01cg","prime","5d5b1ca95d31e300163ddf44","5f5a55364e9b770ed21874ff","5f60d7c84e199105f3e991f3","false","null","<span style=""color: red; font-size: 48px"">Error!</span>","null","","","","feedback","","","","","","","","","","","","","","","",""
"html-keyboard-response","213","739405","0.0-4.0-1.0-3.29","bu5uxt5s13e01cg","prime","5d5b1ca95d31e300163ddf44","5f5a55364e9b770ed21874ff","5f60d7c84e199105f3e991f3","false","null","<div style=""align-items: center; display: flex; color: darkorange; font-size: 90px""><b>ø</b></div>","null","","","","forget_cue","","","","","","","","","","","","","","","",""
"html-keyboard-response","214","740111","0.0-4.0-1.0-0.30","bu5uxt5s13e01cg","prime","5d5b1ca95d31e300163ddf44","5f5a55364e9b770ed21874ff","5f60d7c84e199105f3e991f3","false","null","<span style=""color: black; font-size: 48px"">N + M</span>","null","","","","resp_prompt","","","","","","","","","","","","","","","",""
"categorize-image","215","740821","0.0-4.0-1.0-1.30","bu5uxt5s13e01cg","prime","5d5b1ca95d31e300163ddf44","5f5a55364e9b770ed21874ff","5f60d7c84e199105f3e991f3","true","704.7949999105185","./Stimuli/SelectedImages/LN/LN166.bmp","83","","","","test","true","N + M","83","repetition","LN","LN166.bmp","forget","","79","3","prime1","left","","","",""
"html-keyboard-response","216","742827","0.0-4.0-1.0-3.30","bu5uxt5s13e01cg","prime","5d5b1ca95d31e300163ddf44","5f5a55364e9b770ed21874ff","5f60d7c84e199105f3e991f3","false","null","<div style=""align-items: center; display: flex; color: darkorange; font-size: 90px""><b>ø</b></div>","null","","","","forget_cue","","","","","","","","","","","","","","","",""
"html-keyboard-response","217","743533","0.0-4.0-1.0-0.31","bu5uxt5s13e01cg","prime","5d5b1ca95d31e300163ddf44","5f5a55364e9b770ed21874ff","5f60d7c84e199105f3e991f3","false","null","<span style=""color: black; font-size: 48px"">N + M</span>","null","","","","resp_prompt","","","","","","","","","","","","","","","",""
"categorize-image","218","744422","0.0-4.0-1.0-1.31","bu5uxt5s13e01cg","prime","5d5b1ca95d31e300163ddf44","5f5a55364e9b770ed21874ff","5f60d7c84e199105f3e991f3","true","884.2499998863786","./Stimuli/SelectedImages/SN/SN64.bmp","83","","","","test","true","N + M","83","repetition","SN","SN64.bmp","remember","","80","3","prime1","left","","","",""
"html-keyboard-response","219","746429","0.0-4.0-1.0-3.31","bu5uxt5s13e01cg","prime","5d5b1ca95d31e300163ddf44","5f5a55364e9b770ed21874ff","5f60d7c84e199105f3e991f3","false","null","<div style=""align-items: center; display: flex; color: dodgerblue; font-size: 90px""><b>o</b></div>","null","","","","forget_cue","","","","","","","","","","","","","","","",""
"html-keyboard-response","220","747135","0.0-4.0-1.0-0.32","bu5uxt5s13e01cg","prime","5d5b1ca95d31e300163ddf44","5f5a55364e9b770ed21874ff","5f60d7c84e199105f3e991f3","false","null","<span style=""color: black; font-size: 48px"">N + M</span>","null","","","","resp_prompt","","","","","","","","","","","","","","","",""
"categorize-image","221","747827","0.0-4.0-1.0-1.32","bu5uxt5s13e01cg","prime","5d5b1ca95d31e300163ddf44","5f5a55364e9b770ed21874ff","5f60d7c84e199105f3e991f3","true","687.3850000556558","./Stimuli/SelectedImages/LN/LN92.bmp","83","","","","test","true","N + M","83","switch","LN","LN92.bmp","remember","","81","3","prime1","left","","","",""
"html-keyboard-response","222","749829","0.0-4.0-1.0-3.32","bu5uxt5s13e01cg","prime","5d5b1ca95d31e300163ddf44","5f5a55364e9b770ed21874ff","5f60d7c84e199105f3e991f3","false","null","<div style=""align-items: center; display: flex; color: dodgerblue; font-size: 90px""><b>o</b></div>","null","","","","forget_cue","","","","","","","","","","","","","","","",""
"html-keyboard-response","223","750536","0.0-4.0-1.0-0.33","bu5uxt5s13e01cg","prime","5d5b1ca95d31e300163ddf44","5f5a55364e9b770ed21874ff","5f60d7c84e199105f3e991f3","false","null","<span style=""color: black; font-size: 48px"">M + N</span>","null","","","","resp_prompt","","","","","","","","","","","","","","","",""
"categorize-image","224","751509","0.0-4.0-1.0-1.33","bu5uxt5s13e01cg","prime","5d5b1ca95d31e300163ddf44","5f5a55364e9b770ed21874ff","5f60d7c84e199105f3e991f3","true","968.8200000673532","./Stimuli/SelectedImages/SN/SN93.bmp","76","","","","test","true","M + N","76","repetition","SN","SN93.bmp","remember","","82","3","prime1","right","","","",""
"html-keyboard-response","225","753515","0.0-4.0-1.0-3.33","bu5uxt5s13e01cg","prime","5d5b1ca95d31e300163ddf44","5f5a55364e9b770ed21874ff","5f60d7c84e199105f3e991f3","false","null","<div style=""align-items: center; display: flex; color: dodgerblue; font-size: 90px""><b>o</b></div>","null","","","","forget_cue","","","","","","","","","","","","","","","",""
"html-keyboard-response","226","754222","0.0-4.0-1.0-0.34","bu5uxt5s13e01cg","prime","5d5b1ca95d31e300163ddf44","5f5a55364e9b770ed21874ff","5f60d7c84e199105f3e991f3","false","null","<span style=""color: black; font-size: 48px"">M + N</span>","null","","","","resp_prompt","","","","","","","","","","","","","","","",""
"categorize-image","227","755162","0.0-4.0-1.0-1.34","bu5uxt5s13e01cg","prime","5d5b1ca95d31e300163ddf44","5f5a55364e9b770ed21874ff","5f60d7c84e199105f3e991f3","true","936.1149999313056","./Stimuli/SelectedImages/LN/LN149.bmp","76","","","","test","true","M + N","76","switch","LN","LN149.bmp","forget","","83","3","prime1","right","","","",""
"html-keyboard-response","228","757166","0.0-4.0-1.0-3.34","bu5uxt5s13e01cg","prime","5d5b1ca95d31e300163ddf44","5f5a55364e9b770ed21874ff","5f60d7c84e199105f3e991f3","false","null","<div style=""align-items: center; display: flex; color: darkorange; font-size: 90px""><b>ø</b></div>","null","","","","forget_cue","","","","","","","","","","","","","","","",""
"html-keyboard-response","229","757872","0.0-4.0-1.0-0.35","bu5uxt5s13e01cg","prime","5d5b1ca95d31e300163ddf44","5f5a55364e9b770ed21874ff","5f60d7c84e199105f3e991f3","false","null","<span style=""color: black; font-size: 48px"">M + N</span>","null","","","","resp_prompt","","","","","","","","","","","","","","","",""
"categorize-image","230","758768","0.0-4.0-1.0-1.35","bu5uxt5s13e01cg","prime","5d5b1ca95d31e300163ddf44","5f5a55364e9b770ed21874ff","5f60d7c84e199105f3e991f3","true","891.4550000336021","./Stimuli/SelectedImages/LM/LM157.bmp","83","","","","test","true","M + N","83","switch","LM","LM157.bmp","forget","","84","3","prime1","left","","","",""
"html-keyboard-response","231","760775","0.0-4.0-1.0-3.35","bu5uxt5s13e01cg","prime","5d5b1ca95d31e300163ddf44","5f5a55364e9b770ed21874ff","5f60d7c84e199105f3e991f3","false","null","<div style=""align-items: center; display: flex; color: darkorange; font-size: 90px""><b>ø</b></div>","null","","","","forget_cue","","","","","","","","","","","","","","","",""
"html-keyboard-response","232","761481","0.0-4.0-1.0-0.36","bu5uxt5s13e01cg","prime","5d5b1ca95d31e300163ddf44","5f5a55364e9b770ed21874ff","5f60d7c84e199105f3e991f3","false","null","<span style=""color: black; font-size: 48px"">N + M</span>","null","","","","resp_prompt","","","","","","","","","","","","","","","",""
"categorize-image","233","762222","0.0-4.0-1.0-1.36","bu5uxt5s13e01cg","prime","5d5b1ca95d31e300163ddf44","5f5a55364e9b770ed21874ff","5f60d7c84e199105f3e991f3","true","736.0999998636544","./Stimuli/SelectedImages/SN/SN49.bmp","83","","","","test","true","N + M","83","switch","SN","SN49.bmp","remember","","85","3","prime1","left","","","",""
"html-keyboard-response","234","764228","0.0-4.0-1.0-3.36","bu5uxt5s13e01cg","prime","5d5b1ca95d31e300163ddf44","5f5a55364e9b770ed21874ff","5f60d7c84e199105f3e991f3","false","null","<div style=""align-items: center; display: flex; color: dodgerblue; font-size: 90px""><b>o</b></div>","null","","","","forget_cue","","","","","","","","","","","","","","","",""
"html-keyboard-response","235","764935","0.0-4.0-1.0-0.37","bu5uxt5s13e01cg","prime","5d5b1ca95d31e300163ddf44","5f5a55364e9b770ed21874ff","5f60d7c84e199105f3e991f3","false","null","<span style=""color: black; font-size: 48px"">N + M</span>","null","","","","resp_prompt","","","","","","","","","","","","","","","",""
"categorize-image","236","765803","0.0-4.0-1.0-1.37","bu5uxt5s13e01cg","prime","5d5b1ca95d31e300163ddf44","5f5a55364e9b770ed21874ff","5f60d7c84e199105f3e991f3","true","863.5899999644607","./Stimuli/SelectedImages/LN/LN42.bmp","83","","","","test","true","N + M","83","repetition","LN","LN42.bmp","remember","","86","3","prime1","left","","","",""
"html-keyboard-response","237","767810","0.0-4.0-1.0-3.37","bu5uxt5s13e01cg","prime","5d5b1ca95d31e300163ddf44","5f5a55364e9b770ed21874ff","5f60d7c84e199105f3e991f3","false","null","<div style=""align-items: center; display: flex; color: dodgerblue; font-size: 90px""><b>o</b></div>","null","","","","forget_cue","","","","","","","","","","","","","","","",""
"html-keyboard-response","238","768512","0.0-4.0-1.0-0.38","bu5uxt5s13e01cg","prime","5d5b1ca95d31e300163ddf44","5f5a55364e9b770ed21874ff","5f60d7c84e199105f3e991f3","false","null","<span style=""color: black; font-size: 48px"">M + N</span>","null","","","","resp_prompt","","","","","","","","","","","","","","","",""
"categorize-image","239","769602","0.0-4.0-1.0-1.38","bu5uxt5s13e01cg","prime","5d5b1ca95d31e300163ddf44","5f5a55364e9b770ed21874ff","5f60d7c84e199105f3e991f3","true","1085.685000056401","./Stimuli/SelectedImages/LM/LM209.bmp","83","","","","test","true","M + N","83","repetition","LM","LM209.bmp","forget","","87","3","prime1","left","","","",""
"html-keyboard-response","240","771608","0.0-4.0-1.0-3.38","bu5uxt5s13e01cg","prime","5d5b1ca95d31e300163ddf44","5f5a55364e9b770ed21874ff","5f60d7c84e199105f3e991f3","false","null","<div style=""align-items: center; display: flex; color: darkorange; font-size: 90px""><b>ø</b></div>","null","","","","forget_cue","","","","","","","","","","","","","","","",""
"html-keyboard-response","241","772315","0.0-4.0-1.0-0.39","bu5uxt5s13e01cg","prime","5d5b1ca95d31e300163ddf44","5f5a55364e9b770ed21874ff","5f60d7c84e199105f3e991f3","false","null","<span style=""color: black; font-size: 48px"">N + M</span>","null","","","","resp_prompt","","","","","","","","","","","","","","","",""
"categorize-image","242","773171","0.0-4.0-1.0-1.39","bu5uxt5s13e01cg","prime","5d5b1ca95d31e300163ddf44","5f5a55364e9b770ed21874ff","5f60d7c84e199105f3e991f3","true","851.9900001119822","./Stimuli/SelectedImages/LM/LM58.bmp","76","","","","test","true","N + M","76","repetition","LM","LM58.bmp","remember","","88","3","prime1","right","","","",""
"html-keyboard-response","243","775177","0.0-4.0-1.0-3.39","bu5uxt5s13e01cg","prime","5d5b1ca95d31e300163ddf44","5f5a55364e9b770ed21874ff","5f60d7c84e199105f3e991f3","false","null","<div style=""align-items: center; display: flex; color: dodgerblue; font-size: 90px""><b>o</b></div>","null","","","","forget_cue","","","","","","","","","","","","","","","",""
"html-keyboard-response","244","775883","0.0-4.0-1.0-0.40","bu5uxt5s13e01cg","prime","5d5b1ca95d31e300163ddf44","5f5a55364e9b770ed21874ff","5f60d7c84e199105f3e991f3","false","null","<span style=""color: black; font-size: 48px"">M + N</span>","null","","","","resp_prompt","","","","","","","","","","","","","","","",""
"categorize-image","245","776640","0.0-4.0-1.0-1.40","bu5uxt5s13e01cg","prime","5d5b1ca95d31e300163ddf44","5f5a55364e9b770ed21874ff","5f60d7c84e199105f3e991f3","true","751.6100001521409","./Stimuli/SelectedImages/LM/LM167.bmp","83","","","","test","true","M + N","83","repetition","LM","LM167.bmp","forget","","89","3","prime1","left","","","",""
"html-keyboard-response","246","778641","0.0-4.0-1.0-3.40","bu5uxt5s13e01cg","prime","5d5b1ca95d31e300163ddf44","5f5a55364e9b770ed21874ff","5f60d7c84e199105f3e991f3","false","null","<div style=""align-items: center; display: flex; color: darkorange; font-size: 90px""><b>ø</b></div>","null","","","","forget_cue","","","","","","","","","","","","","","","",""
"html-keyboard-response","247","779347","0.0-4.0-1.0-0.41","bu5uxt5s13e01cg","prime","5d5b1ca95d31e300163ddf44","5f5a55364e9b770ed21874ff","5f60d7c84e199105f3e991f3","false","null","<span style=""color: black; font-size: 48px"">N + M</span>","null","","","","resp_prompt","","","","","","","","","","","","","","","",""
"categorize-image","248","780152","0.0-4.0-1.0-1.41","bu5uxt5s13e01cg","prime","5d5b1ca95d31e300163ddf44","5f5a55364e9b770ed21874ff","5f60d7c84e199105f3e991f3","true","800.1449999865144","./Stimuli/SelectedImages/SN/SN179.bmp","83","","","","test","true","N + M","83","repetition","SN","SN179.bmp","remember","","90","3","prime1","left","","","",""
"html-keyboard-response","249","782157","0.0-4.0-1.0-3.41","bu5uxt5s13e01cg","prime","5d5b1ca95d31e300163ddf44","5f5a55364e9b770ed21874ff","5f60d7c84e199105f3e991f3","false","null","<div style=""align-items: center; display: flex; color: dodgerblue; font-size: 90px""><b>o</b></div>","null","","","","forget_cue","","","","","","","","","","","","","","","",""
"html-keyboard-response","250","782863","0.0-4.0-1.0-0.42","bu5uxt5s13e01cg","prime","5d5b1ca95d31e300163ddf44","5f5a55364e9b770ed21874ff","5f60d7c84e199105f3e991f3","false","null","<span style=""color: black; font-size: 48px"">M + N</span>","null","","","","resp_prompt","","","","","","","","","","","","","","","",""
"categorize-image","251","784141","0.0-4.0-1.0-1.42","bu5uxt5s13e01cg","prime","5d5b1ca95d31e300163ddf44","5f5a55364e9b770ed21874ff","5f60d7c84e199105f3e991f3","true","1272.5700000301003","./Stimuli/SelectedImages/LM/LM57.bmp","83","","","","test","true","M + N","83","switch","LM","LM57.bmp","remember","","91","3","prime1","left","","","",""
"html-keyboard-response","252","786147","0.0-4.0-1.0-3.42","bu5uxt5s13e01cg","prime","5d5b1ca95d31e300163ddf44","5f5a55364e9b770ed21874ff","5f60d7c84e199105f3e991f3","false","null","<div style=""align-items: center; display: flex; color: dodgerblue; font-size: 90px""><b>o</b></div>","null","","","","forget_cue","","","","","","","","","","","","","","","",""
