"trial_type","trial_index","time_elapsed","internal_node_id","subject","exp_part","prolific_PID","study_ID","session_ID","use","rt","stimulus","key_press","button_pressed","responses","question_order","trial_part","correct","resp_map","correct_resp","probe_condition","category","image","forget_condition","list","trial_num","block_num","block","response","test_part","n_span","sequence","num_spaces"
"pavlovia","0","2","0.0-0.0","d0ana27nn1k4h13","","5d8ccb09948e9600174140e7","5f60e3c0a3b16e07647b2ff9","5f60ee8c9bbe2501bb76a208","false","","","","","","","","","","","","","","","","","","","","","","",""
"html-keyboard-response","1","505156","0.0-1.0-0.0-0.0","d0ana27nn1k4h13","welcome","5d8ccb09948e9600174140e7","5f60e3c0a3b16e07647b2ff9","5f60ee8c9bbe2501bb76a208","false","505152.8099999996","<div align=left>Dear participant, <br> thank you for participating in an online study of the Cognition, Action, and Sustainability Unit of the University of Freiburg! <br> <br>The aim of this study is to examine our ability to remember previously learned information. <br>Our goal is to find out, whether our memory improves, when we only remember information that is relevant to us. <br>The experiment will take about 35 minutes to complete. <br> <br>Please, note that you can only participate in this study if you are using a device with a keyboard (PC, Laptop etc.) <br>and not if you are using a mobile device such as a tablet or smartphone.<br> <br>Press 'SPACE' to proceed to the experiment. </div>","32","","","","","","","","","","","","","","","","","","","",""
"html-keyboard-response","2","507178","0.0-1.0-0.0-1.0","d0ana27nn1k4h13","welcome","5d8ccb09948e9600174140e7","5f60e3c0a3b16e07647b2ff9","5f60ee8c9bbe2501bb76a208","false","2021.279999986291","<div align=left><strong> Time Course of this experiment: </strong> <br><br> <strong> 1.</strong>  First, please fill in some information regarding your demographic data. <br><br> <strong> 2.</strong>  Next, your task will be to classify everyday objects. <br>In addition, you will be asked to remember certain objects and recall them later. <br>Working on these tasks requires your undivided attention and concentration.<br>It is therefore essential that you eliminate any sources of distraction in your  <br>environment and ensure that you will not be disturbed. <br><br><strong> 3.</strong>  At the end of the experiment, you will be asked to answer a few additional questions. <br> <br><strong> Important:</strong> After finishing the experiment, only close the browser window <br> by clicking on the 'end the experiment'-button when you are asked to do so. <br>Closing the browser window prematurely will make the allocation of your participation credit impossible. <br><br> Press 'SPACE' to start the experiment. </div>","32","","","","","","","","","","","","","","","","","","","",""
"html-button-response","3","508968","0.0-1.0-0.0-2.0","d0ana27nn1k4h13","welcome","5d8ccb09948e9600174140e7","5f60e3c0a3b16e07647b2ff9","5f60ee8c9bbe2501bb76a208","true","1789.6700000273995","<div align=left><strong> Informed consent </strong>  <br>The aim of our research is to better understand human behavior and mental processes. <br>In the following study your behavior (e.g. choices, reaction times) will be studied. <br> <br><strong> Voluntariness and Anonymity </strong> <br>Your participation in this study is  <strong> voluntary</strong>.<br>You may withdraw your consent to participate at any time without providing a reason for doing so and without fear of prejudice. <br><br>As no personal data will be collected, <strong>your data and your person cannot be connected after data collection</strong> – the data-set is anonymous. <br>Respectively, deletion of your data will not be possible after data collection has been completed, as we cannot retrace your data-set.<br>The results and anonymized data collected in this study will be published as a scientific publication. <br>This will happen in an <strong>anonymized format</strong>, so that no data can be traced back to a specific person. <br> <br>The anonymized data of this study will be made available to other researchers and/or in a data archive on the Internet as a means of transparency and to enable subsequent re-use. By doing so, this study follows the recommendations of the Deutsche Forschungsgemeinschaft (DFG, German Research Foundation) and Deutsche Gesellschaft für Psychologie (DGPS, German Psychological Society) regarding quality assurance in research.<br>If you have any questions now or after the experiment, please contact our team (experiments@cs.uni-freiburg.de).<br><br><br>I hereby declare, that I understand the above described conditions of participation and I agree to participate under these conditions. <br><br> </div>","","0","","","","","","","","","","","","","","","","","","",""
"html-keyboard-response","4","510796","0.0-1.0-0.0-3.0","d0ana27nn1k4h13","welcome","5d8ccb09948e9600174140e7","5f60e3c0a3b16e07647b2ff9","5f60ee8c9bbe2501bb76a208","false","1826.215000008233","<div align=left><strong> General information concerning the experiment </strong>  <br> <br>Please follow the instructions:<ol> <li><strong> Do not leave this tab (your browser window) during the experiment and do not reload this tab! </strong>  <br>If you do switch tabs/windows during the experiment (to check your mail or visit another website, for example), <br>the experiment will end automatically and you will <strong>not receive credit</strong> for your participation. <br>Repeated participation or resumption of the experiment is impossible.</li> <br><li>Please close all other programs for the duration of your participation. </li> <br><li>Please mute or turn off your phone and put it out of your reach. </li> <br><li>Please also take off any disturbing accessories (such as wristwatches, bracelets, etc.). </li> <br><li>If you have music playing in the background, please turn it off now. </li> <br></ol>Thank you! <br>Press 'SPACE' to continue. </div>","32","","","","","","","","","","","","","","","","","","","",""
"survey-text","5","513503","0.0-1.0-1.0-0.0","d0ana27nn1k4h13","demographics","5d8ccb09948e9600174140e7","5f60e3c0a3b16e07647b2ff9","5f60ee8c9bbe2501bb76a208","true","2701.0599999921396","","","","{""age"":""33""}","","","","","","","","","","","","","","","","","",""
"survey-multi-choice","6","528305","0.0-1.0-1.0-1.0","d0ana27nn1k4h13","demographics","5d8ccb09948e9600174140e7","5f60e3c0a3b16e07647b2ff9","5f60ee8c9bbe2501bb76a208","true","14800.279999966733","","","","{""gender"":""male"",""school"":""high school"",""education"":""Completed university degree or equivalent""}","[0,1,2]","","","","","","","","","","","","","","","","",""
"html-keyboard-response","7","530219","0.0-1.0-2.0","d0ana27nn1k4h13","instructions","5d8ccb09948e9600174140e7","5f60e3c0a3b16e07647b2ff9","5f60ee8c9bbe2501bb76a208","false","1912.8100000089034","<div align=left> The experiment is now about to start: <br> <br>In the following part, you will be presented pictures of everyday objects. <br>Your first task is to <strong>classify these objects. </strong> <br> <br> You will classify them either as mechanical or non-mechanical objects. <br> <br>Objects that include any kind of technical mechanism (for example, wheels, switches, levers, <br> electronic components) fall under the category of <strong>mechanical</strong> objects. <br>Only objects without any kind of technical mechanism should be classified as <strong>non-mechanical</strong>. <br><br>Press 'SPACE' to continue. </div>","32","","","","","","","","","","","","","","","","","","","",""
"html-keyboard-response","8","547946","0.0-2.0-0.0","d0ana27nn1k4h13","instructions","5d8ccb09948e9600174140e7","5f60e3c0a3b16e07647b2ff9","5f60ee8c9bbe2501bb76a208","false","17725.4950000206","<div align=justify>You will classify the objects using the <strong>'S'</strong> and the <strong>'L'</strong> keys on your keyboard.<br>For doing so, please place your <strong>left index finger</strong> on the <strong>'S'</strong> key and place your <strong>right index finger</strong> on the <strong>'L'</strong> key. <br><br> Each trial starts with an instruction, indicating which key ('S'/'L') you need to press to classify <br>the object as mechanical (letter M) or non-mechanical (letter N).<br>The instruction <strong>M + N</strong> indicates that, in the current trial, by pressing the left key ('S') you classify the displayed object as mechanical (M) <br> and by pressing the right key ('L') you classify the object as non-mechanical (N). <br>The instruction <strong>N + M</strong> on the other hand indicates that by pressing the left key ('S') you classify the displayed object as non-mechanical (N) <br> and by pressing the right key ('L') you classify the object as mechanical (M). <br><br>Please press the key corresponding to the correct classification as fast as possible as soon as the object is displayed and try to avoid making mistakes.<br>If you do not respond within a 2 second window, a corresponding feedback will be displayed and the next trial will start.<br> The experiment is divided into multiple blocks to give you the opportunity to take a break after each block. <br>First, you can now practice this task. <br><br>Please place your <strong>LEFT INDEX FINGER</strong> on the 'S' key and your <strong>RIGHT INDEX FINGER</strong> on the 'L' key now. <br><br>Press SPACE to continue.</div>","32","","","","","","","","","","","","","","","","","","","",""
"html-keyboard-response","9","551765","0.0-2.0-1.0","d0ana27nn1k4h13","instructions","5d8ccb09948e9600174140e7","5f60e3c0a3b16e07647b2ff9","5f60ee8c9bbe2501bb76a208","false","3818.4999999939464","<div align=left> You will now have time to practice this task.<br><br>Remember: <br> <br><li>Please place your index fingers on the <strong>'S'</strong> and <strong>'L'</strong> keys <br>to respond as fast and accurately as possible.</li><li>Every picture can be classified as either mechanical or non-mechanical.</li><li>If you do not respond in time or commit an error, you will receive a corresponding feedback. </li><li> Please try to respond as <strong> fast </strong> and as <strong> accurately as possible </strong> .<br><li>To ensure optimal results, please minimize distractions and stay focused. </li><br><br>Press SPACE to continue.</div>","32","","","","","","","","","","","","","","","","","","","",""
"html-keyboard-response","10","552470","0.0-2.0-2.0-0.0","d0ana27nn1k4h13","practice_no_cue","5d8ccb09948e9600174140e7","5f60e3c0a3b16e07647b2ff9","5f60ee8c9bbe2501bb76a208","false","null","<span style=""color: black; font-size: 48px"">N + M</span>","null","","","","resp_prompt","","","","","","","","","","","","","","","",""
"categorize-image","11","554210","0.0-2.0-2.0-1.0","d0ana27nn1k4h13","practice_no_cue","5d8ccb09948e9600174140e7","5f60e3c0a3b16e07647b2ff9","5f60ee8c9bbe2501bb76a208","true","1236.2299999804236","./Stimuli/ImagesPractice/SN222.jpg","83","","","","test","true","N + M","83","","SN","SN222.jpg","remember","old","1","1","start","left","","","",""
"html-keyboard-response","12","554913","0.0-2.0-2.0-0.1","d0ana27nn1k4h13","practice_no_cue","5d8ccb09948e9600174140e7","5f60e3c0a3b16e07647b2ff9","5f60ee8c9bbe2501bb76a208","false","null","<span style=""color: black; font-size: 48px"">M + N</span>","null","","","","resp_prompt","","","","","","","","","","","","","","","",""
"categorize-image","13","556145","0.0-2.0-2.0-1.1","d0ana27nn1k4h13","practice_no_cue","5d8ccb09948e9600174140e7","5f60e3c0a3b16e07647b2ff9","5f60ee8c9bbe2501bb76a208","true","729.1850000037812","./Stimuli/ImagesPractice/LM224.jpg","76","","","","test","false","M + N","83","","LM","LM224.jpg","remember","old","2","1","start","right","","","",""
"html-keyboard-response","14","556848","0.0-2.0-2.0-0.2","d0ana27nn1k4h13","practice_no_cue","5d8ccb09948e9600174140e7","5f60e3c0a3b16e07647b2ff9","5f60ee8c9bbe2501bb76a208","false","null","<span style=""color: black; font-size: 48px"">M + N</span>","null","","","","resp_prompt","","","","","","","","","","","","","","","",""
"categorize-image","15","557988","0.0-2.0-2.0-1.2","d0ana27nn1k4h13","practice_no_cue","5d8ccb09948e9600174140e7","5f60e3c0a3b16e07647b2ff9","5f60ee8c9bbe2501bb76a208","true","636.56000001356","./Stimuli/ImagesPractice/SN205.jpg","83","","","","test","false","M + N","76","","SN","SN205.jpg","forget","old","3","1","start","left","","","",""
"html-keyboard-response","16","558690","0.0-2.0-2.0-0.3","d0ana27nn1k4h13","practice_no_cue","5d8ccb09948e9600174140e7","5f60e3c0a3b16e07647b2ff9","5f60ee8c9bbe2501bb76a208","false","null","<span style=""color: black; font-size: 48px"">M + N</span>","null","","","","resp_prompt","","","","","","","","","","","","","","","",""
"categorize-image","17","561194","0.0-2.0-2.0-1.3","d0ana27nn1k4h13","practice_no_cue","5d8ccb09948e9600174140e7","5f60e3c0a3b16e07647b2ff9","5f60ee8c9bbe2501bb76a208","true","null","./Stimuli/ImagesPractice/LN4.jpg","null","","","","test","false","M + N","76","","LN","LN4.jpg","forget","old","4","1","start","too_slow","","","",""
"html-keyboard-response","18","561895","0.0-2.0-2.0-0.4","d0ana27nn1k4h13","practice_no_cue","5d8ccb09948e9600174140e7","5f60e3c0a3b16e07647b2ff9","5f60ee8c9bbe2501bb76a208","false","null","<span style=""color: black; font-size: 48px"">N + M</span>","null","","","","resp_prompt","","","","","","","","","","","","","","","",""
"categorize-image","19","564401","0.0-2.0-2.0-1.4","d0ana27nn1k4h13","practice_no_cue","5d8ccb09948e9600174140e7","5f60e3c0a3b16e07647b2ff9","5f60ee8c9bbe2501bb76a208","true","null","./Stimuli/ImagesPractice/LM143.jpg","null","","","","test","false","N + M","76","","LM","LM143.jpg","forget","old","5","1","start","too_slow","","","",""
"html-keyboard-response","20","565103","0.0-2.0-2.0-0.5","d0ana27nn1k4h13","practice_no_cue","5d8ccb09948e9600174140e7","5f60e3c0a3b16e07647b2ff9","5f60ee8c9bbe2501bb76a208","false","null","<span style=""color: black; font-size: 48px"">N + M</span>","null","","","","resp_prompt","","","","","","","","","","","","","","","",""
"categorize-image","21","566013","0.0-2.0-2.0-1.5","d0ana27nn1k4h13","practice_no_cue","5d8ccb09948e9600174140e7","5f60e3c0a3b16e07647b2ff9","5f60ee8c9bbe2501bb76a208","true","405.02499998547137","./Stimuli/ImagesPractice/LM147.jpg","83","","","","test","false","N + M","76","","LM","LM147.jpg","forget","old","6","1","start","left","","","",""
"html-keyboard-response","22","566714","0.0-2.0-2.0-0.6","d0ana27nn1k4h13","practice_no_cue","5d8ccb09948e9600174140e7","5f60e3c0a3b16e07647b2ff9","5f60ee8c9bbe2501bb76a208","false","null","<span style=""color: black; font-size: 48px"">N + M</span>","null","","","","resp_prompt","","","","","","","","","","","","","","","",""
"categorize-image","23","567452","0.0-2.0-2.0-1.6","d0ana27nn1k4h13","practice_no_cue","5d8ccb09948e9600174140e7","5f60e3c0a3b16e07647b2ff9","5f60ee8c9bbe2501bb76a208","true","235.76500004855916","./Stimuli/ImagesPractice/SN220.jpg","76","","","","test","false","N + M","83","","SN","SN220.jpg","remember","old","7","1","start","right","","","",""
"html-keyboard-response","24","568157","0.0-2.0-2.0-0.7","d0ana27nn1k4h13","practice_no_cue","5d8ccb09948e9600174140e7","5f60e3c0a3b16e07647b2ff9","5f60ee8c9bbe2501bb76a208","false","null","<span style=""color: black; font-size: 48px"">M + N</span>","null","","","","resp_prompt","","","","","","","","","","","","","","","",""
"categorize-image","25","568869","0.0-2.0-2.0-1.7","d0ana27nn1k4h13","practice_no_cue","5d8ccb09948e9600174140e7","5f60e3c0a3b16e07647b2ff9","5f60ee8c9bbe2501bb76a208","true","209.3849999946542","./Stimuli/ImagesPractice/SM61.jpg","83","","","","test","true","M + N","83","","SM","SM61.jpg","forget","old","8","1","start","left","","","",""
"html-keyboard-response","26","569571","0.0-2.0-2.0-0.8","d0ana27nn1k4h13","practice_no_cue","5d8ccb09948e9600174140e7","5f60e3c0a3b16e07647b2ff9","5f60ee8c9bbe2501bb76a208","false","null","<span style=""color: black; font-size: 48px"">N + M</span>","null","","","","resp_prompt","","","","","","","","","","","","","","","",""
"categorize-image","27","570289","0.0-2.0-2.0-1.8","d0ana27nn1k4h13","practice_no_cue","5d8ccb09948e9600174140e7","5f60e3c0a3b16e07647b2ff9","5f60ee8c9bbe2501bb76a208","true","213.82499998435378","./Stimuli/ImagesPractice/SN221.jpg","83","","","","test","true","N + M","83","","SN","SN221.jpg","remember","old","9","1","start","left","","","",""
"html-keyboard-response","28","570991","0.0-2.0-2.0-0.9","d0ana27nn1k4h13","practice_no_cue","5d8ccb09948e9600174140e7","5f60e3c0a3b16e07647b2ff9","5f60ee8c9bbe2501bb76a208","false","null","<span style=""color: black; font-size: 48px"">N + M</span>","null","","","","resp_prompt","","","","","","","","","","","","","","","",""
"categorize-image","29","571784","0.0-2.0-2.0-1.9","d0ana27nn1k4h13","practice_no_cue","5d8ccb09948e9600174140e7","5f60e3c0a3b16e07647b2ff9","5f60ee8c9bbe2501bb76a208","true","290.4749999870546","./Stimuli/ImagesPractice/LN2.jpg","83","","","","test","true","N + M","83","","LN","LN2.jpg","remember","old","10","1","start","left","","","",""
"html-keyboard-response","30","572485","0.0-2.0-2.0-0.10","d0ana27nn1k4h13","practice_no_cue","5d8ccb09948e9600174140e7","5f60e3c0a3b16e07647b2ff9","5f60ee8c9bbe2501bb76a208","false","null","<span style=""color: black; font-size: 48px"">M + N</span>","null","","","","resp_prompt","","","","","","","","","","","","","","","",""
"categorize-image","31","573362","0.0-2.0-2.0-1.10","d0ana27nn1k4h13","practice_no_cue","5d8ccb09948e9600174140e7","5f60e3c0a3b16e07647b2ff9","5f60ee8c9bbe2501bb76a208","true","372.78500001411885","./Stimuli/ImagesPractice/SM97.jpg","83","","","","test","true","M + N","83","","SM","SM97.jpg","remember","old","11","1","start","left","","","",""
"html-keyboard-response","32","574064","0.0-2.0-2.0-0.11","d0ana27nn1k4h13","practice_no_cue","5d8ccb09948e9600174140e7","5f60e3c0a3b16e07647b2ff9","5f60ee8c9bbe2501bb76a208","false","null","<span style=""color: black; font-size: 48px"">N + M</span>","null","","","","resp_prompt","","","","","","","","","","","","","","","",""
"categorize-image","33","574866","0.0-2.0-2.0-1.11","d0ana27nn1k4h13","practice_no_cue","5d8ccb09948e9600174140e7","5f60e3c0a3b16e07647b2ff9","5f60ee8c9bbe2501bb76a208","true","298.36000001523644","./Stimuli/ImagesPractice/LM230.jpg","83","","","","test","false","N + M","76","","LM","LM230.jpg","forget","old","12","1","start","left","","","",""
"html-keyboard-response","34","575568","0.0-2.0-2.0-0.12","d0ana27nn1k4h13","practice_no_cue","5d8ccb09948e9600174140e7","5f60e3c0a3b16e07647b2ff9","5f60ee8c9bbe2501bb76a208","false","null","<span style=""color: black; font-size: 48px"">M + N</span>","null","","","","resp_prompt","","","","","","","","","","","","","","","",""
"categorize-image","35","576333","0.0-2.0-2.0-1.12","d0ana27nn1k4h13","practice_no_cue","5d8ccb09948e9600174140e7","5f60e3c0a3b16e07647b2ff9","5f60ee8c9bbe2501bb76a208","true","262.1800000197254","./Stimuli/ImagesPractice/SN75.jpg","76","","","","test","true","M + N","76","","SN","SN75.jpg","forget","old","13","1","start","right","","","",""
"html-keyboard-response","36","577035","0.0-2.0-2.0-0.13","d0ana27nn1k4h13","practice_no_cue","5d8ccb09948e9600174140e7","5f60e3c0a3b16e07647b2ff9","5f60ee8c9bbe2501bb76a208","false","null","<span style=""color: black; font-size: 48px"">M + N</span>","null","","","","resp_prompt","","","","","","","","","","","","","","","",""
"categorize-image","37","577978","0.0-2.0-2.0-1.13","d0ana27nn1k4h13","practice_no_cue","5d8ccb09948e9600174140e7","5f60e3c0a3b16e07647b2ff9","5f60ee8c9bbe2501bb76a208","true","440.3399999719113","./Stimuli/ImagesPractice/LM55.jpg","83","","","","test","true","M + N","83","","LM","LM55.jpg","remember","old","14","1","start","left","","","",""
"html-keyboard-response","38","578679","0.0-2.0-2.0-0.14","d0ana27nn1k4h13","practice_no_cue","5d8ccb09948e9600174140e7","5f60e3c0a3b16e07647b2ff9","5f60ee8c9bbe2501bb76a208","false","null","<span style=""color: black; font-size: 48px"">N + M</span>","null","","","","resp_prompt","","","","","","","","","","","","","","","",""
"categorize-image","39","579418","0.0-2.0-2.0-1.14","d0ana27nn1k4h13","practice_no_cue","5d8ccb09948e9600174140e7","5f60e3c0a3b16e07647b2ff9","5f60ee8c9bbe2501bb76a208","true","234.7099999897182","./Stimuli/ImagesPractice/LN17.jpg","76","","","","test","false","N + M","83","","LN","LN17.jpg","forget","old","15","1","start","right","","","",""
"html-keyboard-response","40","580120","0.0-2.0-2.0-0.15","d0ana27nn1k4h13","practice_no_cue","5d8ccb09948e9600174140e7","5f60e3c0a3b16e07647b2ff9","5f60ee8c9bbe2501bb76a208","false","null","<span style=""color: black; font-size: 48px"">M + N</span>","null","","","","resp_prompt","","","","","","","","","","","","","","","",""
"categorize-image","41","580827","0.0-2.0-2.0-1.15","d0ana27nn1k4h13","practice_no_cue","5d8ccb09948e9600174140e7","5f60e3c0a3b16e07647b2ff9","5f60ee8c9bbe2501bb76a208","true","203.23500002268702","./Stimuli/ImagesPractice/SM35.jpg","83","","","","test","true","M + N","83","","SM","SM35.jpg","remember","old","16","1","start","left","","","",""
"html-keyboard-response","42","585299","0.0-2.0-3.0","d0ana27nn1k4h13","break","5d8ccb09948e9600174140e7","5f60e3c0a3b16e07647b2ff9","5f60ee8c9bbe2501bb76a208","false","4470.214999979362","<p style='font-size: 32px;'>Break</><br><br><br><br><br><p style='font-size: 24px;'>In the last block, you committed 6 errors and did not respond in time on 2 trials.
</p><p style='font-size: 24px;'>Try to respond as fast and accurately as possible in the next block as well! </p><p style='font-size: 24px;'>Press SPACE to continue.</p>","32","","","","","","","","","","","","","","","","","","","",""
"html-keyboard-response","43","591183","0.0-2.0-4.0","d0ana27nn1k4h13","instructions","5d8ccb09948e9600174140e7","5f60e3c0a3b16e07647b2ff9","5f60ee8c9bbe2501bb76a208","false","5882.4599999934435","<div align=left> Great!<br><br>Are you ready to continue?<br><br>If you want to reread the instructions and redo the practice trials, <br>please press „Z“. <br><br>Press SPACE to CONTINUE with the experiment when you are ready. </div>","90","","","","","","","","","","","","","","","","","","","",""
"html-keyboard-response","44","604061","0.0-2.1-0.1","d0ana27nn1k4h13","instructions","5d8ccb09948e9600174140e7","5f60e3c0a3b16e07647b2ff9","5f60ee8c9bbe2501bb76a208","false","12876.660000008997","<div align=justify>You will classify the objects using the <strong>'S'</strong> and the <strong>'L'</strong> keys on your keyboard.<br>For doing so, please place your <strong>left index finger</strong> on the <strong>'S'</strong> key and place your <strong>right index finger</strong> on the <strong>'L'</strong> key. <br><br> Each trial starts with an instruction, indicating which key ('S'/'L') you need to press to classify <br>the object as mechanical (letter M) or non-mechanical (letter N).<br>The instruction <strong>M + N</strong> indicates that, in the current trial, by pressing the left key ('S') you classify the displayed object as mechanical (M) <br> and by pressing the right key ('L') you classify the object as non-mechanical (N). <br>The instruction <strong>N + M</strong> on the other hand indicates that by pressing the left key ('S') you classify the displayed object as non-mechanical (N) <br> and by pressing the right key ('L') you classify the object as mechanical (M). <br><br>Please press the key corresponding to the correct classification as fast as possible as soon as the object is displayed and try to avoid making mistakes.<br>If you do not respond within a 2 second window, a corresponding feedback will be displayed and the next trial will start.<br> The experiment is divided into multiple blocks to give you the opportunity to take a break after each block. <br>First, you can now practice this task. <br><br>Please place your <strong>LEFT INDEX FINGER</strong> on the 'S' key and your <strong>RIGHT INDEX FINGER</strong> on the 'L' key now. <br><br>Press SPACE to continue.</div>","32","","","","","","","","","","","","","","","","","","","",""
"html-keyboard-response","45","604917","0.0-2.1-1.1","d0ana27nn1k4h13","instructions","5d8ccb09948e9600174140e7","5f60e3c0a3b16e07647b2ff9","5f60ee8c9bbe2501bb76a208","false","853.5249999840744","<div align=left> You will now have time to practice this task.<br><br>Remember: <br> <br><li>Please place your index fingers on the <strong>'S'</strong> and <strong>'L'</strong> keys <br>to respond as fast and accurately as possible.</li><li>Every picture can be classified as either mechanical or non-mechanical.</li><li>If you do not respond in time or commit an error, you will receive a corresponding feedback. </li><li> Please try to respond as <strong> fast </strong> and as <strong> accurately as possible </strong> .<br><li>To ensure optimal results, please minimize distractions and stay focused. </li><br><br>Press SPACE to continue.</div>","32","","","","","","","","","","","","","","","","","","","",""
"html-keyboard-response","46","605620","0.0-2.1-2.1-0.16","d0ana27nn1k4h13","practice_no_cue","5d8ccb09948e9600174140e7","5f60e3c0a3b16e07647b2ff9","5f60ee8c9bbe2501bb76a208","false","null","<span style=""color: black; font-size: 48px"">N + M</span>","null","","","","resp_prompt","","","","","","","","","","","","","","","",""
"categorize-image","47","606162","0.0-2.1-2.1-1.16","d0ana27nn1k4h13","practice_no_cue","5d8ccb09948e9600174140e7","5f60e3c0a3b16e07647b2ff9","5f60ee8c9bbe2501bb76a208","true","37.63999999500811","./Stimuli/ImagesPractice/LM147.jpg","83","","","","test","false","N + M","76","","LM","LM147.jpg","forget","old","17","2","practice_forget","left","","","",""
"html-keyboard-response","48","606863","0.0-2.1-2.1-0.17","d0ana27nn1k4h13","practice_no_cue","5d8ccb09948e9600174140e7","5f60e3c0a3b16e07647b2ff9","5f60ee8c9bbe2501bb76a208","false","null","<span style=""color: black; font-size: 48px"">M + N</span>","null","","","","resp_prompt","","","","","","","","","","","","","","","",""
"categorize-image","49","607997","0.0-2.1-2.1-1.17","d0ana27nn1k4h13","practice_no_cue","5d8ccb09948e9600174140e7","5f60e3c0a3b16e07647b2ff9","5f60ee8c9bbe2501bb76a208","true","630.4849999723956","./Stimuli/ImagesPractice/SN205.jpg","83","","","","test","false","M + N","76","","SN","SN205.jpg","forget","old","18","2","practice_forget","left","","","",""
"html-keyboard-response","50","608698","0.0-2.1-2.1-0.18","d0ana27nn1k4h13","practice_no_cue","5d8ccb09948e9600174140e7","5f60e3c0a3b16e07647b2ff9","5f60ee8c9bbe2501bb76a208","false","null","<span style=""color: black; font-size: 48px"">M + N</span>","null","","","","resp_prompt","","","","","","","","","","","","","","","",""
"categorize-image","51","609994","0.0-2.1-2.1-1.18","d0ana27nn1k4h13","practice_no_cue","5d8ccb09948e9600174140e7","5f60e3c0a3b16e07647b2ff9","5f60ee8c9bbe2501bb76a208","true","793.6599999666214","./Stimuli/ImagesPractice/LM224.jpg","76","","","","test","false","M + N","83","","LM","LM224.jpg","remember","old","19","2","practice_forget","right","","","",""
"html-keyboard-response","52","610696","0.0-2.1-2.1-0.19","d0ana27nn1k4h13","practice_no_cue","5d8ccb09948e9600174140e7","5f60e3c0a3b16e07647b2ff9","5f60ee8c9bbe2501bb76a208","false","null","<span style=""color: black; font-size: 48px"">N + M</span>","null","","","","resp_prompt","","","","","","","","","","","","","","","",""
"categorize-image","53","611201","0.0-2.1-2.1-1.19","d0ana27nn1k4h13","practice_no_cue","5d8ccb09948e9600174140e7","5f60e3c0a3b16e07647b2ff9","5f60ee8c9bbe2501bb76a208","true","1.8099999870173633","./Stimuli/ImagesPractice/LM143.jpg","83","","","","test","false","N + M","76","","LM","LM143.jpg","forget","old","20","2","practice_forget","left","","","",""
"html-keyboard-response","54","611903","0.0-2.1-2.1-0.20","d0ana27nn1k4h13","practice_no_cue","5d8ccb09948e9600174140e7","5f60e3c0a3b16e07647b2ff9","5f60ee8c9bbe2501bb76a208","false","null","<span style=""color: black; font-size: 48px"">N + M</span>","null","","","","resp_prompt","","","","","","","","","","","","","","","",""
"categorize-image","55","612989","0.0-2.1-2.1-1.20","d0ana27nn1k4h13","practice_no_cue","5d8ccb09948e9600174140e7","5f60e3c0a3b16e07647b2ff9","5f60ee8c9bbe2501bb76a208","true","582.7249999856576","./Stimuli/ImagesPractice/SN221.jpg","83","","","","test","true","N + M","83","","SN","SN221.jpg","remember","old","21","2","practice_forget","left","","","",""
"html-keyboard-response","56","613690","0.0-2.1-2.1-0.21","d0ana27nn1k4h13","practice_no_cue","5d8ccb09948e9600174140e7","5f60e3c0a3b16e07647b2ff9","5f60ee8c9bbe2501bb76a208","false","null","<span style=""color: black; font-size: 48px"">N + M</span>","null","","","","resp_prompt","","","","","","","","","","","","","","","",""
"categorize-image","57","614204","0.0-2.1-2.1-1.21","d0ana27nn1k4h13","practice_no_cue","5d8ccb09948e9600174140e7","5f60e3c0a3b16e07647b2ff9","5f60ee8c9bbe2501bb76a208","true","10.91500004986301","./Stimuli/ImagesPractice/LM230.jpg","83","","","","test","false","N + M","76","","LM","LM230.jpg","forget","old","22","2","practice_forget","left","","","",""
"html-keyboard-response","58","614906","0.0-2.1-2.1-0.22","d0ana27nn1k4h13","practice_no_cue","5d8ccb09948e9600174140e7","5f60e3c0a3b16e07647b2ff9","5f60ee8c9bbe2501bb76a208","false","null","<span style=""color: black; font-size: 48px"">N + M</span>","null","","","","resp_prompt","","","","","","","","","","","","","","","",""
"categorize-image","59","615906","0.0-2.1-2.1-1.22","d0ana27nn1k4h13","practice_no_cue","5d8ccb09948e9600174140e7","5f60e3c0a3b16e07647b2ff9","5f60ee8c9bbe2501bb76a208","true","496.0200000205077","./Stimuli/ImagesPractice/LN17.jpg","76","","","","test","false","N + M","83","","LN","LN17.jpg","forget","old","23","2","practice_forget","right","","","",""
"html-keyboard-response","60","616608","0.0-2.1-2.1-0.23","d0ana27nn1k4h13","practice_no_cue","5d8ccb09948e9600174140e7","5f60e3c0a3b16e07647b2ff9","5f60ee8c9bbe2501bb76a208","false","null","<span style=""color: black; font-size: 48px"">M + N</span>","null","","","","resp_prompt","","","","","","","","","","","","","","","",""
"categorize-image","61","617310","0.0-2.1-2.1-1.23","d0ana27nn1k4h13","practice_no_cue","5d8ccb09948e9600174140e7","5f60e3c0a3b16e07647b2ff9","5f60ee8c9bbe2501bb76a208","true","198.87500000186265","./Stimuli/ImagesPractice/LN4.jpg","83","","","","test","false","M + N","76","","LN","LN4.jpg","forget","old","24","2","practice_forget","left","","","",""
"html-keyboard-response","62","618012","0.0-2.1-2.1-0.24","d0ana27nn1k4h13","practice_no_cue","5d8ccb09948e9600174140e7","5f60e3c0a3b16e07647b2ff9","5f60ee8c9bbe2501bb76a208","false","null","<span style=""color: black; font-size: 48px"">M + N</span>","null","","","","resp_prompt","","","","","","","","","","","","","","","",""
"categorize-image","63","618991","0.0-2.1-2.1-1.24","d0ana27nn1k4h13","practice_no_cue","5d8ccb09948e9600174140e7","5f60e3c0a3b16e07647b2ff9","5f60ee8c9bbe2501bb76a208","true","477.00500005157664","./Stimuli/ImagesPractice/SN75.jpg","76","","","","test","true","M + N","76","","SN","SN75.jpg","forget","old","25","2","practice_forget","right","","","",""
"html-keyboard-response","64","619693","0.0-2.1-2.1-0.25","d0ana27nn1k4h13","practice_no_cue","5d8ccb09948e9600174140e7","5f60e3c0a3b16e07647b2ff9","5f60ee8c9bbe2501bb76a208","false","null","<span style=""color: black; font-size: 48px"">M + N</span>","null","","","","resp_prompt","","","","","","","","","","","","","","","",""
"categorize-image","65","620399","0.0-2.1-2.1-1.25","d0ana27nn1k4h13","practice_no_cue","5d8ccb09948e9600174140e7","5f60e3c0a3b16e07647b2ff9","5f60ee8c9bbe2501bb76a208","true","204.1849999804981","./Stimuli/ImagesPractice/SM35.jpg","76","","","","test","false","M + N","83","","SM","SM35.jpg","remember","old","26","2","practice_forget","right","","","",""
"html-keyboard-response","66","621101","0.0-2.1-2.1-0.26","d0ana27nn1k4h13","practice_no_cue","5d8ccb09948e9600174140e7","5f60e3c0a3b16e07647b2ff9","5f60ee8c9bbe2501bb76a208","false","null","<span style=""color: black; font-size: 48px"">N + M</span>","null","","","","resp_prompt","","","","","","","","","","","","","","","",""
"categorize-image","67","622122","0.0-2.1-2.1-1.26","d0ana27nn1k4h13","practice_no_cue","5d8ccb09948e9600174140e7","5f60e3c0a3b16e07647b2ff9","5f60ee8c9bbe2501bb76a208","true","516.9549999991432","./Stimuli/ImagesPractice/SN220.jpg","83","","","","test","true","N + M","83","","SN","SN220.jpg","remember","old","27","2","practice_forget","left","","","",""
"html-keyboard-response","68","622824","0.0-2.1-2.1-0.27","d0ana27nn1k4h13","practice_no_cue","5d8ccb09948e9600174140e7","5f60e3c0a3b16e07647b2ff9","5f60ee8c9bbe2501bb76a208","false","null","<span style=""color: black; font-size: 48px"">M + N</span>","null","","","","resp_prompt","","","","","","","","","","","","","","","",""
"categorize-image","69","623446","0.0-2.1-2.1-1.27","d0ana27nn1k4h13","practice_no_cue","5d8ccb09948e9600174140e7","5f60e3c0a3b16e07647b2ff9","5f60ee8c9bbe2501bb76a208","true","118.7900000368245","./Stimuli/ImagesPractice/SM61.jpg","76","","","","test","false","M + N","83","","SM","SM61.jpg","forget","old","28","2","practice_forget","right","","","",""
"html-keyboard-response","70","624148","0.0-2.1-2.1-0.28","d0ana27nn1k4h13","practice_no_cue","5d8ccb09948e9600174140e7","5f60e3c0a3b16e07647b2ff9","5f60ee8c9bbe2501bb76a208","false","null","<span style=""color: black; font-size: 48px"">M + N</span>","null","","","","resp_prompt","","","","","","","","","","","","","","","",""
"categorize-image","71","624744","0.0-2.1-2.1-1.28","d0ana27nn1k4h13","practice_no_cue","5d8ccb09948e9600174140e7","5f60e3c0a3b16e07647b2ff9","5f60ee8c9bbe2501bb76a208","true","94.35500000836328","./Stimuli/ImagesPractice/LM55.jpg","83","","","","test","true","M + N","83","","LM","LM55.jpg","remember","old","29","2","practice_forget","left","","","",""
"html-keyboard-response","72","625446","0.0-2.1-2.1-0.29","d0ana27nn1k4h13","practice_no_cue","5d8ccb09948e9600174140e7","5f60e3c0a3b16e07647b2ff9","5f60ee8c9bbe2501bb76a208","false","null","<span style=""color: black; font-size: 48px"">M + N</span>","null","","","","resp_prompt","","","","","","","","","","","","","","","",""
"categorize-image","73","626115","0.0-2.1-2.1-1.29","d0ana27nn1k4h13","practice_no_cue","5d8ccb09948e9600174140e7","5f60e3c0a3b16e07647b2ff9","5f60ee8c9bbe2501bb76a208","true","163.38000004179776","./Stimuli/ImagesPractice/SM97.jpg","83","","","","test","true","M + N","83","","SM","SM97.jpg","remember","old","30","2","practice_forget","left","","","",""
"html-keyboard-response","74","626817","0.0-2.1-2.1-0.30","d0ana27nn1k4h13","practice_no_cue","5d8ccb09948e9600174140e7","5f60e3c0a3b16e07647b2ff9","5f60ee8c9bbe2501bb76a208","false","null","<span style=""color: black; font-size: 48px"">N + M</span>","null","","","","resp_prompt","","","","","","","","","","","","","","","",""
"categorize-image","75","627578","0.0-2.1-2.1-1.30","d0ana27nn1k4h13","practice_no_cue","5d8ccb09948e9600174140e7","5f60e3c0a3b16e07647b2ff9","5f60ee8c9bbe2501bb76a208","true","258.19000002229586","./Stimuli/ImagesPractice/SN222.jpg","83","","","","test","true","N + M","83","","SN","SN222.jpg","remember","old","31","2","practice_forget","left","","","",""
"html-keyboard-response","76","628281","0.0-2.1-2.1-0.31","d0ana27nn1k4h13","practice_no_cue","5d8ccb09948e9600174140e7","5f60e3c0a3b16e07647b2ff9","5f60ee8c9bbe2501bb76a208","false","null","<span style=""color: black; font-size: 48px"">N + M</span>","null","","","","resp_prompt","","","","","","","","","","","","","","","",""
"categorize-image","77","628927","0.0-2.1-2.1-1.31","d0ana27nn1k4h13","practice_no_cue","5d8ccb09948e9600174140e7","5f60e3c0a3b16e07647b2ff9","5f60ee8c9bbe2501bb76a208","true","142.41500000935048","./Stimuli/ImagesPractice/LN2.jpg","76","","","","test","false","N + M","83","","LN","LN2.jpg","remember","old","32","2","practice_forget","right","","","",""
"html-keyboard-response","78","631619","0.0-2.1-3.1","d0ana27nn1k4h13","break","5d8ccb09948e9600174140e7","5f60e3c0a3b16e07647b2ff9","5f60ee8c9bbe2501bb76a208","false","2689.635000017006","<p style='font-size: 32px;'>Break</><br><br><br><br><br><p style='font-size: 24px;'>In the last block, you committed 10 errors and did not respond in time on 0 trials.
</p><p style='font-size: 24px;'>Try to respond as fast and accurately as possible in the next block as well! </p><p style='font-size: 24px;'>Press SPACE to continue.</p>","32","","","","","","","","","","","","","","","","","","","",""
"html-keyboard-response","79","632728","0.0-2.1-4.1","d0ana27nn1k4h13","instructions","5d8ccb09948e9600174140e7","5f60e3c0a3b16e07647b2ff9","5f60ee8c9bbe2501bb76a208","false","1108.1000000122003","<div align=left> Great!<br><br>Are you ready to continue?<br><br>If you want to reread the instructions and redo the practice trials, <br>please press „Z“. <br><br>Press SPACE to CONTINUE with the experiment when you are ready. </div>","32","","","","","","","","","","","","","","","","","","","",""
"html-keyboard-response","80","635572","0.0-3.0-0.0","d0ana27nn1k4h13","instructions","5d8ccb09948e9600174140e7","5f60e3c0a3b16e07647b2ff9","5f60ee8c9bbe2501bb76a208","false","2842.044999997597","<div align=left>Great!<br> <strong>Attention</strong>! You will now receive a second, additional task! <br><br>To this point it was you <strong>first task</strong> to correctly <strong>classify objects</strong>. <br><br>As mentioned in the beginning, we aim to examine how well humans can remember previously learned information.<br>We would like to find out whether our memory improves if we only remember information that is relevant to us. <br><br>Therefore, your <strong>second task</strong> will be to <strong>remember</strong> the pictures you are to categorize. <br> After the learning phase, there will be a memory test phase, in which you will be asked to indicate whether you have seen a picture before or not. <br>Some, but not all pictures shown in the learning phase will appear in the memory test phase.<br>After classifying a picture, you will be told whether you should remember it for the memory test phase or not. <br>Thus, some pictures can be forgotten, whereas others have to be remembered. <br><br>Note: From now on, feedback will only be displayed if you responded incorrectly or not in time.<br><br>Press SPACE to continue.</div>","32","","","","","","","","","","","","","","","","","","","",""
"html-keyboard-response","81","638443","0.0-3.0-1.0","d0ana27nn1k4h13","instructions","5d8ccb09948e9600174140e7","5f60e3c0a3b16e07647b2ff9","5f60ee8c9bbe2501bb76a208","false","2870.249999978114","<div align=left>In the following part, you will thus have to remember only some pictures. <br>Immediately after seeing and classifying the picture, a symbol will be displayed, indicating whether you should remember or forget the previous picture. <br><br>A <span style='color: dodgerblue; font-size: 28px'>O</span> indicates REMEMBER. That means, you have to remember this picture, because it will be tested later. <br><br>A <span style='color: darkorange; font-size:28px'>Ø</span> indicates FORGET. You do not have to remember this picture. <br><br> As you will have to remember a lot of pictures, it will be hard for you to remember all of them. <br>It will put you at an advantage if you instantly forget the pictures you are not asked to remember. <br> This will make it easier for you to remember the pictures that will be tested afterwards. <br><br>Press SPACE to continue.</div>","32","","","","","","","","","","","","","","","","","","","",""
"html-keyboard-response","82","648394","0.0-3.0-2.0","d0ana27nn1k4h13","instructions","5d8ccb09948e9600174140e7","5f60e3c0a3b16e07647b2ff9","5f60ee8c9bbe2501bb76a208","false","9949.384999985341","<div align=left> Now you have the chance to practice both tasks together.<br><br>Remember: <br> <br><li>Please place your index fingers on the <strong>'S'</strong> and <strong>'L'</strong> keys <br>to respond as fast and accurately as possible.</li><li>Every picture can be classified as either mechanical or non-mechanical.</li><li>If you do not respond in time or commit an error, you will receive a corresponding feedback. <br>Please try to respond as <strong> fast </strong> and as <strong> accurately as possible </strong>.</li><li> Please remember only the to-be-remembered <span style='color: dodgerblue; font-size: 28px'>O</span> pictures. <br></li><li> Please minimize distractions and stay focused. </li><br><br>Press SPACE to START</div>","32","","","","","","","","","","","","","","","","","","","",""
"html-keyboard-response","83","649097","0.0-3.0-3.0-0.0","d0ana27nn1k4h13","practice_cue","5d8ccb09948e9600174140e7","5f60e3c0a3b16e07647b2ff9","5f60ee8c9bbe2501bb76a208","false","null","<span style=""color: black; font-size: 48px"">N + M</span>","null","","","","resp_prompt","","","","","","","","","","","","","","","",""
"categorize-image","84","650467","0.0-3.0-3.0-1.0","d0ana27nn1k4h13","practice_cue","5d8ccb09948e9600174140e7","5f60e3c0a3b16e07647b2ff9","5f60ee8c9bbe2501bb76a208","true","1364.815000037197","./Stimuli/ImagesPractice/LN17.jpg","76","","","","test","false","N + M","83","","LN","LN17.jpg","forget","old","33","3","practice_forget","right","","","",""
"html-keyboard-response","85","650971","0.0-3.0-3.0-2.0-0.0","d0ana27nn1k4h13","practice_cue","5d8ccb09948e9600174140e7","5f60e3c0a3b16e07647b2ff9","5f60ee8c9bbe2501bb76a208","false","null","<span style=""color: red; font-size: 48px"">Error!</span>","null","","","","feedback","","","","","","","","","","","","","","","",""
"html-keyboard-response","86","652973","0.0-3.0-3.0-3.0","d0ana27nn1k4h13","practice_cue","5d8ccb09948e9600174140e7","5f60e3c0a3b16e07647b2ff9","5f60ee8c9bbe2501bb76a208","false","null","<div style=""align-items: center; display: flex; color: darkorange; font-size: 90px""><b>ø</b></div>","null","","","","forget_cue","","","","","","","","","","","","","","","",""
"html-keyboard-response","87","653674","0.0-3.0-3.0-0.1","d0ana27nn1k4h13","practice_cue","5d8ccb09948e9600174140e7","5f60e3c0a3b16e07647b2ff9","5f60ee8c9bbe2501bb76a208","false","null","<span style=""color: black; font-size: 48px"">N + M</span>","null","","","","resp_prompt","","","","","","","","","","","","","","","",""
"categorize-image","88","653755","0.0-3.0-3.0-1.1","d0ana27nn1k4h13","practice_cue","5d8ccb09948e9600174140e7","5f60e3c0a3b16e07647b2ff9","5f60ee8c9bbe2501bb76a208","true","74.20500001171604","./Stimuli/ImagesPractice/SN222.jpg","83","","","","test","true","N + M","83","","SN","SN222.jpg","remember","old","34","3","practice_forget","left","","","",""
"html-keyboard-response","89","655757","0.0-3.0-3.0-3.1","d0ana27nn1k4h13","practice_cue","5d8ccb09948e9600174140e7","5f60e3c0a3b16e07647b2ff9","5f60ee8c9bbe2501bb76a208","false","null","<div style=""align-items: center; display: flex; color: dodgerblue; font-size: 90px""><b>o</b></div>","null","","","","forget_cue","","","","","","","","","","","","","","","",""
"html-keyboard-response","90","656459","0.0-3.0-3.0-0.2","d0ana27nn1k4h13","practice_cue","5d8ccb09948e9600174140e7","5f60e3c0a3b16e07647b2ff9","5f60ee8c9bbe2501bb76a208","false","null","<span style=""color: black; font-size: 48px"">N + M</span>","null","","","","resp_prompt","","","","","","","","","","","","","","","",""
"categorize-image","91","656520","0.0-3.0-3.0-1.2","d0ana27nn1k4h13","practice_cue","5d8ccb09948e9600174140e7","5f60e3c0a3b16e07647b2ff9","5f60ee8c9bbe2501bb76a208","true","55.11999997543171","./Stimuli/ImagesPractice/SN221.jpg","83","","","","test","true","N + M","83","","SN","SN221.jpg","remember","old","35","3","practice_forget","left","","","",""
"html-keyboard-response","92","658521","0.0-3.0-3.0-3.2","d0ana27nn1k4h13","practice_cue","5d8ccb09948e9600174140e7","5f60e3c0a3b16e07647b2ff9","5f60ee8c9bbe2501bb76a208","false","null","<div style=""align-items: center; display: flex; color: dodgerblue; font-size: 90px""><b>o</b></div>","null","","","","forget_cue","","","","","","","","","","","","","","","",""
"html-keyboard-response","93","659223","0.0-3.0-3.0-0.3","d0ana27nn1k4h13","practice_cue","5d8ccb09948e9600174140e7","5f60e3c0a3b16e07647b2ff9","5f60ee8c9bbe2501bb76a208","false","null","<span style=""color: black; font-size: 48px"">M + N</span>","null","","","","resp_prompt","","","","","","","","","","","","","","","",""
"categorize-image","94","660698","0.0-3.0-3.0-1.3","d0ana27nn1k4h13","practice_cue","5d8ccb09948e9600174140e7","5f60e3c0a3b16e07647b2ff9","5f60ee8c9bbe2501bb76a208","true","1470.629999996163","./Stimuli/ImagesPractice/SN75.jpg","76","","","","test","true","M + N","76","","SN","SN75.jpg","forget","old","36","3","practice_forget","right","","","",""
"html-keyboard-response","95","662700","0.0-3.0-3.0-3.3","d0ana27nn1k4h13","practice_cue","5d8ccb09948e9600174140e7","5f60e3c0a3b16e07647b2ff9","5f60ee8c9bbe2501bb76a208","false","null","<div style=""align-items: center; display: flex; color: darkorange; font-size: 90px""><b>ø</b></div>","null","","","","forget_cue","","","","","","","","","","","","","","","",""
"html-keyboard-response","96","663402","0.0-3.0-3.0-0.4","d0ana27nn1k4h13","practice_cue","5d8ccb09948e9600174140e7","5f60e3c0a3b16e07647b2ff9","5f60ee8c9bbe2501bb76a208","false","null","<span style=""color: black; font-size: 48px"">M + N</span>","null","","","","resp_prompt","","","","","","","","","","","","","","","",""
"categorize-image","97","664402","0.0-3.0-3.0-1.4","d0ana27nn1k4h13","practice_cue","5d8ccb09948e9600174140e7","5f60e3c0a3b16e07647b2ff9","5f60ee8c9bbe2501bb76a208","true","994.8999999905936","./Stimuli/ImagesPractice/SM97.jpg","83","","","","test","true","M + N","83","","SM","SM97.jpg","remember","old","37","3","practice_forget","left","","","",""
"html-keyboard-response","98","666405","0.0-3.0-3.0-3.4","d0ana27nn1k4h13","practice_cue","5d8ccb09948e9600174140e7","5f60e3c0a3b16e07647b2ff9","5f60ee8c9bbe2501bb76a208","false","null","<div style=""align-items: center; display: flex; color: dodgerblue; font-size: 90px""><b>o</b></div>","null","","","","forget_cue","","","","","","","","","","","","","","","",""
"html-keyboard-response","99","667106","0.0-3.0-3.0-0.5","d0ana27nn1k4h13","practice_cue","5d8ccb09948e9600174140e7","5f60e3c0a3b16e07647b2ff9","5f60ee8c9bbe2501bb76a208","false","null","<span style=""color: black; font-size: 48px"">M + N</span>","null","","","","resp_prompt","","","","","","","","","","","","","","","",""
"categorize-image","100","668127","0.0-3.0-3.0-1.5","d0ana27nn1k4h13","practice_cue","5d8ccb09948e9600174140e7","5f60e3c0a3b16e07647b2ff9","5f60ee8c9bbe2501bb76a208","true","1015.2200000011362","./Stimuli/ImagesPractice/SM61.jpg","76","","","","test","false","M + N","83","","SM","SM61.jpg","forget","old","38","3","practice_forget","right","","","",""
"html-keyboard-response","101","668629","0.0-3.0-3.0-2.5-0.5","d0ana27nn1k4h13","practice_cue","5d8ccb09948e9600174140e7","5f60e3c0a3b16e07647b2ff9","5f60ee8c9bbe2501bb76a208","false","null","<span style=""color: red; font-size: 48px"">Error!</span>","null","","","","feedback","","","","","","","","","","","","","","","",""
"html-keyboard-response","102","670631","0.0-3.0-3.0-3.5","d0ana27nn1k4h13","practice_cue","5d8ccb09948e9600174140e7","5f60e3c0a3b16e07647b2ff9","5f60ee8c9bbe2501bb76a208","false","null","<div style=""align-items: center; display: flex; color: darkorange; font-size: 90px""><b>ø</b></div>","null","","","","forget_cue","","","","","","","","","","","","","","","",""
"html-keyboard-response","103","671333","0.0-3.0-3.0-0.6","d0ana27nn1k4h13","practice_cue","5d8ccb09948e9600174140e7","5f60e3c0a3b16e07647b2ff9","5f60ee8c9bbe2501bb76a208","false","null","<span style=""color: black; font-size: 48px"">N + M</span>","null","","","","resp_prompt","","","","","","","","","","","","","","","",""
"categorize-image","104","672319","0.0-3.0-3.0-1.6","d0ana27nn1k4h13","practice_cue","5d8ccb09948e9600174140e7","5f60e3c0a3b16e07647b2ff9","5f60ee8c9bbe2501bb76a208","true","982.1950000477955","./Stimuli/ImagesPractice/SN220.jpg","83","","","","test","true","N + M","83","","SN","SN220.jpg","remember","old","39","3","practice_forget","left","","","",""
"html-keyboard-response","105","674320","0.0-3.0-3.0-3.6","d0ana27nn1k4h13","practice_cue","5d8ccb09948e9600174140e7","5f60e3c0a3b16e07647b2ff9","5f60ee8c9bbe2501bb76a208","false","null","<div style=""align-items: center; display: flex; color: dodgerblue; font-size: 90px""><b>o</b></div>","null","","","","forget_cue","","","","","","","","","","","","","","","",""
"html-keyboard-response","106","675022","0.0-3.0-3.0-0.7","d0ana27nn1k4h13","practice_cue","5d8ccb09948e9600174140e7","5f60e3c0a3b16e07647b2ff9","5f60ee8c9bbe2501bb76a208","false","null","<span style=""color: black; font-size: 48px"">M + N</span>","null","","","","resp_prompt","","","","","","","","","","","","","","","",""
"categorize-image","107","675831","0.0-3.0-3.0-1.7","d0ana27nn1k4h13","practice_cue","5d8ccb09948e9600174140e7","5f60e3c0a3b16e07647b2ff9","5f60ee8c9bbe2501bb76a208","true","802.594999957364","./Stimuli/ImagesPractice/SM35.jpg","76","","","","test","false","M + N","83","","SM","SM35.jpg","remember","old","40","3","practice_forget","right","","","",""
"html-keyboard-response","108","676333","0.0-3.0-3.0-2.7-0.7","d0ana27nn1k4h13","practice_cue","5d8ccb09948e9600174140e7","5f60e3c0a3b16e07647b2ff9","5f60ee8c9bbe2501bb76a208","false","null","<span style=""color: red; font-size: 48px"">Error!</span>","null","","","","feedback","","","","","","","","","","","","","","","",""
"html-keyboard-response","109","678336","0.0-3.0-3.0-3.7","d0ana27nn1k4h13","practice_cue","5d8ccb09948e9600174140e7","5f60e3c0a3b16e07647b2ff9","5f60ee8c9bbe2501bb76a208","false","null","<div style=""align-items: center; display: flex; color: dodgerblue; font-size: 90px""><b>o</b></div>","null","","","","forget_cue","","","","","","","","","","","","","","","",""
"html-keyboard-response","110","679038","0.0-3.0-3.0-0.8","d0ana27nn1k4h13","practice_cue","5d8ccb09948e9600174140e7","5f60e3c0a3b16e07647b2ff9","5f60ee8c9bbe2501bb76a208","false","null","<span style=""color: black; font-size: 48px"">M + N</span>","null","","","","resp_prompt","","","","","","","","","","","","","","","",""
"categorize-image","111","680063","0.0-3.0-3.0-1.8","d0ana27nn1k4h13","practice_cue","5d8ccb09948e9600174140e7","5f60e3c0a3b16e07647b2ff9","5f60ee8c9bbe2501bb76a208","true","1019.2449999740347","./Stimuli/ImagesPractice/LM55.jpg","83","","","","test","true","M + N","83","","LM","LM55.jpg","remember","old","41","3","practice_forget","left","","","",""
"html-keyboard-response","112","682064","0.0-3.0-3.0-3.8","d0ana27nn1k4h13","practice_cue","5d8ccb09948e9600174140e7","5f60e3c0a3b16e07647b2ff9","5f60ee8c9bbe2501bb76a208","false","null","<div style=""align-items: center; display: flex; color: dodgerblue; font-size: 90px""><b>o</b></div>","null","","","","forget_cue","","","","","","","","","","","","","","","",""
"html-keyboard-response","113","682766","0.0-3.0-3.0-0.9","d0ana27nn1k4h13","practice_cue","5d8ccb09948e9600174140e7","5f60e3c0a3b16e07647b2ff9","5f60ee8c9bbe2501bb76a208","false","null","<span style=""color: black; font-size: 48px"">N + M</span>","null","","","","resp_prompt","","","","","","","","","","","","","","","",""
"categorize-image","114","683350","0.0-3.0-3.0-1.9","d0ana27nn1k4h13","practice_cue","5d8ccb09948e9600174140e7","5f60e3c0a3b16e07647b2ff9","5f60ee8c9bbe2501bb76a208","true","579.0849999757484","./Stimuli/ImagesPractice/LM143.jpg","76","","","","test","true","N + M","76","","LM","LM143.jpg","forget","old","42","3","practice_forget","right","","","",""
"html-keyboard-response","115","685353","0.0-3.0-3.0-3.9","d0ana27nn1k4h13","practice_cue","5d8ccb09948e9600174140e7","5f60e3c0a3b16e07647b2ff9","5f60ee8c9bbe2501bb76a208","false","null","<div style=""align-items: center; display: flex; color: darkorange; font-size: 90px""><b>ø</b></div>","null","","","","forget_cue","","","","","","","","","","","","","","","",""
"html-keyboard-response","116","686055","0.0-3.0-3.0-0.10","d0ana27nn1k4h13","practice_cue","5d8ccb09948e9600174140e7","5f60e3c0a3b16e07647b2ff9","5f60ee8c9bbe2501bb76a208","false","null","<span style=""color: black; font-size: 48px"">M + N</span>","null","","","","resp_prompt","","","","","","","","","","","","","","","",""
"categorize-image","117","686746","0.0-3.0-3.0-1.10","d0ana27nn1k4h13","practice_cue","5d8ccb09948e9600174140e7","5f60e3c0a3b16e07647b2ff9","5f60ee8c9bbe2501bb76a208","true","687.2950000106357","./Stimuli/ImagesPractice/LM224.jpg","83","","","","test","true","M + N","83","","LM","LM224.jpg","remember","old","43","3","practice_forget","left","","","",""
"html-keyboard-response","118","688747","0.0-3.0-3.0-3.10","d0ana27nn1k4h13","practice_cue","5d8ccb09948e9600174140e7","5f60e3c0a3b16e07647b2ff9","5f60ee8c9bbe2501bb76a208","false","null","<div style=""align-items: center; display: flex; color: dodgerblue; font-size: 90px""><b>o</b></div>","null","","","","forget_cue","","","","","","","","","","","","","","","",""
"html-keyboard-response","119","689448","0.0-3.0-3.0-0.11","d0ana27nn1k4h13","practice_cue","5d8ccb09948e9600174140e7","5f60e3c0a3b16e07647b2ff9","5f60ee8c9bbe2501bb76a208","false","null","<span style=""color: black; font-size: 48px"">M + N</span>","null","","","","resp_prompt","","","","","","","","","","","","","","","",""
"categorize-image","120","690180","0.0-3.0-3.0-1.11","d0ana27nn1k4h13","practice_cue","5d8ccb09948e9600174140e7","5f60e3c0a3b16e07647b2ff9","5f60ee8c9bbe2501bb76a208","true","726.2099999934435","./Stimuli/ImagesPractice/SN205.jpg","76","","","","test","true","M + N","76","","SN","SN205.jpg","forget","old","44","3","practice_forget","right","","","",""
"html-keyboard-response","121","692182","0.0-3.0-3.0-3.11","d0ana27nn1k4h13","practice_cue","5d8ccb09948e9600174140e7","5f60e3c0a3b16e07647b2ff9","5f60ee8c9bbe2501bb76a208","false","null","<div style=""align-items: center; display: flex; color: darkorange; font-size: 90px""><b>ø</b></div>","null","","","","forget_cue","","","","","","","","","","","","","","","",""
"html-keyboard-response","122","692884","0.0-3.0-3.0-0.12","d0ana27nn1k4h13","practice_cue","5d8ccb09948e9600174140e7","5f60e3c0a3b16e07647b2ff9","5f60ee8c9bbe2501bb76a208","false","null","<span style=""color: black; font-size: 48px"">N + M</span>","null","","","","resp_prompt","","","","","","","","","","","","","","","",""
"categorize-image","123","693741","0.0-3.0-3.0-1.12","d0ana27nn1k4h13","practice_cue","5d8ccb09948e9600174140e7","5f60e3c0a3b16e07647b2ff9","5f60ee8c9bbe2501bb76a208","true","851.8550000153482","./Stimuli/ImagesPractice/LN2.jpg","83","","","","test","true","N + M","83","","LN","LN2.jpg","remember","old","45","3","practice_forget","left","","","",""
"html-keyboard-response","124","695743","0.0-3.0-3.0-3.12","d0ana27nn1k4h13","practice_cue","5d8ccb09948e9600174140e7","5f60e3c0a3b16e07647b2ff9","5f60ee8c9bbe2501bb76a208","false","null","<div style=""align-items: center; display: flex; color: dodgerblue; font-size: 90px""><b>o</b></div>","null","","","","forget_cue","","","","","","","","","","","","","","","",""
"html-keyboard-response","125","696445","0.0-3.0-3.0-0.13","d0ana27nn1k4h13","practice_cue","5d8ccb09948e9600174140e7","5f60e3c0a3b16e07647b2ff9","5f60ee8c9bbe2501bb76a208","false","null","<span style=""color: black; font-size: 48px"">M + N</span>","null","","","","resp_prompt","","","","","","","","","","","","","","","",""
"categorize-image","126","697142","0.0-3.0-3.0-1.13","d0ana27nn1k4h13","practice_cue","5d8ccb09948e9600174140e7","5f60e3c0a3b16e07647b2ff9","5f60ee8c9bbe2501bb76a208","true","691.3250000216067","./Stimuli/ImagesPractice/LN4.jpg","83","","","","test","false","M + N","76","","LN","LN4.jpg","forget","old","46","3","practice_forget","left","","","",""
"html-keyboard-response","127","697644","0.0-3.0-3.0-2.13-0.13","d0ana27nn1k4h13","practice_cue","5d8ccb09948e9600174140e7","5f60e3c0a3b16e07647b2ff9","5f60ee8c9bbe2501bb76a208","false","null","<span style=""color: red; font-size: 48px"">Error!</span>","null","","","","feedback","","","","","","","","","","","","","","","",""
"html-keyboard-response","128","699645","0.0-3.0-3.0-3.13","d0ana27nn1k4h13","practice_cue","5d8ccb09948e9600174140e7","5f60e3c0a3b16e07647b2ff9","5f60ee8c9bbe2501bb76a208","false","null","<div style=""align-items: center; display: flex; color: darkorange; font-size: 90px""><b>ø</b></div>","null","","","","forget_cue","","","","","","","","","","","","","","","",""
"html-keyboard-response","129","700346","0.0-3.0-3.0-0.14","d0ana27nn1k4h13","practice_cue","5d8ccb09948e9600174140e7","5f60e3c0a3b16e07647b2ff9","5f60ee8c9bbe2501bb76a208","false","null","<span style=""color: black; font-size: 48px"">N + M</span>","null","","","","resp_prompt","","","","","","","","","","","","","","","",""
"categorize-image","130","701356","0.0-3.0-3.0-1.14","d0ana27nn1k4h13","practice_cue","5d8ccb09948e9600174140e7","5f60e3c0a3b16e07647b2ff9","5f60ee8c9bbe2501bb76a208","true","1005.730000033509","./Stimuli/ImagesPractice/LM230.jpg","76","","","","test","true","N + M","76","","LM","LM230.jpg","forget","old","47","3","practice_forget","right","","","",""
"html-keyboard-response","131","703358","0.0-3.0-3.0-3.14","d0ana27nn1k4h13","practice_cue","5d8ccb09948e9600174140e7","5f60e3c0a3b16e07647b2ff9","5f60ee8c9bbe2501bb76a208","false","null","<div style=""align-items: center; display: flex; color: darkorange; font-size: 90px""><b>ø</b></div>","null","","","","forget_cue","","","","","","","","","","","","","","","",""
"html-keyboard-response","132","704061","0.0-3.0-3.0-0.15","d0ana27nn1k4h13","practice_cue","5d8ccb09948e9600174140e7","5f60e3c0a3b16e07647b2ff9","5f60ee8c9bbe2501bb76a208","false","null","<span style=""color: black; font-size: 48px"">N + M</span>","null","","","","resp_prompt","","","","","","","","","","","","","","","",""
"categorize-image","133","704788","0.0-3.0-3.0-1.15","d0ana27nn1k4h13","practice_cue","5d8ccb09948e9600174140e7","5f60e3c0a3b16e07647b2ff9","5f60ee8c9bbe2501bb76a208","true","721.9899999909103","./Stimuli/ImagesPractice/LM147.jpg","76","","","","test","true","N + M","76","","LM","LM147.jpg","forget","old","48","3","practice_forget","right","","","",""
"html-keyboard-response","134","706789","0.0-3.0-3.0-3.15","d0ana27nn1k4h13","practice_cue","5d8ccb09948e9600174140e7","5f60e3c0a3b16e07647b2ff9","5f60ee8c9bbe2501bb76a208","false","null","<div style=""align-items: center; display: flex; color: darkorange; font-size: 90px""><b>ø</b></div>","null","","","","forget_cue","","","","","","","","","","","","","","","",""
"html-keyboard-response","135","709010","0.0-3.0-4.0","d0ana27nn1k4h13","break","5d8ccb09948e9600174140e7","5f60e3c0a3b16e07647b2ff9","5f60ee8c9bbe2501bb76a208","false","2219.229999987874","<p style='font-size: 32px;'>Break</><br><br><br><br><br><p style='font-size: 24px;'>In the last block, you committed 4 errors and did not respond in time on 0 trials.
</p><p style='font-size: 24px;'>Try to respond as fast and accurately as possible in the next block as well! </p><p style='font-size: 24px;'>Press SPACE to continue.</p>","32","","","","","","","","","","","","","","","","","","","",""
"html-keyboard-response","136","710297","0.0-3.0-5.0","d0ana27nn1k4h13","instructions","5d8ccb09948e9600174140e7","5f60e3c0a3b16e07647b2ff9","5f60ee8c9bbe2501bb76a208","false","1285.4199999710545","<div align=left> Now, to practice, we kindly ask you to remember as many of the to-be-remembered pictures<br>of the previous learning phase as possible.<br><br>The pictures you were instructed to remember were the pictures followed by a <span style='color: dodgerblue; font-size: 28px'>O</span>.<br><br>In this memory test phase, you will also see some new pictures.<br>It is your task to remember whether you were presented with this specific picture in this study so far or not.<br>If you recognize an object (you have already seen it in this study), it is an OLD object. <br>If you do not recognize an object (you have NOT seen it in this study), it is a NEW object. <br><strong> Attention</strong>: As already mentioned, <span style='color: darkorange; font-size:28px'>Ø</span>-pictures will <strong>never</strong> appear in this memory test (neither as new objects). <br><br>Press SPACE to continue. </div>","32","","","","","","","","","","","","","","","","","","","",""
"html-keyboard-response","137","716216","0.0-3.0-6.0","d0ana27nn1k4h13","instructions","5d8ccb09948e9600174140e7","5f60e3c0a3b16e07647b2ff9","5f60ee8c9bbe2501bb76a208","false","5916.750000033062","<div align=left> M and N no longer will appear on the left/right of the fixation cross. <br>Instead there will be a note at the bottom of the left or right side  <br>indicating which key you should press for an old or new object:  <br> <br>Press the <strong>right</strong> key to classify an object as <strong>old</strong> and press the <strong>left</strong>, to classify an object as <strong>new</strong>.<br>Please classify the objects as new/old by again placing your index finger on the 'S' and 'L' keys <br>and press them accordingly.<br><br><strong>Old:</strong> This object has been presented before. <br><strong>New:</strong> This object has <strong>not</strong> been presented.<br><br>Now please put your right and left index fingers on the 'S' and 'L' keys of your keyboard. <br>Please respond as fast and as accurately as possible!<br><br>Press SPACE to continue. </div>","32","","","","","","","","","","","","","","","","","","","",""
"categorize-image","138","718089","0.0-3.0-7.0-0.0","d0ana27nn1k4h13","practice_recog","5d8ccb09948e9600174140e7","5f60e3c0a3b16e07647b2ff9","5f60ee8c9bbe2501bb76a208","true","1367.4499999615364","./Stimuli/ImagesPractice/LN109.jpg","83","","","","test","true","","83","","LN","LN109.jpg","","new","49","4","practice_recog","left","","","",""
"categorize-image","139","719862","0.0-3.0-7.0-0.1","d0ana27nn1k4h13","practice_recog","5d8ccb09948e9600174140e7","5f60e3c0a3b16e07647b2ff9","5f60ee8c9bbe2501bb76a208","true","1269.0900000161491","./Stimuli/ImagesPractice/LM224.jpg","76","","","","test","true","","76","","LM","LM224.jpg","","old","50","4","practice_recog","right","","","",""
"categorize-image","140","721257","0.0-3.0-7.0-0.2","d0ana27nn1k4h13","practice_recog","5d8ccb09948e9600174140e7","5f60e3c0a3b16e07647b2ff9","5f60ee8c9bbe2501bb76a208","true","892.1349999727681","./Stimuli/ImagesPractice/LN72.jpg","83","","","","test","true","","83","","LN","LN72.jpg","","new","51","4","practice_recog","left","","","",""
"categorize-image","141","722660","0.0-3.0-7.0-0.3","d0ana27nn1k4h13","practice_recog","5d8ccb09948e9600174140e7","5f60e3c0a3b16e07647b2ff9","5f60ee8c9bbe2501bb76a208","true","898.8050000043586","./Stimuli/ImagesPractice/SN76.jpg","83","","","","test","true","","83","","SN","SN76.jpg","","new","52","4","practice_recog","left","","","",""
"categorize-image","142","723858","0.0-3.0-7.0-0.4","d0ana27nn1k4h13","practice_recog","5d8ccb09948e9600174140e7","5f60e3c0a3b16e07647b2ff9","5f60ee8c9bbe2501bb76a208","true","693.7899999902584","./Stimuli/ImagesPractice/SN220.jpg","76","","","","test","true","","76","","SN","SN220.jpg","","old","53","4","practice_recog","right","","","",""
"categorize-image","143","724897","0.0-3.0-7.0-0.5","d0ana27nn1k4h13","practice_recog","5d8ccb09948e9600174140e7","5f60e3c0a3b16e07647b2ff9","5f60ee8c9bbe2501bb76a208","true","537.0000000111759","./Stimuli/ImagesPractice/SM35.jpg","76","","","","test","true","","76","","SM","SM35.jpg","","old","54","4","practice_recog","right","","","",""
"categorize-image","144","725960","0.0-3.0-7.0-0.6","d0ana27nn1k4h13","practice_recog","5d8ccb09948e9600174140e7","5f60e3c0a3b16e07647b2ff9","5f60ee8c9bbe2501bb76a208","true","559.7149999812245","./Stimuli/ImagesPractice/SN221.jpg","76","","","","test","true","","76","","SN","SN221.jpg","","old","55","4","practice_recog","right","","","",""
"categorize-image","145","727283","0.0-3.0-7.0-0.7","d0ana27nn1k4h13","practice_recog","5d8ccb09948e9600174140e7","5f60e3c0a3b16e07647b2ff9","5f60ee8c9bbe2501bb76a208","true","818.8950000330806","./Stimuli/ImagesPractice/LM239.jpg","83","","","","test","true","","83","","LM","LM239.jpg","","new","56","4","practice_recog","left","","","",""
"categorize-image","146","728440","0.0-3.0-7.0-0.8","d0ana27nn1k4h13","practice_recog","5d8ccb09948e9600174140e7","5f60e3c0a3b16e07647b2ff9","5f60ee8c9bbe2501bb76a208","true","654.9000000231899","./Stimuli/ImagesPractice/SM98.jpg","83","","","","test","true","","83","","SM","SM98.jpg","","new","57","4","practice_recog","left","","","",""
"categorize-image","147","729658","0.0-3.0-7.0-0.9","d0ana27nn1k4h13","practice_recog","5d8ccb09948e9600174140e7","5f60e3c0a3b16e07647b2ff9","5f60ee8c9bbe2501bb76a208","true","715.5149999889545","./Stimuli/ImagesPractice/LM55.jpg","76","","","","test","true","","76","","LM","LM55.jpg","","old","58","4","practice_recog","right","","","",""
"categorize-image","148","730800","0.0-3.0-7.0-0.10","d0ana27nn1k4h13","practice_recog","5d8ccb09948e9600174140e7","5f60e3c0a3b16e07647b2ff9","5f60ee8c9bbe2501bb76a208","true","639.0300000202842","./Stimuli/ImagesPractice/SM97.jpg","76","","","","test","true","","76","","SM","SM97.jpg","","old","59","4","practice_recog","right","","","",""
"categorize-image","149","732058","0.0-3.0-7.0-0.11","d0ana27nn1k4h13","practice_recog","5d8ccb09948e9600174140e7","5f60e3c0a3b16e07647b2ff9","5f60ee8c9bbe2501bb76a208","true","754.929999995511","./Stimuli/ImagesPractice/SM62.jpg","83","","","","test","true","","83","","SM","SM62.jpg","","new","60","4","practice_recog","left","","","",""
"categorize-image","150","733189","0.0-3.0-7.0-0.12","d0ana27nn1k4h13","practice_recog","5d8ccb09948e9600174140e7","5f60e3c0a3b16e07647b2ff9","5f60ee8c9bbe2501bb76a208","true","626.1149999918416","./Stimuli/ImagesPractice/LN15.jpg","83","","","","test","true","","83","","LN","LN15.jpg","","new","61","4","practice_recog","left","","","",""
"categorize-image","151","734410","0.0-3.0-7.0-0.13","d0ana27nn1k4h13","practice_recog","5d8ccb09948e9600174140e7","5f60e3c0a3b16e07647b2ff9","5f60ee8c9bbe2501bb76a208","true","715.2349999523722","./Stimuli/ImagesPractice/SN222.jpg","76","","","","test","true","","76","","SN","SN222.jpg","","old","62","4","practice_recog","right","","","",""
"categorize-image","152","735472","0.0-3.0-7.0-0.14","d0ana27nn1k4h13","practice_recog","5d8ccb09948e9600174140e7","5f60e3c0a3b16e07647b2ff9","5f60ee8c9bbe2501bb76a208","true","558.420000015758","./Stimuli/ImagesPractice/SM37.jpg","83","","","","test","true","","83","","SM","SM37.jpg","","new","63","4","practice_recog","left","","","",""
"categorize-image","153","736762","0.0-3.0-7.0-0.15","d0ana27nn1k4h13","practice_recog","5d8ccb09948e9600174140e7","5f60e3c0a3b16e07647b2ff9","5f60ee8c9bbe2501bb76a208","true","787.1199999935925","./Stimuli/ImagesPractice/LN2.jpg","76","","","","test","true","","76","","LN","LN2.jpg","","old","64","4","practice_recog","right","","","",""
"html-keyboard-response","154","740395","0.0-3.0-8.0","d0ana27nn1k4h13","instructions","5d8ccb09948e9600174140e7","5f60e3c0a3b16e07647b2ff9","5f60ee8c9bbe2501bb76a208","false","3631.874999962747","<div align=left> Great!<br><br>Are you ready to continue?<br>If you want to reread the instructions and redo the practice trials, please <br>press „Z“.<br><br>You can proceed when you are ready.<br><br>After the presentation of each object, you will receive an instruction whether to <br>remember or to forget the object.<br>We will test your memory of the following pictures only at the very end of <br>the experiment after all learning blocks are completed. <br><br>Press SPACE to CONTINUE when you are ready. </div>","32","","","","","","","","","","","","","","","","","","","",""
"html-keyboard-response","155","746159","0.0-4.0-0.0","d0ana27nn1k4h13","instructions","5d8ccb09948e9600174140e7","5f60e3c0a3b16e07647b2ff9","5f60ee8c9bbe2501bb76a208","false","5762.319999979809","<div align=left> The actual experiment is about to start.<br>The practice trials are over!<br><br>Please always respond both fast and accurately!<br><br>Remember: <br> <br><li> Please place your index fingers on the <strong>'S'</strong> and <strong>'L'</strong> keys <br>to respond as fast and accurately as possible.</li><li> Every picture can be classified as either mechanical or non-mechanical.</li><li> If you do not respond in time or commit an error, you will receive a corresponding feedback.<br> Please try to respond as <strong> fast </strong> and as <strong> accurately as possible </strong>.</li><li> Remember the <span style='color: dodgerblue; font-size: 28px'>O</span> pictures. <br></li><li> Please minimize distractions and stay focused. </li><br><br>Press SPACE to START.</div>","32","","","","","","","","","","","","","","","","","","","",""
"html-keyboard-response","156","746862","0.0-4.0-1.0-0.0","d0ana27nn1k4h13","prime","5d8ccb09948e9600174140e7","5f60e3c0a3b16e07647b2ff9","5f60ee8c9bbe2501bb76a208","false","null","<span style=""color: black; font-size: 48px"">N + M</span>","null","","","","resp_prompt","","","","","","","","","","","","","","","",""
"categorize-image","157","747607","0.0-4.0-1.0-1.0","d0ana27nn1k4h13","prime","5d8ccb09948e9600174140e7","5f60e3c0a3b16e07647b2ff9","5f60ee8c9bbe2501bb76a208","true","738.9350000303239","./Stimuli/SelectedImages/SM/SM76.bmp","76","","","","test","true","N + M","76","repetition","SM","SM76.bmp","remember","","65","4","prime1","right","","","",""
"html-keyboard-response","158","749609","0.0-4.0-1.0-3.0","d0ana27nn1k4h13","prime","5d8ccb09948e9600174140e7","5f60e3c0a3b16e07647b2ff9","5f60ee8c9bbe2501bb76a208","false","null","<div style=""align-items: center; display: flex; color: dodgerblue; font-size: 90px""><b>o</b></div>","null","","","","forget_cue","","","","","","","","","","","","","","","",""
"html-keyboard-response","159","750311","0.0-4.0-1.0-0.1","d0ana27nn1k4h13","prime","5d8ccb09948e9600174140e7","5f60e3c0a3b16e07647b2ff9","5f60ee8c9bbe2501bb76a208","false","null","<span style=""color: black; font-size: 48px"">N + M</span>","null","","","","resp_prompt","","","","","","","","","","","","","","","",""
"categorize-image","160","750861","0.0-4.0-1.0-1.1","d0ana27nn1k4h13","prime","5d8ccb09948e9600174140e7","5f60e3c0a3b16e07647b2ff9","5f60ee8c9bbe2501bb76a208","true","544.8949999990873","./Stimuli/SelectedImages/LM/LM57.bmp","76","","","","test","true","N + M","76","repetition","LM","LM57.bmp","remember","","66","4","prime1","right","","","",""
"html-keyboard-response","161","752864","0.0-4.0-1.0-3.1","d0ana27nn1k4h13","prime","5d8ccb09948e9600174140e7","5f60e3c0a3b16e07647b2ff9","5f60ee8c9bbe2501bb76a208","false","null","<div style=""align-items: center; display: flex; color: dodgerblue; font-size: 90px""><b>o</b></div>","null","","","","forget_cue","","","","","","","","","","","","","","","",""
"html-keyboard-response","162","753565","0.0-4.0-1.0-0.2","d0ana27nn1k4h13","prime","5d8ccb09948e9600174140e7","5f60e3c0a3b16e07647b2ff9","5f60ee8c9bbe2501bb76a208","false","null","<span style=""color: black; font-size: 48px"">N + M</span>","null","","","","resp_prompt","","","","","","","","","","","","","","","",""
"categorize-image","163","754379","0.0-4.0-1.0-1.2","d0ana27nn1k4h13","prime","5d8ccb09948e9600174140e7","5f60e3c0a3b16e07647b2ff9","5f60ee8c9bbe2501bb76a208","true","808.2549999817275","./Stimuli/SelectedImages/SM/SM213.bmp","76","","","","test","true","N + M","76","repetition","SM","SM213.bmp","remember","","67","4","prime1","right","","","",""
"html-keyboard-response","164","756382","0.0-4.0-1.0-3.2","d0ana27nn1k4h13","prime","5d8ccb09948e9600174140e7","5f60e3c0a3b16e07647b2ff9","5f60ee8c9bbe2501bb76a208","false","null","<div style=""align-items: center; display: flex; color: dodgerblue; font-size: 90px""><b>o</b></div>","null","","","","forget_cue","","","","","","","","","","","","","","","",""
"html-keyboard-response","165","757085","0.0-4.0-1.0-0.3","d0ana27nn1k4h13","prime","5d8ccb09948e9600174140e7","5f60e3c0a3b16e07647b2ff9","5f60ee8c9bbe2501bb76a208","false","null","<span style=""color: black; font-size: 48px"">N + M</span>","null","","","","resp_prompt","","","","","","","","","","","","","","","",""
"categorize-image","166","757861","0.0-4.0-1.0-1.3","d0ana27nn1k4h13","prime","5d8ccb09948e9600174140e7","5f60e3c0a3b16e07647b2ff9","5f60ee8c9bbe2501bb76a208","true","770.2149999677204","./Stimuli/SelectedImages/LM/LM216.bmp","76","","","","test","true","N + M","76","switch","LM","LM216.bmp","remember","","68","4","prime1","right","","","",""
"html-keyboard-response","167","759863","0.0-4.0-1.0-3.3","d0ana27nn1k4h13","prime","5d8ccb09948e9600174140e7","5f60e3c0a3b16e07647b2ff9","5f60ee8c9bbe2501bb76a208","false","null","<div style=""align-items: center; display: flex; color: dodgerblue; font-size: 90px""><b>o</b></div>","null","","","","forget_cue","","","","","","","","","","","","","","","",""
"html-keyboard-response","168","760564","0.0-4.0-1.0-0.4","d0ana27nn1k4h13","prime","5d8ccb09948e9600174140e7","5f60e3c0a3b16e07647b2ff9","5f60ee8c9bbe2501bb76a208","false","null","<span style=""color: black; font-size: 48px"">M + N</span>","null","","","","resp_prompt","","","","","","","","","","","","","","","",""
"categorize-image","169","761540","0.0-4.0-1.0-1.4","d0ana27nn1k4h13","prime","5d8ccb09948e9600174140e7","5f60e3c0a3b16e07647b2ff9","5f60ee8c9bbe2501bb76a208","true","970.29000002658","./Stimuli/SelectedImages/SN/SN181.bmp","83","","","","test","false","M + N","76","repetition","SN","SN181.bmp","remember","","69","4","prime1","left","","","",""
"html-keyboard-response","170","762041","0.0-4.0-1.0-2.4-0.4","d0ana27nn1k4h13","prime","5d8ccb09948e9600174140e7","5f60e3c0a3b16e07647b2ff9","5f60ee8c9bbe2501bb76a208","false","null","<span style=""color: red; font-size: 48px"">Error!</span>","null","","","","feedback","","","","","","","","","","","","","","","",""
"html-keyboard-response","171","764043","0.0-4.0-1.0-3.4","d0ana27nn1k4h13","prime","5d8ccb09948e9600174140e7","5f60e3c0a3b16e07647b2ff9","5f60ee8c9bbe2501bb76a208","false","null","<div style=""align-items: center; display: flex; color: dodgerblue; font-size: 90px""><b>o</b></div>","null","","","","forget_cue","","","","","","","","","","","","","","","",""
"html-keyboard-response","172","764745","0.0-4.0-1.0-0.5","d0ana27nn1k4h13","prime","5d8ccb09948e9600174140e7","5f60e3c0a3b16e07647b2ff9","5f60ee8c9bbe2501bb76a208","false","null","<span style=""color: black; font-size: 48px"">M + N</span>","null","","","","resp_prompt","","","","","","","","","","","","","","","",""
"categorize-image","173","765990","0.0-4.0-1.0-1.5","d0ana27nn1k4h13","prime","5d8ccb09948e9600174140e7","5f60e3c0a3b16e07647b2ff9","5f60ee8c9bbe2501bb76a208","true","1241.6549999616109","./Stimuli/SelectedImages/LM/LM167.bmp","83","","","","test","true","M + N","83","repetition","LM","LM167.bmp","forget","","70","4","prime1","left","","","",""
"html-keyboard-response","174","767991","0.0-4.0-1.0-3.5","d0ana27nn1k4h13","prime","5d8ccb09948e9600174140e7","5f60e3c0a3b16e07647b2ff9","5f60ee8c9bbe2501bb76a208","false","null","<div style=""align-items: center; display: flex; color: darkorange; font-size: 90px""><b>ø</b></div>","null","","","","forget_cue","","","","","","","","","","","","","","","",""
"html-keyboard-response","175","768691","0.0-4.0-1.0-0.6","d0ana27nn1k4h13","prime","5d8ccb09948e9600174140e7","5f60e3c0a3b16e07647b2ff9","5f60ee8c9bbe2501bb76a208","false","null","<span style=""color: black; font-size: 48px"">M + N</span>","null","","","","resp_prompt","","","","","","","","","","","","","","","",""
"categorize-image","176","769693","0.0-4.0-1.0-1.6","d0ana27nn1k4h13","prime","5d8ccb09948e9600174140e7","5f60e3c0a3b16e07647b2ff9","5f60ee8c9bbe2501bb76a208","true","996.7650000471622","./Stimuli/SelectedImages/LM/LM48.bmp","76","","","","test","false","M + N","83","repetition","LM","LM48.bmp","remember","","71","4","prime1","right","","","",""
"html-keyboard-response","177","770195","0.0-4.0-1.0-2.6-0.6","d0ana27nn1k4h13","prime","5d8ccb09948e9600174140e7","5f60e3c0a3b16e07647b2ff9","5f60ee8c9bbe2501bb76a208","false","null","<span style=""color: red; font-size: 48px"">Error!</span>","null","","","","feedback","","","","","","","","","","","","","","","",""
"html-keyboard-response","178","772197","0.0-4.0-1.0-3.6","d0ana27nn1k4h13","prime","5d8ccb09948e9600174140e7","5f60e3c0a3b16e07647b2ff9","5f60ee8c9bbe2501bb76a208","false","null","<div style=""align-items: center; display: flex; color: dodgerblue; font-size: 90px""><b>o</b></div>","null","","","","forget_cue","","","","","","","","","","","","","","","",""
"html-keyboard-response","179","772897","0.0-4.0-1.0-0.7","d0ana27nn1k4h13","prime","5d8ccb09948e9600174140e7","5f60e3c0a3b16e07647b2ff9","5f60ee8c9bbe2501bb76a208","false","null","<span style=""color: black; font-size: 48px"">M + N</span>","null","","","","resp_prompt","","","","","","","","","","","","","","","",""
"categorize-image","180","773563","0.0-4.0-1.0-1.7","d0ana27nn1k4h13","prime","5d8ccb09948e9600174140e7","5f60e3c0a3b16e07647b2ff9","5f60ee8c9bbe2501bb76a208","true","661.2849999801256","./Stimuli/SelectedImages/SM/SM73.bmp","83","","","","test","true","M + N","83","repetition","SM","SM73.bmp","forget","","72","4","prime1","left","","","",""
"html-keyboard-response","181","775566","0.0-4.0-1.0-3.7","d0ana27nn1k4h13","prime","5d8ccb09948e9600174140e7","5f60e3c0a3b16e07647b2ff9","5f60ee8c9bbe2501bb76a208","false","null","<div style=""align-items: center; display: flex; color: darkorange; font-size: 90px""><b>ø</b></div>","null","","","","forget_cue","","","","","","","","","","","","","","","",""
"html-keyboard-response","182","776268","0.0-4.0-1.0-0.8","d0ana27nn1k4h13","prime","5d8ccb09948e9600174140e7","5f60e3c0a3b16e07647b2ff9","5f60ee8c9bbe2501bb76a208","false","null","<span style=""color: black; font-size: 48px"">N + M</span>","null","","","","resp_prompt","","","","","","","","","","","","","","","",""
"categorize-image","183","776962","0.0-4.0-1.0-1.8","d0ana27nn1k4h13","prime","5d8ccb09948e9600174140e7","5f60e3c0a3b16e07647b2ff9","5f60ee8c9bbe2501bb76a208","true","689.7800000151619","./Stimuli/SelectedImages/LN/LN13.bmp","83","","","","test","true","N + M","83","switch","LN","LN13.bmp","remember","","73","4","prime1","left","","","",""
"html-keyboard-response","184","778964","0.0-4.0-1.0-3.8","d0ana27nn1k4h13","prime","5d8ccb09948e9600174140e7","5f60e3c0a3b16e07647b2ff9","5f60ee8c9bbe2501bb76a208","false","null","<div style=""align-items: center; display: flex; color: dodgerblue; font-size: 90px""><b>o</b></div>","null","","","","forget_cue","","","","","","","","","","","","","","","",""
"html-keyboard-response","185","779666","0.0-4.0-1.0-0.9","d0ana27nn1k4h13","prime","5d8ccb09948e9600174140e7","5f60e3c0a3b16e07647b2ff9","5f60ee8c9bbe2501bb76a208","false","null","<span style=""color: black; font-size: 48px"">N + M</span>","null","","","","resp_prompt","","","","","","","","","","","","","","","",""
"categorize-image","186","780480","0.0-4.0-1.0-1.9","d0ana27nn1k4h13","prime","5d8ccb09948e9600174140e7","5f60e3c0a3b16e07647b2ff9","5f60ee8c9bbe2501bb76a208","true","808.4899999666959","./Stimuli/SelectedImages/LN/LN131.bmp","83","","","","test","true","N + M","83","repetition","LN","LN131.bmp","forget","","74","4","prime1","left","","","",""
"html-keyboard-response","187","782482","0.0-4.0-1.0-3.9","d0ana27nn1k4h13","prime","5d8ccb09948e9600174140e7","5f60e3c0a3b16e07647b2ff9","5f60ee8c9bbe2501bb76a208","false","null","<div style=""align-items: center; display: flex; color: darkorange; font-size: 90px""><b>ø</b></div>","null","","","","forget_cue","","","","","","","","","","","","","","","",""
"html-keyboard-response","188","783185","0.0-4.0-1.0-0.10","d0ana27nn1k4h13","prime","5d8ccb09948e9600174140e7","5f60e3c0a3b16e07647b2ff9","5f60ee8c9bbe2501bb76a208","false","null","<span style=""color: black; font-size: 48px"">N + M</span>","null","","","","resp_prompt","","","","","","","","","","","","","","","",""
"categorize-image","189","783771","0.0-4.0-1.0-1.10","d0ana27nn1k4h13","prime","5d8ccb09948e9600174140e7","5f60e3c0a3b16e07647b2ff9","5f60ee8c9bbe2501bb76a208","true","582.8750000218861","./Stimuli/SelectedImages/SM/SM106.bmp","76","","","","test","true","N + M","76","switch","SM","SM106.bmp","remember","","75","4","prime1","right","","","",""
"html-keyboard-response","190","785773","0.0-4.0-1.0-3.10","d0ana27nn1k4h13","prime","5d8ccb09948e9600174140e7","5f60e3c0a3b16e07647b2ff9","5f60ee8c9bbe2501bb76a208","false","null","<div style=""align-items: center; display: flex; color: dodgerblue; font-size: 90px""><b>o</b></div>","null","","","","forget_cue","","","","","","","","","","","","","","","",""
"html-keyboard-response","191","786475","0.0-4.0-1.0-0.11","d0ana27nn1k4h13","prime","5d8ccb09948e9600174140e7","5f60e3c0a3b16e07647b2ff9","5f60ee8c9bbe2501bb76a208","false","null","<span style=""color: black; font-size: 48px"">N + M</span>","null","","","","resp_prompt","","","","","","","","","","","","","","","",""
"categorize-image","192","787204","0.0-4.0-1.0-1.11","d0ana27nn1k4h13","prime","5d8ccb09948e9600174140e7","5f60e3c0a3b16e07647b2ff9","5f60ee8c9bbe2501bb76a208","true","725.2100000041537","./Stimuli/SelectedImages/SN/SN140.bmp","83","","","","test","true","N + M","83","switch","SN","SN140.bmp","forget","","76","4","prime1","left","","","",""
"html-keyboard-response","193","789206","0.0-4.0-1.0-3.11","d0ana27nn1k4h13","prime","5d8ccb09948e9600174140e7","5f60e3c0a3b16e07647b2ff9","5f60ee8c9bbe2501bb76a208","false","null","<div style=""align-items: center; display: flex; color: darkorange; font-size: 90px""><b>ø</b></div>","null","","","","forget_cue","","","","","","","","","","","","","","","",""
"html-keyboard-response","194","789908","0.0-4.0-1.0-0.12","d0ana27nn1k4h13","prime","5d8ccb09948e9600174140e7","5f60e3c0a3b16e07647b2ff9","5f60ee8c9bbe2501bb76a208","false","null","<span style=""color: black; font-size: 48px"">N + M</span>","null","","","","resp_prompt","","","","","","","","","","","","","","","",""
"categorize-image","195","790068","0.0-4.0-1.0-1.12","d0ana27nn1k4h13","prime","5d8ccb09948e9600174140e7","5f60e3c0a3b16e07647b2ff9","5f60ee8c9bbe2501bb76a208","true","154.64999998221174","./Stimuli/SelectedImages/LN/LN149.bmp","76","","","","test","false","N + M","83","switch","LN","LN149.bmp","remember","","77","4","prime1","right","","","",""
"html-keyboard-response","196","790569","0.0-4.0-1.0-2.12-0.12","d0ana27nn1k4h13","prime","5d8ccb09948e9600174140e7","5f60e3c0a3b16e07647b2ff9","5f60ee8c9bbe2501bb76a208","false","null","<span style=""color: red; font-size: 48px"">Error!</span>","null","","","","feedback","","","","","","","","","","","","","","","",""
"html-keyboard-response","197","792571","0.0-4.0-1.0-3.12","d0ana27nn1k4h13","prime","5d8ccb09948e9600174140e7","5f60e3c0a3b16e07647b2ff9","5f60ee8c9bbe2501bb76a208","false","null","<div style=""align-items: center; display: flex; color: dodgerblue; font-size: 90px""><b>o</b></div>","null","","","","forget_cue","","","","","","","","","","","","","","","",""
"html-keyboard-response","198","793272","0.0-4.0-1.0-0.13","d0ana27nn1k4h13","prime","5d8ccb09948e9600174140e7","5f60e3c0a3b16e07647b2ff9","5f60ee8c9bbe2501bb76a208","false","null","<span style=""color: black; font-size: 48px"">M + N</span>","null","","","","resp_prompt","","","","","","","","","","","","","","","",""
"categorize-image","199","793334","0.0-4.0-1.0-1.13","d0ana27nn1k4h13","prime","5d8ccb09948e9600174140e7","5f60e3c0a3b16e07647b2ff9","5f60ee8c9bbe2501bb76a208","true","56.13499996252358","./Stimuli/SelectedImages/SM/SM184.bmp","83","","","","test","true","M + N","83","repetition","SM","SM184.bmp","remember","","78","4","prime1","left","","","",""
"html-keyboard-response","200","795336","0.0-4.0-1.0-3.13","d0ana27nn1k4h13","prime","5d8ccb09948e9600174140e7","5f60e3c0a3b16e07647b2ff9","5f60ee8c9bbe2501bb76a208","false","null","<div style=""align-items: center; display: flex; color: dodgerblue; font-size: 90px""><b>o</b></div>","null","","","","forget_cue","","","","","","","","","","","","","","","",""
"html-keyboard-response","201","796037","0.0-4.0-1.0-0.14","d0ana27nn1k4h13","prime","5d8ccb09948e9600174140e7","5f60e3c0a3b16e07647b2ff9","5f60ee8c9bbe2501bb76a208","false","null","<span style=""color: black; font-size: 48px"">M + N</span>","null","","","","resp_prompt","","","","","","","","","","","","","","","",""
"categorize-image","202","796675","0.0-4.0-1.0-1.14","d0ana27nn1k4h13","prime","5d8ccb09948e9600174140e7","5f60e3c0a3b16e07647b2ff9","5f60ee8c9bbe2501bb76a208","true","633.5049999761395","./Stimuli/SelectedImages/SN/SN155.bmp","76","","","","test","true","M + N","76","repetition","SN","SN155.bmp","forget","","79","4","prime1","right","","","",""
"html-keyboard-response","203","798675","0.0-4.0-1.0-3.14","d0ana27nn1k4h13","prime","5d8ccb09948e9600174140e7","5f60e3c0a3b16e07647b2ff9","5f60ee8c9bbe2501bb76a208","false","null","<div style=""align-items: center; display: flex; color: darkorange; font-size: 90px""><b>ø</b></div>","null","","","","forget_cue","","","","","","","","","","","","","","","",""
"html-keyboard-response","204","799377","0.0-4.0-1.0-0.15","d0ana27nn1k4h13","prime","5d8ccb09948e9600174140e7","5f60e3c0a3b16e07647b2ff9","5f60ee8c9bbe2501bb76a208","false","null","<span style=""color: black; font-size: 48px"">M + N</span>","null","","","","resp_prompt","","","","","","","","","","","","","","","",""
"categorize-image","205","800371","0.0-4.0-1.0-1.15","d0ana27nn1k4h13","prime","5d8ccb09948e9600174140e7","5f60e3c0a3b16e07647b2ff9","5f60ee8c9bbe2501bb76a208","true","989.3299999530427","./Stimuli/SelectedImages/LM/LM51.bmp","83","","","","test","true","M + N","83","repetition","LM","LM51.bmp","forget","","80","4","prime1","left","","","",""
"html-keyboard-response","206","802373","0.0-4.0-1.0-3.15","d0ana27nn1k4h13","prime","5d8ccb09948e9600174140e7","5f60e3c0a3b16e07647b2ff9","5f60ee8c9bbe2501bb76a208","false","null","<div style=""align-items: center; display: flex; color: darkorange; font-size: 90px""><b>ø</b></div>","null","","","","forget_cue","","","","","","","","","","","","","","","",""
"html-keyboard-response","207","803075","0.0-4.0-1.0-0.16","d0ana27nn1k4h13","prime","5d8ccb09948e9600174140e7","5f60e3c0a3b16e07647b2ff9","5f60ee8c9bbe2501bb76a208","false","null","<span style=""color: black; font-size: 48px"">M + N</span>","null","","","","resp_prompt","","","","","","","","","","","","","","","",""
"categorize-image","208","803618","0.0-4.0-1.0-1.16","d0ana27nn1k4h13","prime","5d8ccb09948e9600174140e7","5f60e3c0a3b16e07647b2ff9","5f60ee8c9bbe2501bb76a208","true","537.6800000085495","./Stimuli/SelectedImages/LN/LN111.bmp","76","","","","test","true","M + N","76","repetition","LN","LN111.bmp","remember","","81","4","prime1","right","","","",""
"html-keyboard-response","209","805620","0.0-4.0-1.0-3.16","d0ana27nn1k4h13","prime","5d8ccb09948e9600174140e7","5f60e3c0a3b16e07647b2ff9","5f60ee8c9bbe2501bb76a208","false","null","<div style=""align-items: center; display: flex; color: dodgerblue; font-size: 90px""><b>o</b></div>","null","","","","forget_cue","","","","","","","","","","","","","","","",""
"html-keyboard-response","210","806322","0.0-4.0-1.0-0.17","d0ana27nn1k4h13","prime","5d8ccb09948e9600174140e7","5f60e3c0a3b16e07647b2ff9","5f60ee8c9bbe2501bb76a208","false","null","<span style=""color: black; font-size: 48px"">M + N</span>","null","","","","resp_prompt","","","","","","","","","","","","","","","",""
"categorize-image","211","806380","0.0-4.0-1.0-1.17","d0ana27nn1k4h13","prime","5d8ccb09948e9600174140e7","5f60e3c0a3b16e07647b2ff9","5f60ee8c9bbe2501bb76a208","true","53.00500005250797","./Stimuli/SelectedImages/LM/LM75.bmp","76","","","","test","false","M + N","83","switch","LM","LM75.bmp","forget","","82","4","prime1","right","","","",""
"html-keyboard-response","212","806882","0.0-4.0-1.0-2.17-0.17","d0ana27nn1k4h13","prime","5d8ccb09948e9600174140e7","5f60e3c0a3b16e07647b2ff9","5f60ee8c9bbe2501bb76a208","false","null","<span style=""color: red; font-size: 48px"">Error!</span>","null","","","","feedback","","","","","","","","","","","","","","","",""
"html-keyboard-response","213","808883","0.0-4.0-1.0-3.17","d0ana27nn1k4h13","prime","5d8ccb09948e9600174140e7","5f60e3c0a3b16e07647b2ff9","5f60ee8c9bbe2501bb76a208","false","null","<div style=""align-items: center; display: flex; color: darkorange; font-size: 90px""><b>ø</b></div>","null","","","","forget_cue","","","","","","","","","","","","","","","",""
"html-keyboard-response","214","809585","0.0-4.0-1.0-0.18","d0ana27nn1k4h13","prime","5d8ccb09948e9600174140e7","5f60e3c0a3b16e07647b2ff9","5f60ee8c9bbe2501bb76a208","false","null","<span style=""color: black; font-size: 48px"">N + M</span>","null","","","","resp_prompt","","","","","","","","","","","","","","","",""
"categorize-image","215","809732","0.0-4.0-1.0-1.18","d0ana27nn1k4h13","prime","5d8ccb09948e9600174140e7","5f60e3c0a3b16e07647b2ff9","5f60ee8c9bbe2501bb76a208","true","142.41500000935048","./Stimuli/SelectedImages/SM/SM205.bmp","83","","","","test","false","N + M","76","switch","SM","SM205.bmp","forget","","83","4","prime1","left","","","",""
"html-keyboard-response","216","810234","0.0-4.0-1.0-2.18-0.18","d0ana27nn1k4h13","prime","5d8ccb09948e9600174140e7","5f60e3c0a3b16e07647b2ff9","5f60ee8c9bbe2501bb76a208","false","null","<span style=""color: red; font-size: 48px"">Error!</span>","null","","","","feedback","","","","","","","","","","","","","","","",""
"html-keyboard-response","217","812235","0.0-4.0-1.0-3.18","d0ana27nn1k4h13","prime","5d8ccb09948e9600174140e7","5f60e3c0a3b16e07647b2ff9","5f60ee8c9bbe2501bb76a208","false","null","<div style=""align-items: center; display: flex; color: darkorange; font-size: 90px""><b>ø</b></div>","null","","","","forget_cue","","","","","","","","","","","","","","","",""
"html-keyboard-response","218","812937","0.0-4.0-1.0-0.19","d0ana27nn1k4h13","prime","5d8ccb09948e9600174140e7","5f60e3c0a3b16e07647b2ff9","5f60ee8c9bbe2501bb76a208","false","null","<span style=""color: black; font-size: 48px"">M + N</span>","null","","","","resp_prompt","","","","","","","","","","","","","","","",""
"categorize-image","219","813605","0.0-4.0-1.0-1.19","d0ana27nn1k4h13","prime","5d8ccb09948e9600174140e7","5f60e3c0a3b16e07647b2ff9","5f60ee8c9bbe2501bb76a208","true","660.3199999663047","./Stimuli/SelectedImages/LN/LN177.bmp","83","","","","test","false","M + N","76","repetition","LN","LN177.bmp","forget","","84","4","prime1","left","","","",""
"html-keyboard-response","220","814106","0.0-4.0-1.0-2.19-0.19","d0ana27nn1k4h13","prime","5d8ccb09948e9600174140e7","5f60e3c0a3b16e07647b2ff9","5f60ee8c9bbe2501bb76a208","false","null","<span style=""color: red; font-size: 48px"">Error!</span>","null","","","","feedback","","","","","","","","","","","","","","","",""
"html-keyboard-response","221","816108","0.0-4.0-1.0-3.19","d0ana27nn1k4h13","prime","5d8ccb09948e9600174140e7","5f60e3c0a3b16e07647b2ff9","5f60ee8c9bbe2501bb76a208","false","null","<div style=""align-items: center; display: flex; color: darkorange; font-size: 90px""><b>ø</b></div>","null","","","","forget_cue","","","","","","","","","","","","","","","",""
"html-keyboard-response","222","816810","0.0-4.0-1.0-0.20","d0ana27nn1k4h13","prime","5d8ccb09948e9600174140e7","5f60e3c0a3b16e07647b2ff9","5f60ee8c9bbe2501bb76a208","false","null","<span style=""color: black; font-size: 48px"">M + N</span>","null","","","","resp_prompt","","","","","","","","","","","","","","","",""
"categorize-image","223","817383","0.0-4.0-1.0-1.20","d0ana27nn1k4h13","prime","5d8ccb09948e9600174140e7","5f60e3c0a3b16e07647b2ff9","5f60ee8c9bbe2501bb76a208","true","568.2750000269152","./Stimuli/SelectedImages/LM/LM100.bmp","83","","","","test","true","M + N","83","switch","LM","LM100.bmp","remember","","85","4","prime1","left","","","",""
"html-keyboard-response","224","819385","0.0-4.0-1.0-3.20","d0ana27nn1k4h13","prime","5d8ccb09948e9600174140e7","5f60e3c0a3b16e07647b2ff9","5f60ee8c9bbe2501bb76a208","false","null","<div style=""align-items: center; display: flex; color: dodgerblue; font-size: 90px""><b>o</b></div>","null","","","","forget_cue","","","","","","","","","","","","","","","",""
"html-keyboard-response","225","820088","0.0-4.0-1.0-0.21","d0ana27nn1k4h13","prime","5d8ccb09948e9600174140e7","5f60e3c0a3b16e07647b2ff9","5f60ee8c9bbe2501bb76a208","false","null","<span style=""color: black; font-size: 48px"">M + N</span>","null","","","","resp_prompt","","","","","","","","","","","","","","","",""
"categorize-image","226","820537","0.0-4.0-1.0-1.21","d0ana27nn1k4h13","prime","5d8ccb09948e9600174140e7","5f60e3c0a3b16e07647b2ff9","5f60ee8c9bbe2501bb76a208","true","445.30999998096377","./Stimuli/SelectedImages/SN/SN49.bmp","83","","","","test","false","M + N","76","switch","SN","SN49.bmp","forget","","86","4","prime1","left","","","",""
"html-keyboard-response","227","821038","0.0-4.0-1.0-2.21-0.21","d0ana27nn1k4h13","prime","5d8ccb09948e9600174140e7","5f60e3c0a3b16e07647b2ff9","5f60ee8c9bbe2501bb76a208","false","null","<span style=""color: red; font-size: 48px"">Error!</span>","null","","","","feedback","","","","","","","","","","","","","","","",""
"html-keyboard-response","228","823040","0.0-4.0-1.0-3.21","d0ana27nn1k4h13","prime","5d8ccb09948e9600174140e7","5f60e3c0a3b16e07647b2ff9","5f60ee8c9bbe2501bb76a208","false","null","<div style=""align-items: center; display: flex; color: darkorange; font-size: 90px""><b>ø</b></div>","null","","","","forget_cue","","","","","","","","","","","","","","","",""
"html-keyboard-response","229","823742","0.0-4.0-1.0-0.22","d0ana27nn1k4h13","prime","5d8ccb09948e9600174140e7","5f60e3c0a3b16e07647b2ff9","5f60ee8c9bbe2501bb76a208","false","null","<span style=""color: black; font-size: 48px"">M + N</span>","null","","","","resp_prompt","","","","","","","","","","","","","","","",""
"categorize-image","230","823771","0.0-4.0-1.0-1.22","d0ana27nn1k4h13","prime","5d8ccb09948e9600174140e7","5f60e3c0a3b16e07647b2ff9","5f60ee8c9bbe2501bb76a208","true","23.8600000157021","./Stimuli/SelectedImages/LN/LN166.bmp","76","","","","test","true","M + N","76","switch","LN","LN166.bmp","forget","","87","4","prime1","right","","","",""
"html-keyboard-response","231","825773","0.0-4.0-1.0-3.22","d0ana27nn1k4h13","prime","5d8ccb09948e9600174140e7","5f60e3c0a3b16e07647b2ff9","5f60ee8c9bbe2501bb76a208","false","null","<div style=""align-items: center; display: flex; color: darkorange; font-size: 90px""><b>ø</b></div>","null","","","","forget_cue","","","","","","","","","","","","","","","",""
"html-keyboard-response","232","826476","0.0-4.0-1.0-0.23","d0ana27nn1k4h13","prime","5d8ccb09948e9600174140e7","5f60e3c0a3b16e07647b2ff9","5f60ee8c9bbe2501bb76a208","false","null","<span style=""color: black; font-size: 48px"">M + N</span>","null","","","","resp_prompt","","","","","","","","","","","","","","","",""
"categorize-image","233","827104","0.0-4.0-1.0-1.23","d0ana27nn1k4h13","prime","5d8ccb09948e9600174140e7","5f60e3c0a3b16e07647b2ff9","5f60ee8c9bbe2501bb76a208","true","622.9300000122748","./Stimuli/SelectedImages/SM/SM148.bmp","83","","","","test","true","M + N","83","repetition","SM","SM148.bmp","remember","","88","4","prime1","left","","","",""
"html-keyboard-response","234","829106","0.0-4.0-1.0-3.23","d0ana27nn1k4h13","prime","5d8ccb09948e9600174140e7","5f60e3c0a3b16e07647b2ff9","5f60ee8c9bbe2501bb76a208","false","null","<div style=""align-items: center; display: flex; color: dodgerblue; font-size: 90px""><b>o</b></div>","null","","","","forget_cue","","","","","","","","","","","","","","","",""
"html-keyboard-response","235","829807","0.0-4.0-1.0-0.24","d0ana27nn1k4h13","prime","5d8ccb09948e9600174140e7","5f60e3c0a3b16e07647b2ff9","5f60ee8c9bbe2501bb76a208","false","null","<span style=""color: black; font-size: 48px"">N + M</span>","null","","","","resp_prompt","","","","","","","","","","","","","","","",""
"categorize-image","236","829968","0.0-4.0-1.0-1.24","d0ana27nn1k4h13","prime","5d8ccb09948e9600174140e7","5f60e3c0a3b16e07647b2ff9","5f60ee8c9bbe2501bb76a208","true","155.75500001432374","./Stimuli/SelectedImages/SN/SN187.bmp","83","","","","test","true","N + M","83","repetition","SN","SN187.bmp","remember","","89","4","prime1","left","","","",""
"html-keyboard-response","237","831970","0.0-4.0-1.0-3.24","d0ana27nn1k4h13","prime","5d8ccb09948e9600174140e7","5f60e3c0a3b16e07647b2ff9","5f60ee8c9bbe2501bb76a208","false","null","<div style=""align-items: center; display: flex; color: dodgerblue; font-size: 90px""><b>o</b></div>","null","","","","forget_cue","","","","","","","","","","","","","","","",""
"html-keyboard-response","238","832672","0.0-4.0-1.0-0.25","d0ana27nn1k4h13","prime","5d8ccb09948e9600174140e7","5f60e3c0a3b16e07647b2ff9","5f60ee8c9bbe2501bb76a208","false","null","<span style=""color: black; font-size: 48px"">N + M</span>","null","","","","resp_prompt","","","","","","","","","","","","","","","",""
"categorize-image","239","833301","0.0-4.0-1.0-1.25","d0ana27nn1k4h13","prime","5d8ccb09948e9600174140e7","5f60e3c0a3b16e07647b2ff9","5f60ee8c9bbe2501bb76a208","true","623.3399999910034","./Stimuli/SelectedImages/LM/LM59.bmp","76","","","","test","true","N + M","76","switch","LM","LM59.bmp","forget","","90","4","prime1","right","","","",""
"html-keyboard-response","240","835303","0.0-4.0-1.0-3.25","d0ana27nn1k4h13","prime","5d8ccb09948e9600174140e7","5f60e3c0a3b16e07647b2ff9","5f60ee8c9bbe2501bb76a208","false","null","<div style=""align-items: center; display: flex; color: darkorange; font-size: 90px""><b>ø</b></div>","null","","","","forget_cue","","","","","","","","","","","","","","","",""
"html-keyboard-response","241","836005","0.0-4.0-1.0-0.26","d0ana27nn1k4h13","prime","5d8ccb09948e9600174140e7","5f60e3c0a3b16e07647b2ff9","5f60ee8c9bbe2501bb76a208","false","null","<span style=""color: black; font-size: 48px"">N + M</span>","null","","","","resp_prompt","","","","","","","","","","","","","","","",""
"categorize-image","242","836597","0.0-4.0-1.0-1.26","d0ana27nn1k4h13","prime","5d8ccb09948e9600174140e7","5f60e3c0a3b16e07647b2ff9","5f60ee8c9bbe2501bb76a208","true","588.3199999807402","./Stimuli/SelectedImages/SN/SN240.bmp","83","","","","test","true","N + M","83","repetition","SN","SN240.bmp","forget","","91","4","prime1","left","","","",""
"html-keyboard-response","243","838598","0.0-4.0-1.0-3.26","d0ana27nn1k4h13","prime","5d8ccb09948e9600174140e7","5f60e3c0a3b16e07647b2ff9","5f60ee8c9bbe2501bb76a208","false","null","<div style=""align-items: center; display: flex; color: darkorange; font-size: 90px""><b>ø</b></div>","null","","","","forget_cue","","","","","","","","","","","","","","","",""
"html-keyboard-response","244","839300","0.0-4.0-1.0-0.27","d0ana27nn1k4h13","prime","5d8ccb09948e9600174140e7","5f60e3c0a3b16e07647b2ff9","5f60ee8c9bbe2501bb76a208","false","null","<span style=""color: black; font-size: 48px"">N + M</span>","null","","","","resp_prompt","","","","","","","","","","","","","","","",""
"categorize-image","245","840245","0.0-4.0-1.0-1.27","d0ana27nn1k4h13","prime","5d8ccb09948e9600174140e7","5f60e3c0a3b16e07647b2ff9","5f60ee8c9bbe2501bb76a208","true","939.310000045225","./Stimuli/SelectedImages/LM/LM209.bmp","76","","","","test","true","N + M","76","repetition","LM","LM209.bmp","remember","","92","4","prime1","right","","","",""
