"trial_type","trial_index","time_elapsed","internal_node_id","subject","exp_part","prolific_PID","study_ID","session_ID","use","rt","stimulus","key_press","button_pressed","responses","question_order","trial_part","correct","resp_map","correct_resp","probe_condition","category","image","forget_condition","list","trial_num","block_num","block","response","test_part","n_span","sequence","num_spaces"
"pavlovia","0","13","0.0-0.0","q5tnqst2l2k813u","","5f4e1c1c7555ccb0310a752c","5f60e3c0a3b16e07647b2ff9","5f60eefe9e53210163e483e4","false","","","","","","","","","","","","","","","","","","","","","","",""
"html-keyboard-response","1","15337","0.0-1.0-0.0-0.0","q5tnqst2l2k813u","welcome","5f4e1c1c7555ccb0310a752c","5f60e3c0a3b16e07647b2ff9","5f60eefe9e53210163e483e4","false","15317.809999978635","<div align=left>Dear participant, <br> thank you for participating in an online study of the Cognition, Action, and Sustainability Unit of the University of Freiburg! <br> <br>The aim of this study is to examine our ability to remember previously learned information. <br>Our goal is to find out, whether our memory improves, when we only remember information that is relevant to us. <br>The experiment will take about 35 minutes to complete. <br> <br>Please, note that you can only participate in this study if you are using a device with a keyboard (PC, Laptop etc.) <br>and not if you are using a mobile device such as a tablet or smartphone.<br> <br>Press 'SPACE' to proceed to the experiment. </div>","32","","","","","","","","","","","","","","","","","","","",""
"html-keyboard-response","2","59359","0.0-1.0-0.0-1.0","q5tnqst2l2k813u","welcome","5f4e1c1c7555ccb0310a752c","5f60e3c0a3b16e07647b2ff9","5f60eefe9e53210163e483e4","false","44017.78499997454","<div align=left><strong> Time Course of this experiment: </strong> <br><br> <strong> 1.</strong>  First, please fill in some information regarding your demographic data. <br><br> <strong> 2.</strong>  Next, your task will be to classify everyday objects. <br>In addition, you will be asked to remember certain objects and recall them later. <br>Working on these tasks requires your undivided attention and concentration.<br>It is therefore essential that you eliminate any sources of distraction in your  <br>environment and ensure that you will not be disturbed. <br><br><strong> 3.</strong>  At the end of the experiment, you will be asked to answer a few additional questions. <br> <br><strong> Important:</strong> After finishing the experiment, only close the browser window <br> by clicking on the 'end the experiment'-button when you are asked to do so. <br>Closing the browser window prematurely will make the allocation of your participation credit impossible. <br><br> Press 'SPACE' to start the experiment. </div>","32","","","","","","","","","","","","","","","","","","","",""
"html-button-response","3","88738","0.0-1.0-0.0-2.0","q5tnqst2l2k813u","welcome","5f4e1c1c7555ccb0310a752c","5f60e3c0a3b16e07647b2ff9","5f60eefe9e53210163e483e4","true","29374.69999998575","<div align=left><strong> Informed consent </strong>  <br>The aim of our research is to better understand human behavior and mental processes. <br>In the following study your behavior (e.g. choices, reaction times) will be studied. <br> <br><strong> Voluntariness and Anonymity </strong> <br>Your participation in this study is  <strong> voluntary</strong>.<br>You may withdraw your consent to participate at any time without providing a reason for doing so and without fear of prejudice. <br><br>As no personal data will be collected, <strong>your data and your person cannot be connected after data collection</strong> – the data-set is anonymous. <br>Respectively, deletion of your data will not be possible after data collection has been completed, as we cannot retrace your data-set.<br>The results and anonymized data collected in this study will be published as a scientific publication. <br>This will happen in an <strong>anonymized format</strong>, so that no data can be traced back to a specific person. <br> <br>The anonymized data of this study will be made available to other researchers and/or in a data archive on the Internet as a means of transparency and to enable subsequent re-use. By doing so, this study follows the recommendations of the Deutsche Forschungsgemeinschaft (DFG, German Research Foundation) and Deutsche Gesellschaft für Psychologie (DGPS, German Psychological Society) regarding quality assurance in research.<br>If you have any questions now or after the experiment, please contact our team (experiments@cs.uni-freiburg.de).<br><br><br>I hereby declare, that I understand the above described conditions of participation and I agree to participate under these conditions. <br><br> </div>","","0","","","","","","","","","","","","","","","","","","",""
"html-keyboard-response","4","115558","0.0-1.0-0.0-3.0","q5tnqst2l2k813u","welcome","5f4e1c1c7555ccb0310a752c","5f60e3c0a3b16e07647b2ff9","5f60eefe9e53210163e483e4","false","26815.775000024587","<div align=left><strong> General information concerning the experiment </strong>  <br> <br>Please follow the instructions:<ol> <li><strong> Do not leave this tab (your browser window) during the experiment and do not reload this tab! </strong>  <br>If you do switch tabs/windows during the experiment (to check your mail or visit another website, for example), <br>the experiment will end automatically and you will <strong>not receive credit</strong> for your participation. <br>Repeated participation or resumption of the experiment is impossible.</li> <br><li>Please close all other programs for the duration of your participation. </li> <br><li>Please mute or turn off your phone and put it out of your reach. </li> <br><li>Please also take off any disturbing accessories (such as wristwatches, bracelets, etc.). </li> <br><li>If you have music playing in the background, please turn it off now. </li> <br></ol>Thank you! <br>Press 'SPACE' to continue. </div>","32","","","","","","","","","","","","","","","","","","","",""
"survey-text","5","119409","0.0-1.0-1.0-0.0","q5tnqst2l2k813u","demographics","5f4e1c1c7555ccb0310a752c","5f60e3c0a3b16e07647b2ff9","5f60eefe9e53210163e483e4","true","3840.810000023339","","","","{""age"":""22""}","","","","","","","","","","","","","","","","","",""
"survey-multi-choice","6","131698","0.0-1.0-1.0-1.0","q5tnqst2l2k813u","demographics","5f4e1c1c7555ccb0310a752c","5f60e3c0a3b16e07647b2ff9","5f60eefe9e53210163e483e4","true","12283.475000003818","","","","{""gender"":""male"",""school"":""high school"",""education"":""Completed university degree or equivalent""}","[0,1,2]","","","","","","","","","","","","","","","","",""
"html-keyboard-response","7","146177","0.0-1.0-2.0","q5tnqst2l2k813u","instructions","5f4e1c1c7555ccb0310a752c","5f60e3c0a3b16e07647b2ff9","5f60eefe9e53210163e483e4","false","14473.515000019688","<div align=left> The experiment is now about to start: <br> <br>In the following part, you will be presented pictures of everyday objects. <br>Your first task is to <strong>classify these objects. </strong> <br> <br> You will classify them either as mechanical or non-mechanical objects. <br> <br>Objects that include any kind of technical mechanism (for example, wheels, switches, levers, <br> electronic components) fall under the category of <strong>mechanical</strong> objects. <br>Only objects without any kind of technical mechanism should be classified as <strong>non-mechanical</strong>. <br><br>Press 'SPACE' to continue. </div>","32","","","","","","","","","","","","","","","","","","","",""
"html-keyboard-response","8","194556","0.0-2.0-0.0","q5tnqst2l2k813u","instructions","5f4e1c1c7555ccb0310a752c","5f60e3c0a3b16e07647b2ff9","5f60eefe9e53210163e483e4","false","48375.52499998128","<div align=justify>You will classify the objects using the <strong>'S'</strong> and the <strong>'L'</strong> keys on your keyboard.<br>For doing so, please place your <strong>left index finger</strong> on the <strong>'S'</strong> key and place your <strong>right index finger</strong> on the <strong>'L'</strong> key. <br><br> Each trial starts with an instruction, indicating which key ('S'/'L') you need to press to classify <br>the object as mechanical (letter M) or non-mechanical (letter N).<br>The instruction <strong>M + N</strong> indicates that, in the current trial, by pressing the left key ('S') you classify the displayed object as mechanical (M) <br> and by pressing the right key ('L') you classify the object as non-mechanical (N). <br>The instruction <strong>N + M</strong> on the other hand indicates that by pressing the left key ('S') you classify the displayed object as non-mechanical (N) <br> and by pressing the right key ('L') you classify the object as mechanical (M). <br><br>Please press the key corresponding to the correct classification as fast as possible as soon as the object is displayed and try to avoid making mistakes.<br>If you do not respond within a 2 second window, a corresponding feedback will be displayed and the next trial will start.<br> The experiment is divided into multiple blocks to give you the opportunity to take a break after each block. <br>First, you can now practice this task. <br><br>Please place your <strong>LEFT INDEX FINGER</strong> on the 'S' key and your <strong>RIGHT INDEX FINGER</strong> on the 'L' key now. <br><br>Press SPACE to continue.</div>","32","","","","","","","","","","","","","","","","","","","",""
"html-keyboard-response","9","203201","0.0-2.0-1.0","q5tnqst2l2k813u","instructions","5f4e1c1c7555ccb0310a752c","5f60e3c0a3b16e07647b2ff9","5f60eefe9e53210163e483e4","false","8641.954999999143","<div align=left> You will now have time to practice this task.<br><br>Remember: <br> <br><li>Please place your index fingers on the <strong>'S'</strong> and <strong>'L'</strong> keys <br>to respond as fast and accurately as possible.</li><li>Every picture can be classified as either mechanical or non-mechanical.</li><li>If you do not respond in time or commit an error, you will receive a corresponding feedback. </li><li> Please try to respond as <strong> fast </strong> and as <strong> accurately as possible </strong> .<br><li>To ensure optimal results, please minimize distractions and stay focused. </li><br><br>Press SPACE to continue.</div>","32","","","","","","","","","","","","","","","","","","","",""
"html-keyboard-response","10","203906","0.0-2.0-2.0-0.0","q5tnqst2l2k813u","practice_no_cue","5f4e1c1c7555ccb0310a752c","5f60e3c0a3b16e07647b2ff9","5f60eefe9e53210163e483e4","false","null","<span style=""color: black; font-size: 48px"">N + M</span>","null","","","","resp_prompt","","","","","","","","","","","","","","","",""
"categorize-image","11","206413","0.0-2.0-2.0-1.0","q5tnqst2l2k813u","practice_no_cue","5f4e1c1c7555ccb0310a752c","5f60e3c0a3b16e07647b2ff9","5f60eefe9e53210163e483e4","true","null","./Stimuli/ImagesPractice/LN2.jpg","null","","","","test","false","N + M","83","","LN","LN2.jpg","forget","old","1","1","start","too_slow","","","",""
"html-keyboard-response","12","207119","0.0-2.0-2.0-0.1","q5tnqst2l2k813u","practice_no_cue","5f4e1c1c7555ccb0310a752c","5f60e3c0a3b16e07647b2ff9","5f60eefe9e53210163e483e4","false","null","<span style=""color: black; font-size: 48px"">N + M</span>","null","","","","resp_prompt","","","","","","","","","","","","","","","",""
"categorize-image","13","208848","0.0-2.0-2.0-1.1","q5tnqst2l2k813u","practice_no_cue","5f4e1c1c7555ccb0310a752c","5f60e3c0a3b16e07647b2ff9","5f60eefe9e53210163e483e4","true","1222.1000000135973","./Stimuli/ImagesPractice/LM239.jpg","83","","","","test","false","N + M","76","","LM","LM239.jpg","remember","old","2","1","start","left","","","",""
"html-keyboard-response","14","209551","0.0-2.0-2.0-0.2","q5tnqst2l2k813u","practice_no_cue","5f4e1c1c7555ccb0310a752c","5f60e3c0a3b16e07647b2ff9","5f60eefe9e53210163e483e4","false","null","<span style=""color: black; font-size: 48px"">N + M</span>","null","","","","resp_prompt","","","","","","","","","","","","","","","",""
"categorize-image","15","210588","0.0-2.0-2.0-1.2","q5tnqst2l2k813u","practice_no_cue","5f4e1c1c7555ccb0310a752c","5f60e3c0a3b16e07647b2ff9","5f60eefe9e53210163e483e4","true","530.3750000311993","./Stimuli/ImagesPractice/SM98.jpg","76","","","","test","true","N + M","76","","SM","SM98.jpg","remember","old","3","1","start","right","","","",""
"html-keyboard-response","16","211291","0.0-2.0-2.0-0.3","q5tnqst2l2k813u","practice_no_cue","5f4e1c1c7555ccb0310a752c","5f60e3c0a3b16e07647b2ff9","5f60eefe9e53210163e483e4","false","null","<span style=""color: black; font-size: 48px"">M + N</span>","null","","","","resp_prompt","","","","","","","","","","","","","","","",""
"categorize-image","17","212283","0.0-2.0-2.0-1.3","q5tnqst2l2k813u","practice_no_cue","5f4e1c1c7555ccb0310a752c","5f60e3c0a3b16e07647b2ff9","5f60eefe9e53210163e483e4","true","488.6549999937415","./Stimuli/ImagesPractice/LN72.jpg","83","","","","test","false","M + N","76","","LN","LN72.jpg","remember","old","4","1","start","left","","","",""
"html-keyboard-response","18","212986","0.0-2.0-2.0-0.4","q5tnqst2l2k813u","practice_no_cue","5f4e1c1c7555ccb0310a752c","5f60e3c0a3b16e07647b2ff9","5f60eefe9e53210163e483e4","false","null","<span style=""color: black; font-size: 48px"">N + M</span>","null","","","","resp_prompt","","","","","","","","","","","","","","","",""
"categorize-image","19","214351","0.0-2.0-2.0-1.4","q5tnqst2l2k813u","practice_no_cue","5f4e1c1c7555ccb0310a752c","5f60e3c0a3b16e07647b2ff9","5f60eefe9e53210163e483e4","true","861.075000022538","./Stimuli/ImagesPractice/LN4.jpg","83","","","","test","true","N + M","83","","LN","LN4.jpg","remember","old","5","1","start","left","","","",""
"html-keyboard-response","20","215054","0.0-2.0-2.0-0.5","q5tnqst2l2k813u","practice_no_cue","5f4e1c1c7555ccb0310a752c","5f60e3c0a3b16e07647b2ff9","5f60eefe9e53210163e483e4","false","null","<span style=""color: black; font-size: 48px"">N + M</span>","null","","","","resp_prompt","","","","","","","","","","","","","","","",""
"categorize-image","21","216126","0.0-2.0-2.0-1.5","q5tnqst2l2k813u","practice_no_cue","5f4e1c1c7555ccb0310a752c","5f60e3c0a3b16e07647b2ff9","5f60eefe9e53210163e483e4","true","568.5950000188313","./Stimuli/ImagesPractice/SM97.jpg","76","","","","test","true","N + M","76","","SM","SM97.jpg","forget","old","6","1","start","right","","","",""
"html-keyboard-response","22","216830","0.0-2.0-2.0-0.6","q5tnqst2l2k813u","practice_no_cue","5f4e1c1c7555ccb0310a752c","5f60e3c0a3b16e07647b2ff9","5f60eefe9e53210163e483e4","false","null","<span style=""color: black; font-size: 48px"">N + M</span>","null","","","","resp_prompt","","","","","","","","","","","","","","","",""
"categorize-image","23","218016","0.0-2.0-2.0-1.6","q5tnqst2l2k813u","practice_no_cue","5f4e1c1c7555ccb0310a752c","5f60e3c0a3b16e07647b2ff9","5f60eefe9e53210163e483e4","true","682.8850000165403","./Stimuli/ImagesPractice/SN220.jpg","76","","","","test","false","N + M","83","","SN","SN220.jpg","forget","old","7","1","start","right","","","",""
"html-keyboard-response","24","218720","0.0-2.0-2.0-0.7","q5tnqst2l2k813u","practice_no_cue","5f4e1c1c7555ccb0310a752c","5f60e3c0a3b16e07647b2ff9","5f60eefe9e53210163e483e4","false","null","<span style=""color: black; font-size: 48px"">M + N</span>","null","","","","resp_prompt","","","","","","","","","","","","","","","",""
"categorize-image","25","219970","0.0-2.0-2.0-1.7","q5tnqst2l2k813u","practice_no_cue","5f4e1c1c7555ccb0310a752c","5f60e3c0a3b16e07647b2ff9","5f60eefe9e53210163e483e4","true","746.889999951236","./Stimuli/ImagesPractice/LM230.jpg","83","","","","test","true","M + N","83","","LM","LM230.jpg","forget","old","8","1","start","left","","","",""
"html-keyboard-response","26","220673","0.0-2.0-2.0-0.8","q5tnqst2l2k813u","practice_no_cue","5f4e1c1c7555ccb0310a752c","5f60e3c0a3b16e07647b2ff9","5f60eefe9e53210163e483e4","false","null","<span style=""color: black; font-size: 48px"">M + N</span>","null","","","","resp_prompt","","","","","","","","","","","","","","","",""
"categorize-image","27","222284","0.0-2.0-2.0-1.8","q5tnqst2l2k813u","practice_no_cue","5f4e1c1c7555ccb0310a752c","5f60e3c0a3b16e07647b2ff9","5f60eefe9e53210163e483e4","true","1106.4950000145473","./Stimuli/ImagesPractice/LN109.jpg","83","","","","test","false","M + N","76","","LN","LN109.jpg","remember","old","9","1","start","left","","","",""
"html-keyboard-response","28","222987","0.0-2.0-2.0-0.9","q5tnqst2l2k813u","practice_no_cue","5f4e1c1c7555ccb0310a752c","5f60e3c0a3b16e07647b2ff9","5f60eefe9e53210163e483e4","false","null","<span style=""color: black; font-size: 48px"">N + M</span>","null","","","","resp_prompt","","","","","","","","","","","","","","","",""
"categorize-image","29","224664","0.0-2.0-2.0-1.9","q5tnqst2l2k813u","practice_no_cue","5f4e1c1c7555ccb0310a752c","5f60e3c0a3b16e07647b2ff9","5f60eefe9e53210163e483e4","true","1159.0650000143796","./Stimuli/ImagesPractice/LN17.jpg","76","","","","test","false","N + M","83","","LN","LN17.jpg","forget","old","10","1","start","right","","","",""
"html-keyboard-response","30","225374","0.0-2.0-2.0-0.10","q5tnqst2l2k813u","practice_no_cue","5f4e1c1c7555ccb0310a752c","5f60e3c0a3b16e07647b2ff9","5f60eefe9e53210163e483e4","false","null","<span style=""color: black; font-size: 48px"">M + N</span>","null","","","","resp_prompt","","","","","","","","","","","","","","","",""
"categorize-image","31","227066","0.0-2.0-2.0-1.10","q5tnqst2l2k813u","practice_no_cue","5f4e1c1c7555ccb0310a752c","5f60e3c0a3b16e07647b2ff9","5f60eefe9e53210163e483e4","true","1184.7500000149012","./Stimuli/ImagesPractice/LM55.jpg","76","","","","test","false","M + N","83","","LM","LM55.jpg","forget","old","11","1","start","right","","","",""
"html-keyboard-response","32","227769","0.0-2.0-2.0-0.11","q5tnqst2l2k813u","practice_no_cue","5f4e1c1c7555ccb0310a752c","5f60e3c0a3b16e07647b2ff9","5f60eefe9e53210163e483e4","false","null","<span style=""color: black; font-size: 48px"">M + N</span>","null","","","","resp_prompt","","","","","","","","","","","","","","","",""
"categorize-image","33","229215","0.0-2.0-2.0-1.11","q5tnqst2l2k813u","practice_no_cue","5f4e1c1c7555ccb0310a752c","5f60e3c0a3b16e07647b2ff9","5f60eefe9e53210163e483e4","true","941.7450000182725","./Stimuli/ImagesPractice/SN222.jpg","83","","","","test","false","M + N","76","","SN","SN222.jpg","remember","old","12","1","start","left","","","",""
"html-keyboard-response","34","229917","0.0-2.0-2.0-0.12","q5tnqst2l2k813u","practice_no_cue","5f4e1c1c7555ccb0310a752c","5f60e3c0a3b16e07647b2ff9","5f60eefe9e53210163e483e4","false","null","<span style=""color: black; font-size: 48px"">M + N</span>","null","","","","resp_prompt","","","","","","","","","","","","","","","",""
"categorize-image","35","231075","0.0-2.0-2.0-1.12","q5tnqst2l2k813u","practice_no_cue","5f4e1c1c7555ccb0310a752c","5f60e3c0a3b16e07647b2ff9","5f60eefe9e53210163e483e4","true","652.0949999685399","./Stimuli/ImagesPractice/LM224.jpg","83","","","","test","true","M + N","83","","LM","LM224.jpg","remember","old","13","1","start","left","","","",""
"html-keyboard-response","36","231778","0.0-2.0-2.0-0.13","q5tnqst2l2k813u","practice_no_cue","5f4e1c1c7555ccb0310a752c","5f60e3c0a3b16e07647b2ff9","5f60eefe9e53210163e483e4","false","null","<span style=""color: black; font-size: 48px"">M + N</span>","null","","","","resp_prompt","","","","","","","","","","","","","","","",""
"categorize-image","37","233098","0.0-2.0-2.0-1.13","q5tnqst2l2k813u","practice_no_cue","5f4e1c1c7555ccb0310a752c","5f60e3c0a3b16e07647b2ff9","5f60eefe9e53210163e483e4","true","814.1250000335276","./Stimuli/ImagesPractice/LM147.jpg","83","","","","test","true","M + N","83","","LM","LM147.jpg","forget","old","14","1","start","left","","","",""
"html-keyboard-response","38","233802","0.0-2.0-2.0-0.14","q5tnqst2l2k813u","practice_no_cue","5f4e1c1c7555ccb0310a752c","5f60e3c0a3b16e07647b2ff9","5f60eefe9e53210163e483e4","false","null","<span style=""color: black; font-size: 48px"">N + M</span>","null","","","","resp_prompt","","","","","","","","","","","","","","","",""
"categorize-image","39","234983","0.0-2.0-2.0-1.14","q5tnqst2l2k813u","practice_no_cue","5f4e1c1c7555ccb0310a752c","5f60e3c0a3b16e07647b2ff9","5f60eefe9e53210163e483e4","true","665.6000000075437","./Stimuli/ImagesPractice/SN76.jpg","76","","","","test","false","N + M","83","","SN","SN76.jpg","remember","old","15","1","start","right","","","",""
"html-keyboard-response","40","235686","0.0-2.0-2.0-0.15","q5tnqst2l2k813u","practice_no_cue","5f4e1c1c7555ccb0310a752c","5f60e3c0a3b16e07647b2ff9","5f60eefe9e53210163e483e4","false","null","<span style=""color: black; font-size: 48px"">M + N</span>","null","","","","resp_prompt","","","","","","","","","","","","","","","",""
"categorize-image","41","236935","0.0-2.0-2.0-1.15","q5tnqst2l2k813u","practice_no_cue","5f4e1c1c7555ccb0310a752c","5f60e3c0a3b16e07647b2ff9","5f60eefe9e53210163e483e4","true","743.6549999983981","./Stimuli/ImagesPractice/SM62.jpg","83","","","","test","true","M + N","83","","SM","SM62.jpg","forget","old","16","1","start","left","","","",""
"html-keyboard-response","42","243388","0.0-2.0-3.0","q5tnqst2l2k813u","break","5f4e1c1c7555ccb0310a752c","5f60e3c0a3b16e07647b2ff9","5f60eefe9e53210163e483e4","false","6448.424999951385","<p style='font-size: 32px;'>Break</><br><br><br><br><br><p style='font-size: 24px;'>In the last block, you committed 8 errors and did not respond in time on 1 trials.
</p><p style='font-size: 24px;'>Try to respond as fast and accurately as possible in the next block as well! </p><p style='font-size: 24px;'>Press SPACE to continue.</p>","32","","","","","","","","","","","","","","","","","","","",""
"html-keyboard-response","43","248444","0.0-2.0-4.0","q5tnqst2l2k813u","instructions","5f4e1c1c7555ccb0310a752c","5f60e3c0a3b16e07647b2ff9","5f60eefe9e53210163e483e4","false","5052.124999987427","<div align=left> Great!<br><br>Are you ready to continue?<br><br>If you want to reread the instructions and redo the practice trials, <br>please press „Z“. <br><br>Press SPACE to CONTINUE with the experiment when you are ready. </div>","32","","","","","","","","","","","","","","","","","","","",""
"html-keyboard-response","44","278144","0.0-3.0-0.0","q5tnqst2l2k813u","instructions","5f4e1c1c7555ccb0310a752c","5f60e3c0a3b16e07647b2ff9","5f60eefe9e53210163e483e4","false","29697.054999996908","<div align=left>Great!<br> <strong>Attention</strong>! You will now receive a second, additional task! <br><br>To this point it was you <strong>first task</strong> to correctly <strong>classify objects</strong>. <br><br>As mentioned in the beginning, we aim to examine how well humans can remember previously learned information.<br>We would like to find out whether our memory improves if we only remember information that is relevant to us. <br><br>Therefore, your <strong>second task</strong> will be to <strong>remember</strong> the pictures you are to categorize. <br> After the learning phase, there will be a memory test phase, in which you will be asked to indicate whether you have seen a picture before or not. <br>Some, but not all pictures shown in the learning phase will appear in the memory test phase.<br>After classifying a picture, you will be told whether you should remember it for the memory test phase or not. <br>Thus, some pictures can be forgotten, whereas others have to be remembered. <br><br>Note: From now on, feedback will only be displayed if you responded incorrectly or not in time.<br><br>Press SPACE to continue.</div>","32","","","","","","","","","","","","","","","","","","","",""
"html-keyboard-response","45","310704","0.0-3.0-1.0","q5tnqst2l2k813u","instructions","5f4e1c1c7555ccb0310a752c","5f60e3c0a3b16e07647b2ff9","5f60eefe9e53210163e483e4","false","32557.114999974146","<div align=left>In the following part, you will thus have to remember only some pictures. <br>Immediately after seeing and classifying the picture, a symbol will be displayed, indicating whether you should remember or forget the previous picture. <br><br>A <span style='color: dodgerblue; font-size: 28px'>O</span> indicates REMEMBER. That means, you have to remember this picture, because it will be tested later. <br><br>A <span style='color: darkorange; font-size:28px'>Ø</span> indicates FORGET. You do not have to remember this picture. <br><br> As you will have to remember a lot of pictures, it will be hard for you to remember all of them. <br>It will put you at an advantage if you instantly forget the pictures you are not asked to remember. <br> This will make it easier for you to remember the pictures that will be tested afterwards. <br><br>Press SPACE to continue.</div>","32","","","","","","","","","","","","","","","","","","","",""
"html-keyboard-response","46","314670","0.0-3.0-2.0","q5tnqst2l2k813u","instructions","5f4e1c1c7555ccb0310a752c","5f60e3c0a3b16e07647b2ff9","5f60eefe9e53210163e483e4","false","3963.935000007041","<div align=left> Now you have the chance to practice both tasks together.<br><br>Remember: <br> <br><li>Please place your index fingers on the <strong>'S'</strong> and <strong>'L'</strong> keys <br>to respond as fast and accurately as possible.</li><li>Every picture can be classified as either mechanical or non-mechanical.</li><li>If you do not respond in time or commit an error, you will receive a corresponding feedback. <br>Please try to respond as <strong> fast </strong> and as <strong> accurately as possible </strong>.</li><li> Please remember only the to-be-remembered <span style='color: dodgerblue; font-size: 28px'>O</span> pictures. <br></li><li> Please minimize distractions and stay focused. </li><br><br>Press SPACE to START</div>","32","","","","","","","","","","","","","","","","","","","",""
"html-keyboard-response","47","315374","0.0-3.0-3.0-0.0","q5tnqst2l2k813u","practice_cue","5f4e1c1c7555ccb0310a752c","5f60e3c0a3b16e07647b2ff9","5f60eefe9e53210163e483e4","false","null","<span style=""color: black; font-size: 48px"">M + N</span>","null","","","","resp_prompt","","","","","","","","","","","","","","","",""
"categorize-image","48","317397","0.0-3.0-3.0-1.0","q5tnqst2l2k813u","practice_cue","5f4e1c1c7555ccb0310a752c","5f60e3c0a3b16e07647b2ff9","5f60eefe9e53210163e483e4","true","null","./Stimuli/ImagesPractice/LM55.jpg","null","","","","test","false","M + N","83","","LM","LM55.jpg","forget","old","17","2","practice_forget","too_slow","","","",""
"html-keyboard-response","49","317903","0.0-3.0-3.0-2.0-0.0","q5tnqst2l2k813u","practice_cue","5f4e1c1c7555ccb0310a752c","5f60e3c0a3b16e07647b2ff9","5f60eefe9e53210163e483e4","false","null","<span style=""color: red; font-size: 48px"">Too slow!</span>","null","","","","feedback","","","","","","","","","","","","","","","",""
"html-keyboard-response","50","319906","0.0-3.0-3.0-3.0","q5tnqst2l2k813u","practice_cue","5f4e1c1c7555ccb0310a752c","5f60e3c0a3b16e07647b2ff9","5f60eefe9e53210163e483e4","false","null","<div style=""align-items: center; display: flex; color: darkorange; font-size: 90px""><b>ø</b></div>","null","","","","forget_cue","","","","","","","","","","","","","","","",""
"html-keyboard-response","51","320609","0.0-3.0-3.0-0.1","q5tnqst2l2k813u","practice_cue","5f4e1c1c7555ccb0310a752c","5f60e3c0a3b16e07647b2ff9","5f60eefe9e53210163e483e4","false","null","<span style=""color: black; font-size: 48px"">N + M</span>","null","","","","resp_prompt","","","","","","","","","","","","","","","",""
"categorize-image","52","322632","0.0-3.0-3.0-1.1","q5tnqst2l2k813u","practice_cue","5f4e1c1c7555ccb0310a752c","5f60e3c0a3b16e07647b2ff9","5f60eefe9e53210163e483e4","true","null","./Stimuli/ImagesPractice/LN17.jpg","null","","","","test","false","N + M","83","","LN","LN17.jpg","forget","old","18","2","practice_forget","too_slow","","","",""
"html-keyboard-response","53","323135","0.0-3.0-3.0-2.1-0.1","q5tnqst2l2k813u","practice_cue","5f4e1c1c7555ccb0310a752c","5f60e3c0a3b16e07647b2ff9","5f60eefe9e53210163e483e4","false","null","<span style=""color: red; font-size: 48px"">Too slow!</span>","null","","","","feedback","","","","","","","","","","","","","","","",""
"html-keyboard-response","54","325137","0.0-3.0-3.0-3.1","q5tnqst2l2k813u","practice_cue","5f4e1c1c7555ccb0310a752c","5f60e3c0a3b16e07647b2ff9","5f60eefe9e53210163e483e4","false","null","<div style=""align-items: center; display: flex; color: darkorange; font-size: 90px""><b>ø</b></div>","null","","","","forget_cue","","","","","","","","","","","","","","","",""
"html-keyboard-response","55","325839","0.0-3.0-3.0-0.2","q5tnqst2l2k813u","practice_cue","5f4e1c1c7555ccb0310a752c","5f60e3c0a3b16e07647b2ff9","5f60eefe9e53210163e483e4","false","null","<span style=""color: black; font-size: 48px"">M + N</span>","null","","","","resp_prompt","","","","","","","","","","","","","","","",""
"categorize-image","56","326731","0.0-3.0-3.0-1.2","q5tnqst2l2k813u","practice_cue","5f4e1c1c7555ccb0310a752c","5f60e3c0a3b16e07647b2ff9","5f60eefe9e53210163e483e4","true","885.7199999620207","./Stimuli/ImagesPractice/LN72.jpg","76","","","","test","true","M + N","76","","LN","LN72.jpg","remember","old","19","2","practice_forget","right","","","",""
"html-keyboard-response","57","328733","0.0-3.0-3.0-3.2","q5tnqst2l2k813u","practice_cue","5f4e1c1c7555ccb0310a752c","5f60e3c0a3b16e07647b2ff9","5f60eefe9e53210163e483e4","false","null","<div style=""align-items: center; display: flex; color: dodgerblue; font-size: 90px""><b>o</b></div>","null","","","","forget_cue","","","","","","","","","","","","","","","",""
"html-keyboard-response","58","329436","0.0-3.0-3.0-0.3","q5tnqst2l2k813u","practice_cue","5f4e1c1c7555ccb0310a752c","5f60e3c0a3b16e07647b2ff9","5f60eefe9e53210163e483e4","false","null","<span style=""color: black; font-size: 48px"">N + M</span>","null","","","","resp_prompt","","","","","","","","","","","","","","","",""
"categorize-image","59","330269","0.0-3.0-3.0-1.3","q5tnqst2l2k813u","practice_cue","5f4e1c1c7555ccb0310a752c","5f60e3c0a3b16e07647b2ff9","5f60eefe9e53210163e483e4","true","827.0349999656901","./Stimuli/ImagesPractice/SN76.jpg","83","","","","test","true","N + M","83","","SN","SN76.jpg","remember","old","20","2","practice_forget","left","","","",""
"html-keyboard-response","60","332284","0.0-3.0-3.0-3.3","q5tnqst2l2k813u","practice_cue","5f4e1c1c7555ccb0310a752c","5f60e3c0a3b16e07647b2ff9","5f60eefe9e53210163e483e4","false","null","<div style=""align-items: center; display: flex; color: dodgerblue; font-size: 90px""><b>o</b></div>","null","","","","forget_cue","","","","","","","","","","","","","","","",""
"html-keyboard-response","61","332986","0.0-3.0-3.0-0.4","q5tnqst2l2k813u","practice_cue","5f4e1c1c7555ccb0310a752c","5f60e3c0a3b16e07647b2ff9","5f60eefe9e53210163e483e4","false","null","<span style=""color: black; font-size: 48px"">N + M</span>","null","","","","resp_prompt","","","","","","","","","","","","","","","",""
"categorize-image","62","334043","0.0-3.0-3.0-1.4","q5tnqst2l2k813u","practice_cue","5f4e1c1c7555ccb0310a752c","5f60e3c0a3b16e07647b2ff9","5f60eefe9e53210163e483e4","true","1051.3149999896996","./Stimuli/ImagesPractice/LM239.jpg","83","","","","test","false","N + M","76","","LM","LM239.jpg","remember","old","21","2","practice_forget","left","","","",""
"html-keyboard-response","63","334550","0.0-3.0-3.0-2.4-0.4","q5tnqst2l2k813u","practice_cue","5f4e1c1c7555ccb0310a752c","5f60e3c0a3b16e07647b2ff9","5f60eefe9e53210163e483e4","false","null","<span style=""color: red; font-size: 48px"">Error!</span>","null","","","","feedback","","","","","","","","","","","","","","","",""
"html-keyboard-response","64","336554","0.0-3.0-3.0-3.4","q5tnqst2l2k813u","practice_cue","5f4e1c1c7555ccb0310a752c","5f60e3c0a3b16e07647b2ff9","5f60eefe9e53210163e483e4","false","null","<div style=""align-items: center; display: flex; color: dodgerblue; font-size: 90px""><b>o</b></div>","null","","","","forget_cue","","","","","","","","","","","","","","","",""
"html-keyboard-response","65","337263","0.0-3.0-3.0-0.5","q5tnqst2l2k813u","practice_cue","5f4e1c1c7555ccb0310a752c","5f60e3c0a3b16e07647b2ff9","5f60eefe9e53210163e483e4","false","null","<span style=""color: black; font-size: 48px"">M + N</span>","null","","","","resp_prompt","","","","","","","","","","","","","","","",""
"categorize-image","66","338070","0.0-3.0-3.0-1.5","q5tnqst2l2k813u","practice_cue","5f4e1c1c7555ccb0310a752c","5f60e3c0a3b16e07647b2ff9","5f60eefe9e53210163e483e4","true","799.9500000150874","./Stimuli/ImagesPractice/LM230.jpg","76","","","","test","false","M + N","83","","LM","LM230.jpg","forget","old","22","2","practice_forget","right","","","",""
"html-keyboard-response","67","338594","0.0-3.0-3.0-2.5-0.5","q5tnqst2l2k813u","practice_cue","5f4e1c1c7555ccb0310a752c","5f60e3c0a3b16e07647b2ff9","5f60eefe9e53210163e483e4","false","null","<span style=""color: red; font-size: 48px"">Error!</span>","null","","","","feedback","","","","","","","","","","","","","","","",""
"html-keyboard-response","68","340597","0.0-3.0-3.0-3.5","q5tnqst2l2k813u","practice_cue","5f4e1c1c7555ccb0310a752c","5f60e3c0a3b16e07647b2ff9","5f60eefe9e53210163e483e4","false","null","<div style=""align-items: center; display: flex; color: darkorange; font-size: 90px""><b>ø</b></div>","null","","","","forget_cue","","","","","","","","","","","","","","","",""
"html-keyboard-response","69","341300","0.0-3.0-3.0-0.6","q5tnqst2l2k813u","practice_cue","5f4e1c1c7555ccb0310a752c","5f60e3c0a3b16e07647b2ff9","5f60eefe9e53210163e483e4","false","null","<span style=""color: black; font-size: 48px"">N + M</span>","null","","","","resp_prompt","","","","","","","","","","","","","","","",""
"categorize-image","70","341989","0.0-3.0-3.0-1.6","q5tnqst2l2k813u","practice_cue","5f4e1c1c7555ccb0310a752c","5f60e3c0a3b16e07647b2ff9","5f60eefe9e53210163e483e4","true","683.1150000216439","./Stimuli/ImagesPractice/SM97.jpg","76","","","","test","true","N + M","76","","SM","SM97.jpg","forget","old","23","2","practice_forget","right","","","",""
"html-keyboard-response","71","343992","0.0-3.0-3.0-3.6","q5tnqst2l2k813u","practice_cue","5f4e1c1c7555ccb0310a752c","5f60e3c0a3b16e07647b2ff9","5f60eefe9e53210163e483e4","false","null","<div style=""align-items: center; display: flex; color: darkorange; font-size: 90px""><b>ø</b></div>","null","","","","forget_cue","","","","","","","","","","","","","","","",""
"html-keyboard-response","72","344696","0.0-3.0-3.0-0.7","q5tnqst2l2k813u","practice_cue","5f4e1c1c7555ccb0310a752c","5f60e3c0a3b16e07647b2ff9","5f60eefe9e53210163e483e4","false","null","<span style=""color: black; font-size: 48px"">N + M</span>","null","","","","resp_prompt","","","","","","","","","","","","","","","",""
"categorize-image","73","345366","0.0-3.0-3.0-1.7","q5tnqst2l2k813u","practice_cue","5f4e1c1c7555ccb0310a752c","5f60e3c0a3b16e07647b2ff9","5f60eefe9e53210163e483e4","true","664.4300000043586","./Stimuli/ImagesPractice/SN220.jpg","76","","","","test","false","N + M","83","","SN","SN220.jpg","forget","old","24","2","practice_forget","right","","","",""
"html-keyboard-response","74","345872","0.0-3.0-3.0-2.7-0.7","q5tnqst2l2k813u","practice_cue","5f4e1c1c7555ccb0310a752c","5f60e3c0a3b16e07647b2ff9","5f60eefe9e53210163e483e4","false","null","<span style=""color: red; font-size: 48px"">Error!</span>","null","","","","feedback","","","","","","","","","","","","","","","",""
"html-keyboard-response","75","347876","0.0-3.0-3.0-3.7","q5tnqst2l2k813u","practice_cue","5f4e1c1c7555ccb0310a752c","5f60e3c0a3b16e07647b2ff9","5f60eefe9e53210163e483e4","false","null","<div style=""align-items: center; display: flex; color: darkorange; font-size: 90px""><b>ø</b></div>","null","","","","forget_cue","","","","","","","","","","","","","","","",""
"html-keyboard-response","76","348579","0.0-3.0-3.0-0.8","q5tnqst2l2k813u","practice_cue","5f4e1c1c7555ccb0310a752c","5f60e3c0a3b16e07647b2ff9","5f60eefe9e53210163e483e4","false","null","<span style=""color: black; font-size: 48px"">M + N</span>","null","","","","resp_prompt","","","","","","","","","","","","","","","",""
"categorize-image","77","349445","0.0-3.0-3.0-1.8","q5tnqst2l2k813u","practice_cue","5f4e1c1c7555ccb0310a752c","5f60e3c0a3b16e07647b2ff9","5f60eefe9e53210163e483e4","true","858.7149999802932","./Stimuli/ImagesPractice/SN222.jpg","83","","","","test","false","M + N","76","","SN","SN222.jpg","remember","old","25","2","practice_forget","left","","","",""
"html-keyboard-response","78","349952","0.0-3.0-3.0-2.8-0.8","q5tnqst2l2k813u","practice_cue","5f4e1c1c7555ccb0310a752c","5f60e3c0a3b16e07647b2ff9","5f60eefe9e53210163e483e4","false","null","<span style=""color: red; font-size: 48px"">Error!</span>","null","","","","feedback","","","","","","","","","","","","","","","",""
"html-keyboard-response","79","351956","0.0-3.0-3.0-3.8","q5tnqst2l2k813u","practice_cue","5f4e1c1c7555ccb0310a752c","5f60e3c0a3b16e07647b2ff9","5f60eefe9e53210163e483e4","false","null","<div style=""align-items: center; display: flex; color: dodgerblue; font-size: 90px""><b>o</b></div>","null","","","","forget_cue","","","","","","","","","","","","","","","",""
"html-keyboard-response","80","352659","0.0-3.0-3.0-0.9","q5tnqst2l2k813u","practice_cue","5f4e1c1c7555ccb0310a752c","5f60e3c0a3b16e07647b2ff9","5f60eefe9e53210163e483e4","false","null","<span style=""color: black; font-size: 48px"">M + N</span>","null","","","","resp_prompt","","","","","","","","","","","","","","","",""
"categorize-image","81","353487","0.0-3.0-3.0-1.9","q5tnqst2l2k813u","practice_cue","5f4e1c1c7555ccb0310a752c","5f60e3c0a3b16e07647b2ff9","5f60eefe9e53210163e483e4","true","822.8399999788962","./Stimuli/ImagesPractice/LM147.jpg","83","","","","test","true","M + N","83","","LM","LM147.jpg","forget","old","26","2","practice_forget","left","","","",""
"html-keyboard-response","82","355503","0.0-3.0-3.0-3.9","q5tnqst2l2k813u","practice_cue","5f4e1c1c7555ccb0310a752c","5f60e3c0a3b16e07647b2ff9","5f60eefe9e53210163e483e4","false","null","<div style=""align-items: center; display: flex; color: darkorange; font-size: 90px""><b>ø</b></div>","null","","","","forget_cue","","","","","","","","","","","","","","","",""
"html-keyboard-response","83","356224","0.0-3.0-3.0-0.10","q5tnqst2l2k813u","practice_cue","5f4e1c1c7555ccb0310a752c","5f60e3c0a3b16e07647b2ff9","5f60eefe9e53210163e483e4","false","null","<span style=""color: black; font-size: 48px"">N + M</span>","null","","","","resp_prompt","","","","","","","","","","","","","","","",""
"categorize-image","84","356894","0.0-3.0-3.0-1.10","q5tnqst2l2k813u","practice_cue","5f4e1c1c7555ccb0310a752c","5f60e3c0a3b16e07647b2ff9","5f60eefe9e53210163e483e4","true","664.2850000062026","./Stimuli/ImagesPractice/SM98.jpg","83","","","","test","false","N + M","76","","SM","SM98.jpg","remember","old","27","2","practice_forget","left","","","",""
"html-keyboard-response","85","357412","0.0-3.0-3.0-2.10-0.10","q5tnqst2l2k813u","practice_cue","5f4e1c1c7555ccb0310a752c","5f60e3c0a3b16e07647b2ff9","5f60eefe9e53210163e483e4","false","null","<span style=""color: red; font-size: 48px"">Error!</span>","null","","","","feedback","","","","","","","","","","","","","","","",""
"html-keyboard-response","86","359424","0.0-3.0-3.0-3.10","q5tnqst2l2k813u","practice_cue","5f4e1c1c7555ccb0310a752c","5f60e3c0a3b16e07647b2ff9","5f60eefe9e53210163e483e4","false","null","<div style=""align-items: center; display: flex; color: dodgerblue; font-size: 90px""><b>o</b></div>","null","","","","forget_cue","","","","","","","","","","","","","","","",""
"html-keyboard-response","87","360135","0.0-3.0-3.0-0.11","q5tnqst2l2k813u","practice_cue","5f4e1c1c7555ccb0310a752c","5f60e3c0a3b16e07647b2ff9","5f60eefe9e53210163e483e4","false","null","<span style=""color: black; font-size: 48px"">N + M</span>","null","","","","resp_prompt","","","","","","","","","","","","","","","",""
"categorize-image","88","360936","0.0-3.0-3.0-1.11","q5tnqst2l2k813u","practice_cue","5f4e1c1c7555ccb0310a752c","5f60e3c0a3b16e07647b2ff9","5f60eefe9e53210163e483e4","true","791.1999999778345","./Stimuli/ImagesPractice/LN4.jpg","83","","","","test","true","N + M","83","","LN","LN4.jpg","remember","old","28","2","practice_forget","left","","","",""
"html-keyboard-response","89","362941","0.0-3.0-3.0-3.11","q5tnqst2l2k813u","practice_cue","5f4e1c1c7555ccb0310a752c","5f60e3c0a3b16e07647b2ff9","5f60eefe9e53210163e483e4","false","null","<div style=""align-items: center; display: flex; color: dodgerblue; font-size: 90px""><b>o</b></div>","null","","","","forget_cue","","","","","","","","","","","","","","","",""
"html-keyboard-response","90","363644","0.0-3.0-3.0-0.12","q5tnqst2l2k813u","practice_cue","5f4e1c1c7555ccb0310a752c","5f60e3c0a3b16e07647b2ff9","5f60eefe9e53210163e483e4","false","null","<span style=""color: black; font-size: 48px"">M + N</span>","null","","","","resp_prompt","","","","","","","","","","","","","","","",""
"categorize-image","91","364359","0.0-3.0-3.0-1.12","q5tnqst2l2k813u","practice_cue","5f4e1c1c7555ccb0310a752c","5f60e3c0a3b16e07647b2ff9","5f60eefe9e53210163e483e4","true","709.2100000008941","./Stimuli/ImagesPractice/SM62.jpg","83","","","","test","true","M + N","83","","SM","SM62.jpg","forget","old","29","2","practice_forget","left","","","",""
"html-keyboard-response","92","366363","0.0-3.0-3.0-3.12","q5tnqst2l2k813u","practice_cue","5f4e1c1c7555ccb0310a752c","5f60e3c0a3b16e07647b2ff9","5f60eefe9e53210163e483e4","false","null","<div style=""align-items: center; display: flex; color: darkorange; font-size: 90px""><b>ø</b></div>","null","","","","forget_cue","","","","","","","","","","","","","","","",""
"html-keyboard-response","93","367066","0.0-3.0-3.0-0.13","q5tnqst2l2k813u","practice_cue","5f4e1c1c7555ccb0310a752c","5f60e3c0a3b16e07647b2ff9","5f60eefe9e53210163e483e4","false","null","<span style=""color: black; font-size: 48px"">N + M</span>","null","","","","resp_prompt","","","","","","","","","","","","","","","",""
"categorize-image","94","367847","0.0-3.0-3.0-1.13","q5tnqst2l2k813u","practice_cue","5f4e1c1c7555ccb0310a752c","5f60e3c0a3b16e07647b2ff9","5f60eefe9e53210163e483e4","true","774.6150000020862","./Stimuli/ImagesPractice/LN2.jpg","76","","","","test","false","N + M","83","","LN","LN2.jpg","forget","old","30","2","practice_forget","right","","","",""
"html-keyboard-response","95","368351","0.0-3.0-3.0-2.13-0.13","q5tnqst2l2k813u","practice_cue","5f4e1c1c7555ccb0310a752c","5f60e3c0a3b16e07647b2ff9","5f60eefe9e53210163e483e4","false","null","<span style=""color: red; font-size: 48px"">Error!</span>","null","","","","feedback","","","","","","","","","","","","","","","",""
"html-keyboard-response","96","370356","0.0-3.0-3.0-3.13","q5tnqst2l2k813u","practice_cue","5f4e1c1c7555ccb0310a752c","5f60e3c0a3b16e07647b2ff9","5f60eefe9e53210163e483e4","false","null","<div style=""align-items: center; display: flex; color: darkorange; font-size: 90px""><b>ø</b></div>","null","","","","forget_cue","","","","","","","","","","","","","","","",""
"html-keyboard-response","97","371058","0.0-3.0-3.0-0.14","q5tnqst2l2k813u","practice_cue","5f4e1c1c7555ccb0310a752c","5f60e3c0a3b16e07647b2ff9","5f60eefe9e53210163e483e4","false","null","<span style=""color: black; font-size: 48px"">M + N</span>","null","","","","resp_prompt","","","","","","","","","","","","","","","",""
"categorize-image","98","371766","0.0-3.0-3.0-1.14","q5tnqst2l2k813u","practice_cue","5f4e1c1c7555ccb0310a752c","5f60e3c0a3b16e07647b2ff9","5f60eefe9e53210163e483e4","true","691.7900000116788","./Stimuli/ImagesPractice/LN109.jpg","83","","","","test","false","M + N","76","","LN","LN109.jpg","remember","old","31","2","practice_forget","left","","","",""
"html-keyboard-response","99","372284","0.0-3.0-3.0-2.14-0.14","q5tnqst2l2k813u","practice_cue","5f4e1c1c7555ccb0310a752c","5f60e3c0a3b16e07647b2ff9","5f60eefe9e53210163e483e4","false","null","<span style=""color: red; font-size: 48px"">Error!</span>","null","","","","feedback","","","","","","","","","","","","","","","",""
"html-keyboard-response","100","374289","0.0-3.0-3.0-3.14","q5tnqst2l2k813u","practice_cue","5f4e1c1c7555ccb0310a752c","5f60e3c0a3b16e07647b2ff9","5f60eefe9e53210163e483e4","false","null","<div style=""align-items: center; display: flex; color: dodgerblue; font-size: 90px""><b>o</b></div>","null","","","","forget_cue","","","","","","","","","","","","","","","",""
"html-keyboard-response","101","375003","0.0-3.0-3.0-0.15","q5tnqst2l2k813u","practice_cue","5f4e1c1c7555ccb0310a752c","5f60e3c0a3b16e07647b2ff9","5f60eefe9e53210163e483e4","false","null","<span style=""color: black; font-size: 48px"">M + N</span>","null","","","","resp_prompt","","","","","","","","","","","","","","","",""
"categorize-image","102","375731","0.0-3.0-3.0-1.15","q5tnqst2l2k813u","practice_cue","5f4e1c1c7555ccb0310a752c","5f60e3c0a3b16e07647b2ff9","5f60eefe9e53210163e483e4","true","721.9199999817647","./Stimuli/ImagesPractice/LM224.jpg","83","","","","test","true","M + N","83","","LM","LM224.jpg","remember","old","32","2","practice_forget","left","","","",""
"html-keyboard-response","103","377744","0.0-3.0-3.0-3.15","q5tnqst2l2k813u","practice_cue","5f4e1c1c7555ccb0310a752c","5f60e3c0a3b16e07647b2ff9","5f60eefe9e53210163e483e4","false","null","<div style=""align-items: center; display: flex; color: dodgerblue; font-size: 90px""><b>o</b></div>","null","","","","forget_cue","","","","","","","","","","","","","","","",""
"html-keyboard-response","104","381152","0.0-3.0-4.0","q5tnqst2l2k813u","break","5f4e1c1c7555ccb0310a752c","5f60e3c0a3b16e07647b2ff9","5f60eefe9e53210163e483e4","false","3403.6399999749847","<p style='font-size: 32px;'>Break</><br><br><br><br><br><p style='font-size: 24px;'>In the last block, you committed 7 errors and did not respond in time on 2 trials.
</p><p style='font-size: 24px;'>Try to respond as fast and accurately as possible in the next block as well! </p><p style='font-size: 24px;'>Press SPACE to continue.</p>","32","","","","","","","","","","","","","","","","","","","",""
"html-keyboard-response","105","388199","0.0-3.0-5.0","q5tnqst2l2k813u","instructions","5f4e1c1c7555ccb0310a752c","5f60e3c0a3b16e07647b2ff9","5f60eefe9e53210163e483e4","false","7045.020000019576","<div align=left> Now, to practice, we kindly ask you to remember as many of the to-be-remembered pictures<br>of the previous learning phase as possible.<br><br>The pictures you were instructed to remember were the pictures followed by a <span style='color: dodgerblue; font-size: 28px'>O</span>.<br><br>In this memory test phase, you will also see some new pictures.<br>It is your task to remember whether you were presented with this specific picture in this study so far or not.<br>If you recognize an object (you have already seen it in this study), it is an OLD object. <br>If you do not recognize an object (you have NOT seen it in this study), it is a NEW object. <br><strong> Attention</strong>: As already mentioned, <span style='color: darkorange; font-size:28px'>Ø</span>-pictures will <strong>never</strong> appear in this memory test (neither as new objects). <br><br>Press SPACE to continue. </div>","32","","","","","","","","","","","","","","","","","","","",""
"html-keyboard-response","106","420883","0.0-3.0-6.0","q5tnqst2l2k813u","instructions","5f4e1c1c7555ccb0310a752c","5f60e3c0a3b16e07647b2ff9","5f60eefe9e53210163e483e4","false","32686.8250000407","<div align=left> M and N no longer will appear on the left/right of the fixation cross. <br>Instead there will be a note at the bottom of the left or right side  <br>indicating which key you should press for an old or new object:  <br> <br>Press the <strong>right</strong> key to classify an object as <strong>old</strong> and press the <strong>left</strong>, to classify an object as <strong>new</strong>.<br>Please classify the objects as new/old by again placing your index finger on the 'S' and 'L' keys <br>and press them accordingly.<br><br><strong>Old:</strong> This object has been presented before. <br><strong>New:</strong> This object has <strong>not</strong> been presented.<br><br>Now please put your right and left index fingers on the 'S' and 'L' keys of your keyboard. <br>Please respond as fast and as accurately as possible!<br><br>Press SPACE to continue. </div>","32","","","","","","","","","","","","","","","","","","","",""
"categorize-image","107","422519","0.0-3.0-7.0-0.0","q5tnqst2l2k813u","practice_recog","5f4e1c1c7555ccb0310a752c","5f60e3c0a3b16e07647b2ff9","5f60eefe9e53210163e483e4","true","1127.4950000224635","./Stimuli/ImagesPractice/LN72.jpg","83","","","","test","true","","83","","LN","LN72.jpg","","old","33","3","practice_recog","left","","","",""
"categorize-image","108","424049","0.0-3.0-7.0-0.1","q5tnqst2l2k813u","practice_recog","5f4e1c1c7555ccb0310a752c","5f60e3c0a3b16e07647b2ff9","5f60eefe9e53210163e483e4","true","1025.56000003824","./Stimuli/ImagesPractice/LN15.jpg","76","","","","test","true","","76","","LN","LN15.jpg","","new","34","3","practice_recog","right","","","",""
"categorize-image","109","425224","0.0-3.0-7.0-0.2","q5tnqst2l2k813u","practice_recog","5f4e1c1c7555ccb0310a752c","5f60e3c0a3b16e07647b2ff9","5f60eefe9e53210163e483e4","true","670.6099999719299","./Stimuli/ImagesPractice/LM239.jpg","83","","","","test","true","","83","","LM","LM239.jpg","","old","35","3","practice_recog","left","","","",""
"categorize-image","110","426548","0.0-3.0-7.0-0.3","q5tnqst2l2k813u","practice_recog","5f4e1c1c7555ccb0310a752c","5f60e3c0a3b16e07647b2ff9","5f60eefe9e53210163e483e4","true","817.414999997709","./Stimuli/ImagesPractice/SN222.jpg","76","","","","test","false","","83","","SN","SN222.jpg","","old","36","3","practice_recog","right","","","",""
"categorize-image","111","428278","0.0-3.0-7.0-0.4","q5tnqst2l2k813u","practice_recog","5f4e1c1c7555ccb0310a752c","5f60e3c0a3b16e07647b2ff9","5f60eefe9e53210163e483e4","true","1224.1449999855831","./Stimuli/ImagesPractice/SN205.jpg","76","","","","test","true","","76","","SN","SN205.jpg","","new","37","3","practice_recog","right","","","",""
"categorize-image","112","429812","0.0-3.0-7.0-0.5","q5tnqst2l2k813u","practice_recog","5f4e1c1c7555ccb0310a752c","5f60e3c0a3b16e07647b2ff9","5f60eefe9e53210163e483e4","true","1029.8850000253879","./Stimuli/ImagesPractice/SM37.jpg","76","","","","test","true","","76","","SM","SM37.jpg","","new","38","3","practice_recog","right","","","",""
"categorize-image","113","431077","0.0-3.0-7.0-0.6","q5tnqst2l2k813u","practice_recog","5f4e1c1c7555ccb0310a752c","5f60e3c0a3b16e07647b2ff9","5f60eefe9e53210163e483e4","true","761.5449999575503","./Stimuli/ImagesPractice/SN75.jpg","76","","","","test","true","","76","","SN","SN75.jpg","","new","39","3","practice_recog","right","","","",""
"categorize-image","114","432287","0.0-3.0-7.0-0.7","q5tnqst2l2k813u","practice_recog","5f4e1c1c7555ccb0310a752c","5f60e3c0a3b16e07647b2ff9","5f60eefe9e53210163e483e4","true","705.5249999975786","./Stimuli/ImagesPractice/SM35.jpg","76","","","","test","true","","76","","SM","SM35.jpg","","new","40","3","practice_recog","right","","","",""
"categorize-image","115","433489","0.0-3.0-7.0-0.8","q5tnqst2l2k813u","practice_recog","5f4e1c1c7555ccb0310a752c","5f60e3c0a3b16e07647b2ff9","5f60eefe9e53210163e483e4","true","697.0999999903142","./Stimuli/ImagesPractice/SN221.jpg","76","","","","test","true","","76","","SN","SN221.jpg","","new","41","3","practice_recog","right","","","",""
"categorize-image","116","434593","0.0-3.0-7.0-0.9","q5tnqst2l2k813u","practice_recog","5f4e1c1c7555ccb0310a752c","5f60e3c0a3b16e07647b2ff9","5f60eefe9e53210163e483e4","true","598.6949999933131","./Stimuli/ImagesPractice/LN4.jpg","83","","","","test","true","","83","","LN","LN4.jpg","","old","42","3","practice_recog","left","","","",""
"categorize-image","117","435773","0.0-3.0-7.0-0.10","q5tnqst2l2k813u","practice_recog","5f4e1c1c7555ccb0310a752c","5f60e3c0a3b16e07647b2ff9","5f60eefe9e53210163e483e4","true","676.534999976866","./Stimuli/ImagesPractice/LN109.jpg","83","","","","test","true","","83","","LN","LN109.jpg","","old","43","3","practice_recog","left","","","",""
"categorize-image","118","437167","0.0-3.0-7.0-0.11","q5tnqst2l2k813u","practice_recog","5f4e1c1c7555ccb0310a752c","5f60e3c0a3b16e07647b2ff9","5f60eefe9e53210163e483e4","true","888.1800000090152","./Stimuli/ImagesPractice/LM143.jpg","83","","","","test","false","","76","","LM","LM143.jpg","","new","44","3","practice_recog","left","","","",""
"categorize-image","119","439021","0.0-3.0-7.0-0.12","q5tnqst2l2k813u","practice_recog","5f4e1c1c7555ccb0310a752c","5f60e3c0a3b16e07647b2ff9","5f60eefe9e53210163e483e4","true","1348.729999968782","./Stimuli/ImagesPractice/SM61.jpg","76","","","","test","true","","76","","SM","SM61.jpg","","new","45","3","practice_recog","right","","","",""
"categorize-image","120","440268","0.0-3.0-7.0-0.13","q5tnqst2l2k813u","practice_recog","5f4e1c1c7555ccb0310a752c","5f60e3c0a3b16e07647b2ff9","5f60eefe9e53210163e483e4","true","741.4699999499135","./Stimuli/ImagesPractice/SM98.jpg","83","","","","test","true","","83","","SM","SM98.jpg","","old","46","3","practice_recog","left","","","",""
"categorize-image","121","441503","0.0-3.0-7.0-0.14","q5tnqst2l2k813u","practice_recog","5f4e1c1c7555ccb0310a752c","5f60e3c0a3b16e07647b2ff9","5f60eefe9e53210163e483e4","true","730.3899999824353","./Stimuli/ImagesPractice/SN76.jpg","76","","","","test","false","","83","","SN","SN76.jpg","","old","47","3","practice_recog","right","","","",""
"categorize-image","122","442835","0.0-3.0-7.0-0.15","q5tnqst2l2k813u","practice_recog","5f4e1c1c7555ccb0310a752c","5f60e3c0a3b16e07647b2ff9","5f60eefe9e53210163e483e4","true","822.3299999954179","./Stimuli/ImagesPractice/LM224.jpg","83","","","","test","true","","83","","LM","LM224.jpg","","old","48","3","practice_recog","left","","","",""
"html-keyboard-response","123","444864","0.0-3.0-8.0","q5tnqst2l2k813u","instructions","5f4e1c1c7555ccb0310a752c","5f60e3c0a3b16e07647b2ff9","5f60eefe9e53210163e483e4","false","2026.2799999909475","<div align=left> Great!<br><br>Are you ready to continue?<br>If you want to reread the instructions and redo the practice trials, please <br>press „Z“.<br><br>You can proceed when you are ready.<br><br>After the presentation of each object, you will receive an instruction whether to <br>remember or to forget the object.<br>We will test your memory of the following pictures only at the very end of <br>the experiment after all learning blocks are completed. <br><br>Press SPACE to CONTINUE when you are ready. </div>","32","","","","","","","","","","","","","","","","","","","",""
"html-keyboard-response","124","451681","0.0-4.0-0.0","q5tnqst2l2k813u","instructions","5f4e1c1c7555ccb0310a752c","5f60e3c0a3b16e07647b2ff9","5f60eefe9e53210163e483e4","false","6814.350000000559","<div align=left> The actual experiment is about to start.<br>The practice trials are over!<br><br>Please always respond both fast and accurately!<br><br>Remember: <br> <br><li> Please place your index fingers on the <strong>'S'</strong> and <strong>'L'</strong> keys <br>to respond as fast and accurately as possible.</li><li> Every picture can be classified as either mechanical or non-mechanical.</li><li> If you do not respond in time or commit an error, you will receive a corresponding feedback.<br> Please try to respond as <strong> fast </strong> and as <strong> accurately as possible </strong>.</li><li> Remember the <span style='color: dodgerblue; font-size: 28px'>O</span> pictures. <br></li><li> Please minimize distractions and stay focused. </li><br><br>Press SPACE to START.</div>","32","","","","","","","","","","","","","","","","","","","",""
"html-keyboard-response","125","452383","0.0-4.0-1.0-0.0","q5tnqst2l2k813u","prime","5f4e1c1c7555ccb0310a752c","5f60e3c0a3b16e07647b2ff9","5f60eefe9e53210163e483e4","false","null","<span style=""color: black; font-size: 48px"">M + N</span>","null","","","","resp_prompt","","","","","","","","","","","","","","","",""
"categorize-image","126","453362","0.0-4.0-1.0-1.0","q5tnqst2l2k813u","prime","5f4e1c1c7555ccb0310a752c","5f60e3c0a3b16e07647b2ff9","5f60eefe9e53210163e483e4","true","972.1499999868684","./Stimuli/SelectedImages/SN/SN49.bmp","83","","","","test","false","M + N","76","repetition","SN","SN49.bmp","remember","","49","3","prime1","left","","","",""
"html-keyboard-response","127","453868","0.0-4.0-1.0-2.0-0.0","q5tnqst2l2k813u","prime","5f4e1c1c7555ccb0310a752c","5f60e3c0a3b16e07647b2ff9","5f60eefe9e53210163e483e4","false","null","<span style=""color: red; font-size: 48px"">Error!</span>","null","","","","feedback","","","","","","","","","","","","","","","",""
"html-keyboard-response","128","455871","0.0-4.0-1.0-3.0","q5tnqst2l2k813u","prime","5f4e1c1c7555ccb0310a752c","5f60e3c0a3b16e07647b2ff9","5f60eefe9e53210163e483e4","false","null","<div style=""align-items: center; display: flex; color: dodgerblue; font-size: 90px""><b>o</b></div>","null","","","","forget_cue","","","","","","","","","","","","","","","",""
"html-keyboard-response","129","456574","0.0-4.0-1.0-0.1","q5tnqst2l2k813u","prime","5f4e1c1c7555ccb0310a752c","5f60e3c0a3b16e07647b2ff9","5f60eefe9e53210163e483e4","false","null","<span style=""color: black; font-size: 48px"">M + N</span>","null","","","","resp_prompt","","","","","","","","","","","","","","","",""
"categorize-image","130","457329","0.0-4.0-1.0-1.1","q5tnqst2l2k813u","prime","5f4e1c1c7555ccb0310a752c","5f60e3c0a3b16e07647b2ff9","5f60eefe9e53210163e483e4","true","748.7749999854714","./Stimuli/SelectedImages/SN/SN155.bmp","76","","","","test","true","M + N","76","switch","SN","SN155.bmp","remember","","50","3","prime1","right","","","",""
"html-keyboard-response","131","459333","0.0-4.0-1.0-3.1","q5tnqst2l2k813u","prime","5f4e1c1c7555ccb0310a752c","5f60e3c0a3b16e07647b2ff9","5f60eefe9e53210163e483e4","false","null","<div style=""align-items: center; display: flex; color: dodgerblue; font-size: 90px""><b>o</b></div>","null","","","","forget_cue","","","","","","","","","","","","","","","",""
"html-keyboard-response","132","460034","0.0-4.0-1.0-0.2","q5tnqst2l2k813u","prime","5f4e1c1c7555ccb0310a752c","5f60e3c0a3b16e07647b2ff9","5f60eefe9e53210163e483e4","false","null","<span style=""color: black; font-size: 48px"">N + M</span>","null","","","","resp_prompt","","","","","","","","","","","","","","","",""
"categorize-image","133","460959","0.0-4.0-1.0-1.2","q5tnqst2l2k813u","prime","5f4e1c1c7555ccb0310a752c","5f60e3c0a3b16e07647b2ff9","5f60eefe9e53210163e483e4","true","917.8649999666959","./Stimuli/SelectedImages/LM/LM129.bmp","83","","","","test","false","N + M","76","switch","LM","LM129.bmp","forget","","51","3","prime1","left","","","",""
"html-keyboard-response","134","461463","0.0-4.0-1.0-2.2-0.2","q5tnqst2l2k813u","prime","5f4e1c1c7555ccb0310a752c","5f60e3c0a3b16e07647b2ff9","5f60eefe9e53210163e483e4","false","null","<span style=""color: red; font-size: 48px"">Error!</span>","null","","","","feedback","","","","","","","","","","","","","","","",""
"html-keyboard-response","135","463485","0.0-4.0-1.0-3.2","q5tnqst2l2k813u","prime","5f4e1c1c7555ccb0310a752c","5f60e3c0a3b16e07647b2ff9","5f60eefe9e53210163e483e4","false","null","<div style=""align-items: center; display: flex; color: darkorange; font-size: 90px""><b>ø</b></div>","null","","","","forget_cue","","","","","","","","","","","","","","","",""
"html-keyboard-response","136","464196","0.0-4.0-1.0-0.3","q5tnqst2l2k813u","prime","5f4e1c1c7555ccb0310a752c","5f60e3c0a3b16e07647b2ff9","5f60eefe9e53210163e483e4","false","null","<span style=""color: black; font-size: 48px"">N + M</span>","null","","","","resp_prompt","","","","","","","","","","","","","","","",""
"categorize-image","137","465195","0.0-4.0-1.0-1.3","q5tnqst2l2k813u","prime","5f4e1c1c7555ccb0310a752c","5f60e3c0a3b16e07647b2ff9","5f60eefe9e53210163e483e4","true","993.5549999936484","./Stimuli/SelectedImages/SM/SM128.bmp","83","","","","test","false","N + M","76","repetition","SM","SM128.bmp","remember","","52","3","prime1","left","","","",""
"html-keyboard-response","138","465698","0.0-4.0-1.0-2.3-0.3","q5tnqst2l2k813u","prime","5f4e1c1c7555ccb0310a752c","5f60e3c0a3b16e07647b2ff9","5f60eefe9e53210163e483e4","false","null","<span style=""color: red; font-size: 48px"">Error!</span>","null","","","","feedback","","","","","","","","","","","","","","","",""
"html-keyboard-response","139","467701","0.0-4.0-1.0-3.3","q5tnqst2l2k813u","prime","5f4e1c1c7555ccb0310a752c","5f60e3c0a3b16e07647b2ff9","5f60eefe9e53210163e483e4","false","null","<div style=""align-items: center; display: flex; color: dodgerblue; font-size: 90px""><b>o</b></div>","null","","","","forget_cue","","","","","","","","","","","","","","","",""
"html-keyboard-response","140","468403","0.0-4.0-1.0-0.4","q5tnqst2l2k813u","prime","5f4e1c1c7555ccb0310a752c","5f60e3c0a3b16e07647b2ff9","5f60eefe9e53210163e483e4","false","null","<span style=""color: black; font-size: 48px"">M + N</span>","null","","","","resp_prompt","","","","","","","","","","","","","","","",""
"categorize-image","141","469302","0.0-4.0-1.0-1.4","q5tnqst2l2k813u","prime","5f4e1c1c7555ccb0310a752c","5f60e3c0a3b16e07647b2ff9","5f60eefe9e53210163e483e4","true","893.5700000147335","./Stimuli/SelectedImages/LM/LM157.bmp","83","","","","test","true","M + N","83","repetition","LM","LM157.bmp","remember","","53","3","prime1","left","","","",""
"html-keyboard-response","142","471307","0.0-4.0-1.0-3.4","q5tnqst2l2k813u","prime","5f4e1c1c7555ccb0310a752c","5f60e3c0a3b16e07647b2ff9","5f60eefe9e53210163e483e4","false","null","<div style=""align-items: center; display: flex; color: dodgerblue; font-size: 90px""><b>o</b></div>","null","","","","forget_cue","","","","","","","","","","","","","","","",""
"html-keyboard-response","143","472010","0.0-4.0-1.0-0.5","q5tnqst2l2k813u","prime","5f4e1c1c7555ccb0310a752c","5f60e3c0a3b16e07647b2ff9","5f60eefe9e53210163e483e4","false","null","<span style=""color: black; font-size: 48px"">N + M</span>","null","","","","resp_prompt","","","","","","","","","","","","","","","",""
"categorize-image","144","472703","0.0-4.0-1.0-1.5","q5tnqst2l2k813u","prime","5f4e1c1c7555ccb0310a752c","5f60e3c0a3b16e07647b2ff9","5f60eefe9e53210163e483e4","true","687.94999999227","./Stimuli/SelectedImages/LN/LN82.bmp","76","","","","test","false","N + M","83","switch","LN","LN82.bmp","remember","","54","3","prime1","right","","","",""
"html-keyboard-response","145","473210","0.0-4.0-1.0-2.5-0.5","q5tnqst2l2k813u","prime","5f4e1c1c7555ccb0310a752c","5f60e3c0a3b16e07647b2ff9","5f60eefe9e53210163e483e4","false","null","<span style=""color: red; font-size: 48px"">Error!</span>","null","","","","feedback","","","","","","","","","","","","","","","",""
"html-keyboard-response","146","475224","0.0-4.0-1.0-3.5","q5tnqst2l2k813u","prime","5f4e1c1c7555ccb0310a752c","5f60e3c0a3b16e07647b2ff9","5f60eefe9e53210163e483e4","false","null","<div style=""align-items: center; display: flex; color: dodgerblue; font-size: 90px""><b>o</b></div>","null","","","","forget_cue","","","","","","","","","","","","","","","",""
"html-keyboard-response","147","475928","0.0-4.0-1.0-0.6","q5tnqst2l2k813u","prime","5f4e1c1c7555ccb0310a752c","5f60e3c0a3b16e07647b2ff9","5f60eefe9e53210163e483e4","false","null","<span style=""color: black; font-size: 48px"">N + M</span>","null","","","","resp_prompt","","","","","","","","","","","","","","","",""
"categorize-image","148","476520","0.0-4.0-1.0-1.6","q5tnqst2l2k813u","prime","5f4e1c1c7555ccb0310a752c","5f60e3c0a3b16e07647b2ff9","5f60eefe9e53210163e483e4","true","586.7899999720976","./Stimuli/SelectedImages/LM/LM216.bmp","83","","","","test","false","N + M","76","switch","LM","LM216.bmp","remember","","55","3","prime1","left","","","",""
"html-keyboard-response","149","477037","0.0-4.0-1.0-2.6-0.6","q5tnqst2l2k813u","prime","5f4e1c1c7555ccb0310a752c","5f60e3c0a3b16e07647b2ff9","5f60eefe9e53210163e483e4","false","null","<span style=""color: red; font-size: 48px"">Error!</span>","null","","","","feedback","","","","","","","","","","","","","","","",""
"html-keyboard-response","150","479040","0.0-4.0-1.0-3.6","q5tnqst2l2k813u","prime","5f4e1c1c7555ccb0310a752c","5f60e3c0a3b16e07647b2ff9","5f60eefe9e53210163e483e4","false","null","<div style=""align-items: center; display: flex; color: dodgerblue; font-size: 90px""><b>o</b></div>","null","","","","forget_cue","","","","","","","","","","","","","","","",""
"html-keyboard-response","151","479743","0.0-4.0-1.0-0.7","q5tnqst2l2k813u","prime","5f4e1c1c7555ccb0310a752c","5f60e3c0a3b16e07647b2ff9","5f60eefe9e53210163e483e4","false","null","<span style=""color: black; font-size: 48px"">M + N</span>","null","","","","resp_prompt","","","","","","","","","","","","","","","",""
"categorize-image","152","480637","0.0-4.0-1.0-1.7","q5tnqst2l2k813u","prime","5f4e1c1c7555ccb0310a752c","5f60e3c0a3b16e07647b2ff9","5f60eefe9e53210163e483e4","true","886.4400000311434","./Stimuli/SelectedImages/LN/LN131.bmp","76","","","","test","true","M + N","76","repetition","LN","LN131.bmp","remember","","56","3","prime1","right","","","",""
"html-keyboard-response","153","482652","0.0-4.0-1.0-3.7","q5tnqst2l2k813u","prime","5f4e1c1c7555ccb0310a752c","5f60e3c0a3b16e07647b2ff9","5f60eefe9e53210163e483e4","false","null","<div style=""align-items: center; display: flex; color: dodgerblue; font-size: 90px""><b>o</b></div>","null","","","","forget_cue","","","","","","","","","","","","","","","",""
"html-keyboard-response","154","483357","0.0-4.0-1.0-0.8","q5tnqst2l2k813u","prime","5f4e1c1c7555ccb0310a752c","5f60e3c0a3b16e07647b2ff9","5f60eefe9e53210163e483e4","false","null","<span style=""color: black; font-size: 48px"">M + N</span>","null","","","","resp_prompt","","","","","","","","","","","","","","","",""
"categorize-image","155","484333","0.0-4.0-1.0-1.8","q5tnqst2l2k813u","prime","5f4e1c1c7555ccb0310a752c","5f60e3c0a3b16e07647b2ff9","5f60eefe9e53210163e483e4","true","969.8499999940395","./Stimuli/SelectedImages/SM/SM74.bmp","76","","","","test","false","M + N","83","switch","SM","SM74.bmp","forget","","57","3","prime1","right","","","",""
"html-keyboard-response","156","484837","0.0-4.0-1.0-2.8-0.8","q5tnqst2l2k813u","prime","5f4e1c1c7555ccb0310a752c","5f60e3c0a3b16e07647b2ff9","5f60eefe9e53210163e483e4","false","null","<span style=""color: red; font-size: 48px"">Error!</span>","null","","","","feedback","","","","","","","","","","","","","","","",""
"html-keyboard-response","157","486839","0.0-4.0-1.0-3.8","q5tnqst2l2k813u","prime","5f4e1c1c7555ccb0310a752c","5f60e3c0a3b16e07647b2ff9","5f60eefe9e53210163e483e4","false","null","<div style=""align-items: center; display: flex; color: darkorange; font-size: 90px""><b>ø</b></div>","null","","","","forget_cue","","","","","","","","","","","","","","","",""
"html-keyboard-response","158","487542","0.0-4.0-1.0-0.9","q5tnqst2l2k813u","prime","5f4e1c1c7555ccb0310a752c","5f60e3c0a3b16e07647b2ff9","5f60eefe9e53210163e483e4","false","null","<span style=""color: black; font-size: 48px"">M + N</span>","null","","","","resp_prompt","","","","","","","","","","","","","","","",""
"categorize-image","159","488241","0.0-4.0-1.0-1.9","q5tnqst2l2k813u","prime","5f4e1c1c7555ccb0310a752c","5f60e3c0a3b16e07647b2ff9","5f60eefe9e53210163e483e4","true","691.7399999802001","./Stimuli/SelectedImages/SN/SN240.bmp","76","","","","test","true","M + N","76","switch","SN","SN240.bmp","remember","","58","3","prime1","right","","","",""
"html-keyboard-response","160","490247","0.0-4.0-1.0-3.9","q5tnqst2l2k813u","prime","5f4e1c1c7555ccb0310a752c","5f60e3c0a3b16e07647b2ff9","5f60eefe9e53210163e483e4","false","null","<div style=""align-items: center; display: flex; color: dodgerblue; font-size: 90px""><b>o</b></div>","null","","","","forget_cue","","","","","","","","","","","","","","","",""
"html-keyboard-response","161","490950","0.0-4.0-1.0-0.10","q5tnqst2l2k813u","prime","5f4e1c1c7555ccb0310a752c","5f60e3c0a3b16e07647b2ff9","5f60eefe9e53210163e483e4","false","null","<span style=""color: black; font-size: 48px"">N + M</span>","null","","","","resp_prompt","","","","","","","","","","","","","","","",""
"categorize-image","162","491709","0.0-4.0-1.0-1.10","q5tnqst2l2k813u","prime","5f4e1c1c7555ccb0310a752c","5f60e3c0a3b16e07647b2ff9","5f60eefe9e53210163e483e4","true","750.4999999655411","./Stimuli/SelectedImages/SN/SN60.bmp","76","","","","test","false","N + M","83","switch","SN","SN60.bmp","remember","","59","3","prime1","right","","","",""
"html-keyboard-response","163","492225","0.0-4.0-1.0-2.10-0.10","q5tnqst2l2k813u","prime","5f4e1c1c7555ccb0310a752c","5f60e3c0a3b16e07647b2ff9","5f60eefe9e53210163e483e4","false","null","<span style=""color: red; font-size: 48px"">Error!</span>","null","","","","feedback","","","","","","","","","","","","","","","",""
"html-keyboard-response","164","494245","0.0-4.0-1.0-3.10","q5tnqst2l2k813u","prime","5f4e1c1c7555ccb0310a752c","5f60e3c0a3b16e07647b2ff9","5f60eefe9e53210163e483e4","false","null","<div style=""align-items: center; display: flex; color: dodgerblue; font-size: 90px""><b>o</b></div>","null","","","","forget_cue","","","","","","","","","","","","","","","",""
"html-keyboard-response","165","494963","0.0-4.0-1.0-0.11","q5tnqst2l2k813u","prime","5f4e1c1c7555ccb0310a752c","5f60e3c0a3b16e07647b2ff9","5f60eefe9e53210163e483e4","false","null","<span style=""color: black; font-size: 48px"">N + M</span>","null","","","","resp_prompt","","","","","","","","","","","","","","","",""
"categorize-image","166","495790","0.0-4.0-1.0-1.11","q5tnqst2l2k813u","prime","5f4e1c1c7555ccb0310a752c","5f60e3c0a3b16e07647b2ff9","5f60eefe9e53210163e483e4","true","819.2700000363402","./Stimuli/SelectedImages/SN/SN140.bmp","76","","","","test","false","N + M","83","switch","SN","SN140.bmp","forget","","60","3","prime1","right","","","",""
"html-keyboard-response","167","496296","0.0-4.0-1.0-2.11-0.11","q5tnqst2l2k813u","prime","5f4e1c1c7555ccb0310a752c","5f60e3c0a3b16e07647b2ff9","5f60eefe9e53210163e483e4","false","null","<span style=""color: red; font-size: 48px"">Error!</span>","null","","","","feedback","","","","","","","","","","","","","","","",""
"html-keyboard-response","168","498300","0.0-4.0-1.0-3.11","q5tnqst2l2k813u","prime","5f4e1c1c7555ccb0310a752c","5f60e3c0a3b16e07647b2ff9","5f60eefe9e53210163e483e4","false","null","<div style=""align-items: center; display: flex; color: darkorange; font-size: 90px""><b>ø</b></div>","null","","","","forget_cue","","","","","","","","","","","","","","","",""
"html-keyboard-response","169","499005","0.0-4.0-1.0-0.12","q5tnqst2l2k813u","prime","5f4e1c1c7555ccb0310a752c","5f60e3c0a3b16e07647b2ff9","5f60eefe9e53210163e483e4","false","null","<span style=""color: black; font-size: 48px"">M + N</span>","null","","","","resp_prompt","","","","","","","","","","","","","","","",""
"categorize-image","170","499938","0.0-4.0-1.0-1.12","q5tnqst2l2k813u","prime","5f4e1c1c7555ccb0310a752c","5f60e3c0a3b16e07647b2ff9","5f60eefe9e53210163e483e4","true","926.6199999838136","./Stimuli/SelectedImages/SN/SN27.bmp","76","","","","test","true","M + N","76","repetition","SN","SN27.bmp","remember","","61","3","prime1","right","","","",""
"html-keyboard-response","171","501944","0.0-4.0-1.0-3.12","q5tnqst2l2k813u","prime","5f4e1c1c7555ccb0310a752c","5f60e3c0a3b16e07647b2ff9","5f60eefe9e53210163e483e4","false","null","<div style=""align-items: center; display: flex; color: dodgerblue; font-size: 90px""><b>o</b></div>","null","","","","forget_cue","","","","","","","","","","","","","","","",""
"html-keyboard-response","172","502648","0.0-4.0-1.0-0.13","q5tnqst2l2k813u","prime","5f4e1c1c7555ccb0310a752c","5f60e3c0a3b16e07647b2ff9","5f60eefe9e53210163e483e4","false","null","<span style=""color: black; font-size: 48px"">M + N</span>","null","","","","resp_prompt","","","","","","","","","","","","","","","",""
"categorize-image","173","503286","0.0-4.0-1.0-1.13","q5tnqst2l2k813u","prime","5f4e1c1c7555ccb0310a752c","5f60e3c0a3b16e07647b2ff9","5f60eefe9e53210163e483e4","true","630.4099999833852","./Stimuli/SelectedImages/LM/LM57.bmp","83","","","","test","true","M + N","83","repetition","LM","LM57.bmp","remember","","62","3","prime1","left","","","",""
"html-keyboard-response","174","505288","0.0-4.0-1.0-3.13","q5tnqst2l2k813u","prime","5f4e1c1c7555ccb0310a752c","5f60e3c0a3b16e07647b2ff9","5f60eefe9e53210163e483e4","false","null","<div style=""align-items: center; display: flex; color: dodgerblue; font-size: 90px""><b>o</b></div>","null","","","","forget_cue","","","","","","","","","","","","","","","",""
"html-keyboard-response","175","505991","0.0-4.0-1.0-0.14","q5tnqst2l2k813u","prime","5f4e1c1c7555ccb0310a752c","5f60e3c0a3b16e07647b2ff9","5f60eefe9e53210163e483e4","false","null","<span style=""color: black; font-size: 48px"">M + N</span>","null","","","","resp_prompt","","","","","","","","","","","","","","","",""
"categorize-image","176","506685","0.0-4.0-1.0-1.14","q5tnqst2l2k813u","prime","5f4e1c1c7555ccb0310a752c","5f60e3c0a3b16e07647b2ff9","5f60eefe9e53210163e483e4","true","685.7399999862537","./Stimuli/SelectedImages/LN/LN92.bmp","76","","","","test","true","M + N","76","repetition","LN","LN92.bmp","remember","","63","3","prime1","right","","","",""
"html-keyboard-response","177","508688","0.0-4.0-1.0-3.14","q5tnqst2l2k813u","prime","5f4e1c1c7555ccb0310a752c","5f60e3c0a3b16e07647b2ff9","5f60eefe9e53210163e483e4","false","null","<div style=""align-items: center; display: flex; color: dodgerblue; font-size: 90px""><b>o</b></div>","null","","","","forget_cue","","","","","","","","","","","","","","","",""
"html-keyboard-response","178","509390","0.0-4.0-1.0-0.15","q5tnqst2l2k813u","prime","5f4e1c1c7555ccb0310a752c","5f60e3c0a3b16e07647b2ff9","5f60eefe9e53210163e483e4","false","null","<span style=""color: black; font-size: 48px"">M + N</span>","null","","","","resp_prompt","","","","","","","","","","","","","","","",""
"categorize-image","179","510167","0.0-4.0-1.0-1.15","q5tnqst2l2k813u","prime","5f4e1c1c7555ccb0310a752c","5f60e3c0a3b16e07647b2ff9","5f60eefe9e53210163e483e4","true","771.9149999902584","./Stimuli/SelectedImages/SN/SN18.bmp","76","","","","test","true","M + N","76","repetition","SN","SN18.bmp","forget","","64","3","prime1","right","","","",""
"html-keyboard-response","180","512170","0.0-4.0-1.0-3.15","q5tnqst2l2k813u","prime","5f4e1c1c7555ccb0310a752c","5f60e3c0a3b16e07647b2ff9","5f60eefe9e53210163e483e4","false","null","<div style=""align-items: center; display: flex; color: darkorange; font-size: 90px""><b>ø</b></div>","null","","","","forget_cue","","","","","","","","","","","","","","","",""
"html-keyboard-response","181","512873","0.0-4.0-1.0-0.16","q5tnqst2l2k813u","prime","5f4e1c1c7555ccb0310a752c","5f60e3c0a3b16e07647b2ff9","5f60eefe9e53210163e483e4","false","null","<span style=""color: black; font-size: 48px"">N + M</span>","null","","","","resp_prompt","","","","","","","","","","","","","","","",""
"categorize-image","182","513685","0.0-4.0-1.0-1.16","q5tnqst2l2k813u","prime","5f4e1c1c7555ccb0310a752c","5f60e3c0a3b16e07647b2ff9","5f60eefe9e53210163e483e4","true","802.6250000111759","./Stimuli/SelectedImages/LN/LN59.bmp","76","","","","test","false","N + M","83","repetition","LN","LN59.bmp","forget","","65","3","prime1","right","","","",""
"html-keyboard-response","183","514189","0.0-4.0-1.0-2.16-0.16","q5tnqst2l2k813u","prime","5f4e1c1c7555ccb0310a752c","5f60e3c0a3b16e07647b2ff9","5f60eefe9e53210163e483e4","false","null","<span style=""color: red; font-size: 48px"">Error!</span>","null","","","","feedback","","","","","","","","","","","","","","","",""
"html-keyboard-response","184","516192","0.0-4.0-1.0-3.16","q5tnqst2l2k813u","prime","5f4e1c1c7555ccb0310a752c","5f60e3c0a3b16e07647b2ff9","5f60eefe9e53210163e483e4","false","null","<div style=""align-items: center; display: flex; color: darkorange; font-size: 90px""><b>ø</b></div>","null","","","","forget_cue","","","","","","","","","","","","","","","",""
"html-keyboard-response","185","516895","0.0-4.0-1.0-0.17","q5tnqst2l2k813u","prime","5f4e1c1c7555ccb0310a752c","5f60e3c0a3b16e07647b2ff9","5f60eefe9e53210163e483e4","false","null","<span style=""color: black; font-size: 48px"">M + N</span>","null","","","","resp_prompt","","","","","","","","","","","","","","","",""
"categorize-image","186","517454","0.0-4.0-1.0-1.17","q5tnqst2l2k813u","prime","5f4e1c1c7555ccb0310a752c","5f60e3c0a3b16e07647b2ff9","5f60eefe9e53210163e483e4","true","551.9249999779277","./Stimuli/SelectedImages/LM/LM100.bmp","83","","","","test","true","M + N","83","switch","LM","LM100.bmp","remember","","66","3","prime1","left","","","",""
"html-keyboard-response","187","519459","0.0-4.0-1.0-3.17","q5tnqst2l2k813u","prime","5f4e1c1c7555ccb0310a752c","5f60e3c0a3b16e07647b2ff9","5f60eefe9e53210163e483e4","false","null","<div style=""align-items: center; display: flex; color: dodgerblue; font-size: 90px""><b>o</b></div>","null","","","","forget_cue","","","","","","","","","","","","","","","",""
"html-keyboard-response","188","520162","0.0-4.0-1.0-0.18","q5tnqst2l2k813u","prime","5f4e1c1c7555ccb0310a752c","5f60e3c0a3b16e07647b2ff9","5f60eefe9e53210163e483e4","false","null","<span style=""color: black; font-size: 48px"">N + M</span>","null","","","","resp_prompt","","","","","","","","","","","","","","","",""
"categorize-image","189","520858","0.0-4.0-1.0-1.18","q5tnqst2l2k813u","prime","5f4e1c1c7555ccb0310a752c","5f60e3c0a3b16e07647b2ff9","5f60eefe9e53210163e483e4","true","690.4449999565259","./Stimuli/SelectedImages/SN/SN187.bmp","76","","","","test","false","N + M","83","switch","SN","SN187.bmp","remember","","67","3","prime1","right","","","",""
"html-keyboard-response","190","521361","0.0-4.0-1.0-2.18-0.18","q5tnqst2l2k813u","prime","5f4e1c1c7555ccb0310a752c","5f60e3c0a3b16e07647b2ff9","5f60eefe9e53210163e483e4","false","null","<span style=""color: red; font-size: 48px"">Error!</span>","null","","","","feedback","","","","","","","","","","","","","","","",""
"html-keyboard-response","191","523364","0.0-4.0-1.0-3.18","q5tnqst2l2k813u","prime","5f4e1c1c7555ccb0310a752c","5f60e3c0a3b16e07647b2ff9","5f60eefe9e53210163e483e4","false","null","<div style=""align-items: center; display: flex; color: dodgerblue; font-size: 90px""><b>o</b></div>","null","","","","forget_cue","","","","","","","","","","","","","","","",""
"html-keyboard-response","192","524066","0.0-4.0-1.0-0.19","q5tnqst2l2k813u","prime","5f4e1c1c7555ccb0310a752c","5f60e3c0a3b16e07647b2ff9","5f60eefe9e53210163e483e4","false","null","<span style=""color: black; font-size: 48px"">M + N</span>","null","","","","resp_prompt","","","","","","","","","","","","","","","",""
"categorize-image","193","524783","0.0-4.0-1.0-1.19","q5tnqst2l2k813u","prime","5f4e1c1c7555ccb0310a752c","5f60e3c0a3b16e07647b2ff9","5f60eefe9e53210163e483e4","true","709.2699999921024","./Stimuli/SelectedImages/SM/SM213.bmp","83","","","","test","true","M + N","83","repetition","SM","SM213.bmp","forget","","68","3","prime1","left","","","",""
"html-keyboard-response","194","526787","0.0-4.0-1.0-3.19","q5tnqst2l2k813u","prime","5f4e1c1c7555ccb0310a752c","5f60e3c0a3b16e07647b2ff9","5f60eefe9e53210163e483e4","false","null","<div style=""align-items: center; display: flex; color: darkorange; font-size: 90px""><b>ø</b></div>","null","","","","forget_cue","","","","","","","","","","","","","","","",""
"html-keyboard-response","195","527490","0.0-4.0-1.0-0.20","q5tnqst2l2k813u","prime","5f4e1c1c7555ccb0310a752c","5f60e3c0a3b16e07647b2ff9","5f60eefe9e53210163e483e4","false","null","<span style=""color: black; font-size: 48px"">M + N</span>","null","","","","resp_prompt","","","","","","","","","","","","","","","",""
"categorize-image","196","528231","0.0-4.0-1.0-1.20","q5tnqst2l2k813u","prime","5f4e1c1c7555ccb0310a752c","5f60e3c0a3b16e07647b2ff9","5f60eefe9e53210163e483e4","true","734.3099999707192","./Stimuli/SelectedImages/LN/LN150.bmp","76","","","","test","true","M + N","76","switch","LN","LN150.bmp","remember","","69","3","prime1","right","","","",""
"html-keyboard-response","197","530237","0.0-4.0-1.0-3.20","q5tnqst2l2k813u","prime","5f4e1c1c7555ccb0310a752c","5f60e3c0a3b16e07647b2ff9","5f60eefe9e53210163e483e4","false","null","<div style=""align-items: center; display: flex; color: dodgerblue; font-size: 90px""><b>o</b></div>","null","","","","forget_cue","","","","","","","","","","","","","","","",""
"html-keyboard-response","198","530939","0.0-4.0-1.0-0.21","q5tnqst2l2k813u","prime","5f4e1c1c7555ccb0310a752c","5f60e3c0a3b16e07647b2ff9","5f60eefe9e53210163e483e4","false","null","<span style=""color: black; font-size: 48px"">M + N</span>","null","","","","resp_prompt","","","","","","","","","","","","","","","",""
"categorize-image","199","531669","0.0-4.0-1.0-1.21","q5tnqst2l2k813u","prime","5f4e1c1c7555ccb0310a752c","5f60e3c0a3b16e07647b2ff9","5f60eefe9e53210163e483e4","true","724.8499999986961","./Stimuli/SelectedImages/SM/SM106.bmp","83","","","","test","true","M + N","83","switch","SM","SM106.bmp","remember","","70","3","prime1","left","","","",""
"html-keyboard-response","200","533673","0.0-4.0-1.0-3.21","q5tnqst2l2k813u","prime","5f4e1c1c7555ccb0310a752c","5f60e3c0a3b16e07647b2ff9","5f60eefe9e53210163e483e4","false","null","<div style=""align-items: center; display: flex; color: dodgerblue; font-size: 90px""><b>o</b></div>","null","","","","forget_cue","","","","","","","","","","","","","","","",""
"html-keyboard-response","201","534376","0.0-4.0-1.0-0.22","q5tnqst2l2k813u","prime","5f4e1c1c7555ccb0310a752c","5f60e3c0a3b16e07647b2ff9","5f60eefe9e53210163e483e4","false","null","<span style=""color: black; font-size: 48px"">N + M</span>","null","","","","resp_prompt","","","","","","","","","","","","","","","",""
"categorize-image","202","535183","0.0-4.0-1.0-1.22","q5tnqst2l2k813u","prime","5f4e1c1c7555ccb0310a752c","5f60e3c0a3b16e07647b2ff9","5f60eefe9e53210163e483e4","true","799.9399999971502","./Stimuli/SelectedImages/LN/LN12.bmp","76","","","","test","false","N + M","83","repetition","LN","LN12.bmp","forget","","71","3","prime1","right","","","",""
"html-keyboard-response","203","535685","0.0-4.0-1.0-2.22-0.22","q5tnqst2l2k813u","prime","5f4e1c1c7555ccb0310a752c","5f60e3c0a3b16e07647b2ff9","5f60eefe9e53210163e483e4","false","null","<span style=""color: red; font-size: 48px"">Error!</span>","null","","","","feedback","","","","","","","","","","","","","","","",""
"html-keyboard-response","204","537687","0.0-4.0-1.0-3.22","q5tnqst2l2k813u","prime","5f4e1c1c7555ccb0310a752c","5f60e3c0a3b16e07647b2ff9","5f60eefe9e53210163e483e4","false","null","<div style=""align-items: center; display: flex; color: darkorange; font-size: 90px""><b>ø</b></div>","null","","","","forget_cue","","","","","","","","","","","","","","","",""
"html-keyboard-response","205","538393","0.0-4.0-1.0-0.23","q5tnqst2l2k813u","prime","5f4e1c1c7555ccb0310a752c","5f60e3c0a3b16e07647b2ff9","5f60eefe9e53210163e483e4","false","null","<span style=""color: black; font-size: 48px"">M + N</span>","null","","","","resp_prompt","","","","","","","","","","","","","","","",""
"categorize-image","206","538984","0.0-4.0-1.0-1.23","q5tnqst2l2k813u","prime","5f4e1c1c7555ccb0310a752c","5f60e3c0a3b16e07647b2ff9","5f60eefe9e53210163e483e4","true","584.0600000228733","./Stimuli/SelectedImages/SM/SM200.bmp","83","","","","test","true","M + N","83","switch","SM","SM200.bmp","remember","","72","3","prime1","left","","","",""
"html-keyboard-response","207","540987","0.0-4.0-1.0-3.23","q5tnqst2l2k813u","prime","5f4e1c1c7555ccb0310a752c","5f60e3c0a3b16e07647b2ff9","5f60eefe9e53210163e483e4","false","null","<div style=""align-items: center; display: flex; color: dodgerblue; font-size: 90px""><b>o</b></div>","null","","","","forget_cue","","","","","","","","","","","","","","","",""
"html-keyboard-response","208","541689","0.0-4.0-1.0-0.24","q5tnqst2l2k813u","prime","5f4e1c1c7555ccb0310a752c","5f60e3c0a3b16e07647b2ff9","5f60eefe9e53210163e483e4","false","null","<span style=""color: black; font-size: 48px"">N + M</span>","null","","","","resp_prompt","","","","","","","","","","","","","","","",""
"categorize-image","209","542377","0.0-4.0-1.0-1.24","q5tnqst2l2k813u","prime","5f4e1c1c7555ccb0310a752c","5f60e3c0a3b16e07647b2ff9","5f60eefe9e53210163e483e4","true","681.35499994969","./Stimuli/SelectedImages/LM/LM75.bmp","83","","","","test","false","N + M","76","repetition","LM","LM75.bmp","forget","","73","3","prime1","left","","","",""
"html-keyboard-response","210","542880","0.0-4.0-1.0-2.24-0.24","q5tnqst2l2k813u","prime","5f4e1c1c7555ccb0310a752c","5f60e3c0a3b16e07647b2ff9","5f60eefe9e53210163e483e4","false","null","<span style=""color: red; font-size: 48px"">Error!</span>","null","","","","feedback","","","","","","","","","","","","","","","",""
"html-keyboard-response","211","544882","0.0-4.0-1.0-3.24","q5tnqst2l2k813u","prime","5f4e1c1c7555ccb0310a752c","5f60e3c0a3b16e07647b2ff9","5f60eefe9e53210163e483e4","false","null","<div style=""align-items: center; display: flex; color: darkorange; font-size: 90px""><b>ø</b></div>","null","","","","forget_cue","","","","","","","","","","","","","","","",""
"html-keyboard-response","212","545585","0.0-4.0-1.0-0.25","q5tnqst2l2k813u","prime","5f4e1c1c7555ccb0310a752c","5f60e3c0a3b16e07647b2ff9","5f60eefe9e53210163e483e4","false","null","<span style=""color: black; font-size: 48px"">M + N</span>","null","","","","resp_prompt","","","","","","","","","","","","","","","",""
"categorize-image","213","546348","0.0-4.0-1.0-1.25","q5tnqst2l2k813u","prime","5f4e1c1c7555ccb0310a752c","5f60e3c0a3b16e07647b2ff9","5f60eefe9e53210163e483e4","true","757.7100000344217","./Stimuli/SelectedImages/SN/SN182.bmp","76","","","","test","true","M + N","76","repetition","SN","SN182.bmp","forget","","74","3","prime1","right","","","",""
"html-keyboard-response","214","548355","0.0-4.0-1.0-3.25","q5tnqst2l2k813u","prime","5f4e1c1c7555ccb0310a752c","5f60e3c0a3b16e07647b2ff9","5f60eefe9e53210163e483e4","false","null","<div style=""align-items: center; display: flex; color: darkorange; font-size: 90px""><b>ø</b></div>","null","","","","forget_cue","","","","","","","","","","","","","","","",""
"html-keyboard-response","215","549058","0.0-4.0-1.0-0.26","q5tnqst2l2k813u","prime","5f4e1c1c7555ccb0310a752c","5f60e3c0a3b16e07647b2ff9","5f60eefe9e53210163e483e4","false","null","<span style=""color: black; font-size: 48px"">M + N</span>","null","","","","resp_prompt","","","","","","","","","","","","","","","",""
"categorize-image","216","549888","0.0-4.0-1.0-1.26","q5tnqst2l2k813u","prime","5f4e1c1c7555ccb0310a752c","5f60e3c0a3b16e07647b2ff9","5f60eefe9e53210163e483e4","true","823.7749999971129","./Stimuli/SelectedImages/LN/LN101.bmp","76","","","","test","true","M + N","76","repetition","LN","LN101.bmp","forget","","75","3","prime1","right","","","",""
"html-keyboard-response","217","551894","0.0-4.0-1.0-3.26","q5tnqst2l2k813u","prime","5f4e1c1c7555ccb0310a752c","5f60e3c0a3b16e07647b2ff9","5f60eefe9e53210163e483e4","false","null","<div style=""align-items: center; display: flex; color: darkorange; font-size: 90px""><b>ø</b></div>","null","","","","forget_cue","","","","","","","","","","","","","","","",""
"html-keyboard-response","218","552602","0.0-4.0-1.0-0.27","q5tnqst2l2k813u","prime","5f4e1c1c7555ccb0310a752c","5f60e3c0a3b16e07647b2ff9","5f60eefe9e53210163e483e4","false","null","<span style=""color: black; font-size: 48px"">M + N</span>","null","","","","resp_prompt","","","","","","","","","","","","","","","",""
"categorize-image","219","553269","0.0-4.0-1.0-1.27","q5tnqst2l2k813u","prime","5f4e1c1c7555ccb0310a752c","5f60e3c0a3b16e07647b2ff9","5f60eefe9e53210163e483e4","true","660.3600000380538","./Stimuli/SelectedImages/LM/LM103.bmp","83","","","","test","true","M + N","83","switch","LM","LM103.bmp","remember","","76","3","prime1","left","","","",""
"html-keyboard-response","220","555272","0.0-4.0-1.0-3.27","q5tnqst2l2k813u","prime","5f4e1c1c7555ccb0310a752c","5f60e3c0a3b16e07647b2ff9","5f60eefe9e53210163e483e4","false","null","<div style=""align-items: center; display: flex; color: dodgerblue; font-size: 90px""><b>o</b></div>","null","","","","forget_cue","","","","","","","","","","","","","","","",""
"html-keyboard-response","221","555975","0.0-4.0-1.0-0.28","q5tnqst2l2k813u","prime","5f4e1c1c7555ccb0310a752c","5f60e3c0a3b16e07647b2ff9","5f60eefe9e53210163e483e4","false","null","<span style=""color: black; font-size: 48px"">N + M</span>","null","","","","resp_prompt","","","","","","","","","","","","","","","",""
"categorize-image","222","556844","0.0-4.0-1.0-1.28","q5tnqst2l2k813u","prime","5f4e1c1c7555ccb0310a752c","5f60e3c0a3b16e07647b2ff9","5f60eefe9e53210163e483e4","true","861.5799999679439","./Stimuli/SelectedImages/LM/LM167.bmp","83","","","","test","false","N + M","76","switch","LM","LM167.bmp","remember","","77","3","prime1","left","","","",""
"html-keyboard-response","223","557347","0.0-4.0-1.0-2.28-0.28","q5tnqst2l2k813u","prime","5f4e1c1c7555ccb0310a752c","5f60e3c0a3b16e07647b2ff9","5f60eefe9e53210163e483e4","false","null","<span style=""color: red; font-size: 48px"">Error!</span>","null","","","","feedback","","","","","","","","","","","","","","","",""
"html-keyboard-response","224","559351","0.0-4.0-1.0-3.28","q5tnqst2l2k813u","prime","5f4e1c1c7555ccb0310a752c","5f60e3c0a3b16e07647b2ff9","5f60eefe9e53210163e483e4","false","null","<div style=""align-items: center; display: flex; color: dodgerblue; font-size: 90px""><b>o</b></div>","null","","","","forget_cue","","","","","","","","","","","","","","","",""
"html-keyboard-response","225","560054","0.0-4.0-1.0-0.29","q5tnqst2l2k813u","prime","5f4e1c1c7555ccb0310a752c","5f60e3c0a3b16e07647b2ff9","5f60eefe9e53210163e483e4","false","null","<span style=""color: black; font-size: 48px"">M + N</span>","null","","","","resp_prompt","","","","","","","","","","","","","","","",""
"categorize-image","226","560734","0.0-4.0-1.0-1.29","q5tnqst2l2k813u","prime","5f4e1c1c7555ccb0310a752c","5f60e3c0a3b16e07647b2ff9","5f60eefe9e53210163e483e4","true","671.9600000069477","./Stimuli/SelectedImages/SN/SN64.bmp","76","","","","test","true","M + N","76","switch","SN","SN64.bmp","forget","","78","3","prime1","right","","","",""
"html-keyboard-response","227","562743","0.0-4.0-1.0-3.29","q5tnqst2l2k813u","prime","5f4e1c1c7555ccb0310a752c","5f60e3c0a3b16e07647b2ff9","5f60eefe9e53210163e483e4","false","null","<div style=""align-items: center; display: flex; color: darkorange; font-size: 90px""><b>ø</b></div>","null","","","","forget_cue","","","","","","","","","","","","","","","",""
"html-keyboard-response","228","563463","0.0-4.0-1.0-0.30","q5tnqst2l2k813u","prime","5f4e1c1c7555ccb0310a752c","5f60e3c0a3b16e07647b2ff9","5f60eefe9e53210163e483e4","false","null","<span style=""color: black; font-size: 48px"">M + N</span>","null","","","","resp_prompt","","","","","","","","","","","","","","","",""
"categorize-image","229","564792","0.0-4.0-1.0-1.30","q5tnqst2l2k813u","prime","5f4e1c1c7555ccb0310a752c","5f60e3c0a3b16e07647b2ff9","5f60eefe9e53210163e483e4","true","1323.3650000183843","./Stimuli/SelectedImages/LN/LN13.bmp","76","","","","test","true","M + N","76","switch","LN","LN13.bmp","forget","","79","3","prime1","right","","","",""
"html-keyboard-response","230","566797","0.0-4.0-1.0-3.30","q5tnqst2l2k813u","prime","5f4e1c1c7555ccb0310a752c","5f60e3c0a3b16e07647b2ff9","5f60eefe9e53210163e483e4","false","null","<div style=""align-items: center; display: flex; color: darkorange; font-size: 90px""><b>ø</b></div>","null","","","","forget_cue","","","","","","","","","","","","","","","",""
"html-keyboard-response","231","567500","0.0-4.0-1.0-0.31","q5tnqst2l2k813u","prime","5f4e1c1c7555ccb0310a752c","5f60e3c0a3b16e07647b2ff9","5f60eefe9e53210163e483e4","false","null","<span style=""color: black; font-size: 48px"">N + M</span>","null","","","","resp_prompt","","","","","","","","","","","","","","","",""
"categorize-image","232","568322","0.0-4.0-1.0-1.31","q5tnqst2l2k813u","prime","5f4e1c1c7555ccb0310a752c","5f60e3c0a3b16e07647b2ff9","5f60eefe9e53210163e483e4","true","815.5149999656714","./Stimuli/SelectedImages/LN/LN149.bmp","76","","","","test","false","N + M","83","repetition","LN","LN149.bmp","remember","","80","3","prime1","right","","","",""
"html-keyboard-response","233","568825","0.0-4.0-1.0-2.31-0.31","q5tnqst2l2k813u","prime","5f4e1c1c7555ccb0310a752c","5f60e3c0a3b16e07647b2ff9","5f60eefe9e53210163e483e4","false","null","<span style=""color: red; font-size: 48px"">Error!</span>","null","","","","feedback","","","","","","","","","","","","","","","",""
"html-keyboard-response","234","570827","0.0-4.0-1.0-3.31","q5tnqst2l2k813u","prime","5f4e1c1c7555ccb0310a752c","5f60e3c0a3b16e07647b2ff9","5f60eefe9e53210163e483e4","false","null","<div style=""align-items: center; display: flex; color: dodgerblue; font-size: 90px""><b>o</b></div>","null","","","","forget_cue","","","","","","","","","","","","","","","",""
"html-keyboard-response","235","571530","0.0-4.0-1.0-0.32","q5tnqst2l2k813u","prime","5f4e1c1c7555ccb0310a752c","5f60e3c0a3b16e07647b2ff9","5f60eefe9e53210163e483e4","false","null","<span style=""color: black; font-size: 48px"">M + N</span>","null","","","","resp_prompt","","","","","","","","","","","","","","","",""
"categorize-image","236","572212","0.0-4.0-1.0-1.32","q5tnqst2l2k813u","prime","5f4e1c1c7555ccb0310a752c","5f60e3c0a3b16e07647b2ff9","5f60eefe9e53210163e483e4","true","673.575000022538","./Stimuli/SelectedImages/LN/LN111.bmp","83","","","","test","false","M + N","76","switch","LN","LN111.bmp","forget","","81","3","prime1","left","","","",""
"html-keyboard-response","237","572721","0.0-4.0-1.0-2.32-0.32","q5tnqst2l2k813u","prime","5f4e1c1c7555ccb0310a752c","5f60e3c0a3b16e07647b2ff9","5f60eefe9e53210163e483e4","false","null","<span style=""color: red; font-size: 48px"">Error!</span>","null","","","","feedback","","","","","","","","","","","","","","","",""
"html-keyboard-response","238","574723","0.0-4.0-1.0-3.32","q5tnqst2l2k813u","prime","5f4e1c1c7555ccb0310a752c","5f60e3c0a3b16e07647b2ff9","5f60eefe9e53210163e483e4","false","null","<div style=""align-items: center; display: flex; color: darkorange; font-size: 90px""><b>ø</b></div>","null","","","","forget_cue","","","","","","","","","","","","","","","",""
"html-keyboard-response","239","575426","0.0-4.0-1.0-0.33","q5tnqst2l2k813u","prime","5f4e1c1c7555ccb0310a752c","5f60e3c0a3b16e07647b2ff9","5f60eefe9e53210163e483e4","false","null","<span style=""color: black; font-size: 48px"">N + M</span>","null","","","","resp_prompt","","","","","","","","","","","","","","","",""
"categorize-image","240","576089","0.0-4.0-1.0-1.33","q5tnqst2l2k813u","prime","5f4e1c1c7555ccb0310a752c","5f60e3c0a3b16e07647b2ff9","5f60eefe9e53210163e483e4","true","656.7299999878742","./Stimuli/SelectedImages/SM/SM17.bmp","83","","","","test","false","N + M","76","switch","SM","SM17.bmp","remember","","82","3","prime1","left","","","",""
"html-keyboard-response","241","576596","0.0-4.0-1.0-2.33-0.33","q5tnqst2l2k813u","prime","5f4e1c1c7555ccb0310a752c","5f60e3c0a3b16e07647b2ff9","5f60eefe9e53210163e483e4","false","null","<span style=""color: red; font-size: 48px"">Error!</span>","null","","","","feedback","","","","","","","","","","","","","","","",""
"html-keyboard-response","242","578601","0.0-4.0-1.0-3.33","q5tnqst2l2k813u","prime","5f4e1c1c7555ccb0310a752c","5f60e3c0a3b16e07647b2ff9","5f60eefe9e53210163e483e4","false","null","<div style=""align-items: center; display: flex; color: dodgerblue; font-size: 90px""><b>o</b></div>","null","","","","forget_cue","","","","","","","","","","","","","","","",""
"html-keyboard-response","243","579303","0.0-4.0-1.0-0.34","q5tnqst2l2k813u","prime","5f4e1c1c7555ccb0310a752c","5f60e3c0a3b16e07647b2ff9","5f60eefe9e53210163e483e4","false","null","<span style=""color: black; font-size: 48px"">N + M</span>","null","","","","resp_prompt","","","","","","","","","","","","","","","",""
"categorize-image","244","579889","0.0-4.0-1.0-1.34","q5tnqst2l2k813u","prime","5f4e1c1c7555ccb0310a752c","5f60e3c0a3b16e07647b2ff9","5f60eefe9e53210163e483e4","true","578.9199999999255","./Stimuli/SelectedImages/LM/LM150.bmp","83","","","","test","false","N + M","76","repetition","LM","LM150.bmp","remember","","83","3","prime1","left","","","",""
"html-keyboard-response","245","580392","0.0-4.0-1.0-2.34-0.34","q5tnqst2l2k813u","prime","5f4e1c1c7555ccb0310a752c","5f60e3c0a3b16e07647b2ff9","5f60eefe9e53210163e483e4","false","null","<span style=""color: red; font-size: 48px"">Error!</span>","null","","","","feedback","","","","","","","","","","","","","","","",""
"html-keyboard-response","246","582415","0.0-4.0-1.0-3.34","q5tnqst2l2k813u","prime","5f4e1c1c7555ccb0310a752c","5f60e3c0a3b16e07647b2ff9","5f60eefe9e53210163e483e4","false","null","<div style=""align-items: center; display: flex; color: dodgerblue; font-size: 90px""><b>o</b></div>","null","","","","forget_cue","","","","","","","","","","","","","","","",""
"html-keyboard-response","247","583123","0.0-4.0-1.0-0.35","q5tnqst2l2k813u","prime","5f4e1c1c7555ccb0310a752c","5f60e3c0a3b16e07647b2ff9","5f60eefe9e53210163e483e4","false","null","<span style=""color: black; font-size: 48px"">N + M</span>","null","","","","resp_prompt","","","","","","","","","","","","","","","",""
"categorize-image","248","583919","0.0-4.0-1.0-1.35","q5tnqst2l2k813u","prime","5f4e1c1c7555ccb0310a752c","5f60e3c0a3b16e07647b2ff9","5f60eefe9e53210163e483e4","true","790.4700000071898","./Stimuli/SelectedImages/LN/LN42.bmp","76","","","","test","false","N + M","83","switch","LN","LN42.bmp","forget","","84","3","prime1","right","","","",""
"html-keyboard-response","249","584422","0.0-4.0-1.0-2.35-0.35","q5tnqst2l2k813u","prime","5f4e1c1c7555ccb0310a752c","5f60e3c0a3b16e07647b2ff9","5f60eefe9e53210163e483e4","false","null","<span style=""color: red; font-size: 48px"">Error!</span>","null","","","","feedback","","","","","","","","","","","","","","","",""
"html-keyboard-response","250","586426","0.0-4.0-1.0-3.35","q5tnqst2l2k813u","prime","5f4e1c1c7555ccb0310a752c","5f60e3c0a3b16e07647b2ff9","5f60eefe9e53210163e483e4","false","null","<div style=""align-items: center; display: flex; color: darkorange; font-size: 90px""><b>ø</b></div>","null","","","","forget_cue","","","","","","","","","","","","","","","",""
"html-keyboard-response","251","587128","0.0-4.0-1.0-0.36","q5tnqst2l2k813u","prime","5f4e1c1c7555ccb0310a752c","5f60e3c0a3b16e07647b2ff9","5f60eefe9e53210163e483e4","false","null","<span style=""color: black; font-size: 48px"">N + M</span>","null","","","","resp_prompt","","","","","","","","","","","","","","","",""
"categorize-image","252","588070","0.0-4.0-1.0-1.36","q5tnqst2l2k813u","prime","5f4e1c1c7555ccb0310a752c","5f60e3c0a3b16e07647b2ff9","5f60eefe9e53210163e483e4","true","933.2349999458529","./Stimuli/SelectedImages/LM/LM51.bmp","83","","","","test","false","N + M","76","repetition","LM","LM51.bmp","forget","","85","3","prime1","left","","","",""
"html-keyboard-response","253","588573","0.0-4.0-1.0-2.36-0.36","q5tnqst2l2k813u","prime","5f4e1c1c7555ccb0310a752c","5f60e3c0a3b16e07647b2ff9","5f60eefe9e53210163e483e4","false","null","<span style=""color: red; font-size: 48px"">Error!</span>","null","","","","feedback","","","","","","","","","","","","","","","",""
"html-keyboard-response","254","590577","0.0-4.0-1.0-3.36","q5tnqst2l2k813u","prime","5f4e1c1c7555ccb0310a752c","5f60e3c0a3b16e07647b2ff9","5f60eefe9e53210163e483e4","false","null","<div style=""align-items: center; display: flex; color: darkorange; font-size: 90px""><b>ø</b></div>","null","","","","forget_cue","","","","","","","","","","","","","","","",""
