"trial_type","trial_index","time_elapsed","internal_node_id","subject","exp_part","prolific_PID","study_ID","session_ID","use","rt","stimulus","key_press","button_pressed","responses","question_order","trial_part","correct","resp_map","correct_resp","probe_condition","category","image","forget_condition","list","trial_num","block_num","block","response","test_part","n_span","sequence","num_spaces"
"pavlovia","0","9","0.0-0.0","36bdrc9l9hv1bd7","","59ad6f1e09709e00013c2ba5","5f60e3c0a3b16e07647b2ff9","5f64c2c7d07e730272b61651","false","","","","","","","","","","","","","","","","","","","","","","",""
"html-keyboard-response","1","4546","0.0-1.0-0.0-0.0","36bdrc9l9hv1bd7","welcome","59ad6f1e09709e00013c2ba5","5f60e3c0a3b16e07647b2ff9","5f64c2c7d07e730272b61651","false","4532.594999996945","<div align=left>Dear participant, <br> thank you for participating in an online study of the Cognition, Action, and Sustainability Unit of the University of Freiburg! <br> <br>The aim of this study is to examine our ability to remember previously learned information. <br>Our goal is to find out, whether our memory improves, when we only remember information that is relevant to us. <br>The experiment will take about 35 minutes to complete. <br> <br>Please, note that you can only participate in this study if you are using a device with a keyboard (PC, Laptop etc.) <br>and not if you are using a mobile device such as a tablet or smartphone.<br> <br>Press 'SPACE' to proceed to the experiment. </div>","32","","","","","","","","","","","","","","","","","","","",""
"html-keyboard-response","2","242186","0.0-1.0-0.0-1.0","36bdrc9l9hv1bd7","welcome","59ad6f1e09709e00013c2ba5","5f60e3c0a3b16e07647b2ff9","5f64c2c7d07e730272b61651","false","237637.4899999937","<div align=left><strong> Time Course of this experiment: </strong> <br><br> <strong> 1.</strong>  First, please fill in some information regarding your demographic data. <br><br> <strong> 2.</strong>  Next, your task will be to classify everyday objects. <br>In addition, you will be asked to remember certain objects and recall them later. <br>Working on these tasks requires your undivided attention and concentration.<br>It is therefore essential that you eliminate any sources of distraction in your  <br>environment and ensure that you will not be disturbed. <br><br><strong> 3.</strong>  At the end of the experiment, you will be asked to answer a few additional questions. <br> <br><strong> Important:</strong> After finishing the experiment, only close the browser window <br> by clicking on the 'end the experiment'-button when you are asked to do so. <br>Closing the browser window prematurely will make the allocation of your participation credit impossible. <br><br> Press 'SPACE' to start the experiment. </div>","32","","","","","","","","","","","","","","","","","","","",""
"html-button-response","3","245113","0.0-1.0-0.0-2.0","36bdrc9l9hv1bd7","welcome","59ad6f1e09709e00013c2ba5","5f60e3c0a3b16e07647b2ff9","5f64c2c7d07e730272b61651","true","2925.234999973327","<div align=left><strong> Informed consent </strong>  <br>The aim of our research is to better understand human behavior and mental processes. <br>In the following study your behavior (e.g. choices, reaction times) will be studied. <br> <br><strong> Voluntariness and Anonymity </strong> <br>Your participation in this study is  <strong> voluntary</strong>.<br>You may withdraw your consent to participate at any time without providing a reason for doing so and without fear of prejudice. <br><br>As no personal data will be collected, <strong>your data and your person cannot be connected after data collection</strong> – the data-set is anonymous. <br>Respectively, deletion of your data will not be possible after data collection has been completed, as we cannot retrace your data-set.<br>The results and anonymized data collected in this study will be published as a scientific publication. <br>This will happen in an <strong>anonymized format</strong>, so that no data can be traced back to a specific person. <br> <br>The anonymized data of this study will be made available to other researchers and/or in a data archive on the Internet as a means of transparency and to enable subsequent re-use. By doing so, this study follows the recommendations of the Deutsche Forschungsgemeinschaft (DFG, German Research Foundation) and Deutsche Gesellschaft für Psychologie (DGPS, German Psychological Society) regarding quality assurance in research.<br>If you have any questions now or after the experiment, please contact our team (experiments@cs.uni-freiburg.de).<br><br><br>I hereby declare, that I understand the above described conditions of participation and I agree to participate under these conditions. <br><br> </div>","","0","","","","","","","","","","","","","","","","","","",""
"html-keyboard-response","4","390072","0.0-1.0-0.0-3.0","36bdrc9l9hv1bd7","welcome","59ad6f1e09709e00013c2ba5","5f60e3c0a3b16e07647b2ff9","5f64c2c7d07e730272b61651","false","144957.439999911","<div align=left><strong> General information concerning the experiment </strong>  <br> <br>Please follow the instructions:<ol> <li><strong> Do not leave this tab (your browser window) during the experiment and do not reload this tab! </strong>  <br>If you do switch tabs/windows during the experiment (to check your mail or visit another website, for example), <br>the experiment will end automatically and you will <strong>not receive credit</strong> for your participation. <br>Repeated participation or resumption of the experiment is impossible.</li> <br><li>Please close all other programs for the duration of your participation. </li> <br><li>Please mute or turn off your phone and put it out of your reach. </li> <br><li>Please also take off any disturbing accessories (such as wristwatches, bracelets, etc.). </li> <br><li>If you have music playing in the background, please turn it off now. </li> <br></ol>Thank you! <br>Press 'SPACE' to continue. </div>","32","","","","","","","","","","","","","","","","","","","",""
"survey-text","5","392362","0.0-1.0-1.0-0.0","36bdrc9l9hv1bd7","demographics","59ad6f1e09709e00013c2ba5","5f60e3c0a3b16e07647b2ff9","5f64c2c7d07e730272b61651","true","2285.4349999688566","","","","{""age"":""28""}","","","","","","","","","","","","","","","","","",""
"survey-multi-choice","6","409785","0.0-1.0-1.0-1.0","36bdrc9l9hv1bd7","demographics","59ad6f1e09709e00013c2ba5","5f60e3c0a3b16e07647b2ff9","5f64c2c7d07e730272b61651","true","17420.27500004042","","","","{""gender"":""female"",""school"":""others"",""education"":""Completed university degree or equivalent""}","[0,1,2]","","","","","","","","","","","","","","","","",""
"html-keyboard-response","7","417077","0.0-1.0-2.0","36bdrc9l9hv1bd7","instructions","59ad6f1e09709e00013c2ba5","5f60e3c0a3b16e07647b2ff9","5f64c2c7d07e730272b61651","false","7285.659999935888","<div align=left> The experiment is now about to start: <br> <br>In the following part, you will be presented pictures of everyday objects. <br>Your first task is to <strong>classify these objects. </strong> <br> <br> You will classify them either as mechanical or non-mechanical objects. <br> <br>Objects that include any kind of technical mechanism (for example, wheels, switches, levers, <br> electronic components) fall under the category of <strong>mechanical</strong> objects. <br>Only objects without any kind of technical mechanism should be classified as <strong>non-mechanical</strong>. <br><br>Press 'SPACE' to continue. </div>","32","","","","","","","","","","","","","","","","","","","",""
"html-keyboard-response","8","574864","0.0-2.0-0.0","36bdrc9l9hv1bd7","instructions","59ad6f1e09709e00013c2ba5","5f60e3c0a3b16e07647b2ff9","5f64c2c7d07e730272b61651","false","157786.54499992263","<div align=justify>You will classify the objects using the <strong>'S'</strong> and the <strong>'L'</strong> keys on your keyboard.<br>For doing so, please place your <strong>left index finger</strong> on the <strong>'S'</strong> key and place your <strong>right index finger</strong> on the <strong>'L'</strong> key. <br><br> Each trial starts with an instruction, indicating which key ('S'/'L') you need to press to classify <br>the object as mechanical (letter M) or non-mechanical (letter N).<br>The instruction <strong>M + N</strong> indicates that, in the current trial, by pressing the left key ('S') you classify the displayed object as mechanical (M) <br> and by pressing the right key ('L') you classify the object as non-mechanical (N). <br>The instruction <strong>N + M</strong> on the other hand indicates that by pressing the left key ('S') you classify the displayed object as non-mechanical (N) <br> and by pressing the right key ('L') you classify the object as mechanical (M). <br><br>Please press the key corresponding to the correct classification as fast as possible as soon as the object is displayed and try to avoid making mistakes.<br>If you do not respond within a 2 second window, a corresponding feedback will be displayed and the next trial will start.<br> The experiment is divided into multiple blocks to give you the opportunity to take a break after each block. <br>First, you can now practice this task. <br><br>Please place your <strong>LEFT INDEX FINGER</strong> on the 'S' key and your <strong>RIGHT INDEX FINGER</strong> on the 'L' key now. <br><br>Press SPACE to continue.</div>","32","","","","","","","","","","","","","","","","","","","",""
"html-keyboard-response","9","578312","0.0-2.0-1.0","36bdrc9l9hv1bd7","instructions","59ad6f1e09709e00013c2ba5","5f60e3c0a3b16e07647b2ff9","5f64c2c7d07e730272b61651","false","3446.860000025481","<div align=left> You will now have time to practice this task.<br><br>Remember: <br> <br><li>Please place your index fingers on the <strong>'S'</strong> and <strong>'L'</strong> keys <br>to respond as fast and accurately as possible.</li><li>Every picture can be classified as either mechanical or non-mechanical.</li><li>If you do not respond in time or commit an error, you will receive a corresponding feedback. </li><li> Please try to respond as <strong> fast </strong> and as <strong> accurately as possible </strong> .<br><li>To ensure optimal results, please minimize distractions and stay focused. </li><br><br>Press SPACE to continue.</div>","32","","","","","","","","","","","","","","","","","","","",""
"html-keyboard-response","10","579015","0.0-2.0-2.0-0.0","36bdrc9l9hv1bd7","practice_no_cue","59ad6f1e09709e00013c2ba5","5f60e3c0a3b16e07647b2ff9","5f64c2c7d07e730272b61651","false","null","<span style=""color: black; font-size: 48px"">M + N</span>","null","","","","resp_prompt","","","","","","","","","","","","","","","",""
"categorize-image","11","580014","0.0-2.0-2.0-1.0","36bdrc9l9hv1bd7","practice_no_cue","59ad6f1e09709e00013c2ba5","5f60e3c0a3b16e07647b2ff9","5f64c2c7d07e730272b61651","true","495.5850000260398","./Stimuli/ImagesPractice/SN205.jpg","83","","","","test","false","M + N","76","","SN","SN205.jpg","remember","old","1","1","start","left","","","",""
"html-keyboard-response","12","580716","0.0-2.0-2.0-0.1","36bdrc9l9hv1bd7","practice_no_cue","59ad6f1e09709e00013c2ba5","5f60e3c0a3b16e07647b2ff9","5f64c2c7d07e730272b61651","false","null","<span style=""color: black; font-size: 48px"">N + M</span>","null","","","","resp_prompt","","","","","","","","","","","","","","","",""
"categorize-image","13","583014","0.0-2.0-2.0-1.1","36bdrc9l9hv1bd7","practice_no_cue","59ad6f1e09709e00013c2ba5","5f60e3c0a3b16e07647b2ff9","5f64c2c7d07e730272b61651","true","1795.3650000272319","./Stimuli/ImagesPractice/LN4.jpg","83","","","","test","true","N + M","83","","LN","LN4.jpg","remember","old","2","1","start","left","","","",""
"html-keyboard-response","14","583716","0.0-2.0-2.0-0.2","36bdrc9l9hv1bd7","practice_no_cue","59ad6f1e09709e00013c2ba5","5f60e3c0a3b16e07647b2ff9","5f64c2c7d07e730272b61651","false","null","<span style=""color: black; font-size: 48px"">N + M</span>","null","","","","resp_prompt","","","","","","","","","","","","","","","",""
"categorize-image","15","585447","0.0-2.0-2.0-1.2","36bdrc9l9hv1bd7","practice_no_cue","59ad6f1e09709e00013c2ba5","5f60e3c0a3b16e07647b2ff9","5f64c2c7d07e730272b61651","true","1229.799999971874","./Stimuli/ImagesPractice/SM97.jpg","83","","","","test","false","N + M","76","","SM","SM97.jpg","forget","old","3","1","start","left","","","",""
"html-keyboard-response","16","586149","0.0-2.0-2.0-0.3","36bdrc9l9hv1bd7","practice_no_cue","59ad6f1e09709e00013c2ba5","5f60e3c0a3b16e07647b2ff9","5f64c2c7d07e730272b61651","false","null","<span style=""color: black; font-size: 48px"">M + N</span>","null","","","","resp_prompt","","","","","","","","","","","","","","","",""
"categorize-image","17","587846","0.0-2.0-2.0-1.3","36bdrc9l9hv1bd7","practice_no_cue","59ad6f1e09709e00013c2ba5","5f60e3c0a3b16e07647b2ff9","5f64c2c7d07e730272b61651","true","1194.0600000089034","./Stimuli/ImagesPractice/SN76.jpg","76","","","","test","true","M + N","76","","SN","SN76.jpg","forget","old","4","1","start","right","","","",""
"html-keyboard-response","18","588547","0.0-2.0-2.0-0.4","36bdrc9l9hv1bd7","practice_no_cue","59ad6f1e09709e00013c2ba5","5f60e3c0a3b16e07647b2ff9","5f64c2c7d07e730272b61651","false","null","<span style=""color: black; font-size: 48px"">N + M</span>","null","","","","resp_prompt","","","","","","","","","","","","","","","",""
"categorize-image","19","589925","0.0-2.0-2.0-1.4","36bdrc9l9hv1bd7","practice_no_cue","59ad6f1e09709e00013c2ba5","5f60e3c0a3b16e07647b2ff9","5f64c2c7d07e730272b61651","true","875.7350000087172","./Stimuli/ImagesPractice/SM98.jpg","76","","","","test","true","N + M","76","","SM","SM98.jpg","forget","old","5","1","start","right","","","",""
"html-keyboard-response","20","590627","0.0-2.0-2.0-0.5","36bdrc9l9hv1bd7","practice_no_cue","59ad6f1e09709e00013c2ba5","5f60e3c0a3b16e07647b2ff9","5f64c2c7d07e730272b61651","false","null","<span style=""color: black; font-size: 48px"">N + M</span>","null","","","","resp_prompt","","","","","","","","","","","","","","","",""
"categorize-image","21","591967","0.0-2.0-2.0-1.5","36bdrc9l9hv1bd7","practice_no_cue","59ad6f1e09709e00013c2ba5","5f60e3c0a3b16e07647b2ff9","5f64c2c7d07e730272b61651","true","836.2650000490248","./Stimuli/ImagesPractice/LM224.jpg","83","","","","test","false","N + M","76","","LM","LM224.jpg","remember","old","6","1","start","left","","","",""
"html-keyboard-response","22","592670","0.0-2.0-2.0-0.6","36bdrc9l9hv1bd7","practice_no_cue","59ad6f1e09709e00013c2ba5","5f60e3c0a3b16e07647b2ff9","5f64c2c7d07e730272b61651","false","null","<span style=""color: black; font-size: 48px"">M + N</span>","null","","","","resp_prompt","","","","","","","","","","","","","","","",""
"categorize-image","23","594102","0.0-2.0-2.0-1.6","36bdrc9l9hv1bd7","practice_no_cue","59ad6f1e09709e00013c2ba5","5f60e3c0a3b16e07647b2ff9","5f64c2c7d07e730272b61651","true","930.6949999881908","./Stimuli/ImagesPractice/LN109.jpg","83","","","","test","false","M + N","76","","LN","LN109.jpg","remember","old","7","1","start","left","","","",""
"html-keyboard-response","24","594804","0.0-2.0-2.0-0.7","36bdrc9l9hv1bd7","practice_no_cue","59ad6f1e09709e00013c2ba5","5f60e3c0a3b16e07647b2ff9","5f64c2c7d07e730272b61651","false","null","<span style=""color: black; font-size: 48px"">M + N</span>","null","","","","resp_prompt","","","","","","","","","","","","","","","",""
"categorize-image","25","596200","0.0-2.0-2.0-1.7","36bdrc9l9hv1bd7","practice_no_cue","59ad6f1e09709e00013c2ba5","5f60e3c0a3b16e07647b2ff9","5f64c2c7d07e730272b61651","true","893.7349999323487","./Stimuli/ImagesPractice/LN17.jpg","76","","","","test","true","M + N","76","","LN","LN17.jpg","forget","old","8","1","start","right","","","",""
"html-keyboard-response","26","596902","0.0-2.0-2.0-0.8","36bdrc9l9hv1bd7","practice_no_cue","59ad6f1e09709e00013c2ba5","5f60e3c0a3b16e07647b2ff9","5f64c2c7d07e730272b61651","false","null","<span style=""color: black; font-size: 48px"">M + N</span>","null","","","","resp_prompt","","","","","","","","","","","","","","","",""
"categorize-image","27","598029","0.0-2.0-2.0-1.8","36bdrc9l9hv1bd7","practice_no_cue","59ad6f1e09709e00013c2ba5","5f60e3c0a3b16e07647b2ff9","5f64c2c7d07e730272b61651","true","624.5650000637397","./Stimuli/ImagesPractice/SN221.jpg","76","","","","test","true","M + N","76","","SN","SN221.jpg","remember","old","9","1","start","right","","","",""
"html-keyboard-response","28","598731","0.0-2.0-2.0-0.9","36bdrc9l9hv1bd7","practice_no_cue","59ad6f1e09709e00013c2ba5","5f60e3c0a3b16e07647b2ff9","5f64c2c7d07e730272b61651","false","null","<span style=""color: black; font-size: 48px"">M + N</span>","null","","","","resp_prompt","","","","","","","","","","","","","","","",""
"categorize-image","29","599933","0.0-2.0-2.0-1.9","36bdrc9l9hv1bd7","practice_no_cue","59ad6f1e09709e00013c2ba5","5f60e3c0a3b16e07647b2ff9","5f64c2c7d07e730272b61651","true","700.1799999270588","./Stimuli/ImagesPractice/SM62.jpg","83","","","","test","true","M + N","83","","SM","SM62.jpg","forget","old","10","1","start","left","","","",""
"html-keyboard-response","30","600635","0.0-2.0-2.0-0.10","36bdrc9l9hv1bd7","practice_no_cue","59ad6f1e09709e00013c2ba5","5f60e3c0a3b16e07647b2ff9","5f64c2c7d07e730272b61651","false","null","<span style=""color: black; font-size: 48px"">M + N</span>","null","","","","resp_prompt","","","","","","","","","","","","","","","",""
"categorize-image","31","601749","0.0-2.0-2.0-1.10","36bdrc9l9hv1bd7","practice_no_cue","59ad6f1e09709e00013c2ba5","5f60e3c0a3b16e07647b2ff9","5f64c2c7d07e730272b61651","true","611.6250000195578","./Stimuli/ImagesPractice/SM61.jpg","83","","","","test","true","M + N","83","","SM","SM61.jpg","forget","old","11","1","start","left","","","",""
"html-keyboard-response","32","602450","0.0-2.0-2.0-0.11","36bdrc9l9hv1bd7","practice_no_cue","59ad6f1e09709e00013c2ba5","5f60e3c0a3b16e07647b2ff9","5f64c2c7d07e730272b61651","false","null","<span style=""color: black; font-size: 48px"">N + M</span>","null","","","","resp_prompt","","","","","","","","","","","","","","","",""
"categorize-image","33","604149","0.0-2.0-2.0-1.11","36bdrc9l9hv1bd7","practice_no_cue","59ad6f1e09709e00013c2ba5","5f60e3c0a3b16e07647b2ff9","5f64c2c7d07e730272b61651","true","1196.8849999830127","./Stimuli/ImagesPractice/LM143.jpg","76","","","","test","true","N + M","76","","LM","LM143.jpg","remember","old","12","1","start","right","","","",""
"html-keyboard-response","34","604850","0.0-2.0-2.0-0.12","36bdrc9l9hv1bd7","practice_no_cue","59ad6f1e09709e00013c2ba5","5f60e3c0a3b16e07647b2ff9","5f64c2c7d07e730272b61651","false","null","<span style=""color: black; font-size: 48px"">N + M</span>","null","","","","resp_prompt","","","","","","","","","","","","","","","",""
"categorize-image","35","606022","0.0-2.0-2.0-1.12","36bdrc9l9hv1bd7","practice_no_cue","59ad6f1e09709e00013c2ba5","5f60e3c0a3b16e07647b2ff9","5f64c2c7d07e730272b61651","true","668.4850000310689","./Stimuli/ImagesPractice/LM147.jpg","76","","","","test","true","N + M","76","","LM","LM147.jpg","remember","old","13","1","start","right","","","",""
"html-keyboard-response","36","606723","0.0-2.0-2.0-0.13","36bdrc9l9hv1bd7","practice_no_cue","59ad6f1e09709e00013c2ba5","5f60e3c0a3b16e07647b2ff9","5f64c2c7d07e730272b61651","false","null","<span style=""color: black; font-size: 48px"">N + M</span>","null","","","","resp_prompt","","","","","","","","","","","","","","","",""
"categorize-image","37","607818","0.0-2.0-2.0-1.13","36bdrc9l9hv1bd7","practice_no_cue","59ad6f1e09709e00013c2ba5","5f60e3c0a3b16e07647b2ff9","5f64c2c7d07e730272b61651","true","591.4249999914318","./Stimuli/ImagesPractice/SN220.jpg","83","","","","test","true","N + M","83","","SN","SN220.jpg","forget","old","14","1","start","left","","","",""
"html-keyboard-response","38","608520","0.0-2.0-2.0-0.14","36bdrc9l9hv1bd7","practice_no_cue","59ad6f1e09709e00013c2ba5","5f60e3c0a3b16e07647b2ff9","5f64c2c7d07e730272b61651","false","null","<span style=""color: black; font-size: 48px"">M + N</span>","null","","","","resp_prompt","","","","","","","","","","","","","","","",""
"categorize-image","39","609869","0.0-2.0-2.0-1.14","36bdrc9l9hv1bd7","practice_no_cue","59ad6f1e09709e00013c2ba5","5f60e3c0a3b16e07647b2ff9","5f64c2c7d07e730272b61651","true","846.6599999228492","./Stimuli/ImagesPractice/LM55.jpg","76","","","","test","false","M + N","83","","LM","LM55.jpg","remember","old","15","1","start","right","","","",""
"html-keyboard-response","40","610571","0.0-2.0-2.0-0.15","36bdrc9l9hv1bd7","practice_no_cue","59ad6f1e09709e00013c2ba5","5f60e3c0a3b16e07647b2ff9","5f64c2c7d07e730272b61651","false","null","<span style=""color: black; font-size: 48px"">N + M</span>","null","","","","resp_prompt","","","","","","","","","","","","","","","",""
"categorize-image","41","612181","0.0-2.0-2.0-1.15","36bdrc9l9hv1bd7","practice_no_cue","59ad6f1e09709e00013c2ba5","5f60e3c0a3b16e07647b2ff9","5f64c2c7d07e730272b61651","true","1108.7850000476465","./Stimuli/ImagesPractice/SM35.jpg","76","","","","test","true","N + M","76","","SM","SM35.jpg","forget","old","16","1","start","right","","","",""
"html-keyboard-response","42","615792","0.0-2.0-3.0","36bdrc9l9hv1bd7","break","59ad6f1e09709e00013c2ba5","5f60e3c0a3b16e07647b2ff9","5f64c2c7d07e730272b61651","false","3608.74000005424","<p style='font-size: 32px;'>Break</><br><br><br><br><br><p style='font-size: 24px;'>In the last block, you committed 5 errors and did not respond in time on 0 trials.
</p><p style='font-size: 24px;'>Try to respond as fast and accurately as possible in the next block as well! </p><p style='font-size: 24px;'>Press SPACE to continue.</p>","32","","","","","","","","","","","","","","","","","","","",""
"html-keyboard-response","43","617955","0.0-2.0-4.0","36bdrc9l9hv1bd7","instructions","59ad6f1e09709e00013c2ba5","5f60e3c0a3b16e07647b2ff9","5f64c2c7d07e730272b61651","false","2162.609999999404","<div align=left> Great!<br><br>Are you ready to continue?<br><br>If you want to reread the instructions and redo the practice trials, <br>please press „Z“. <br><br>Press SPACE to CONTINUE with the experiment when you are ready. </div>","32","","","","","","","","","","","","","","","","","","","",""
"html-keyboard-response","44","630123","0.0-3.0-0.0","36bdrc9l9hv1bd7","instructions","59ad6f1e09709e00013c2ba5","5f60e3c0a3b16e07647b2ff9","5f64c2c7d07e730272b61651","false","12166.02999996394","<div align=left>Great!<br> <strong>Attention</strong>! You will now receive a second, additional task! <br><br>To this point it was you <strong>first task</strong> to correctly <strong>classify objects</strong>. <br><br>As mentioned in the beginning, we aim to examine how well humans can remember previously learned information.<br>We would like to find out whether our memory improves if we only remember information that is relevant to us. <br><br>Therefore, your <strong>second task</strong> will be to <strong>remember</strong> the pictures you are to categorize. <br> After the learning phase, there will be a memory test phase, in which you will be asked to indicate whether you have seen a picture before or not. <br>Some, but not all pictures shown in the learning phase will appear in the memory test phase.<br>After classifying a picture, you will be told whether you should remember it for the memory test phase or not. <br>Thus, some pictures can be forgotten, whereas others have to be remembered. <br><br>Note: From now on, feedback will only be displayed if you responded incorrectly or not in time.<br><br>Press SPACE to continue.</div>","32","","","","","","","","","","","","","","","","","","","",""
"html-keyboard-response","45","633096","0.0-3.0-1.0","36bdrc9l9hv1bd7","instructions","59ad6f1e09709e00013c2ba5","5f60e3c0a3b16e07647b2ff9","5f64c2c7d07e730272b61651","false","2972.4750000750646","<div align=left>In the following part, you will thus have to remember only some pictures. <br>Immediately after seeing and classifying the picture, a symbol will be displayed, indicating whether you should remember or forget the previous picture. <br><br>A <span style='color: dodgerblue; font-size: 28px'>O</span> indicates REMEMBER. That means, you have to remember this picture, because it will be tested later. <br><br>A <span style='color: darkorange; font-size:28px'>Ø</span> indicates FORGET. You do not have to remember this picture. <br><br> As you will have to remember a lot of pictures, it will be hard for you to remember all of them. <br>It will put you at an advantage if you instantly forget the pictures you are not asked to remember. <br> This will make it easier for you to remember the pictures that will be tested afterwards. <br><br>Press SPACE to continue.</div>","32","","","","","","","","","","","","","","","","","","","",""
"html-keyboard-response","46","634249","0.0-3.0-2.0","36bdrc9l9hv1bd7","instructions","59ad6f1e09709e00013c2ba5","5f60e3c0a3b16e07647b2ff9","5f64c2c7d07e730272b61651","false","1151.5999999828637","<div align=left> Now you have the chance to practice both tasks together.<br><br>Remember: <br> <br><li>Please place your index fingers on the <strong>'S'</strong> and <strong>'L'</strong> keys <br>to respond as fast and accurately as possible.</li><li>Every picture can be classified as either mechanical or non-mechanical.</li><li>If you do not respond in time or commit an error, you will receive a corresponding feedback. <br>Please try to respond as <strong> fast </strong> and as <strong> accurately as possible </strong>.</li><li> Please remember only the to-be-remembered <span style='color: dodgerblue; font-size: 28px'>O</span> pictures. <br></li><li> Please minimize distractions and stay focused. </li><br><br>Press SPACE to START</div>","32","","","","","","","","","","","","","","","","","","","",""
"html-keyboard-response","47","634951","0.0-3.0-3.0-0.0","36bdrc9l9hv1bd7","practice_cue","59ad6f1e09709e00013c2ba5","5f60e3c0a3b16e07647b2ff9","5f64c2c7d07e730272b61651","false","null","<span style=""color: black; font-size: 48px"">N + M</span>","null","","","","resp_prompt","","","","","","","","","","","","","","","",""
"categorize-image","48","635699","0.0-3.0-3.0-1.0","36bdrc9l9hv1bd7","practice_cue","59ad6f1e09709e00013c2ba5","5f60e3c0a3b16e07647b2ff9","5f64c2c7d07e730272b61651","true","743.9250000752509","./Stimuli/ImagesPractice/LM143.jpg","76","","","","test","true","N + M","76","","LM","LM143.jpg","remember","old","17","2","practice_forget","right","","","",""
"html-keyboard-response","49","637701","0.0-3.0-3.0-3.0","36bdrc9l9hv1bd7","practice_cue","59ad6f1e09709e00013c2ba5","5f60e3c0a3b16e07647b2ff9","5f64c2c7d07e730272b61651","false","null","<div style=""align-items: center; display: flex; color: dodgerblue; font-size: 90px""><b>o</b></div>","null","","","","forget_cue","","","","","","","","","","","","","","","",""
"html-keyboard-response","50","638404","0.0-3.0-3.0-0.1","36bdrc9l9hv1bd7","practice_cue","59ad6f1e09709e00013c2ba5","5f60e3c0a3b16e07647b2ff9","5f64c2c7d07e730272b61651","false","null","<span style=""color: black; font-size: 48px"">N + M</span>","null","","","","resp_prompt","","","","","","","","","","","","","","","",""
"categorize-image","51","639139","0.0-3.0-3.0-1.1","36bdrc9l9hv1bd7","practice_cue","59ad6f1e09709e00013c2ba5","5f60e3c0a3b16e07647b2ff9","5f64c2c7d07e730272b61651","true","731.7549999570474","./Stimuli/ImagesPractice/SM98.jpg","76","","","","test","true","N + M","76","","SM","SM98.jpg","forget","old","18","2","practice_forget","right","","","",""
"html-keyboard-response","52","641141","0.0-3.0-3.0-3.1","36bdrc9l9hv1bd7","practice_cue","59ad6f1e09709e00013c2ba5","5f60e3c0a3b16e07647b2ff9","5f64c2c7d07e730272b61651","false","null","<div style=""align-items: center; display: flex; color: darkorange; font-size: 90px""><b>ø</b></div>","null","","","","forget_cue","","","","","","","","","","","","","","","",""
"html-keyboard-response","53","641843","0.0-3.0-3.0-0.2","36bdrc9l9hv1bd7","practice_cue","59ad6f1e09709e00013c2ba5","5f60e3c0a3b16e07647b2ff9","5f64c2c7d07e730272b61651","false","null","<span style=""color: black; font-size: 48px"">N + M</span>","null","","","","resp_prompt","","","","","","","","","","","","","","","",""
"categorize-image","54","642566","0.0-3.0-3.0-1.2","36bdrc9l9hv1bd7","practice_cue","59ad6f1e09709e00013c2ba5","5f60e3c0a3b16e07647b2ff9","5f64c2c7d07e730272b61651","true","720.4149999888614","./Stimuli/ImagesPractice/LM224.jpg","76","","","","test","true","N + M","76","","LM","LM224.jpg","remember","old","19","2","practice_forget","right","","","",""
"html-keyboard-response","55","644569","0.0-3.0-3.0-3.2","36bdrc9l9hv1bd7","practice_cue","59ad6f1e09709e00013c2ba5","5f60e3c0a3b16e07647b2ff9","5f64c2c7d07e730272b61651","false","null","<div style=""align-items: center; display: flex; color: dodgerblue; font-size: 90px""><b>o</b></div>","null","","","","forget_cue","","","","","","","","","","","","","","","",""
"html-keyboard-response","56","645271","0.0-3.0-3.0-0.3","36bdrc9l9hv1bd7","practice_cue","59ad6f1e09709e00013c2ba5","5f60e3c0a3b16e07647b2ff9","5f64c2c7d07e730272b61651","false","null","<span style=""color: black; font-size: 48px"">M + N</span>","null","","","","resp_prompt","","","","","","","","","","","","","","","",""
"categorize-image","57","645956","0.0-3.0-3.0-1.3","36bdrc9l9hv1bd7","practice_cue","59ad6f1e09709e00013c2ba5","5f60e3c0a3b16e07647b2ff9","5f64c2c7d07e730272b61651","true","680.919999955222","./Stimuli/ImagesPractice/LN109.jpg","76","","","","test","true","M + N","76","","LN","LN109.jpg","remember","old","20","2","practice_forget","right","","","",""
"html-keyboard-response","58","647958","0.0-3.0-3.0-3.3","36bdrc9l9hv1bd7","practice_cue","59ad6f1e09709e00013c2ba5","5f60e3c0a3b16e07647b2ff9","5f64c2c7d07e730272b61651","false","null","<div style=""align-items: center; display: flex; color: dodgerblue; font-size: 90px""><b>o</b></div>","null","","","","forget_cue","","","","","","","","","","","","","","","",""
"html-keyboard-response","59","648659","0.0-3.0-3.0-0.4","36bdrc9l9hv1bd7","practice_cue","59ad6f1e09709e00013c2ba5","5f60e3c0a3b16e07647b2ff9","5f64c2c7d07e730272b61651","false","null","<span style=""color: black; font-size: 48px"">M + N</span>","null","","","","resp_prompt","","","","","","","","","","","","","","","",""
"categorize-image","60","649307","0.0-3.0-3.0-1.4","36bdrc9l9hv1bd7","practice_cue","59ad6f1e09709e00013c2ba5","5f60e3c0a3b16e07647b2ff9","5f64c2c7d07e730272b61651","true","643.8949999865144","./Stimuli/ImagesPractice/SN221.jpg","76","","","","test","true","M + N","76","","SN","SN221.jpg","remember","old","21","2","practice_forget","right","","","",""
"html-keyboard-response","61","651308","0.0-3.0-3.0-3.4","36bdrc9l9hv1bd7","practice_cue","59ad6f1e09709e00013c2ba5","5f60e3c0a3b16e07647b2ff9","5f64c2c7d07e730272b61651","false","null","<div style=""align-items: center; display: flex; color: dodgerblue; font-size: 90px""><b>o</b></div>","null","","","","forget_cue","","","","","","","","","","","","","","","",""
"html-keyboard-response","62","652010","0.0-3.0-3.0-0.5","36bdrc9l9hv1bd7","practice_cue","59ad6f1e09709e00013c2ba5","5f60e3c0a3b16e07647b2ff9","5f64c2c7d07e730272b61651","false","null","<span style=""color: black; font-size: 48px"">N + M</span>","null","","","","resp_prompt","","","","","","","","","","","","","","","",""
"categorize-image","63","654018","0.0-3.0-3.0-1.5","36bdrc9l9hv1bd7","practice_cue","59ad6f1e09709e00013c2ba5","5f60e3c0a3b16e07647b2ff9","5f64c2c7d07e730272b61651","true","null","./Stimuli/ImagesPractice/LN4.jpg","null","","","","test","false","N + M","83","","LN","LN4.jpg","remember","old","22","2","practice_forget","too_slow","","","",""
"html-keyboard-response","64","654520","0.0-3.0-3.0-2.5-0.5","36bdrc9l9hv1bd7","practice_cue","59ad6f1e09709e00013c2ba5","5f60e3c0a3b16e07647b2ff9","5f64c2c7d07e730272b61651","false","null","<span style=""color: red; font-size: 48px"">Too slow!</span>","null","","","","feedback","","","","","","","","","","","","","","","",""
"html-keyboard-response","65","656522","0.0-3.0-3.0-3.5","36bdrc9l9hv1bd7","practice_cue","59ad6f1e09709e00013c2ba5","5f60e3c0a3b16e07647b2ff9","5f64c2c7d07e730272b61651","false","null","<div style=""align-items: center; display: flex; color: dodgerblue; font-size: 90px""><b>o</b></div>","null","","","","forget_cue","","","","","","","","","","","","","","","",""
"html-keyboard-response","66","657223","0.0-3.0-3.0-0.6","36bdrc9l9hv1bd7","practice_cue","59ad6f1e09709e00013c2ba5","5f60e3c0a3b16e07647b2ff9","5f64c2c7d07e730272b61651","false","null","<span style=""color: black; font-size: 48px"">M + N</span>","null","","","","resp_prompt","","","","","","","","","","","","","","","",""
"categorize-image","67","657852","0.0-3.0-3.0-1.6","36bdrc9l9hv1bd7","practice_cue","59ad6f1e09709e00013c2ba5","5f60e3c0a3b16e07647b2ff9","5f64c2c7d07e730272b61651","true","625.2150000073016","./Stimuli/ImagesPractice/SM62.jpg","83","","","","test","true","M + N","83","","SM","SM62.jpg","forget","old","23","2","practice_forget","left","","","",""
"html-keyboard-response","68","659854","0.0-3.0-3.0-3.6","36bdrc9l9hv1bd7","practice_cue","59ad6f1e09709e00013c2ba5","5f60e3c0a3b16e07647b2ff9","5f64c2c7d07e730272b61651","false","null","<div style=""align-items: center; display: flex; color: darkorange; font-size: 90px""><b>ø</b></div>","null","","","","forget_cue","","","","","","","","","","","","","","","",""
"html-keyboard-response","69","660555","0.0-3.0-3.0-0.7","36bdrc9l9hv1bd7","practice_cue","59ad6f1e09709e00013c2ba5","5f60e3c0a3b16e07647b2ff9","5f64c2c7d07e730272b61651","false","null","<span style=""color: black; font-size: 48px"">N + M</span>","null","","","","resp_prompt","","","","","","","","","","","","","","","",""
"categorize-image","70","661460","0.0-3.0-3.0-1.7","36bdrc9l9hv1bd7","practice_cue","59ad6f1e09709e00013c2ba5","5f60e3c0a3b16e07647b2ff9","5f64c2c7d07e730272b61651","true","899.8549999669194","./Stimuli/ImagesPractice/SM35.jpg","76","","","","test","true","N + M","76","","SM","SM35.jpg","forget","old","24","2","practice_forget","right","","","",""
"html-keyboard-response","71","663460","0.0-3.0-3.0-3.7","36bdrc9l9hv1bd7","practice_cue","59ad6f1e09709e00013c2ba5","5f60e3c0a3b16e07647b2ff9","5f64c2c7d07e730272b61651","false","null","<div style=""align-items: center; display: flex; color: darkorange; font-size: 90px""><b>ø</b></div>","null","","","","forget_cue","","","","","","","","","","","","","","","",""
"html-keyboard-response","72","664162","0.0-3.0-3.0-0.8","36bdrc9l9hv1bd7","practice_cue","59ad6f1e09709e00013c2ba5","5f60e3c0a3b16e07647b2ff9","5f64c2c7d07e730272b61651","false","null","<span style=""color: black; font-size: 48px"">N + M</span>","null","","","","resp_prompt","","","","","","","","","","","","","","","",""
"categorize-image","73","664901","0.0-3.0-3.0-1.8","36bdrc9l9hv1bd7","practice_cue","59ad6f1e09709e00013c2ba5","5f60e3c0a3b16e07647b2ff9","5f64c2c7d07e730272b61651","true","736.0799999441952","./Stimuli/ImagesPractice/SN220.jpg","83","","","","test","true","N + M","83","","SN","SN220.jpg","forget","old","25","2","practice_forget","left","","","",""
"html-keyboard-response","74","666906","0.0-3.0-3.0-3.8","36bdrc9l9hv1bd7","practice_cue","59ad6f1e09709e00013c2ba5","5f60e3c0a3b16e07647b2ff9","5f64c2c7d07e730272b61651","false","null","<div style=""align-items: center; display: flex; color: darkorange; font-size: 90px""><b>ø</b></div>","null","","","","forget_cue","","","","","","","","","","","","","","","",""
"html-keyboard-response","75","667608","0.0-3.0-3.0-0.9","36bdrc9l9hv1bd7","practice_cue","59ad6f1e09709e00013c2ba5","5f60e3c0a3b16e07647b2ff9","5f64c2c7d07e730272b61651","false","null","<span style=""color: black; font-size: 48px"">M + N</span>","null","","","","resp_prompt","","","","","","","","","","","","","","","",""
"categorize-image","76","668459","0.0-3.0-3.0-1.9","36bdrc9l9hv1bd7","practice_cue","59ad6f1e09709e00013c2ba5","5f60e3c0a3b16e07647b2ff9","5f64c2c7d07e730272b61651","true","847.8199999080971","./Stimuli/ImagesPractice/LN17.jpg","76","","","","test","true","M + N","76","","LN","LN17.jpg","forget","old","26","2","practice_forget","right","","","",""
"html-keyboard-response","77","670461","0.0-3.0-3.0-3.9","36bdrc9l9hv1bd7","practice_cue","59ad6f1e09709e00013c2ba5","5f60e3c0a3b16e07647b2ff9","5f64c2c7d07e730272b61651","false","null","<div style=""align-items: center; display: flex; color: darkorange; font-size: 90px""><b>ø</b></div>","null","","","","forget_cue","","","","","","","","","","","","","","","",""
"html-keyboard-response","78","671164","0.0-3.0-3.0-0.10","36bdrc9l9hv1bd7","practice_cue","59ad6f1e09709e00013c2ba5","5f60e3c0a3b16e07647b2ff9","5f64c2c7d07e730272b61651","false","null","<span style=""color: black; font-size: 48px"">M + N</span>","null","","","","resp_prompt","","","","","","","","","","","","","","","",""
"categorize-image","79","671939","0.0-3.0-3.0-1.10","36bdrc9l9hv1bd7","practice_cue","59ad6f1e09709e00013c2ba5","5f60e3c0a3b16e07647b2ff9","5f64c2c7d07e730272b61651","true","771.3049999438226","./Stimuli/ImagesPractice/LM55.jpg","83","","","","test","true","M + N","83","","LM","LM55.jpg","remember","old","27","2","practice_forget","left","","","",""
"html-keyboard-response","80","673940","0.0-3.0-3.0-3.10","36bdrc9l9hv1bd7","practice_cue","59ad6f1e09709e00013c2ba5","5f60e3c0a3b16e07647b2ff9","5f64c2c7d07e730272b61651","false","null","<div style=""align-items: center; display: flex; color: dodgerblue; font-size: 90px""><b>o</b></div>","null","","","","forget_cue","","","","","","","","","","","","","","","",""
"html-keyboard-response","81","674641","0.0-3.0-3.0-0.11","36bdrc9l9hv1bd7","practice_cue","59ad6f1e09709e00013c2ba5","5f60e3c0a3b16e07647b2ff9","5f64c2c7d07e730272b61651","false","null","<span style=""color: black; font-size: 48px"">M + N</span>","null","","","","resp_prompt","","","","","","","","","","","","","","","",""
"categorize-image","82","675469","0.0-3.0-3.0-1.11","36bdrc9l9hv1bd7","practice_cue","59ad6f1e09709e00013c2ba5","5f60e3c0a3b16e07647b2ff9","5f64c2c7d07e730272b61651","true","824.7600001050159","./Stimuli/ImagesPractice/SN205.jpg","76","","","","test","true","M + N","76","","SN","SN205.jpg","remember","old","28","2","practice_forget","right","","","",""
"html-keyboard-response","83","677471","0.0-3.0-3.0-3.11","36bdrc9l9hv1bd7","practice_cue","59ad6f1e09709e00013c2ba5","5f60e3c0a3b16e07647b2ff9","5f64c2c7d07e730272b61651","false","null","<div style=""align-items: center; display: flex; color: dodgerblue; font-size: 90px""><b>o</b></div>","null","","","","forget_cue","","","","","","","","","","","","","","","",""
"html-keyboard-response","84","678171","0.0-3.0-3.0-0.12","36bdrc9l9hv1bd7","practice_cue","59ad6f1e09709e00013c2ba5","5f60e3c0a3b16e07647b2ff9","5f64c2c7d07e730272b61651","false","null","<span style=""color: black; font-size: 48px"">M + N</span>","null","","","","resp_prompt","","","","","","","","","","","","","","","",""
"categorize-image","85","678866","0.0-3.0-3.0-1.12","36bdrc9l9hv1bd7","practice_cue","59ad6f1e09709e00013c2ba5","5f60e3c0a3b16e07647b2ff9","5f64c2c7d07e730272b61651","true","691.5299999527633","./Stimuli/ImagesPractice/SN76.jpg","76","","","","test","true","M + N","76","","SN","SN76.jpg","forget","old","29","2","practice_forget","right","","","",""
"html-keyboard-response","86","680868","0.0-3.0-3.0-3.12","36bdrc9l9hv1bd7","practice_cue","59ad6f1e09709e00013c2ba5","5f60e3c0a3b16e07647b2ff9","5f64c2c7d07e730272b61651","false","null","<div style=""align-items: center; display: flex; color: darkorange; font-size: 90px""><b>ø</b></div>","null","","","","forget_cue","","","","","","","","","","","","","","","",""
"html-keyboard-response","87","681572","0.0-3.0-3.0-0.13","36bdrc9l9hv1bd7","practice_cue","59ad6f1e09709e00013c2ba5","5f60e3c0a3b16e07647b2ff9","5f64c2c7d07e730272b61651","false","null","<span style=""color: black; font-size: 48px"">N + M</span>","null","","","","resp_prompt","","","","","","","","","","","","","","","",""
"categorize-image","88","682218","0.0-3.0-3.0-1.13","36bdrc9l9hv1bd7","practice_cue","59ad6f1e09709e00013c2ba5","5f60e3c0a3b16e07647b2ff9","5f64c2c7d07e730272b61651","true","643.3999999426305","./Stimuli/ImagesPractice/SM97.jpg","76","","","","test","true","N + M","76","","SM","SM97.jpg","forget","old","30","2","practice_forget","right","","","",""
"html-keyboard-response","89","684219","0.0-3.0-3.0-3.13","36bdrc9l9hv1bd7","practice_cue","59ad6f1e09709e00013c2ba5","5f60e3c0a3b16e07647b2ff9","5f64c2c7d07e730272b61651","false","null","<div style=""align-items: center; display: flex; color: darkorange; font-size: 90px""><b>ø</b></div>","null","","","","forget_cue","","","","","","","","","","","","","","","",""
"html-keyboard-response","90","684921","0.0-3.0-3.0-0.14","36bdrc9l9hv1bd7","practice_cue","59ad6f1e09709e00013c2ba5","5f60e3c0a3b16e07647b2ff9","5f64c2c7d07e730272b61651","false","null","<span style=""color: black; font-size: 48px"">N + M</span>","null","","","","resp_prompt","","","","","","","","","","","","","","","",""
"categorize-image","91","685743","0.0-3.0-3.0-1.14","36bdrc9l9hv1bd7","practice_cue","59ad6f1e09709e00013c2ba5","5f60e3c0a3b16e07647b2ff9","5f64c2c7d07e730272b61651","true","818.1799999438226","./Stimuli/ImagesPractice/LM147.jpg","76","","","","test","true","N + M","76","","LM","LM147.jpg","remember","old","31","2","practice_forget","right","","","",""
"html-keyboard-response","92","687744","0.0-3.0-3.0-3.14","36bdrc9l9hv1bd7","practice_cue","59ad6f1e09709e00013c2ba5","5f60e3c0a3b16e07647b2ff9","5f64c2c7d07e730272b61651","false","null","<div style=""align-items: center; display: flex; color: dodgerblue; font-size: 90px""><b>o</b></div>","null","","","","forget_cue","","","","","","","","","","","","","","","",""
"html-keyboard-response","93","688447","0.0-3.0-3.0-0.15","36bdrc9l9hv1bd7","practice_cue","59ad6f1e09709e00013c2ba5","5f60e3c0a3b16e07647b2ff9","5f64c2c7d07e730272b61651","false","null","<span style=""color: black; font-size: 48px"">M + N</span>","null","","","","resp_prompt","","","","","","","","","","","","","","","",""
"categorize-image","94","689426","0.0-3.0-3.0-1.15","36bdrc9l9hv1bd7","practice_cue","59ad6f1e09709e00013c2ba5","5f60e3c0a3b16e07647b2ff9","5f64c2c7d07e730272b61651","true","975.0800000037998","./Stimuli/ImagesPractice/SM61.jpg","83","","","","test","true","M + N","83","","SM","SM61.jpg","forget","old","32","2","practice_forget","left","","","",""
"html-keyboard-response","95","691428","0.0-3.0-3.0-3.15","36bdrc9l9hv1bd7","practice_cue","59ad6f1e09709e00013c2ba5","5f60e3c0a3b16e07647b2ff9","5f64c2c7d07e730272b61651","false","null","<div style=""align-items: center; display: flex; color: darkorange; font-size: 90px""><b>ø</b></div>","null","","","","forget_cue","","","","","","","","","","","","","","","",""
"html-keyboard-response","96","693984","0.0-3.0-4.0","36bdrc9l9hv1bd7","break","59ad6f1e09709e00013c2ba5","5f60e3c0a3b16e07647b2ff9","5f64c2c7d07e730272b61651","false","2554.8499999567866","<p style='font-size: 32px;'>Break</><br><br><br><br><br><p style='font-size: 24px;'>In the last block, you committed 0 errors and did not respond in time on 1 trials.
</p><p style='font-size: 24px;'>Try to respond as fast and accurately as possible in the next block as well! </p><p style='font-size: 24px;'>Press SPACE to continue.</p>","32","","","","","","","","","","","","","","","","","","","",""
"html-keyboard-response","97","696820","0.0-3.0-5.0","36bdrc9l9hv1bd7","instructions","59ad6f1e09709e00013c2ba5","5f60e3c0a3b16e07647b2ff9","5f64c2c7d07e730272b61651","false","2835.0050000008196","<div align=left> Now, to practice, we kindly ask you to remember as many of the to-be-remembered pictures<br>of the previous learning phase as possible.<br><br>The pictures you were instructed to remember were the pictures followed by a <span style='color: dodgerblue; font-size: 28px'>O</span>.<br><br>In this memory test phase, you will also see some new pictures.<br>It is your task to remember whether you were presented with this specific picture in this study so far or not.<br>If you recognize an object (you have already seen it in this study), it is an OLD object. <br>If you do not recognize an object (you have NOT seen it in this study), it is a NEW object. <br><strong> Attention</strong>: As already mentioned, <span style='color: darkorange; font-size:28px'>Ø</span>-pictures will <strong>never</strong> appear in this memory test (neither as new objects). <br><br>Press SPACE to continue. </div>","32","","","","","","","","","","","","","","","","","","","",""
"html-keyboard-response","98","700472","0.0-3.0-6.0","36bdrc9l9hv1bd7","instructions","59ad6f1e09709e00013c2ba5","5f60e3c0a3b16e07647b2ff9","5f64c2c7d07e730272b61651","false","3650.9499999228865","<div align=left> M and N no longer will appear on the left/right of the fixation cross. <br>Instead there will be a note at the bottom of the left or right side  <br>indicating which key you should press for an old or new object:  <br> <br>Press the <strong>right</strong> key to classify an object as <strong>old</strong> and press the <strong>left</strong>, to classify an object as <strong>new</strong>.<br>Please classify the objects as new/old by again placing your index finger on the 'S' and 'L' keys <br>and press them accordingly.<br><br><strong>Old:</strong> This object has been presented before. <br><strong>New:</strong> This object has <strong>not</strong> been presented.<br><br>Now please put your right and left index fingers on the 'S' and 'L' keys of your keyboard. <br>Please respond as fast and as accurately as possible!<br><br>Press SPACE to continue. </div>","32","","","","","","","","","","","","","","","","","","","",""
"categorize-image","99","703845","0.0-3.0-7.0-0.0","36bdrc9l9hv1bd7","practice_recog","59ad6f1e09709e00013c2ba5","5f60e3c0a3b16e07647b2ff9","5f64c2c7d07e730272b61651","true","2870.369999902323","./Stimuli/ImagesPractice/SN205.jpg","83","","","","test","true","","83","","SN","SN205.jpg","","old","33","3","practice_recog","left","","","",""
"categorize-image","100","705037","0.0-3.0-7.0-0.1","36bdrc9l9hv1bd7","practice_recog","59ad6f1e09709e00013c2ba5","5f60e3c0a3b16e07647b2ff9","5f64c2c7d07e730272b61651","true","689.505000016652","./Stimuli/ImagesPractice/SN222.jpg","76","","","","test","true","","76","","SN","SN222.jpg","","new","34","3","practice_recog","right","","","",""
"categorize-image","101","706165","0.0-3.0-7.0-0.2","36bdrc9l9hv1bd7","practice_recog","59ad6f1e09709e00013c2ba5","5f60e3c0a3b16e07647b2ff9","5f64c2c7d07e730272b61651","true","626.2900000438094","./Stimuli/ImagesPractice/LN72.jpg","76","","","","test","true","","76","","LN","LN72.jpg","","new","35","3","practice_recog","right","","","",""
"categorize-image","102","707344","0.0-3.0-7.0-0.3","36bdrc9l9hv1bd7","practice_recog","59ad6f1e09709e00013c2ba5","5f60e3c0a3b16e07647b2ff9","5f64c2c7d07e730272b61651","true","676.2200000230223","./Stimuli/ImagesPractice/LM147.jpg","83","","","","test","true","","83","","LM","LM147.jpg","","old","36","3","practice_recog","left","","","",""
"categorize-image","103","708430","0.0-3.0-7.0-0.4","36bdrc9l9hv1bd7","practice_recog","59ad6f1e09709e00013c2ba5","5f60e3c0a3b16e07647b2ff9","5f64c2c7d07e730272b61651","true","582.7600000193343","./Stimuli/ImagesPractice/LM55.jpg","83","","","","test","true","","83","","LM","LM55.jpg","","old","37","3","practice_recog","left","","","",""
"categorize-image","104","713893","0.0-3.0-7.0-0.5","36bdrc9l9hv1bd7","practice_recog","59ad6f1e09709e00013c2ba5","5f60e3c0a3b16e07647b2ff9","5f64c2c7d07e730272b61651","true","4960.279999999329","./Stimuli/ImagesPractice/LN109.jpg","83","","","","test","true","","83","","LN","LN109.jpg","","old","38","3","practice_recog","left","","","",""
"categorize-image","105","714966","0.0-3.0-7.0-0.6","36bdrc9l9hv1bd7","practice_recog","59ad6f1e09709e00013c2ba5","5f60e3c0a3b16e07647b2ff9","5f64c2c7d07e730272b61651","true","570.5900000175461","./Stimuli/ImagesPractice/LM224.jpg","83","","","","test","true","","83","","LM","LM224.jpg","","old","39","3","practice_recog","left","","","",""
"categorize-image","106","716029","0.0-3.0-7.0-0.7","36bdrc9l9hv1bd7","practice_recog","59ad6f1e09709e00013c2ba5","5f60e3c0a3b16e07647b2ff9","5f64c2c7d07e730272b61651","true","561.2399999517947","./Stimuli/ImagesPractice/SN75.jpg","76","","","","test","true","","76","","SN","SN75.jpg","","new","40","3","practice_recog","right","","","",""
"categorize-image","107","717085","0.0-3.0-7.0-0.8","36bdrc9l9hv1bd7","practice_recog","59ad6f1e09709e00013c2ba5","5f60e3c0a3b16e07647b2ff9","5f64c2c7d07e730272b61651","true","554.6200000680983","./Stimuli/ImagesPractice/LN2.jpg","76","","","","test","true","","76","","LN","LN2.jpg","","new","41","3","practice_recog","right","","","",""
"categorize-image","108","718168","0.0-3.0-7.0-0.9","36bdrc9l9hv1bd7","practice_recog","59ad6f1e09709e00013c2ba5","5f60e3c0a3b16e07647b2ff9","5f64c2c7d07e730272b61651","true","580.4299999726936","./Stimuli/ImagesPractice/SM37.jpg","76","","","","test","true","","76","","SM","SM37.jpg","","new","42","3","practice_recog","right","","","",""
"categorize-image","109","719253","0.0-3.0-7.0-0.10","36bdrc9l9hv1bd7","practice_recog","59ad6f1e09709e00013c2ba5","5f60e3c0a3b16e07647b2ff9","5f64c2c7d07e730272b61651","true","583.3400000119582","./Stimuli/ImagesPractice/LN15.jpg","76","","","","test","true","","76","","LN","LN15.jpg","","new","43","3","practice_recog","right","","","",""
"categorize-image","110","720310","0.0-3.0-7.0-0.11","36bdrc9l9hv1bd7","practice_recog","59ad6f1e09709e00013c2ba5","5f60e3c0a3b16e07647b2ff9","5f64c2c7d07e730272b61651","true","554.3449999531731","./Stimuli/ImagesPractice/LN4.jpg","83","","","","test","true","","83","","LN","LN4.jpg","","old","44","3","practice_recog","left","","","",""
"categorize-image","111","721709","0.0-3.0-7.0-0.12","36bdrc9l9hv1bd7","practice_recog","59ad6f1e09709e00013c2ba5","5f60e3c0a3b16e07647b2ff9","5f64c2c7d07e730272b61651","true","896.6200000140816","./Stimuli/ImagesPractice/LM239.jpg","76","","","","test","true","","76","","LM","LM239.jpg","","new","45","3","practice_recog","right","","","",""
"categorize-image","112","723632","0.0-3.0-7.0-0.13","36bdrc9l9hv1bd7","practice_recog","59ad6f1e09709e00013c2ba5","5f60e3c0a3b16e07647b2ff9","5f64c2c7d07e730272b61651","true","1417.8700000047684","./Stimuli/ImagesPractice/LM230.jpg","76","","","","test","true","","76","","LM","LM230.jpg","","new","46","3","practice_recog","right","","","",""
"categorize-image","113","724847","0.0-3.0-7.0-0.14","36bdrc9l9hv1bd7","practice_recog","59ad6f1e09709e00013c2ba5","5f60e3c0a3b16e07647b2ff9","5f64c2c7d07e730272b61651","true","698.9250000333413","./Stimuli/ImagesPractice/SN221.jpg","83","","","","test","true","","83","","SN","SN221.jpg","","old","47","3","practice_recog","left","","","",""
"categorize-image","114","726012","0.0-3.0-7.0-0.15","36bdrc9l9hv1bd7","practice_recog","59ad6f1e09709e00013c2ba5","5f60e3c0a3b16e07647b2ff9","5f64c2c7d07e730272b61651","true","661.3849999848753","./Stimuli/ImagesPractice/LM143.jpg","83","","","","test","true","","83","","LM","LM143.jpg","","old","48","3","practice_recog","left","","","",""
"html-keyboard-response","115","728806","0.0-3.0-8.0","36bdrc9l9hv1bd7","instructions","59ad6f1e09709e00013c2ba5","5f60e3c0a3b16e07647b2ff9","5f64c2c7d07e730272b61651","false","2792.2050000634044","<div align=left> Great!<br><br>Are you ready to continue?<br>If you want to reread the instructions and redo the practice trials, please <br>press „Z“.<br><br>You can proceed when you are ready.<br><br>After the presentation of each object, you will receive an instruction whether to <br>remember or to forget the object.<br>We will test your memory of the following pictures only at the very end of <br>the experiment after all learning blocks are completed. <br><br>Press SPACE to CONTINUE when you are ready. </div>","32","","","","","","","","","","","","","","","","","","","",""
"html-keyboard-response","116","732128","0.0-4.0-0.0","36bdrc9l9hv1bd7","instructions","59ad6f1e09709e00013c2ba5","5f60e3c0a3b16e07647b2ff9","5f64c2c7d07e730272b61651","false","3321.4849999640137","<div align=left> The actual experiment is about to start.<br>The practice trials are over!<br><br>Please always respond both fast and accurately!<br><br>Remember: <br> <br><li> Please place your index fingers on the <strong>'S'</strong> and <strong>'L'</strong> keys <br>to respond as fast and accurately as possible.</li><li> Every picture can be classified as either mechanical or non-mechanical.</li><li> If you do not respond in time or commit an error, you will receive a corresponding feedback.<br> Please try to respond as <strong> fast </strong> and as <strong> accurately as possible </strong>.</li><li> Remember the <span style='color: dodgerblue; font-size: 28px'>O</span> pictures. <br></li><li> Please minimize distractions and stay focused. </li><br><br>Press SPACE to START.</div>","32","","","","","","","","","","","","","","","","","","","",""
"html-keyboard-response","117","732830","0.0-4.0-1.0-0.0","36bdrc9l9hv1bd7","prime","59ad6f1e09709e00013c2ba5","5f60e3c0a3b16e07647b2ff9","5f64c2c7d07e730272b61651","false","null","<span style=""color: black; font-size: 48px"">N + M</span>","null","","","","resp_prompt","","","","","","","","","","","","","","","",""
"categorize-image","118","733587","0.0-4.0-1.0-1.0","36bdrc9l9hv1bd7","prime","59ad6f1e09709e00013c2ba5","5f60e3c0a3b16e07647b2ff9","5f64c2c7d07e730272b61651","true","752.0449999719858","./Stimuli/SelectedImages/SM/SM108.bmp","76","","","","test","true","N + M","76","repetition","SM","SM108.bmp","remember","","49","3","prime1","right","","","",""
"html-keyboard-response","119","735588","0.0-4.0-1.0-3.0","36bdrc9l9hv1bd7","prime","59ad6f1e09709e00013c2ba5","5f60e3c0a3b16e07647b2ff9","5f64c2c7d07e730272b61651","false","null","<div style=""align-items: center; display: flex; color: dodgerblue; font-size: 90px""><b>o</b></div>","null","","","","forget_cue","","","","","","","","","","","","","","","",""
"html-keyboard-response","120","736289","0.0-4.0-1.0-0.1","36bdrc9l9hv1bd7","prime","59ad6f1e09709e00013c2ba5","5f60e3c0a3b16e07647b2ff9","5f64c2c7d07e730272b61651","false","null","<span style=""color: black; font-size: 48px"">N + M</span>","null","","","","resp_prompt","","","","","","","","","","","","","","","",""
"categorize-image","121","737323","0.0-4.0-1.0-1.1","36bdrc9l9hv1bd7","prime","59ad6f1e09709e00013c2ba5","5f60e3c0a3b16e07647b2ff9","5f64c2c7d07e730272b61651","true","1029.1000000433996","./Stimuli/SelectedImages/SM/SM76.bmp","76","","","","test","true","N + M","76","repetition","SM","SM76.bmp","forget","","50","3","prime1","right","","","",""
"html-keyboard-response","122","739325","0.0-4.0-1.0-3.1","36bdrc9l9hv1bd7","prime","59ad6f1e09709e00013c2ba5","5f60e3c0a3b16e07647b2ff9","5f64c2c7d07e730272b61651","false","null","<div style=""align-items: center; display: flex; color: darkorange; font-size: 90px""><b>ø</b></div>","null","","","","forget_cue","","","","","","","","","","","","","","","",""
"html-keyboard-response","123","740027","0.0-4.0-1.0-0.2","36bdrc9l9hv1bd7","prime","59ad6f1e09709e00013c2ba5","5f60e3c0a3b16e07647b2ff9","5f64c2c7d07e730272b61651","false","null","<span style=""color: black; font-size: 48px"">N + M</span>","null","","","","resp_prompt","","","","","","","","","","","","","","","",""
"categorize-image","124","740768","0.0-4.0-1.0-1.2","36bdrc9l9hv1bd7","prime","59ad6f1e09709e00013c2ba5","5f60e3c0a3b16e07647b2ff9","5f64c2c7d07e730272b61651","true","737.7400000113994","./Stimuli/SelectedImages/SM/SM17.bmp","76","","","","test","true","N + M","76","repetition","SM","SM17.bmp","remember","","51","3","prime1","right","","","",""
"html-keyboard-response","125","742769","0.0-4.0-1.0-3.2","36bdrc9l9hv1bd7","prime","59ad6f1e09709e00013c2ba5","5f60e3c0a3b16e07647b2ff9","5f64c2c7d07e730272b61651","false","null","<div style=""align-items: center; display: flex; color: dodgerblue; font-size: 90px""><b>o</b></div>","null","","","","forget_cue","","","","","","","","","","","","","","","",""
"html-keyboard-response","126","743470","0.0-4.0-1.0-0.3","36bdrc9l9hv1bd7","prime","59ad6f1e09709e00013c2ba5","5f60e3c0a3b16e07647b2ff9","5f64c2c7d07e730272b61651","false","null","<span style=""color: black; font-size: 48px"">M + N</span>","null","","","","resp_prompt","","","","","","","","","","","","","","","",""
"categorize-image","127","744218","0.0-4.0-1.0-1.3","36bdrc9l9hv1bd7","prime","59ad6f1e09709e00013c2ba5","5f60e3c0a3b16e07647b2ff9","5f64c2c7d07e730272b61651","true","745.1250000158325","./Stimuli/SelectedImages/SN/SN93.bmp","76","","","","test","true","M + N","76","repetition","SN","SN93.bmp","forget","","52","3","prime1","right","","","",""
"html-keyboard-response","128","746220","0.0-4.0-1.0-3.3","36bdrc9l9hv1bd7","prime","59ad6f1e09709e00013c2ba5","5f60e3c0a3b16e07647b2ff9","5f64c2c7d07e730272b61651","false","null","<div style=""align-items: center; display: flex; color: darkorange; font-size: 90px""><b>ø</b></div>","null","","","","forget_cue","","","","","","","","","","","","","","","",""
"html-keyboard-response","129","746921","0.0-4.0-1.0-0.4","36bdrc9l9hv1bd7","prime","59ad6f1e09709e00013c2ba5","5f60e3c0a3b16e07647b2ff9","5f64c2c7d07e730272b61651","false","null","<span style=""color: black; font-size: 48px"">N + M</span>","null","","","","resp_prompt","","","","","","","","","","","","","","","",""
"categorize-image","130","747650","0.0-4.0-1.0-1.4","36bdrc9l9hv1bd7","prime","59ad6f1e09709e00013c2ba5","5f60e3c0a3b16e07647b2ff9","5f64c2c7d07e730272b61651","true","725.730000063777","./Stimuli/SelectedImages/LM/LM157.bmp","76","","","","test","true","N + M","76","switch","LM","LM157.bmp","forget","","53","3","prime1","right","","","",""
"html-keyboard-response","131","749652","0.0-4.0-1.0-3.4","36bdrc9l9hv1bd7","prime","59ad6f1e09709e00013c2ba5","5f60e3c0a3b16e07647b2ff9","5f64c2c7d07e730272b61651","false","null","<div style=""align-items: center; display: flex; color: darkorange; font-size: 90px""><b>ø</b></div>","null","","","","forget_cue","","","","","","","","","","","","","","","",""
"html-keyboard-response","132","750354","0.0-4.0-1.0-0.5","36bdrc9l9hv1bd7","prime","59ad6f1e09709e00013c2ba5","5f60e3c0a3b16e07647b2ff9","5f64c2c7d07e730272b61651","false","null","<span style=""color: black; font-size: 48px"">M + N</span>","null","","","","resp_prompt","","","","","","","","","","","","","","","",""
"categorize-image","133","751329","0.0-4.0-1.0-1.5","36bdrc9l9hv1bd7","prime","59ad6f1e09709e00013c2ba5","5f60e3c0a3b16e07647b2ff9","5f64c2c7d07e730272b61651","true","971.239999984391","./Stimuli/SelectedImages/LN/LN13.bmp","76","","","","test","true","M + N","76","switch","LN","LN13.bmp","remember","","54","3","prime1","right","","","",""
"html-keyboard-response","134","753331","0.0-4.0-1.0-3.5","36bdrc9l9hv1bd7","prime","59ad6f1e09709e00013c2ba5","5f60e3c0a3b16e07647b2ff9","5f64c2c7d07e730272b61651","false","null","<div style=""align-items: center; display: flex; color: dodgerblue; font-size: 90px""><b>o</b></div>","null","","","","forget_cue","","","","","","","","","","","","","","","",""
"html-keyboard-response","135","754032","0.0-4.0-1.0-0.6","36bdrc9l9hv1bd7","prime","59ad6f1e09709e00013c2ba5","5f60e3c0a3b16e07647b2ff9","5f64c2c7d07e730272b61651","false","null","<span style=""color: black; font-size: 48px"">N + M</span>","null","","","","resp_prompt","","","","","","","","","","","","","","","",""
"categorize-image","136","755324","0.0-4.0-1.0-1.6","36bdrc9l9hv1bd7","prime","59ad6f1e09709e00013c2ba5","5f60e3c0a3b16e07647b2ff9","5f64c2c7d07e730272b61651","true","1286.6750000976026","./Stimuli/SelectedImages/LN/LN111.bmp","83","","","","test","true","N + M","83","switch","LN","LN111.bmp","forget","","55","3","prime1","left","","","",""
"html-keyboard-response","137","757326","0.0-4.0-1.0-3.6","36bdrc9l9hv1bd7","prime","59ad6f1e09709e00013c2ba5","5f60e3c0a3b16e07647b2ff9","5f64c2c7d07e730272b61651","false","null","<div style=""align-items: center; display: flex; color: darkorange; font-size: 90px""><b>ø</b></div>","null","","","","forget_cue","","","","","","","","","","","","","","","",""
"html-keyboard-response","138","758028","0.0-4.0-1.0-0.7","36bdrc9l9hv1bd7","prime","59ad6f1e09709e00013c2ba5","5f60e3c0a3b16e07647b2ff9","5f64c2c7d07e730272b61651","false","null","<span style=""color: black; font-size: 48px"">M + N</span>","null","","","","resp_prompt","","","","","","","","","","","","","","","",""
"categorize-image","139","759059","0.0-4.0-1.0-1.7","36bdrc9l9hv1bd7","prime","59ad6f1e09709e00013c2ba5","5f60e3c0a3b16e07647b2ff9","5f64c2c7d07e730272b61651","true","1026.7499999608845","./Stimuli/SelectedImages/SM/SM78.bmp","83","","","","test","true","M + N","83","repetition","SM","SM78.bmp","forget","","56","3","prime1","left","","","",""
"html-keyboard-response","140","761060","0.0-4.0-1.0-3.7","36bdrc9l9hv1bd7","prime","59ad6f1e09709e00013c2ba5","5f60e3c0a3b16e07647b2ff9","5f64c2c7d07e730272b61651","false","null","<div style=""align-items: center; display: flex; color: darkorange; font-size: 90px""><b>ø</b></div>","null","","","","forget_cue","","","","","","","","","","","","","","","",""
"html-keyboard-response","141","761763","0.0-4.0-1.0-0.8","36bdrc9l9hv1bd7","prime","59ad6f1e09709e00013c2ba5","5f60e3c0a3b16e07647b2ff9","5f64c2c7d07e730272b61651","false","null","<span style=""color: black; font-size: 48px"">M + N</span>","null","","","","resp_prompt","","","","","","","","","","","","","","","",""
"categorize-image","142","762964","0.0-4.0-1.0-1.8","36bdrc9l9hv1bd7","prime","59ad6f1e09709e00013c2ba5","5f60e3c0a3b16e07647b2ff9","5f64c2c7d07e730272b61651","true","1198.8699999637902","./Stimuli/SelectedImages/SM/SM128.bmp","83","","","","test","true","M + N","83","switch","SM","SM128.bmp","remember","","57","3","prime1","left","","","",""
"html-keyboard-response","143","764966","0.0-4.0-1.0-3.8","36bdrc9l9hv1bd7","prime","59ad6f1e09709e00013c2ba5","5f60e3c0a3b16e07647b2ff9","5f64c2c7d07e730272b61651","false","null","<div style=""align-items: center; display: flex; color: dodgerblue; font-size: 90px""><b>o</b></div>","null","","","","forget_cue","","","","","","","","","","","","","","","",""
"html-keyboard-response","144","765668","0.0-4.0-1.0-0.9","36bdrc9l9hv1bd7","prime","59ad6f1e09709e00013c2ba5","5f60e3c0a3b16e07647b2ff9","5f64c2c7d07e730272b61651","false","null","<span style=""color: black; font-size: 48px"">N + M</span>","null","","","","resp_prompt","","","","","","","","","","","","","","","",""
"categorize-image","145","766409","0.0-4.0-1.0-1.9","36bdrc9l9hv1bd7","prime","59ad6f1e09709e00013c2ba5","5f60e3c0a3b16e07647b2ff9","5f64c2c7d07e730272b61651","true","738.9199999161065","./Stimuli/SelectedImages/SN/SN128.bmp","76","","","","test","false","N + M","83","switch","SN","SN128.bmp","forget","","58","3","prime1","right","","","",""
"html-keyboard-response","146","766911","0.0-4.0-1.0-2.9-0.9","36bdrc9l9hv1bd7","prime","59ad6f1e09709e00013c2ba5","5f60e3c0a3b16e07647b2ff9","5f64c2c7d07e730272b61651","false","null","<span style=""color: red; font-size: 48px"">Error!</span>","null","","","","feedback","","","","","","","","","","","","","","","",""
"html-keyboard-response","147","768912","0.0-4.0-1.0-3.9","36bdrc9l9hv1bd7","prime","59ad6f1e09709e00013c2ba5","5f60e3c0a3b16e07647b2ff9","5f64c2c7d07e730272b61651","false","null","<div style=""align-items: center; display: flex; color: darkorange; font-size: 90px""><b>ø</b></div>","null","","","","forget_cue","","","","","","","","","","","","","","","",""
"html-keyboard-response","148","769614","0.0-4.0-1.0-0.10","36bdrc9l9hv1bd7","prime","59ad6f1e09709e00013c2ba5","5f60e3c0a3b16e07647b2ff9","5f64c2c7d07e730272b61651","false","null","<span style=""color: black; font-size: 48px"">M + N</span>","null","","","","resp_prompt","","","","","","","","","","","","","","","",""
"categorize-image","149","770802","0.0-4.0-1.0-1.10","36bdrc9l9hv1bd7","prime","59ad6f1e09709e00013c2ba5","5f60e3c0a3b16e07647b2ff9","5f64c2c7d07e730272b61651","true","1185.4399999137968","./Stimuli/SelectedImages/LM/LM58.bmp","83","","","","test","true","M + N","83","switch","LM","LM58.bmp","forget","","59","3","prime1","left","","","",""
"html-keyboard-response","150","772803","0.0-4.0-1.0-3.10","36bdrc9l9hv1bd7","prime","59ad6f1e09709e00013c2ba5","5f60e3c0a3b16e07647b2ff9","5f64c2c7d07e730272b61651","false","null","<div style=""align-items: center; display: flex; color: darkorange; font-size: 90px""><b>ø</b></div>","null","","","","forget_cue","","","","","","","","","","","","","","","",""
"html-keyboard-response","151","773505","0.0-4.0-1.0-0.11","36bdrc9l9hv1bd7","prime","59ad6f1e09709e00013c2ba5","5f60e3c0a3b16e07647b2ff9","5f64c2c7d07e730272b61651","false","null","<span style=""color: black; font-size: 48px"">N + M</span>","null","","","","resp_prompt","","","","","","","","","","","","","","","",""
"categorize-image","152","774488","0.0-4.0-1.0-1.11","36bdrc9l9hv1bd7","prime","59ad6f1e09709e00013c2ba5","5f60e3c0a3b16e07647b2ff9","5f64c2c7d07e730272b61651","true","978.3550000283867","./Stimuli/SelectedImages/SN/SN18.bmp","76","","","","test","false","N + M","83","repetition","SN","SN18.bmp","remember","","60","3","prime1","right","","","",""
"html-keyboard-response","153","774990","0.0-4.0-1.0-2.11-0.11","36bdrc9l9hv1bd7","prime","59ad6f1e09709e00013c2ba5","5f60e3c0a3b16e07647b2ff9","5f64c2c7d07e730272b61651","false","null","<span style=""color: red; font-size: 48px"">Error!</span>","null","","","","feedback","","","","","","","","","","","","","","","",""
"html-keyboard-response","154","776991","0.0-4.0-1.0-3.11","36bdrc9l9hv1bd7","prime","59ad6f1e09709e00013c2ba5","5f60e3c0a3b16e07647b2ff9","5f64c2c7d07e730272b61651","false","null","<div style=""align-items: center; display: flex; color: dodgerblue; font-size: 90px""><b>o</b></div>","null","","","","forget_cue","","","","","","","","","","","","","","","",""
"html-keyboard-response","155","777693","0.0-4.0-1.0-0.12","36bdrc9l9hv1bd7","prime","59ad6f1e09709e00013c2ba5","5f60e3c0a3b16e07647b2ff9","5f64c2c7d07e730272b61651","false","null","<span style=""color: black; font-size: 48px"">M + N</span>","null","","","","resp_prompt","","","","","","","","","","","","","","","",""
"categorize-image","156","778570","0.0-4.0-1.0-1.12","36bdrc9l9hv1bd7","prime","59ad6f1e09709e00013c2ba5","5f60e3c0a3b16e07647b2ff9","5f64c2c7d07e730272b61651","true","874.5849999831989","./Stimuli/SelectedImages/LM/LM103.bmp","83","","","","test","true","M + N","83","switch","LM","LM103.bmp","remember","","61","3","prime1","left","","","",""
"html-keyboard-response","157","780572","0.0-4.0-1.0-3.12","36bdrc9l9hv1bd7","prime","59ad6f1e09709e00013c2ba5","5f60e3c0a3b16e07647b2ff9","5f64c2c7d07e730272b61651","false","null","<div style=""align-items: center; display: flex; color: dodgerblue; font-size: 90px""><b>o</b></div>","null","","","","forget_cue","","","","","","","","","","","","","","","",""
"html-keyboard-response","158","781274","0.0-4.0-1.0-0.13","36bdrc9l9hv1bd7","prime","59ad6f1e09709e00013c2ba5","5f60e3c0a3b16e07647b2ff9","5f64c2c7d07e730272b61651","false","null","<span style=""color: black; font-size: 48px"">M + N</span>","null","","","","resp_prompt","","","","","","","","","","","","","","","",""
"categorize-image","159","782193","0.0-4.0-1.0-1.13","36bdrc9l9hv1bd7","prime","59ad6f1e09709e00013c2ba5","5f60e3c0a3b16e07647b2ff9","5f64c2c7d07e730272b61651","true","916.1549999844283","./Stimuli/SelectedImages/LN/LN101.bmp","76","","","","test","true","M + N","76","repetition","LN","LN101.bmp","forget","","62","3","prime1","right","","","",""
"html-keyboard-response","160","784195","0.0-4.0-1.0-3.13","36bdrc9l9hv1bd7","prime","59ad6f1e09709e00013c2ba5","5f60e3c0a3b16e07647b2ff9","5f64c2c7d07e730272b61651","false","null","<div style=""align-items: center; display: flex; color: darkorange; font-size: 90px""><b>ø</b></div>","null","","","","forget_cue","","","","","","","","","","","","","","","",""
"html-keyboard-response","161","784897","0.0-4.0-1.0-0.14","36bdrc9l9hv1bd7","prime","59ad6f1e09709e00013c2ba5","5f60e3c0a3b16e07647b2ff9","5f64c2c7d07e730272b61651","false","null","<span style=""color: black; font-size: 48px"">N + M</span>","null","","","","resp_prompt","","","","","","","","","","","","","","","",""
"categorize-image","162","785622","0.0-4.0-1.0-1.14","36bdrc9l9hv1bd7","prime","59ad6f1e09709e00013c2ba5","5f60e3c0a3b16e07647b2ff9","5f64c2c7d07e730272b61651","true","722.2949999850243","./Stimuli/SelectedImages/SN/SN187.bmp","83","","","","test","true","N + M","83","switch","SN","SN187.bmp","forget","","63","3","prime1","left","","","",""
"html-keyboard-response","163","787625","0.0-4.0-1.0-3.14","36bdrc9l9hv1bd7","prime","59ad6f1e09709e00013c2ba5","5f60e3c0a3b16e07647b2ff9","5f64c2c7d07e730272b61651","false","null","<div style=""align-items: center; display: flex; color: darkorange; font-size: 90px""><b>ø</b></div>","null","","","","forget_cue","","","","","","","","","","","","","","","",""
"html-keyboard-response","164","788330","0.0-4.0-1.0-0.15","36bdrc9l9hv1bd7","prime","59ad6f1e09709e00013c2ba5","5f60e3c0a3b16e07647b2ff9","5f64c2c7d07e730272b61651","false","null","<span style=""color: black; font-size: 48px"">N + M</span>","null","","","","resp_prompt","","","","","","","","","","","","","","","",""
"categorize-image","165","789364","0.0-4.0-1.0-1.15","36bdrc9l9hv1bd7","prime","59ad6f1e09709e00013c2ba5","5f60e3c0a3b16e07647b2ff9","5f64c2c7d07e730272b61651","true","1019.4800000172108","./Stimuli/SelectedImages/SN/SN64.bmp","83","","","","test","true","N + M","83","switch","SN","SN64.bmp","remember","","64","3","prime1","left","","","",""
"html-keyboard-response","166","791365","0.0-4.0-1.0-3.15","36bdrc9l9hv1bd7","prime","59ad6f1e09709e00013c2ba5","5f60e3c0a3b16e07647b2ff9","5f64c2c7d07e730272b61651","false","null","<div style=""align-items: center; display: flex; color: dodgerblue; font-size: 90px""><b>o</b></div>","null","","","","forget_cue","","","","","","","","","","","","","","","",""
"html-keyboard-response","167","792067","0.0-4.0-1.0-0.16","36bdrc9l9hv1bd7","prime","59ad6f1e09709e00013c2ba5","5f60e3c0a3b16e07647b2ff9","5f64c2c7d07e730272b61651","false","null","<span style=""color: black; font-size: 48px"">M + N</span>","null","","","","resp_prompt","","","","","","","","","","","","","","","",""
"categorize-image","168","792946","0.0-4.0-1.0-1.16","36bdrc9l9hv1bd7","prime","59ad6f1e09709e00013c2ba5","5f60e3c0a3b16e07647b2ff9","5f64c2c7d07e730272b61651","true","875.969999935478","./Stimuli/SelectedImages/SN/SN27.bmp","76","","","","test","true","M + N","76","repetition","SN","SN27.bmp","remember","","65","3","prime1","right","","","",""
"html-keyboard-response","169","794947","0.0-4.0-1.0-3.16","36bdrc9l9hv1bd7","prime","59ad6f1e09709e00013c2ba5","5f60e3c0a3b16e07647b2ff9","5f64c2c7d07e730272b61651","false","null","<div style=""align-items: center; display: flex; color: dodgerblue; font-size: 90px""><b>o</b></div>","null","","","","forget_cue","","","","","","","","","","","","","","","",""
"html-keyboard-response","170","795649","0.0-4.0-1.0-0.17","36bdrc9l9hv1bd7","prime","59ad6f1e09709e00013c2ba5","5f60e3c0a3b16e07647b2ff9","5f64c2c7d07e730272b61651","false","null","<span style=""color: black; font-size: 48px"">N + M</span>","null","","","","resp_prompt","","","","","","","","","","","","","","","",""
"categorize-image","171","796302","0.0-4.0-1.0-1.17","36bdrc9l9hv1bd7","prime","59ad6f1e09709e00013c2ba5","5f60e3c0a3b16e07647b2ff9","5f64c2c7d07e730272b61651","true","649.0599999669939","./Stimuli/SelectedImages/LN/LN149.bmp","83","","","","test","true","N + M","83","switch","LN","LN149.bmp","remember","","66","3","prime1","left","","","",""
"html-keyboard-response","172","798304","0.0-4.0-1.0-3.17","36bdrc9l9hv1bd7","prime","59ad6f1e09709e00013c2ba5","5f60e3c0a3b16e07647b2ff9","5f64c2c7d07e730272b61651","false","null","<div style=""align-items: center; display: flex; color: dodgerblue; font-size: 90px""><b>o</b></div>","null","","","","forget_cue","","","","","","","","","","","","","","","",""
"html-keyboard-response","173","799006","0.0-4.0-1.0-0.18","36bdrc9l9hv1bd7","prime","59ad6f1e09709e00013c2ba5","5f60e3c0a3b16e07647b2ff9","5f64c2c7d07e730272b61651","false","null","<span style=""color: black; font-size: 48px"">M + N</span>","null","","","","resp_prompt","","","","","","","","","","","","","","","",""
"categorize-image","174","799937","0.0-4.0-1.0-1.18","36bdrc9l9hv1bd7","prime","59ad6f1e09709e00013c2ba5","5f60e3c0a3b16e07647b2ff9","5f64c2c7d07e730272b61651","true","928.2599999569356","./Stimuli/SelectedImages/SM/SM207.bmp","83","","","","test","true","M + N","83","switch","SM","SM207.bmp","forget","","67","3","prime1","left","","","",""
"html-keyboard-response","175","801939","0.0-4.0-1.0-3.18","36bdrc9l9hv1bd7","prime","59ad6f1e09709e00013c2ba5","5f60e3c0a3b16e07647b2ff9","5f64c2c7d07e730272b61651","false","null","<div style=""align-items: center; display: flex; color: darkorange; font-size: 90px""><b>ø</b></div>","null","","","","forget_cue","","","","","","","","","","","","","","","",""
"html-keyboard-response","176","802645","0.0-4.0-1.0-0.19","36bdrc9l9hv1bd7","prime","59ad6f1e09709e00013c2ba5","5f60e3c0a3b16e07647b2ff9","5f64c2c7d07e730272b61651","false","null","<span style=""color: black; font-size: 48px"">M + N</span>","null","","","","resp_prompt","","","","","","","","","","","","","","","",""
"categorize-image","177","803658","0.0-4.0-1.0-1.19","36bdrc9l9hv1bd7","prime","59ad6f1e09709e00013c2ba5","5f60e3c0a3b16e07647b2ff9","5f64c2c7d07e730272b61651","true","997.5649999687448","./Stimuli/SelectedImages/SM/SM200.bmp","83","","","","test","true","M + N","83","switch","SM","SM200.bmp","remember","","68","3","prime1","left","","","",""
"html-keyboard-response","178","805661","0.0-4.0-1.0-3.19","36bdrc9l9hv1bd7","prime","59ad6f1e09709e00013c2ba5","5f60e3c0a3b16e07647b2ff9","5f64c2c7d07e730272b61651","false","null","<div style=""align-items: center; display: flex; color: dodgerblue; font-size: 90px""><b>o</b></div>","null","","","","forget_cue","","","","","","","","","","","","","","","",""
"html-keyboard-response","179","806364","0.0-4.0-1.0-0.20","36bdrc9l9hv1bd7","prime","59ad6f1e09709e00013c2ba5","5f60e3c0a3b16e07647b2ff9","5f64c2c7d07e730272b61651","false","null","<span style=""color: black; font-size: 48px"">M + N</span>","null","","","","resp_prompt","","","","","","","","","","","","","","","",""
"categorize-image","180","808246","0.0-4.0-1.0-1.20","36bdrc9l9hv1bd7","prime","59ad6f1e09709e00013c2ba5","5f60e3c0a3b16e07647b2ff9","5f64c2c7d07e730272b61651","true","1878.6800000816584","./Stimuli/SelectedImages/LM/LM48.bmp","83","","","","test","true","M + N","83","repetition","LM","LM48.bmp","forget","","69","3","prime1","left","","","",""
"html-keyboard-response","181","810250","0.0-4.0-1.0-3.20","36bdrc9l9hv1bd7","prime","59ad6f1e09709e00013c2ba5","5f60e3c0a3b16e07647b2ff9","5f64c2c7d07e730272b61651","false","null","<div style=""align-items: center; display: flex; color: darkorange; font-size: 90px""><b>ø</b></div>","null","","","","forget_cue","","","","","","","","","","","","","","","",""
"html-keyboard-response","182","810952","0.0-4.0-1.0-0.21","36bdrc9l9hv1bd7","prime","59ad6f1e09709e00013c2ba5","5f60e3c0a3b16e07647b2ff9","5f64c2c7d07e730272b61651","false","null","<span style=""color: black; font-size: 48px"">N + M</span>","null","","","","resp_prompt","","","","","","","","","","","","","","","",""
"categorize-image","183","811626","0.0-4.0-1.0-1.21","36bdrc9l9hv1bd7","prime","59ad6f1e09709e00013c2ba5","5f60e3c0a3b16e07647b2ff9","5f64c2c7d07e730272b61651","true","671.1049999576062","./Stimuli/SelectedImages/SM/SM106.bmp","76","","","","test","true","N + M","76","switch","SM","SM106.bmp","remember","","70","3","prime1","right","","","",""
"html-keyboard-response","184","813628","0.0-4.0-1.0-3.21","36bdrc9l9hv1bd7","prime","59ad6f1e09709e00013c2ba5","5f60e3c0a3b16e07647b2ff9","5f64c2c7d07e730272b61651","false","null","<div style=""align-items: center; display: flex; color: dodgerblue; font-size: 90px""><b>o</b></div>","null","","","","forget_cue","","","","","","","","","","","","","","","",""
"html-keyboard-response","185","814330","0.0-4.0-1.0-0.22","36bdrc9l9hv1bd7","prime","59ad6f1e09709e00013c2ba5","5f60e3c0a3b16e07647b2ff9","5f64c2c7d07e730272b61651","false","null","<span style=""color: black; font-size: 48px"">N + M</span>","null","","","","resp_prompt","","","","","","","","","","","","","","","",""
"categorize-image","186","815290","0.0-4.0-1.0-1.22","36bdrc9l9hv1bd7","prime","59ad6f1e09709e00013c2ba5","5f60e3c0a3b16e07647b2ff9","5f64c2c7d07e730272b61651","true","956.9749999791384","./Stimuli/SelectedImages/SN/SN140.bmp","83","","","","test","true","N + M","83","switch","SN","SN140.bmp","remember","","71","3","prime1","left","","","",""
"html-keyboard-response","187","817291","0.0-4.0-1.0-3.22","36bdrc9l9hv1bd7","prime","59ad6f1e09709e00013c2ba5","5f60e3c0a3b16e07647b2ff9","5f64c2c7d07e730272b61651","false","null","<div style=""align-items: center; display: flex; color: dodgerblue; font-size: 90px""><b>o</b></div>","null","","","","forget_cue","","","","","","","","","","","","","","","",""
"html-keyboard-response","188","817992","0.0-4.0-1.0-0.23","36bdrc9l9hv1bd7","prime","59ad6f1e09709e00013c2ba5","5f60e3c0a3b16e07647b2ff9","5f64c2c7d07e730272b61651","false","null","<span style=""color: black; font-size: 48px"">N + M</span>","null","","","","resp_prompt","","","","","","","","","","","","","","","",""
"categorize-image","189","818902","0.0-4.0-1.0-1.23","36bdrc9l9hv1bd7","prime","59ad6f1e09709e00013c2ba5","5f60e3c0a3b16e07647b2ff9","5f64c2c7d07e730272b61651","true","905.6600000476465","./Stimuli/SelectedImages/LM/LM57.bmp","76","","","","test","true","N + M","76","repetition","LM","LM57.bmp","forget","","72","3","prime1","right","","","",""
"html-keyboard-response","190","820904","0.0-4.0-1.0-3.23","36bdrc9l9hv1bd7","prime","59ad6f1e09709e00013c2ba5","5f60e3c0a3b16e07647b2ff9","5f64c2c7d07e730272b61651","false","null","<div style=""align-items: center; display: flex; color: darkorange; font-size: 90px""><b>ø</b></div>","null","","","","forget_cue","","","","","","","","","","","","","","","",""
"html-keyboard-response","191","821606","0.0-4.0-1.0-0.24","36bdrc9l9hv1bd7","prime","59ad6f1e09709e00013c2ba5","5f60e3c0a3b16e07647b2ff9","5f64c2c7d07e730272b61651","false","null","<span style=""color: black; font-size: 48px"">M + N</span>","null","","","","resp_prompt","","","","","","","","","","","","","","","",""
"categorize-image","192","822475","0.0-4.0-1.0-1.24","36bdrc9l9hv1bd7","prime","59ad6f1e09709e00013c2ba5","5f60e3c0a3b16e07647b2ff9","5f64c2c7d07e730272b61651","true","865.3700000140816","./Stimuli/SelectedImages/LN/LN42.bmp","76","","","","test","true","M + N","76","switch","LN","LN42.bmp","forget","","73","3","prime1","right","","","",""
"html-keyboard-response","193","824475","0.0-4.0-1.0-3.24","36bdrc9l9hv1bd7","prime","59ad6f1e09709e00013c2ba5","5f60e3c0a3b16e07647b2ff9","5f64c2c7d07e730272b61651","false","null","<div style=""align-items: center; display: flex; color: darkorange; font-size: 90px""><b>ø</b></div>","null","","","","forget_cue","","","","","","","","","","","","","","","",""
"html-keyboard-response","194","825177","0.0-4.0-1.0-0.25","36bdrc9l9hv1bd7","prime","59ad6f1e09709e00013c2ba5","5f60e3c0a3b16e07647b2ff9","5f64c2c7d07e730272b61651","false","null","<span style=""color: black; font-size: 48px"">N + M</span>","null","","","","resp_prompt","","","","","","","","","","","","","","","",""
"categorize-image","195","825921","0.0-4.0-1.0-1.25","36bdrc9l9hv1bd7","prime","59ad6f1e09709e00013c2ba5","5f60e3c0a3b16e07647b2ff9","5f64c2c7d07e730272b61651","true","741.8049999978393","./Stimuli/SelectedImages/LN/LN166.bmp","83","","","","test","true","N + M","83","repetition","LN","LN166.bmp","forget","","74","3","prime1","left","","","",""
"html-keyboard-response","196","827931","0.0-4.0-1.0-3.25","36bdrc9l9hv1bd7","prime","59ad6f1e09709e00013c2ba5","5f60e3c0a3b16e07647b2ff9","5f64c2c7d07e730272b61651","false","null","<div style=""align-items: center; display: flex; color: darkorange; font-size: 90px""><b>ø</b></div>","null","","","","forget_cue","","","","","","","","","","","","","","","",""
"html-keyboard-response","197","828638","0.0-4.0-1.0-0.26","36bdrc9l9hv1bd7","prime","59ad6f1e09709e00013c2ba5","5f60e3c0a3b16e07647b2ff9","5f64c2c7d07e730272b61651","false","null","<span style=""color: black; font-size: 48px"">M + N</span>","null","","","","resp_prompt","","","","","","","","","","","","","","","",""
"categorize-image","198","829549","0.0-4.0-1.0-1.26","36bdrc9l9hv1bd7","prime","59ad6f1e09709e00013c2ba5","5f60e3c0a3b16e07647b2ff9","5f64c2c7d07e730272b61651","true","895.50500002224","./Stimuli/SelectedImages/LM/LM129.bmp","83","","","","test","true","M + N","83","repetition","LM","LM129.bmp","forget","","75","3","prime1","left","","","",""
"html-keyboard-response","199","831552","0.0-4.0-1.0-3.26","36bdrc9l9hv1bd7","prime","59ad6f1e09709e00013c2ba5","5f60e3c0a3b16e07647b2ff9","5f64c2c7d07e730272b61651","false","null","<div style=""align-items: center; display: flex; color: darkorange; font-size: 90px""><b>ø</b></div>","null","","","","forget_cue","","","","","","","","","","","","","","","",""
"html-keyboard-response","200","832255","0.0-4.0-1.0-0.27","36bdrc9l9hv1bd7","prime","59ad6f1e09709e00013c2ba5","5f60e3c0a3b16e07647b2ff9","5f64c2c7d07e730272b61651","false","null","<span style=""color: black; font-size: 48px"">M + N</span>","null","","","","resp_prompt","","","","","","","","","","","","","","","",""
"categorize-image","201","833266","0.0-4.0-1.0-1.27","36bdrc9l9hv1bd7","prime","59ad6f1e09709e00013c2ba5","5f60e3c0a3b16e07647b2ff9","5f64c2c7d07e730272b61651","true","1008.5149999940768","./Stimuli/SelectedImages/SM/SM74.bmp","83","","","","test","true","M + N","83","repetition","SM","SM74.bmp","remember","","76","3","prime1","left","","","",""
"html-keyboard-response","202","835268","0.0-4.0-1.0-3.27","36bdrc9l9hv1bd7","prime","59ad6f1e09709e00013c2ba5","5f60e3c0a3b16e07647b2ff9","5f64c2c7d07e730272b61651","false","null","<div style=""align-items: center; display: flex; color: dodgerblue; font-size: 90px""><b>o</b></div>","null","","","","forget_cue","","","","","","","","","","","","","","","",""
"html-keyboard-response","203","835970","0.0-4.0-1.0-0.28","36bdrc9l9hv1bd7","prime","59ad6f1e09709e00013c2ba5","5f60e3c0a3b16e07647b2ff9","5f64c2c7d07e730272b61651","false","null","<span style=""color: black; font-size: 48px"">N + M</span>","null","","","","resp_prompt","","","","","","","","","","","","","","","",""
"categorize-image","204","836964","0.0-4.0-1.0-1.28","36bdrc9l9hv1bd7","prime","59ad6f1e09709e00013c2ba5","5f60e3c0a3b16e07647b2ff9","5f64c2c7d07e730272b61651","true","989.3300000112504","./Stimuli/SelectedImages/LM/LM51.bmp","76","","","","test","true","N + M","76","switch","LM","LM51.bmp","forget","","77","3","prime1","right","","","",""
"html-keyboard-response","205","838967","0.0-4.0-1.0-3.28","36bdrc9l9hv1bd7","prime","59ad6f1e09709e00013c2ba5","5f60e3c0a3b16e07647b2ff9","5f64c2c7d07e730272b61651","false","null","<div style=""align-items: center; display: flex; color: darkorange; font-size: 90px""><b>ø</b></div>","null","","","","forget_cue","","","","","","","","","","","","","","","",""
"html-keyboard-response","206","839669","0.0-4.0-1.0-0.29","36bdrc9l9hv1bd7","prime","59ad6f1e09709e00013c2ba5","5f60e3c0a3b16e07647b2ff9","5f64c2c7d07e730272b61651","false","null","<span style=""color: black; font-size: 48px"">M + N</span>","null","","","","resp_prompt","","","","","","","","","","","","","","","",""
"categorize-image","207","840910","0.0-4.0-1.0-1.29","36bdrc9l9hv1bd7","prime","59ad6f1e09709e00013c2ba5","5f60e3c0a3b16e07647b2ff9","5f64c2c7d07e730272b61651","true","1236.780000035651","./Stimuli/SelectedImages/LN/LN128.bmp","76","","","","test","true","M + N","76","switch","LN","LN128.bmp","remember","","78","3","prime1","right","","","",""
"html-keyboard-response","208","842911","0.0-4.0-1.0-3.29","36bdrc9l9hv1bd7","prime","59ad6f1e09709e00013c2ba5","5f60e3c0a3b16e07647b2ff9","5f64c2c7d07e730272b61651","false","null","<div style=""align-items: center; display: flex; color: dodgerblue; font-size: 90px""><b>o</b></div>","null","","","","forget_cue","","","","","","","","","","","","","","","",""
"html-keyboard-response","209","843612","0.0-4.0-1.0-0.30","36bdrc9l9hv1bd7","prime","59ad6f1e09709e00013c2ba5","5f60e3c0a3b16e07647b2ff9","5f64c2c7d07e730272b61651","false","null","<span style=""color: black; font-size: 48px"">M + N</span>","null","","","","resp_prompt","","","","","","","","","","","","","","","",""
"categorize-image","210","844258","0.0-4.0-1.0-1.30","36bdrc9l9hv1bd7","prime","59ad6f1e09709e00013c2ba5","5f60e3c0a3b16e07647b2ff9","5f64c2c7d07e730272b61651","true","643.015000037849","./Stimuli/SelectedImages/LM/LM179.bmp","83","","","","test","true","M + N","83","repetition","LM","LM179.bmp","remember","","79","3","prime1","left","","","",""
"html-keyboard-response","211","846259","0.0-4.0-1.0-3.30","36bdrc9l9hv1bd7","prime","59ad6f1e09709e00013c2ba5","5f60e3c0a3b16e07647b2ff9","5f64c2c7d07e730272b61651","false","null","<div style=""align-items: center; display: flex; color: dodgerblue; font-size: 90px""><b>o</b></div>","null","","","","forget_cue","","","","","","","","","","","","","","","",""
"html-keyboard-response","212","846961","0.0-4.0-1.0-0.31","36bdrc9l9hv1bd7","prime","59ad6f1e09709e00013c2ba5","5f60e3c0a3b16e07647b2ff9","5f64c2c7d07e730272b61651","false","null","<span style=""color: black; font-size: 48px"">N + M</span>","null","","","","resp_prompt","","","","","","","","","","","","","","","",""
"categorize-image","213","847841","0.0-4.0-1.0-1.31","36bdrc9l9hv1bd7","prime","59ad6f1e09709e00013c2ba5","5f60e3c0a3b16e07647b2ff9","5f64c2c7d07e730272b61651","true","878.0300000216812","./Stimuli/SelectedImages/SM/SM195.bmp","76","","","","test","true","N + M","76","switch","SM","SM195.bmp","forget","","80","3","prime1","right","","","",""
"html-keyboard-response","214","849844","0.0-4.0-1.0-3.31","36bdrc9l9hv1bd7","prime","59ad6f1e09709e00013c2ba5","5f60e3c0a3b16e07647b2ff9","5f64c2c7d07e730272b61651","false","null","<div style=""align-items: center; display: flex; color: darkorange; font-size: 90px""><b>ø</b></div>","null","","","","forget_cue","","","","","","","","","","","","","","","",""
"html-keyboard-response","215","850546","0.0-4.0-1.0-0.32","36bdrc9l9hv1bd7","prime","59ad6f1e09709e00013c2ba5","5f60e3c0a3b16e07647b2ff9","5f64c2c7d07e730272b61651","false","null","<span style=""color: black; font-size: 48px"">N + M</span>","null","","","","resp_prompt","","","","","","","","","","","","","","","",""
"categorize-image","216","851319","0.0-4.0-1.0-1.32","36bdrc9l9hv1bd7","prime","59ad6f1e09709e00013c2ba5","5f60e3c0a3b16e07647b2ff9","5f64c2c7d07e730272b61651","true","768.2750000385568","./Stimuli/SelectedImages/LN/LN131.bmp","83","","","","test","true","N + M","83","repetition","LN","LN131.bmp","forget","","81","3","prime1","left","","","",""
"html-keyboard-response","217","853320","0.0-4.0-1.0-3.32","36bdrc9l9hv1bd7","prime","59ad6f1e09709e00013c2ba5","5f60e3c0a3b16e07647b2ff9","5f64c2c7d07e730272b61651","false","null","<div style=""align-items: center; display: flex; color: darkorange; font-size: 90px""><b>ø</b></div>","null","","","","forget_cue","","","","","","","","","","","","","","","",""
"html-keyboard-response","218","854021","0.0-4.0-1.0-0.33","36bdrc9l9hv1bd7","prime","59ad6f1e09709e00013c2ba5","5f60e3c0a3b16e07647b2ff9","5f64c2c7d07e730272b61651","false","null","<span style=""color: black; font-size: 48px"">M + N</span>","null","","","","resp_prompt","","","","","","","","","","","","","","","",""
"categorize-image","219","854978","0.0-4.0-1.0-1.33","36bdrc9l9hv1bd7","prime","59ad6f1e09709e00013c2ba5","5f60e3c0a3b16e07647b2ff9","5f64c2c7d07e730272b61651","true","954.4750000350177","./Stimuli/SelectedImages/SM/SM148.bmp","83","","","","test","true","M + N","83","repetition","SM","SM148.bmp","remember","","82","3","prime1","left","","","",""
"html-keyboard-response","220","856980","0.0-4.0-1.0-3.33","36bdrc9l9hv1bd7","prime","59ad6f1e09709e00013c2ba5","5f60e3c0a3b16e07647b2ff9","5f64c2c7d07e730272b61651","false","null","<div style=""align-items: center; display: flex; color: dodgerblue; font-size: 90px""><b>o</b></div>","null","","","","forget_cue","","","","","","","","","","","","","","","",""
"html-keyboard-response","221","857682","0.0-4.0-1.0-0.34","36bdrc9l9hv1bd7","prime","59ad6f1e09709e00013c2ba5","5f60e3c0a3b16e07647b2ff9","5f64c2c7d07e730272b61651","false","null","<span style=""color: black; font-size: 48px"">M + N</span>","null","","","","resp_prompt","","","","","","","","","","","","","","","",""
"categorize-image","222","858355","0.0-4.0-1.0-1.34","36bdrc9l9hv1bd7","prime","59ad6f1e09709e00013c2ba5","5f60e3c0a3b16e07647b2ff9","5f64c2c7d07e730272b61651","true","668.9999999944121","./Stimuli/SelectedImages/SN/SN155.bmp","76","","","","test","true","M + N","76","repetition","SN","SN155.bmp","forget","","83","3","prime1","right","","","",""
"html-keyboard-response","223","860356","0.0-4.0-1.0-3.34","36bdrc9l9hv1bd7","prime","59ad6f1e09709e00013c2ba5","5f60e3c0a3b16e07647b2ff9","5f64c2c7d07e730272b61651","false","null","<div style=""align-items: center; display: flex; color: darkorange; font-size: 90px""><b>ø</b></div>","null","","","","forget_cue","","","","","","","","","","","","","","","",""
"html-keyboard-response","224","861059","0.0-4.0-1.0-0.35","36bdrc9l9hv1bd7","prime","59ad6f1e09709e00013c2ba5","5f60e3c0a3b16e07647b2ff9","5f64c2c7d07e730272b61651","false","null","<span style=""color: black; font-size: 48px"">M + N</span>","null","","","","resp_prompt","","","","","","","","","","","","","","","",""
"categorize-image","225","861733","0.0-4.0-1.0-1.35","36bdrc9l9hv1bd7","prime","59ad6f1e09709e00013c2ba5","5f60e3c0a3b16e07647b2ff9","5f64c2c7d07e730272b61651","true","670.6499999854714","./Stimuli/SelectedImages/LN/LN177.bmp","76","","","","test","true","M + N","76","repetition","LN","LN177.bmp","remember","","84","3","prime1","right","","","",""
"html-keyboard-response","226","863735","0.0-4.0-1.0-3.35","36bdrc9l9hv1bd7","prime","59ad6f1e09709e00013c2ba5","5f60e3c0a3b16e07647b2ff9","5f64c2c7d07e730272b61651","false","null","<div style=""align-items: center; display: flex; color: dodgerblue; font-size: 90px""><b>o</b></div>","null","","","","forget_cue","","","","","","","","","","","","","","","",""
"html-keyboard-response","227","864438","0.0-4.0-1.0-0.36","36bdrc9l9hv1bd7","prime","59ad6f1e09709e00013c2ba5","5f60e3c0a3b16e07647b2ff9","5f64c2c7d07e730272b61651","false","null","<span style=""color: black; font-size: 48px"">M + N</span>","null","","","","resp_prompt","","","","","","","","","","","","","","","",""
"categorize-image","228","865125","0.0-4.0-1.0-1.36","36bdrc9l9hv1bd7","prime","59ad6f1e09709e00013c2ba5","5f60e3c0a3b16e07647b2ff9","5f64c2c7d07e730272b61651","true","681.0350000159815","./Stimuli/SelectedImages/LM/LM75.bmp","83","","","","test","true","M + N","83","switch","LM","LM75.bmp","remember","","85","3","prime1","left","","","",""
"html-keyboard-response","229","867127","0.0-4.0-1.0-3.36","36bdrc9l9hv1bd7","prime","59ad6f1e09709e00013c2ba5","5f60e3c0a3b16e07647b2ff9","5f64c2c7d07e730272b61651","false","null","<div style=""align-items: center; display: flex; color: dodgerblue; font-size: 90px""><b>o</b></div>","null","","","","forget_cue","","","","","","","","","","","","","","","",""
"html-keyboard-response","230","867830","0.0-4.0-1.0-0.37","36bdrc9l9hv1bd7","prime","59ad6f1e09709e00013c2ba5","5f60e3c0a3b16e07647b2ff9","5f64c2c7d07e730272b61651","false","null","<span style=""color: black; font-size: 48px"">M + N</span>","null","","","","resp_prompt","","","","","","","","","","","","","","","",""
"categorize-image","231","868587","0.0-4.0-1.0-1.37","36bdrc9l9hv1bd7","prime","59ad6f1e09709e00013c2ba5","5f60e3c0a3b16e07647b2ff9","5f64c2c7d07e730272b61651","true","753.9749999996275","./Stimuli/SelectedImages/LN/LN92.bmp","76","","","","test","true","M + N","76","switch","LN","LN92.bmp","forget","","86","3","prime1","right","","","",""
"html-keyboard-response","232","870588","0.0-4.0-1.0-3.37","36bdrc9l9hv1bd7","prime","59ad6f1e09709e00013c2ba5","5f60e3c0a3b16e07647b2ff9","5f64c2c7d07e730272b61651","false","null","<div style=""align-items: center; display: flex; color: darkorange; font-size: 90px""><b>ø</b></div>","null","","","","forget_cue","","","","","","","","","","","","","","","",""
"html-keyboard-response","233","871289","0.0-4.0-1.0-0.38","36bdrc9l9hv1bd7","prime","59ad6f1e09709e00013c2ba5","5f60e3c0a3b16e07647b2ff9","5f64c2c7d07e730272b61651","false","null","<span style=""color: black; font-size: 48px"">N + M</span>","null","","","","resp_prompt","","","","","","","","","","","","","","","",""
"categorize-image","234","872093","0.0-4.0-1.0-1.38","36bdrc9l9hv1bd7","prime","59ad6f1e09709e00013c2ba5","5f60e3c0a3b16e07647b2ff9","5f64c2c7d07e730272b61651","true","801.3750000391155","./Stimuli/SelectedImages/LM/LM235.bmp","76","","","","test","true","N + M","76","repetition","LM","LM235.bmp","forget","","87","3","prime1","right","","","",""
"html-keyboard-response","235","874096","0.0-4.0-1.0-3.38","36bdrc9l9hv1bd7","prime","59ad6f1e09709e00013c2ba5","5f60e3c0a3b16e07647b2ff9","5f64c2c7d07e730272b61651","false","null","<div style=""align-items: center; display: flex; color: darkorange; font-size: 90px""><b>ø</b></div>","null","","","","forget_cue","","","","","","","","","","","","","","","",""
"html-keyboard-response","236","874800","0.0-4.0-1.0-0.39","36bdrc9l9hv1bd7","prime","59ad6f1e09709e00013c2ba5","5f60e3c0a3b16e07647b2ff9","5f64c2c7d07e730272b61651","false","null","<span style=""color: black; font-size: 48px"">N + M</span>","null","","","","resp_prompt","","","","","","","","","","","","","","","",""
"categorize-image","237","875836","0.0-4.0-1.0-1.39","36bdrc9l9hv1bd7","prime","59ad6f1e09709e00013c2ba5","5f60e3c0a3b16e07647b2ff9","5f64c2c7d07e730272b61651","true","1032.6050000730902","./Stimuli/SelectedImages/SN/SN181.bmp","83","","","","test","true","N + M","83","repetition","SN","SN181.bmp","remember","","88","3","prime1","left","","","",""
"html-keyboard-response","238","877838","0.0-4.0-1.0-3.39","36bdrc9l9hv1bd7","prime","59ad6f1e09709e00013c2ba5","5f60e3c0a3b16e07647b2ff9","5f64c2c7d07e730272b61651","false","null","<div style=""align-items: center; display: flex; color: dodgerblue; font-size: 90px""><b>o</b></div>","null","","","","forget_cue","","","","","","","","","","","","","","","",""
"html-keyboard-response","239","878539","0.0-4.0-1.0-0.40","36bdrc9l9hv1bd7","prime","59ad6f1e09709e00013c2ba5","5f60e3c0a3b16e07647b2ff9","5f64c2c7d07e730272b61651","false","null","<span style=""color: black; font-size: 48px"">M + N</span>","null","","","","resp_prompt","","","","","","","","","","","","","","","",""
"categorize-image","240","879394","0.0-4.0-1.0-1.40","36bdrc9l9hv1bd7","prime","59ad6f1e09709e00013c2ba5","5f60e3c0a3b16e07647b2ff9","5f64c2c7d07e730272b61651","true","852.225000038743","./Stimuli/SelectedImages/SM/SM213.bmp","83","","","","test","true","M + N","83","switch","SM","SM213.bmp","forget","","89","3","prime1","left","","","",""
"html-keyboard-response","241","881396","0.0-4.0-1.0-3.40","36bdrc9l9hv1bd7","prime","59ad6f1e09709e00013c2ba5","5f60e3c0a3b16e07647b2ff9","5f64c2c7d07e730272b61651","false","null","<div style=""align-items: center; display: flex; color: darkorange; font-size: 90px""><b>ø</b></div>","null","","","","forget_cue","","","","","","","","","","","","","","","",""
"html-keyboard-response","242","882097","0.0-4.0-1.0-0.41","36bdrc9l9hv1bd7","prime","59ad6f1e09709e00013c2ba5","5f60e3c0a3b16e07647b2ff9","5f64c2c7d07e730272b61651","false","null","<span style=""color: black; font-size: 48px"">M + N</span>","null","","","","resp_prompt","","","","","","","","","","","","","","","",""
"categorize-image","243","883278","0.0-4.0-1.0-1.41","36bdrc9l9hv1bd7","prime","59ad6f1e09709e00013c2ba5","5f60e3c0a3b16e07647b2ff9","5f64c2c7d07e730272b61651","true","1178.7250000052154","./Stimuli/SelectedImages/LM/LM100.bmp","83","","","","test","true","M + N","83","repetition","LM","LM100.bmp","remember","","90","3","prime1","left","","","",""
"html-keyboard-response","244","885280","0.0-4.0-1.0-3.41","36bdrc9l9hv1bd7","prime","59ad6f1e09709e00013c2ba5","5f60e3c0a3b16e07647b2ff9","5f64c2c7d07e730272b61651","false","null","<div style=""align-items: center; display: flex; color: dodgerblue; font-size: 90px""><b>o</b></div>","null","","","","forget_cue","","","","","","","","","","","","","","","",""
"html-keyboard-response","245","885981","0.0-4.0-1.0-0.42","36bdrc9l9hv1bd7","prime","59ad6f1e09709e00013c2ba5","5f60e3c0a3b16e07647b2ff9","5f64c2c7d07e730272b61651","false","null","<span style=""color: black; font-size: 48px"">N + M</span>","null","","","","resp_prompt","","","","","","","","","","","","","","","",""
"categorize-image","246","887586","0.0-4.0-1.0-1.42","36bdrc9l9hv1bd7","prime","59ad6f1e09709e00013c2ba5","5f60e3c0a3b16e07647b2ff9","5f64c2c7d07e730272b61651","true","1602.089999942109","./Stimuli/SelectedImages/LM/LM209.bmp","76","","","","test","true","N + M","76","switch","LM","LM209.bmp","remember","","91","3","prime1","right","","","",""
"html-keyboard-response","247","889588","0.0-4.0-1.0-3.42","36bdrc9l9hv1bd7","prime","59ad6f1e09709e00013c2ba5","5f60e3c0a3b16e07647b2ff9","5f64c2c7d07e730272b61651","false","null","<div style=""align-items: center; display: flex; color: dodgerblue; font-size: 90px""><b>o</b></div>","null","","","","forget_cue","","","","","","","","","","","","","","","",""
"html-keyboard-response","248","890290","0.0-4.0-1.0-0.43","36bdrc9l9hv1bd7","prime","59ad6f1e09709e00013c2ba5","5f60e3c0a3b16e07647b2ff9","5f64c2c7d07e730272b61651","false","null","<span style=""color: black; font-size: 48px"">N + M</span>","null","","","","resp_prompt","","","","","","","","","","","","","","","",""
"categorize-image","249","891451","0.0-4.0-1.0-1.43","36bdrc9l9hv1bd7","prime","59ad6f1e09709e00013c2ba5","5f60e3c0a3b16e07647b2ff9","5f64c2c7d07e730272b61651","true","1158.0149999354035","./Stimuli/SelectedImages/SM/SM205.bmp","76","","","","test","true","N + M","76","repetition","SM","SM205.bmp","forget","","92","3","prime1","right","","","",""
"html-keyboard-response","250","893452","0.0-4.0-1.0-3.43","36bdrc9l9hv1bd7","prime","59ad6f1e09709e00013c2ba5","5f60e3c0a3b16e07647b2ff9","5f64c2c7d07e730272b61651","false","null","<div style=""align-items: center; display: flex; color: darkorange; font-size: 90px""><b>ø</b></div>","null","","","","forget_cue","","","","","","","","","","","","","","","",""
"html-keyboard-response","251","894153","0.0-4.0-1.0-0.44","36bdrc9l9hv1bd7","prime","59ad6f1e09709e00013c2ba5","5f60e3c0a3b16e07647b2ff9","5f64c2c7d07e730272b61651","false","null","<span style=""color: black; font-size: 48px"">M + N</span>","null","","","","resp_prompt","","","","","","","","","","","","","","","",""
"categorize-image","252","895718","0.0-4.0-1.0-1.44","36bdrc9l9hv1bd7","prime","59ad6f1e09709e00013c2ba5","5f60e3c0a3b16e07647b2ff9","5f64c2c7d07e730272b61651","true","1562.0099999941885","./Stimuli/SelectedImages/SN/SN60.bmp","76","","","","test","true","M + N","76","switch","SN","SN60.bmp","remember","","93","3","prime1","right","","","",""
