"trial_type","trial_index","time_elapsed","internal_node_id","subject","exp_part","prolific_PID","study_ID","session_ID","use","rt","stimulus","key_press","button_pressed","responses","question_order","trial_part","correct","resp_map","correct_resp","probe_condition","category","image","forget_condition","list","trial_num","block_num","block","response","test_part","n_span","sequence","num_spaces"
"pavlovia","0","7","0.0-0.0","z486ja3obpaotb3","","5e70e458f9b16800083e6733","5f60e3c0a3b16e07647b2ff9","5f63803996612b064e365ef0","false","","","","","","","","","","","","","","","","","","","","","","",""
"html-keyboard-response","1","20787","0.0-1.0-0.0-0.0","z486ja3obpaotb3","welcome","5e70e458f9b16800083e6733","5f60e3c0a3b16e07647b2ff9","5f63803996612b064e365ef0","false","20776.114999956917","<div align=left>Dear participant, <br> thank you for participating in an online study of the Cognition, Action, and Sustainability Unit of the University of Freiburg! <br> <br>The aim of this study is to examine our ability to remember previously learned information. <br>Our goal is to find out, whether our memory improves, when we only remember information that is relevant to us. <br>The experiment will take about 35 minutes to complete. <br> <br>Please, note that you can only participate in this study if you are using a device with a keyboard (PC, Laptop etc.) <br>and not if you are using a mobile device such as a tablet or smartphone.<br> <br>Press 'SPACE' to proceed to the experiment. </div>","32","","","","","","","","","","","","","","","","","","","",""
"html-keyboard-response","2","206183","0.0-1.0-0.0-1.0","z486ja3obpaotb3","welcome","5e70e458f9b16800083e6733","5f60e3c0a3b16e07647b2ff9","5f63803996612b064e365ef0","false","185392.80000003055","<div align=left><strong> Time Course of this experiment: </strong> <br><br> <strong> 1.</strong>  First, please fill in some information regarding your demographic data. <br><br> <strong> 2.</strong>  Next, your task will be to classify everyday objects. <br>In addition, you will be asked to remember certain objects and recall them later. <br>Working on these tasks requires your undivided attention and concentration.<br>It is therefore essential that you eliminate any sources of distraction in your  <br>environment and ensure that you will not be disturbed. <br><br><strong> 3.</strong>  At the end of the experiment, you will be asked to answer a few additional questions. <br> <br><strong> Important:</strong> After finishing the experiment, only close the browser window <br> by clicking on the 'end the experiment'-button when you are asked to do so. <br>Closing the browser window prematurely will make the allocation of your participation credit impossible. <br><br> Press 'SPACE' to start the experiment. </div>","32","","","","","","","","","","","","","","","","","","","",""
"html-button-response","3","210831","0.0-1.0-0.0-2.0","z486ja3obpaotb3","welcome","5e70e458f9b16800083e6733","5f60e3c0a3b16e07647b2ff9","5f63803996612b064e365ef0","true","4645.615000044927","<div align=left><strong> Informed consent </strong>  <br>The aim of our research is to better understand human behavior and mental processes. <br>In the following study your behavior (e.g. choices, reaction times) will be studied. <br> <br><strong> Voluntariness and Anonymity </strong> <br>Your participation in this study is  <strong> voluntary</strong>.<br>You may withdraw your consent to participate at any time without providing a reason for doing so and without fear of prejudice. <br><br>As no personal data will be collected, <strong>your data and your person cannot be connected after data collection</strong> – the data-set is anonymous. <br>Respectively, deletion of your data will not be possible after data collection has been completed, as we cannot retrace your data-set.<br>The results and anonymized data collected in this study will be published as a scientific publication. <br>This will happen in an <strong>anonymized format</strong>, so that no data can be traced back to a specific person. <br> <br>The anonymized data of this study will be made available to other researchers and/or in a data archive on the Internet as a means of transparency and to enable subsequent re-use. By doing so, this study follows the recommendations of the Deutsche Forschungsgemeinschaft (DFG, German Research Foundation) and Deutsche Gesellschaft für Psychologie (DGPS, German Psychological Society) regarding quality assurance in research.<br>If you have any questions now or after the experiment, please contact our team (experiments@cs.uni-freiburg.de).<br><br><br>I hereby declare, that I understand the above described conditions of participation and I agree to participate under these conditions. <br><br> </div>","","0","","","","","","","","","","","","","","","","","","",""
"html-keyboard-response","4","245755","0.0-1.0-0.0-3.0","z486ja3obpaotb3","welcome","5e70e458f9b16800083e6733","5f60e3c0a3b16e07647b2ff9","5f63803996612b064e365ef0","false","34921.61000001943","<div align=left><strong> General information concerning the experiment </strong>  <br> <br>Please follow the instructions:<ol> <li><strong> Do not leave this tab (your browser window) during the experiment and do not reload this tab! </strong>  <br>If you do switch tabs/windows during the experiment (to check your mail or visit another website, for example), <br>the experiment will end automatically and you will <strong>not receive credit</strong> for your participation. <br>Repeated participation or resumption of the experiment is impossible.</li> <br><li>Please close all other programs for the duration of your participation. </li> <br><li>Please mute or turn off your phone and put it out of your reach. </li> <br><li>Please also take off any disturbing accessories (such as wristwatches, bracelets, etc.). </li> <br><li>If you have music playing in the background, please turn it off now. </li> <br></ol>Thank you! <br>Press 'SPACE' to continue. </div>","32","","","","","","","","","","","","","","","","","","","",""
"survey-text","5","254663","0.0-1.0-1.0-0.0","z486ja3obpaotb3","demographics","5e70e458f9b16800083e6733","5f60e3c0a3b16e07647b2ff9","5f63803996612b064e365ef0","true","8895.819999976084","","","","{""age"":""36""}","","","","","","","","","","","","","","","","","",""
"survey-multi-choice","6","288878","0.0-1.0-1.0-1.0","z486ja3obpaotb3","demographics","5e70e458f9b16800083e6733","5f60e3c0a3b16e07647b2ff9","5f63803996612b064e365ef0","true","34211.63999999408","","","","{""gender"":""female"",""school"":""others"",""education"":""Completed university degree or equivalent""}","[0,1,2]","","","","","","","","","","","","","","","","",""
"html-keyboard-response","7","314649","0.0-1.0-2.0","z486ja3obpaotb3","instructions","5e70e458f9b16800083e6733","5f60e3c0a3b16e07647b2ff9","5f63803996612b064e365ef0","false","25769.220000016503","<div align=left> The experiment is now about to start: <br> <br>In the following part, you will be presented pictures of everyday objects. <br>Your first task is to <strong>classify these objects. </strong> <br> <br> You will classify them either as mechanical or non-mechanical objects. <br> <br>Objects that include any kind of technical mechanism (for example, wheels, switches, levers, <br> electronic components) fall under the category of <strong>mechanical</strong> objects. <br>Only objects without any kind of technical mechanism should be classified as <strong>non-mechanical</strong>. <br><br>Press 'SPACE' to continue. </div>","32","","","","","","","","","","","","","","","","","","","",""
"html-keyboard-response","8","427482","0.0-2.0-0.0","z486ja3obpaotb3","instructions","5e70e458f9b16800083e6733","5f60e3c0a3b16e07647b2ff9","5f63803996612b064e365ef0","false","112834.77499999572","<div align=justify>You will classify the objects using the <strong>'S'</strong> and the <strong>'L'</strong> keys on your keyboard.<br>For doing so, please place your <strong>left index finger</strong> on the <strong>'S'</strong> key and place your <strong>right index finger</strong> on the <strong>'L'</strong> key. <br><br> Each trial starts with an instruction, indicating which key ('S'/'L') you need to press to classify <br>the object as mechanical (letter M) or non-mechanical (letter N).<br>The instruction <strong>M + N</strong> indicates that, in the current trial, by pressing the left key ('S') you classify the displayed object as mechanical (M) <br> and by pressing the right key ('L') you classify the object as non-mechanical (N). <br>The instruction <strong>N + M</strong> on the other hand indicates that by pressing the left key ('S') you classify the displayed object as non-mechanical (N) <br> and by pressing the right key ('L') you classify the object as mechanical (M). <br><br>Please press the key corresponding to the correct classification as fast as possible as soon as the object is displayed and try to avoid making mistakes.<br>If you do not respond within a 2 second window, a corresponding feedback will be displayed and the next trial will start.<br> The experiment is divided into multiple blocks to give you the opportunity to take a break after each block. <br>First, you can now practice this task. <br><br>Please place your <strong>LEFT INDEX FINGER</strong> on the 'S' key and your <strong>RIGHT INDEX FINGER</strong> on the 'L' key now. <br><br>Press SPACE to continue.</div>","32","","","","","","","","","","","","","","","","","","","",""
"html-keyboard-response","9","446149","0.0-2.0-1.0","z486ja3obpaotb3","instructions","5e70e458f9b16800083e6733","5f60e3c0a3b16e07647b2ff9","5f63803996612b064e365ef0","false","18663.05500001181","<div align=left> You will now have time to practice this task.<br><br>Remember: <br> <br><li>Please place your index fingers on the <strong>'S'</strong> and <strong>'L'</strong> keys <br>to respond as fast and accurately as possible.</li><li>Every picture can be classified as either mechanical or non-mechanical.</li><li>If you do not respond in time or commit an error, you will receive a corresponding feedback. </li><li> Please try to respond as <strong> fast </strong> and as <strong> accurately as possible </strong> .<br><li>To ensure optimal results, please minimize distractions and stay focused. </li><br><br>Press SPACE to continue.</div>","32","","","","","","","","","","","","","","","","","","","",""
"html-keyboard-response","10","446863","0.0-2.0-2.0-0.0","z486ja3obpaotb3","practice_no_cue","5e70e458f9b16800083e6733","5f60e3c0a3b16e07647b2ff9","5f63803996612b064e365ef0","false","null","<span style=""color: black; font-size: 48px"">M + N</span>","null","","","","resp_prompt","","","","","","","","","","","","","","","",""
"categorize-image","11","449391","0.0-2.0-2.0-1.0","z486ja3obpaotb3","practice_no_cue","5e70e458f9b16800083e6733","5f60e3c0a3b16e07647b2ff9","5f63803996612b064e365ef0","true","null","./Stimuli/ImagesPractice/SM98.jpg","null","","","","test","false","M + N","83","","SM","SM98.jpg","forget","old","1","1","start","too_slow","","","",""
"html-keyboard-response","12","450098","0.0-2.0-2.0-0.1","z486ja3obpaotb3","practice_no_cue","5e70e458f9b16800083e6733","5f60e3c0a3b16e07647b2ff9","5f63803996612b064e365ef0","false","null","<span style=""color: black; font-size: 48px"">M + N</span>","null","","","","resp_prompt","","","","","","","","","","","","","","","",""
"categorize-image","13","452619","0.0-2.0-2.0-1.1","z486ja3obpaotb3","practice_no_cue","5e70e458f9b16800083e6733","5f60e3c0a3b16e07647b2ff9","5f63803996612b064e365ef0","true","null","./Stimuli/ImagesPractice/SM35.jpg","null","","","","test","false","M + N","83","","SM","SM35.jpg","forget","old","2","1","start","too_slow","","","",""
"html-keyboard-response","14","453331","0.0-2.0-2.0-0.2","z486ja3obpaotb3","practice_no_cue","5e70e458f9b16800083e6733","5f60e3c0a3b16e07647b2ff9","5f63803996612b064e365ef0","false","null","<span style=""color: black; font-size: 48px"">M + N</span>","null","","","","resp_prompt","","","","","","","","","","","","","","","",""
"categorize-image","15","455022","0.0-2.0-2.0-1.2","z486ja3obpaotb3","practice_no_cue","5e70e458f9b16800083e6733","5f60e3c0a3b16e07647b2ff9","5f63803996612b064e365ef0","true","1178.669999993872","./Stimuli/ImagesPractice/LN72.jpg","76","","","","test","true","M + N","76","","LN","LN72.jpg","remember","old","3","1","start","right","","","",""
"html-keyboard-response","16","455735","0.0-2.0-2.0-0.3","z486ja3obpaotb3","practice_no_cue","5e70e458f9b16800083e6733","5f60e3c0a3b16e07647b2ff9","5f63803996612b064e365ef0","false","null","<span style=""color: black; font-size: 48px"">N + M</span>","null","","","","resp_prompt","","","","","","","","","","","","","","","",""
"categorize-image","17","457470","0.0-2.0-2.0-1.3","z486ja3obpaotb3","practice_no_cue","5e70e458f9b16800083e6733","5f60e3c0a3b16e07647b2ff9","5f63803996612b064e365ef0","true","1222.0399999641813","./Stimuli/ImagesPractice/LM55.jpg","76","","","","test","true","N + M","76","","LM","LM55.jpg","forget","old","4","1","start","right","","","",""
"html-keyboard-response","18","458176","0.0-2.0-2.0-0.4","z486ja3obpaotb3","practice_no_cue","5e70e458f9b16800083e6733","5f60e3c0a3b16e07647b2ff9","5f63803996612b064e365ef0","false","null","<span style=""color: black; font-size: 48px"">M + N</span>","null","","","","resp_prompt","","","","","","","","","","","","","","","",""
"categorize-image","19","459677","0.0-2.0-2.0-1.4","z486ja3obpaotb3","practice_no_cue","5e70e458f9b16800083e6733","5f60e3c0a3b16e07647b2ff9","5f63803996612b064e365ef0","true","994.0799999749288","./Stimuli/ImagesPractice/LM147.jpg","76","","","","test","false","M + N","83","","LM","LM147.jpg","forget","old","5","1","start","right","","","",""
"html-keyboard-response","20","460382","0.0-2.0-2.0-0.5","z486ja3obpaotb3","practice_no_cue","5e70e458f9b16800083e6733","5f60e3c0a3b16e07647b2ff9","5f63803996612b064e365ef0","false","null","<span style=""color: black; font-size: 48px"">N + M</span>","null","","","","resp_prompt","","","","","","","","","","","","","","","",""
"categorize-image","21","461951","0.0-2.0-2.0-1.5","z486ja3obpaotb3","practice_no_cue","5e70e458f9b16800083e6733","5f60e3c0a3b16e07647b2ff9","5f63803996612b064e365ef0","true","1054.0749999927357","./Stimuli/ImagesPractice/SN220.jpg","83","","","","test","true","N + M","83","","SN","SN220.jpg","remember","old","6","1","start","left","","","",""
"html-keyboard-response","22","462655","0.0-2.0-2.0-0.6","z486ja3obpaotb3","practice_no_cue","5e70e458f9b16800083e6733","5f60e3c0a3b16e07647b2ff9","5f63803996612b064e365ef0","false","null","<span style=""color: black; font-size: 48px"">M + N</span>","null","","","","resp_prompt","","","","","","","","","","","","","","","",""
"categorize-image","23","464092","0.0-2.0-2.0-1.6","z486ja3obpaotb3","practice_no_cue","5e70e458f9b16800083e6733","5f60e3c0a3b16e07647b2ff9","5f63803996612b064e365ef0","true","931.2999999965541","./Stimuli/ImagesPractice/LN17.jpg","83","","","","test","false","M + N","76","","LN","LN17.jpg","forget","old","7","1","start","left","","","",""
"html-keyboard-response","24","464799","0.0-2.0-2.0-0.7","z486ja3obpaotb3","practice_no_cue","5e70e458f9b16800083e6733","5f60e3c0a3b16e07647b2ff9","5f63803996612b064e365ef0","false","null","<span style=""color: black; font-size: 48px"">N + M</span>","null","","","","resp_prompt","","","","","","","","","","","","","","","",""
"categorize-image","25","467311","0.0-2.0-2.0-1.7","z486ja3obpaotb3","practice_no_cue","5e70e458f9b16800083e6733","5f60e3c0a3b16e07647b2ff9","5f63803996612b064e365ef0","true","null","./Stimuli/ImagesPractice/LN4.jpg","null","","","","test","false","N + M","83","","LN","LN4.jpg","forget","old","8","1","start","too_slow","","","",""
"html-keyboard-response","26","468021","0.0-2.0-2.0-0.8","z486ja3obpaotb3","practice_no_cue","5e70e458f9b16800083e6733","5f60e3c0a3b16e07647b2ff9","5f63803996612b064e365ef0","false","null","<span style=""color: black; font-size: 48px"">M + N</span>","null","","","","resp_prompt","","","","","","","","","","","","","","","",""
"categorize-image","27","470541","0.0-2.0-2.0-1.8","z486ja3obpaotb3","practice_no_cue","5e70e458f9b16800083e6733","5f60e3c0a3b16e07647b2ff9","5f63803996612b064e365ef0","true","null","./Stimuli/ImagesPractice/SN205.jpg","null","","","","test","false","M + N","76","","SN","SN205.jpg","remember","old","9","1","start","too_slow","","","",""
"html-keyboard-response","28","471249","0.0-2.0-2.0-0.9","z486ja3obpaotb3","practice_no_cue","5e70e458f9b16800083e6733","5f60e3c0a3b16e07647b2ff9","5f63803996612b064e365ef0","false","null","<span style=""color: black; font-size: 48px"">N + M</span>","null","","","","resp_prompt","","","","","","","","","","","","","","","",""
"categorize-image","29","472686","0.0-2.0-2.0-1.9","z486ja3obpaotb3","practice_no_cue","5e70e458f9b16800083e6733","5f60e3c0a3b16e07647b2ff9","5f63803996612b064e365ef0","true","924.6149999671616","./Stimuli/ImagesPractice/LN109.jpg","83","","","","test","true","N + M","83","","LN","LN109.jpg","remember","old","10","1","start","left","","","",""
"html-keyboard-response","30","473404","0.0-2.0-2.0-0.10","z486ja3obpaotb3","practice_no_cue","5e70e458f9b16800083e6733","5f60e3c0a3b16e07647b2ff9","5f63803996612b064e365ef0","false","null","<span style=""color: black; font-size: 48px"">N + M</span>","null","","","","resp_prompt","","","","","","","","","","","","","","","",""
"categorize-image","31","474573","0.0-2.0-2.0-1.10","z486ja3obpaotb3","practice_no_cue","5e70e458f9b16800083e6733","5f60e3c0a3b16e07647b2ff9","5f63803996612b064e365ef0","true","663.0349999759346","./Stimuli/ImagesPractice/SN222.jpg","83","","","","test","true","N + M","83","","SN","SN222.jpg","remember","old","11","1","start","left","","","",""
"html-keyboard-response","32","475279","0.0-2.0-2.0-0.11","z486ja3obpaotb3","practice_no_cue","5e70e458f9b16800083e6733","5f60e3c0a3b16e07647b2ff9","5f63803996612b064e365ef0","false","null","<span style=""color: black; font-size: 48px"">N + M</span>","null","","","","resp_prompt","","","","","","","","","","","","","","","",""
"categorize-image","33","476557","0.0-2.0-2.0-1.11","z486ja3obpaotb3","practice_no_cue","5e70e458f9b16800083e6733","5f60e3c0a3b16e07647b2ff9","5f63803996612b064e365ef0","true","772.5649999920279","./Stimuli/ImagesPractice/SM61.jpg","76","","","","test","true","N + M","76","","SM","SM61.jpg","forget","old","12","1","start","right","","","",""
"html-keyboard-response","34","477270","0.0-2.0-2.0-0.12","z486ja3obpaotb3","practice_no_cue","5e70e458f9b16800083e6733","5f60e3c0a3b16e07647b2ff9","5f63803996612b064e365ef0","false","null","<span style=""color: black; font-size: 48px"">N + M</span>","null","","","","resp_prompt","","","","","","","","","","","","","","","",""
"categorize-image","35","478688","0.0-2.0-2.0-1.12","z486ja3obpaotb3","practice_no_cue","5e70e458f9b16800083e6733","5f60e3c0a3b16e07647b2ff9","5f63803996612b064e365ef0","true","911.969999957364","./Stimuli/ImagesPractice/SN75.jpg","83","","","","test","true","N + M","83","","SN","SN75.jpg","forget","old","13","1","start","left","","","",""
"html-keyboard-response","36","479393","0.0-2.0-2.0-0.13","z486ja3obpaotb3","practice_no_cue","5e70e458f9b16800083e6733","5f60e3c0a3b16e07647b2ff9","5f63803996612b064e365ef0","false","null","<span style=""color: black; font-size: 48px"">M + N</span>","null","","","","resp_prompt","","","","","","","","","","","","","","","",""
"categorize-image","37","480869","0.0-2.0-2.0-1.13","z486ja3obpaotb3","practice_no_cue","5e70e458f9b16800083e6733","5f60e3c0a3b16e07647b2ff9","5f63803996612b064e365ef0","true","970.8749999990687","./Stimuli/ImagesPractice/LN2.jpg","83","","","","test","false","M + N","76","","LN","LN2.jpg","remember","old","14","1","start","left","","","",""
"html-keyboard-response","38","481576","0.0-2.0-2.0-0.14","z486ja3obpaotb3","practice_no_cue","5e70e458f9b16800083e6733","5f60e3c0a3b16e07647b2ff9","5f63803996612b064e365ef0","false","null","<span style=""color: black; font-size: 48px"">N + M</span>","null","","","","resp_prompt","","","","","","","","","","","","","","","",""
"categorize-image","39","483209","0.0-2.0-2.0-1.14","z486ja3obpaotb3","practice_no_cue","5e70e458f9b16800083e6733","5f60e3c0a3b16e07647b2ff9","5f63803996612b064e365ef0","true","1117.2049999586307","./Stimuli/ImagesPractice/SM37.jpg","76","","","","test","true","N + M","76","","SM","SM37.jpg","remember","old","15","1","start","right","","","",""
"html-keyboard-response","40","483915","0.0-2.0-2.0-0.15","z486ja3obpaotb3","practice_no_cue","5e70e458f9b16800083e6733","5f60e3c0a3b16e07647b2ff9","5f63803996612b064e365ef0","false","null","<span style=""color: black; font-size: 48px"">M + N</span>","null","","","","resp_prompt","","","","","","","","","","","","","","","",""
"categorize-image","41","486431","0.0-2.0-2.0-1.15","z486ja3obpaotb3","practice_no_cue","5e70e458f9b16800083e6733","5f60e3c0a3b16e07647b2ff9","5f63803996612b064e365ef0","true","2009.680000017397","./Stimuli/ImagesPractice/LM143.jpg","76","","","","test","false","M + N","83","","LM","LM143.jpg","remember","old","16","1","start","right","","","",""
"html-keyboard-response","42","516912","0.0-2.0-3.0","z486ja3obpaotb3","break","5e70e458f9b16800083e6733","5f60e3c0a3b16e07647b2ff9","5f63803996612b064e365ef0","false","30474.690000002738","<p style='font-size: 32px;'>Break</><br><br><br><br><br><p style='font-size: 24px;'>In the last block, you committed 4 errors and did not respond in time on 4 trials.
</p><p style='font-size: 24px;'>Try to respond as fast and accurately as possible in the next block as well! </p><p style='font-size: 24px;'>Press SPACE to continue.</p>","32","","","","","","","","","","","","","","","","","","","",""
"html-keyboard-response","43","521139","0.0-2.0-4.0","z486ja3obpaotb3","instructions","5e70e458f9b16800083e6733","5f60e3c0a3b16e07647b2ff9","5f63803996612b064e365ef0","false","4224.214999994729","<div align=left> Great!<br><br>Are you ready to continue?<br><br>If you want to reread the instructions and redo the practice trials, <br>please press „Z“. <br><br>Press SPACE to CONTINUE with the experiment when you are ready. </div>","32","","","","","","","","","","","","","","","","","","","",""
"html-keyboard-response","44","525960","0.0-3.0-0.0","z486ja3obpaotb3","instructions","5e70e458f9b16800083e6733","5f60e3c0a3b16e07647b2ff9","5f63803996612b064e365ef0","false","4816.710000042804","<div align=left>Great!<br> <strong>Attention</strong>! You will now receive a second, additional task! <br><br>To this point it was you <strong>first task</strong> to correctly <strong>classify objects</strong>. <br><br>As mentioned in the beginning, we aim to examine how well humans can remember previously learned information.<br>We would like to find out whether our memory improves if we only remember information that is relevant to us. <br><br>Therefore, your <strong>second task</strong> will be to <strong>remember</strong> the pictures you are to categorize. <br> After the learning phase, there will be a memory test phase, in which you will be asked to indicate whether you have seen a picture before or not. <br>Some, but not all pictures shown in the learning phase will appear in the memory test phase.<br>After classifying a picture, you will be told whether you should remember it for the memory test phase or not. <br>Thus, some pictures can be forgotten, whereas others have to be remembered. <br><br>Note: From now on, feedback will only be displayed if you responded incorrectly or not in time.<br><br>Press SPACE to continue.</div>","32","","","","","","","","","","","","","","","","","","","",""
"html-keyboard-response","45","553260","0.0-3.0-1.0","z486ja3obpaotb3","instructions","5e70e458f9b16800083e6733","5f60e3c0a3b16e07647b2ff9","5f63803996612b064e365ef0","false","27311.0250000027","<div align=left>In the following part, you will thus have to remember only some pictures. <br>Immediately after seeing and classifying the picture, a symbol will be displayed, indicating whether you should remember or forget the previous picture. <br><br>A <span style='color: dodgerblue; font-size: 28px'>O</span> indicates REMEMBER. That means, you have to remember this picture, because it will be tested later. <br><br>A <span style='color: darkorange; font-size:28px'>Ø</span> indicates FORGET. You do not have to remember this picture. <br><br> As you will have to remember a lot of pictures, it will be hard for you to remember all of them. <br>It will put you at an advantage if you instantly forget the pictures you are not asked to remember. <br> This will make it easier for you to remember the pictures that will be tested afterwards. <br><br>Press SPACE to continue.</div>","32","","","","","","","","","","","","","","","","","","","",""
"html-keyboard-response","46","579438","0.0-3.0-2.0","z486ja3obpaotb3","instructions","5e70e458f9b16800083e6733","5f60e3c0a3b16e07647b2ff9","5f63803996612b064e365ef0","false","26175.16500002239","<div align=left> Now you have the chance to practice both tasks together.<br><br>Remember: <br> <br><li>Please place your index fingers on the <strong>'S'</strong> and <strong>'L'</strong> keys <br>to respond as fast and accurately as possible.</li><li>Every picture can be classified as either mechanical or non-mechanical.</li><li>If you do not respond in time or commit an error, you will receive a corresponding feedback. <br>Please try to respond as <strong> fast </strong> and as <strong> accurately as possible </strong>.</li><li> Please remember only the to-be-remembered <span style='color: dodgerblue; font-size: 28px'>O</span> pictures. <br></li><li> Please minimize distractions and stay focused. </li><br><br>Press SPACE to START</div>","32","","","","","","","","","","","","","","","","","","","",""
"html-keyboard-response","47","580151","0.0-3.0-3.0-0.0","z486ja3obpaotb3","practice_cue","5e70e458f9b16800083e6733","5f60e3c0a3b16e07647b2ff9","5f63803996612b064e365ef0","false","null","<span style=""color: black; font-size: 48px"">M + N</span>","null","","","","resp_prompt","","","","","","","","","","","","","","","",""
"categorize-image","48","581042","0.0-3.0-3.0-1.0","z486ja3obpaotb3","practice_cue","5e70e458f9b16800083e6733","5f60e3c0a3b16e07647b2ff9","5f63803996612b064e365ef0","true","883.5850000032224","./Stimuli/ImagesPractice/SN205.jpg","76","","","","test","true","M + N","76","","SN","SN205.jpg","remember","old","17","2","practice_forget","right","","","",""
"html-keyboard-response","49","583059","0.0-3.0-3.0-3.0","z486ja3obpaotb3","practice_cue","5e70e458f9b16800083e6733","5f60e3c0a3b16e07647b2ff9","5f63803996612b064e365ef0","false","null","<div style=""align-items: center; display: flex; color: dodgerblue; font-size: 90px""><b>o</b></div>","null","","","","forget_cue","","","","","","","","","","","","","","","",""
"html-keyboard-response","50","583761","0.0-3.0-3.0-0.1","z486ja3obpaotb3","practice_cue","5e70e458f9b16800083e6733","5f60e3c0a3b16e07647b2ff9","5f63803996612b064e365ef0","false","null","<span style=""color: black; font-size: 48px"">N + M</span>","null","","","","resp_prompt","","","","","","","","","","","","","","","",""
"categorize-image","51","584971","0.0-3.0-3.0-1.1","z486ja3obpaotb3","practice_cue","5e70e458f9b16800083e6733","5f60e3c0a3b16e07647b2ff9","5f63803996612b064e365ef0","true","1202.564999985043","./Stimuli/ImagesPractice/LN109.jpg","83","","","","test","true","N + M","83","","LN","LN109.jpg","remember","old","18","2","practice_forget","left","","","",""
"html-keyboard-response","52","586987","0.0-3.0-3.0-3.1","z486ja3obpaotb3","practice_cue","5e70e458f9b16800083e6733","5f60e3c0a3b16e07647b2ff9","5f63803996612b064e365ef0","false","null","<div style=""align-items: center; display: flex; color: dodgerblue; font-size: 90px""><b>o</b></div>","null","","","","forget_cue","","","","","","","","","","","","","","","",""
"html-keyboard-response","53","587693","0.0-3.0-3.0-0.2","z486ja3obpaotb3","practice_cue","5e70e458f9b16800083e6733","5f60e3c0a3b16e07647b2ff9","5f63803996612b064e365ef0","false","null","<span style=""color: black; font-size: 48px"">M + N</span>","null","","","","resp_prompt","","","","","","","","","","","","","","","",""
"categorize-image","54","588673","0.0-3.0-3.0-1.2","z486ja3obpaotb3","practice_cue","5e70e458f9b16800083e6733","5f60e3c0a3b16e07647b2ff9","5f63803996612b064e365ef0","true","967.2250000294298","./Stimuli/ImagesPractice/LN17.jpg","76","","","","test","true","M + N","76","","LN","LN17.jpg","forget","old","19","2","practice_forget","right","","","",""
"html-keyboard-response","55","590686","0.0-3.0-3.0-3.2","z486ja3obpaotb3","practice_cue","5e70e458f9b16800083e6733","5f60e3c0a3b16e07647b2ff9","5f63803996612b064e365ef0","false","null","<div style=""align-items: center; display: flex; color: darkorange; font-size: 90px""><b>ø</b></div>","null","","","","forget_cue","","","","","","","","","","","","","","","",""
"html-keyboard-response","56","591392","0.0-3.0-3.0-0.3","z486ja3obpaotb3","practice_cue","5e70e458f9b16800083e6733","5f60e3c0a3b16e07647b2ff9","5f63803996612b064e365ef0","false","null","<span style=""color: black; font-size: 48px"">M + N</span>","null","","","","resp_prompt","","","","","","","","","","","","","","","",""
"categorize-image","57","592400","0.0-3.0-3.0-1.3","z486ja3obpaotb3","practice_cue","5e70e458f9b16800083e6733","5f60e3c0a3b16e07647b2ff9","5f63803996612b064e365ef0","true","1002.4149999953806","./Stimuli/ImagesPractice/LN2.jpg","76","","","","test","true","M + N","76","","LN","LN2.jpg","remember","old","20","2","practice_forget","right","","","",""
"html-keyboard-response","58","594416","0.0-3.0-3.0-3.3","z486ja3obpaotb3","practice_cue","5e70e458f9b16800083e6733","5f60e3c0a3b16e07647b2ff9","5f63803996612b064e365ef0","false","null","<div style=""align-items: center; display: flex; color: dodgerblue; font-size: 90px""><b>o</b></div>","null","","","","forget_cue","","","","","","","","","","","","","","","",""
"html-keyboard-response","59","595119","0.0-3.0-3.0-0.4","z486ja3obpaotb3","practice_cue","5e70e458f9b16800083e6733","5f60e3c0a3b16e07647b2ff9","5f63803996612b064e365ef0","false","null","<span style=""color: black; font-size: 48px"">N + M</span>","null","","","","resp_prompt","","","","","","","","","","","","","","","",""
"categorize-image","60","596026","0.0-3.0-3.0-1.4","z486ja3obpaotb3","practice_cue","5e70e458f9b16800083e6733","5f60e3c0a3b16e07647b2ff9","5f63803996612b064e365ef0","true","900.1299999654293","./Stimuli/ImagesPractice/SN222.jpg","83","","","","test","true","N + M","83","","SN","SN222.jpg","remember","old","21","2","practice_forget","left","","","",""
"html-keyboard-response","61","598043","0.0-3.0-3.0-3.4","z486ja3obpaotb3","practice_cue","5e70e458f9b16800083e6733","5f60e3c0a3b16e07647b2ff9","5f63803996612b064e365ef0","false","null","<div style=""align-items: center; display: flex; color: dodgerblue; font-size: 90px""><b>o</b></div>","null","","","","forget_cue","","","","","","","","","","","","","","","",""
"html-keyboard-response","62","598748","0.0-3.0-3.0-0.5","z486ja3obpaotb3","practice_cue","5e70e458f9b16800083e6733","5f60e3c0a3b16e07647b2ff9","5f63803996612b064e365ef0","false","null","<span style=""color: black; font-size: 48px"">N + M</span>","null","","","","resp_prompt","","","","","","","","","","","","","","","",""
"categorize-image","63","599673","0.0-3.0-3.0-1.5","z486ja3obpaotb3","practice_cue","5e70e458f9b16800083e6733","5f60e3c0a3b16e07647b2ff9","5f63803996612b064e365ef0","true","918.4799999929965","./Stimuli/ImagesPractice/SM37.jpg","76","","","","test","true","N + M","76","","SM","SM37.jpg","remember","old","22","2","practice_forget","right","","","",""
"html-keyboard-response","64","601681","0.0-3.0-3.0-3.5","z486ja3obpaotb3","practice_cue","5e70e458f9b16800083e6733","5f60e3c0a3b16e07647b2ff9","5f63803996612b064e365ef0","false","null","<div style=""align-items: center; display: flex; color: dodgerblue; font-size: 90px""><b>o</b></div>","null","","","","forget_cue","","","","","","","","","","","","","","","",""
"html-keyboard-response","65","602389","0.0-3.0-3.0-0.6","z486ja3obpaotb3","practice_cue","5e70e458f9b16800083e6733","5f60e3c0a3b16e07647b2ff9","5f63803996612b064e365ef0","false","null","<span style=""color: black; font-size: 48px"">N + M</span>","null","","","","resp_prompt","","","","","","","","","","","","","","","",""
"categorize-image","66","603468","0.0-3.0-3.0-1.6","z486ja3obpaotb3","practice_cue","5e70e458f9b16800083e6733","5f60e3c0a3b16e07647b2ff9","5f63803996612b064e365ef0","true","1072.8150000213645","./Stimuli/ImagesPractice/SN220.jpg","83","","","","test","true","N + M","83","","SN","SN220.jpg","remember","old","23","2","practice_forget","left","","","",""
"html-keyboard-response","67","605484","0.0-3.0-3.0-3.6","z486ja3obpaotb3","practice_cue","5e70e458f9b16800083e6733","5f60e3c0a3b16e07647b2ff9","5f63803996612b064e365ef0","false","null","<div style=""align-items: center; display: flex; color: dodgerblue; font-size: 90px""><b>o</b></div>","null","","","","forget_cue","","","","","","","","","","","","","","","",""
"html-keyboard-response","68","606198","0.0-3.0-3.0-0.7","z486ja3obpaotb3","practice_cue","5e70e458f9b16800083e6733","5f60e3c0a3b16e07647b2ff9","5f63803996612b064e365ef0","false","null","<span style=""color: black; font-size: 48px"">M + N</span>","null","","","","resp_prompt","","","","","","","","","","","","","","","",""
"categorize-image","69","607593","0.0-3.0-3.0-1.7","z486ja3obpaotb3","practice_cue","5e70e458f9b16800083e6733","5f60e3c0a3b16e07647b2ff9","5f63803996612b064e365ef0","true","1387.9749999614432","./Stimuli/ImagesPractice/SM98.jpg","83","","","","test","true","M + N","83","","SM","SM98.jpg","forget","old","24","2","practice_forget","left","","","",""
"html-keyboard-response","70","609601","0.0-3.0-3.0-3.7","z486ja3obpaotb3","practice_cue","5e70e458f9b16800083e6733","5f60e3c0a3b16e07647b2ff9","5f63803996612b064e365ef0","false","null","<div style=""align-items: center; display: flex; color: darkorange; font-size: 90px""><b>ø</b></div>","null","","","","forget_cue","","","","","","","","","","","","","","","",""
"html-keyboard-response","71","610307","0.0-3.0-3.0-0.8","z486ja3obpaotb3","practice_cue","5e70e458f9b16800083e6733","5f60e3c0a3b16e07647b2ff9","5f63803996612b064e365ef0","false","null","<span style=""color: black; font-size: 48px"">M + N</span>","null","","","","resp_prompt","","","","","","","","","","","","","","","",""
"categorize-image","72","611577","0.0-3.0-3.0-1.8","z486ja3obpaotb3","practice_cue","5e70e458f9b16800083e6733","5f60e3c0a3b16e07647b2ff9","5f63803996612b064e365ef0","true","1263.2649999577552","./Stimuli/ImagesPractice/LM143.jpg","76","","","","test","false","M + N","83","","LM","LM143.jpg","remember","old","25","2","practice_forget","right","","","",""
"html-keyboard-response","73","612094","0.0-3.0-3.0-2.8-0.8","z486ja3obpaotb3","practice_cue","5e70e458f9b16800083e6733","5f60e3c0a3b16e07647b2ff9","5f63803996612b064e365ef0","false","null","<span style=""color: red; font-size: 48px"">Error!</span>","null","","","","feedback","","","","","","","","","","","","","","","",""
"html-keyboard-response","74","614123","0.0-3.0-3.0-3.8","z486ja3obpaotb3","practice_cue","5e70e458f9b16800083e6733","5f60e3c0a3b16e07647b2ff9","5f63803996612b064e365ef0","false","null","<div style=""align-items: center; display: flex; color: dodgerblue; font-size: 90px""><b>o</b></div>","null","","","","forget_cue","","","","","","","","","","","","","","","",""
"html-keyboard-response","75","614831","0.0-3.0-3.0-0.9","z486ja3obpaotb3","practice_cue","5e70e458f9b16800083e6733","5f60e3c0a3b16e07647b2ff9","5f63803996612b064e365ef0","false","null","<span style=""color: black; font-size: 48px"">N + M</span>","null","","","","resp_prompt","","","","","","","","","","","","","","","",""
"categorize-image","76","616125","0.0-3.0-3.0-1.9","z486ja3obpaotb3","practice_cue","5e70e458f9b16800083e6733","5f60e3c0a3b16e07647b2ff9","5f63803996612b064e365ef0","true","1287.3100000433624","./Stimuli/ImagesPractice/SM61.jpg","76","","","","test","true","N + M","76","","SM","SM61.jpg","forget","old","26","2","practice_forget","right","","","",""
"html-keyboard-response","77","618132","0.0-3.0-3.0-3.9","z486ja3obpaotb3","practice_cue","5e70e458f9b16800083e6733","5f60e3c0a3b16e07647b2ff9","5f63803996612b064e365ef0","false","null","<div style=""align-items: center; display: flex; color: darkorange; font-size: 90px""><b>ø</b></div>","null","","","","forget_cue","","","","","","","","","","","","","","","",""
"html-keyboard-response","78","618837","0.0-3.0-3.0-0.10","z486ja3obpaotb3","practice_cue","5e70e458f9b16800083e6733","5f60e3c0a3b16e07647b2ff9","5f63803996612b064e365ef0","false","null","<span style=""color: black; font-size: 48px"">N + M</span>","null","","","","resp_prompt","","","","","","","","","","","","","","","",""
"categorize-image","79","619796","0.0-3.0-3.0-1.10","z486ja3obpaotb3","practice_cue","5e70e458f9b16800083e6733","5f60e3c0a3b16e07647b2ff9","5f63803996612b064e365ef0","true","956.2249999726191","./Stimuli/ImagesPractice/SN75.jpg","83","","","","test","true","N + M","83","","SN","SN75.jpg","forget","old","27","2","practice_forget","left","","","",""
"html-keyboard-response","80","621798","0.0-3.0-3.0-3.10","z486ja3obpaotb3","practice_cue","5e70e458f9b16800083e6733","5f60e3c0a3b16e07647b2ff9","5f63803996612b064e365ef0","false","null","<div style=""align-items: center; display: flex; color: darkorange; font-size: 90px""><b>ø</b></div>","null","","","","forget_cue","","","","","","","","","","","","","","","",""
"html-keyboard-response","81","622511","0.0-3.0-3.0-0.11","z486ja3obpaotb3","practice_cue","5e70e458f9b16800083e6733","5f60e3c0a3b16e07647b2ff9","5f63803996612b064e365ef0","false","null","<span style=""color: black; font-size: 48px"">M + N</span>","null","","","","resp_prompt","","","","","","","","","","","","","","","",""
"categorize-image","82","623396","0.0-3.0-3.0-1.11","z486ja3obpaotb3","practice_cue","5e70e458f9b16800083e6733","5f60e3c0a3b16e07647b2ff9","5f63803996612b064e365ef0","true","880.219999991823","./Stimuli/ImagesPractice/LN72.jpg","76","","","","test","true","M + N","76","","LN","LN72.jpg","remember","old","28","2","practice_forget","right","","","",""
"html-keyboard-response","83","625412","0.0-3.0-3.0-3.11","z486ja3obpaotb3","practice_cue","5e70e458f9b16800083e6733","5f60e3c0a3b16e07647b2ff9","5f63803996612b064e365ef0","false","null","<div style=""align-items: center; display: flex; color: dodgerblue; font-size: 90px""><b>o</b></div>","null","","","","forget_cue","","","","","","","","","","","","","","","",""
"html-keyboard-response","84","626118","0.0-3.0-3.0-0.12","z486ja3obpaotb3","practice_cue","5e70e458f9b16800083e6733","5f60e3c0a3b16e07647b2ff9","5f63803996612b064e365ef0","false","null","<span style=""color: black; font-size: 48px"">M + N</span>","null","","","","resp_prompt","","","","","","","","","","","","","","","",""
"categorize-image","85","627626","0.0-3.0-3.0-1.12","z486ja3obpaotb3","practice_cue","5e70e458f9b16800083e6733","5f60e3c0a3b16e07647b2ff9","5f63803996612b064e365ef0","true","1500.7349999505095","./Stimuli/ImagesPractice/SM35.jpg","83","","","","test","true","M + N","83","","SM","SM35.jpg","forget","old","29","2","practice_forget","left","","","",""
"html-keyboard-response","86","629633","0.0-3.0-3.0-3.12","z486ja3obpaotb3","practice_cue","5e70e458f9b16800083e6733","5f60e3c0a3b16e07647b2ff9","5f63803996612b064e365ef0","false","null","<div style=""align-items: center; display: flex; color: darkorange; font-size: 90px""><b>ø</b></div>","null","","","","forget_cue","","","","","","","","","","","","","","","",""
"html-keyboard-response","87","630340","0.0-3.0-3.0-0.13","z486ja3obpaotb3","practice_cue","5e70e458f9b16800083e6733","5f60e3c0a3b16e07647b2ff9","5f63803996612b064e365ef0","false","null","<span style=""color: black; font-size: 48px"">M + N</span>","null","","","","resp_prompt","","","","","","","","","","","","","","","",""
"categorize-image","88","631793","0.0-3.0-3.0-1.13","z486ja3obpaotb3","practice_cue","5e70e458f9b16800083e6733","5f60e3c0a3b16e07647b2ff9","5f63803996612b064e365ef0","true","1446.7850000364706","./Stimuli/ImagesPractice/LM147.jpg","76","","","","test","false","M + N","83","","LM","LM147.jpg","forget","old","30","2","practice_forget","right","","","",""
"html-keyboard-response","89","632302","0.0-3.0-3.0-2.13-0.13","z486ja3obpaotb3","practice_cue","5e70e458f9b16800083e6733","5f60e3c0a3b16e07647b2ff9","5f63803996612b064e365ef0","false","null","<span style=""color: red; font-size: 48px"">Error!</span>","null","","","","feedback","","","","","","","","","","","","","","","",""
"html-keyboard-response","90","634305","0.0-3.0-3.0-3.13","z486ja3obpaotb3","practice_cue","5e70e458f9b16800083e6733","5f60e3c0a3b16e07647b2ff9","5f63803996612b064e365ef0","false","null","<div style=""align-items: center; display: flex; color: darkorange; font-size: 90px""><b>ø</b></div>","null","","","","forget_cue","","","","","","","","","","","","","","","",""
"html-keyboard-response","91","635020","0.0-3.0-3.0-0.14","z486ja3obpaotb3","practice_cue","5e70e458f9b16800083e6733","5f60e3c0a3b16e07647b2ff9","5f63803996612b064e365ef0","false","null","<span style=""color: black; font-size: 48px"">N + M</span>","null","","","","resp_prompt","","","","","","","","","","","","","","","",""
"categorize-image","92","635974","0.0-3.0-3.0-1.14","z486ja3obpaotb3","practice_cue","5e70e458f9b16800083e6733","5f60e3c0a3b16e07647b2ff9","5f63803996612b064e365ef0","true","948.2299999799579","./Stimuli/ImagesPractice/LM55.jpg","76","","","","test","true","N + M","76","","LM","LM55.jpg","forget","old","31","2","practice_forget","right","","","",""
"html-keyboard-response","93","637990","0.0-3.0-3.0-3.14","z486ja3obpaotb3","practice_cue","5e70e458f9b16800083e6733","5f60e3c0a3b16e07647b2ff9","5f63803996612b064e365ef0","false","null","<div style=""align-items: center; display: flex; color: darkorange; font-size: 90px""><b>ø</b></div>","null","","","","forget_cue","","","","","","","","","","","","","","","",""
"html-keyboard-response","94","638697","0.0-3.0-3.0-0.15","z486ja3obpaotb3","practice_cue","5e70e458f9b16800083e6733","5f60e3c0a3b16e07647b2ff9","5f63803996612b064e365ef0","false","null","<span style=""color: black; font-size: 48px"">N + M</span>","null","","","","resp_prompt","","","","","","","","","","","","","","","",""
"categorize-image","95","639650","0.0-3.0-3.0-1.15","z486ja3obpaotb3","practice_cue","5e70e458f9b16800083e6733","5f60e3c0a3b16e07647b2ff9","5f63803996612b064e365ef0","true","946.8549999874085","./Stimuli/ImagesPractice/LN4.jpg","83","","","","test","true","N + M","83","","LN","LN4.jpg","forget","old","32","2","practice_forget","left","","","",""
"html-keyboard-response","96","641658","0.0-3.0-3.0-3.15","z486ja3obpaotb3","practice_cue","5e70e458f9b16800083e6733","5f60e3c0a3b16e07647b2ff9","5f63803996612b064e365ef0","false","null","<div style=""align-items: center; display: flex; color: darkorange; font-size: 90px""><b>ø</b></div>","null","","","","forget_cue","","","","","","","","","","","","","","","",""
"html-keyboard-response","97","661102","0.0-3.0-4.0","z486ja3obpaotb3","break","5e70e458f9b16800083e6733","5f60e3c0a3b16e07647b2ff9","5f63803996612b064e365ef0","false","19439.855000004172","<p style='font-size: 32px;'>Break</><br><br><br><br><br><p style='font-size: 24px;'>In the last block, you committed 2 errors and did not respond in time on 0 trials.
</p><p style='font-size: 24px;'>Try to respond as fast and accurately as possible in the next block as well! </p><p style='font-size: 24px;'>Press SPACE to continue.</p>","32","","","","","","","","","","","","","","","","","","","",""
"html-keyboard-response","98","695411","0.0-3.0-5.0","z486ja3obpaotb3","instructions","5e70e458f9b16800083e6733","5f60e3c0a3b16e07647b2ff9","5f63803996612b064e365ef0","false","34310.89000002248","<div align=left> Now, to practice, we kindly ask you to remember as many of the to-be-remembered pictures<br>of the previous learning phase as possible.<br><br>The pictures you were instructed to remember were the pictures followed by a <span style='color: dodgerblue; font-size: 28px'>O</span>.<br><br>In this memory test phase, you will also see some new pictures.<br>It is your task to remember whether you were presented with this specific picture in this study so far or not.<br>If you recognize an object (you have already seen it in this study), it is an OLD object. <br>If you do not recognize an object (you have NOT seen it in this study), it is a NEW object. <br><strong> Attention</strong>: As already mentioned, <span style='color: darkorange; font-size:28px'>Ø</span>-pictures will <strong>never</strong> appear in this memory test (neither as new objects). <br><br>Press SPACE to continue. </div>","32","","","","","","","","","","","","","","","","","","","",""
"html-keyboard-response","99","730586","0.0-3.0-6.0","z486ja3obpaotb3","instructions","5e70e458f9b16800083e6733","5f60e3c0a3b16e07647b2ff9","5f63803996612b064e365ef0","false","35171.84999998426","<div align=left> M and N no longer will appear on the left/right of the fixation cross. <br>Instead there will be a note at the bottom of the left or right side  <br>indicating which key you should press for an old or new object:  <br> <br>Press the <strong>right</strong> key to classify an object as <strong>old</strong> and press the <strong>left</strong>, to classify an object as <strong>new</strong>.<br>Please classify the objects as new/old by again placing your index finger on the 'S' and 'L' keys <br>and press them accordingly.<br><br><strong>Old:</strong> This object has been presented before. <br><strong>New:</strong> This object has <strong>not</strong> been presented.<br><br>Now please put your right and left index fingers on the 'S' and 'L' keys of your keyboard. <br>Please respond as fast and as accurately as possible!<br><br>Press SPACE to continue. </div>","32","","","","","","","","","","","","","","","","","","","",""
"categorize-image","100","732971","0.0-3.0-7.0-0.0","z486ja3obpaotb3","practice_recog","5e70e458f9b16800083e6733","5f60e3c0a3b16e07647b2ff9","5f63803996612b064e365ef0","true","1875.2600000007078","./Stimuli/ImagesPractice/LM239.jpg","76","","","","test","true","","76","","LM","LM239.jpg","","new","33","3","practice_recog","right","","","",""
"categorize-image","101","734884","0.0-3.0-7.0-0.1","z486ja3obpaotb3","practice_recog","5e70e458f9b16800083e6733","5f60e3c0a3b16e07647b2ff9","5f63803996612b064e365ef0","true","1408.3100000279956","./Stimuli/ImagesPractice/LM230.jpg","83","","","","test","false","","76","","LM","LM230.jpg","","new","34","3","practice_recog","left","","","",""
"categorize-image","102","736395","0.0-3.0-7.0-0.2","z486ja3obpaotb3","practice_recog","5e70e458f9b16800083e6733","5f60e3c0a3b16e07647b2ff9","5f63803996612b064e365ef0","true","1005.1450000028126","./Stimuli/ImagesPractice/SM37.jpg","83","","","","test","true","","83","","SM","SM37.jpg","","old","35","3","practice_recog","left","","","",""
"categorize-image","103","737788","0.0-3.0-7.0-0.3","z486ja3obpaotb3","practice_recog","5e70e458f9b16800083e6733","5f60e3c0a3b16e07647b2ff9","5f63803996612b064e365ef0","true","878.5849999985658","./Stimuli/ImagesPractice/SM97.jpg","76","","","","test","true","","76","","SM","SM97.jpg","","new","36","3","practice_recog","right","","","",""
"categorize-image","104","739105","0.0-3.0-7.0-0.4","z486ja3obpaotb3","practice_recog","5e70e458f9b16800083e6733","5f60e3c0a3b16e07647b2ff9","5f63803996612b064e365ef0","true","811.615000013262","./Stimuli/ImagesPractice/LN15.jpg","76","","","","test","true","","76","","LN","LN15.jpg","","new","37","3","practice_recog","right","","","",""
"categorize-image","105","740366","0.0-3.0-7.0-0.5","z486ja3obpaotb3","practice_recog","5e70e458f9b16800083e6733","5f60e3c0a3b16e07647b2ff9","5f63803996612b064e365ef0","true","755.5000000284053","./Stimuli/ImagesPractice/LM224.jpg","76","","","","test","true","","76","","LM","LM224.jpg","","new","38","3","practice_recog","right","","","",""
"categorize-image","106","741676","0.0-3.0-7.0-0.6","z486ja3obpaotb3","practice_recog","5e70e458f9b16800083e6733","5f60e3c0a3b16e07647b2ff9","5f63803996612b064e365ef0","true","795.2250000089407","./Stimuli/ImagesPractice/SN205.jpg","83","","","","test","true","","83","","SN","SN205.jpg","","old","39","3","practice_recog","left","","","",""
"categorize-image","107","743128","0.0-3.0-7.0-0.7","z486ja3obpaotb3","practice_recog","5e70e458f9b16800083e6733","5f60e3c0a3b16e07647b2ff9","5f63803996612b064e365ef0","true","938.3549999911338","./Stimuli/ImagesPractice/SN220.jpg","83","","","","test","true","","83","","SN","SN220.jpg","","old","40","3","practice_recog","left","","","",""
"categorize-image","108","744513","0.0-3.0-7.0-0.8","z486ja3obpaotb3","practice_recog","5e70e458f9b16800083e6733","5f60e3c0a3b16e07647b2ff9","5f63803996612b064e365ef0","true","876.4999999548309","./Stimuli/ImagesPractice/LN2.jpg","83","","","","test","true","","83","","LN","LN2.jpg","","old","41","3","practice_recog","left","","","",""
"categorize-image","109","745628","0.0-3.0-7.0-0.9","z486ja3obpaotb3","practice_recog","5e70e458f9b16800083e6733","5f60e3c0a3b16e07647b2ff9","5f63803996612b064e365ef0","true","601.0200000018813","./Stimuli/ImagesPractice/SN222.jpg","83","","","","test","true","","83","","SN","SN222.jpg","","old","42","3","practice_recog","left","","","",""
"categorize-image","110","747050","0.0-3.0-7.0-0.10","z486ja3obpaotb3","practice_recog","5e70e458f9b16800083e6733","5f60e3c0a3b16e07647b2ff9","5f63803996612b064e365ef0","true","908.1000000005588","./Stimuli/ImagesPractice/LM143.jpg","83","","","","test","true","","83","","LM","LM143.jpg","","old","43","3","practice_recog","left","","","",""
"categorize-image","111","748282","0.0-3.0-7.0-0.11","z486ja3obpaotb3","practice_recog","5e70e458f9b16800083e6733","5f60e3c0a3b16e07647b2ff9","5f63803996612b064e365ef0","true","726.9300000043586","./Stimuli/ImagesPractice/SN76.jpg","76","","","","test","true","","76","","SN","SN76.jpg","","new","44","3","practice_recog","right","","","",""
"categorize-image","112","749904","0.0-3.0-7.0-0.12","z486ja3obpaotb3","practice_recog","5e70e458f9b16800083e6733","5f60e3c0a3b16e07647b2ff9","5f63803996612b064e365ef0","true","1116.1299999803305","./Stimuli/ImagesPractice/SM62.jpg","76","","","","test","true","","76","","SM","SM62.jpg","","new","45","3","practice_recog","right","","","",""
"categorize-image","113","751182","0.0-3.0-7.0-0.13","z486ja3obpaotb3","practice_recog","5e70e458f9b16800083e6733","5f60e3c0a3b16e07647b2ff9","5f63803996612b064e365ef0","true","764.1049999510869","./Stimuli/ImagesPractice/SN221.jpg","76","","","","test","true","","76","","SN","SN221.jpg","","new","46","3","practice_recog","right","","","",""
"categorize-image","114","752387","0.0-3.0-7.0-0.14","z486ja3obpaotb3","practice_recog","5e70e458f9b16800083e6733","5f60e3c0a3b16e07647b2ff9","5f63803996612b064e365ef0","true","698.6200000392273","./Stimuli/ImagesPractice/LN109.jpg","83","","","","test","true","","83","","LN","LN109.jpg","","old","47","3","practice_recog","left","","","",""
"categorize-image","115","753583","0.0-3.0-7.0-0.15","z486ja3obpaotb3","practice_recog","5e70e458f9b16800083e6733","5f60e3c0a3b16e07647b2ff9","5f63803996612b064e365ef0","true","682.7400000183843","./Stimuli/ImagesPractice/LN72.jpg","83","","","","test","true","","83","","LN","LN72.jpg","","old","48","3","practice_recog","left","","","",""
"html-keyboard-response","116","771413","0.0-3.0-8.0","z486ja3obpaotb3","instructions","5e70e458f9b16800083e6733","5f60e3c0a3b16e07647b2ff9","5f63803996612b064e365ef0","false","17824.215000029653","<div align=left> Great!<br><br>Are you ready to continue?<br>If you want to reread the instructions and redo the practice trials, please <br>press „Z“.<br><br>You can proceed when you are ready.<br><br>After the presentation of each object, you will receive an instruction whether to <br>remember or to forget the object.<br>We will test your memory of the following pictures only at the very end of <br>the experiment after all learning blocks are completed. <br><br>Press SPACE to CONTINUE when you are ready. </div>","32","","","","","","","","","","","","","","","","","","","",""
"html-keyboard-response","117","814029","0.0-4.0-0.0","z486ja3obpaotb3","instructions","5e70e458f9b16800083e6733","5f60e3c0a3b16e07647b2ff9","5f63803996612b064e365ef0","false","42612.38499998581","<div align=left> The actual experiment is about to start.<br>The practice trials are over!<br><br>Please always respond both fast and accurately!<br><br>Remember: <br> <br><li> Please place your index fingers on the <strong>'S'</strong> and <strong>'L'</strong> keys <br>to respond as fast and accurately as possible.</li><li> Every picture can be classified as either mechanical or non-mechanical.</li><li> If you do not respond in time or commit an error, you will receive a corresponding feedback.<br> Please try to respond as <strong> fast </strong> and as <strong> accurately as possible </strong>.</li><li> Remember the <span style='color: dodgerblue; font-size: 28px'>O</span> pictures. <br></li><li> Please minimize distractions and stay focused. </li><br><br>Press SPACE to START.</div>","32","","","","","","","","","","","","","","","","","","","",""
"html-keyboard-response","118","814733","0.0-4.0-1.0-0.0","z486ja3obpaotb3","prime","5e70e458f9b16800083e6733","5f60e3c0a3b16e07647b2ff9","5f63803996612b064e365ef0","false","null","<span style=""color: black; font-size: 48px"">N + M</span>","null","","","","resp_prompt","","","","","","","","","","","","","","","",""
"categorize-image","119","816153","0.0-4.0-1.0-1.0","z486ja3obpaotb3","prime","5e70e458f9b16800083e6733","5f60e3c0a3b16e07647b2ff9","5f63803996612b064e365ef0","true","1411.8650000309572","./Stimuli/SelectedImages/SN/SN49.bmp","83","","","","test","true","N + M","83","repetition","SN","SN49.bmp","remember","","49","3","prime1","left","","","",""
"html-keyboard-response","120","818168","0.0-4.0-1.0-3.0","z486ja3obpaotb3","prime","5e70e458f9b16800083e6733","5f60e3c0a3b16e07647b2ff9","5f63803996612b064e365ef0","false","null","<div style=""align-items: center; display: flex; color: dodgerblue; font-size: 90px""><b>o</b></div>","null","","","","forget_cue","","","","","","","","","","","","","","","",""
"html-keyboard-response","121","818882","0.0-4.0-1.0-0.1","z486ja3obpaotb3","prime","5e70e458f9b16800083e6733","5f60e3c0a3b16e07647b2ff9","5f63803996612b064e365ef0","false","null","<span style=""color: black; font-size: 48px"">M + N</span>","null","","","","resp_prompt","","","","","","","","","","","","","","","",""
"categorize-image","122","819958","0.0-4.0-1.0-1.1","z486ja3obpaotb3","prime","5e70e458f9b16800083e6733","5f60e3c0a3b16e07647b2ff9","5f63803996612b064e365ef0","true","1069.0600000089034","./Stimuli/SelectedImages/LM/LM58.bmp","83","","","","test","true","M + N","83","switch","LM","LM58.bmp","remember","","50","3","prime1","left","","","",""
"html-keyboard-response","123","821965","0.0-4.0-1.0-3.1","z486ja3obpaotb3","prime","5e70e458f9b16800083e6733","5f60e3c0a3b16e07647b2ff9","5f63803996612b064e365ef0","false","null","<div style=""align-items: center; display: flex; color: dodgerblue; font-size: 90px""><b>o</b></div>","null","","","","forget_cue","","","","","","","","","","","","","","","",""
"html-keyboard-response","124","822679","0.0-4.0-1.0-0.2","z486ja3obpaotb3","prime","5e70e458f9b16800083e6733","5f60e3c0a3b16e07647b2ff9","5f63803996612b064e365ef0","false","null","<span style=""color: black; font-size: 48px"">N + M</span>","null","","","","resp_prompt","","","","","","","","","","","","","","","",""
"categorize-image","125","823614","0.0-4.0-1.0-1.2","z486ja3obpaotb3","prime","5e70e458f9b16800083e6733","5f60e3c0a3b16e07647b2ff9","5f63803996612b064e365ef0","true","928.4600000246428","./Stimuli/SelectedImages/SN/SN60.bmp","76","","","","test","false","N + M","83","repetition","SN","SN60.bmp","forget","","51","3","prime1","right","","","",""
"html-keyboard-response","126","824121","0.0-4.0-1.0-2.2-0.2","z486ja3obpaotb3","prime","5e70e458f9b16800083e6733","5f60e3c0a3b16e07647b2ff9","5f63803996612b064e365ef0","false","null","<span style=""color: red; font-size: 48px"">Error!</span>","null","","","","feedback","","","","","","","","","","","","","","","",""
"html-keyboard-response","127","826124","0.0-4.0-1.0-3.2","z486ja3obpaotb3","prime","5e70e458f9b16800083e6733","5f60e3c0a3b16e07647b2ff9","5f63803996612b064e365ef0","false","null","<div style=""align-items: center; display: flex; color: darkorange; font-size: 90px""><b>ø</b></div>","null","","","","forget_cue","","","","","","","","","","","","","","","",""
"html-keyboard-response","128","826838","0.0-4.0-1.0-0.3","z486ja3obpaotb3","prime","5e70e458f9b16800083e6733","5f60e3c0a3b16e07647b2ff9","5f63803996612b064e365ef0","false","null","<span style=""color: black; font-size: 48px"">N + M</span>","null","","","","resp_prompt","","","","","","","","","","","","","","","",""
"categorize-image","129","827361","0.0-4.0-1.0-1.3","z486ja3obpaotb3","prime","5e70e458f9b16800083e6733","5f60e3c0a3b16e07647b2ff9","5f63803996612b064e365ef0","true","516.3750000065193","./Stimuli/SelectedImages/LN/LN9.bmp","83","","","","test","true","N + M","83","repetition","LN","LN9.bmp","forget","","52","3","prime1","left","","","",""
"html-keyboard-response","130","829367","0.0-4.0-1.0-3.3","z486ja3obpaotb3","prime","5e70e458f9b16800083e6733","5f60e3c0a3b16e07647b2ff9","5f63803996612b064e365ef0","false","null","<div style=""align-items: center; display: flex; color: darkorange; font-size: 90px""><b>ø</b></div>","null","","","","forget_cue","","","","","","","","","","","","","","","",""
"html-keyboard-response","131","830081","0.0-4.0-1.0-0.4","z486ja3obpaotb3","prime","5e70e458f9b16800083e6733","5f60e3c0a3b16e07647b2ff9","5f63803996612b064e365ef0","false","null","<span style=""color: black; font-size: 48px"">M + N</span>","null","","","","resp_prompt","","","","","","","","","","","","","","","",""
"categorize-image","132","830761","0.0-4.0-1.0-1.4","z486ja3obpaotb3","prime","5e70e458f9b16800083e6733","5f60e3c0a3b16e07647b2ff9","5f63803996612b064e365ef0","true","673.8400000031106","./Stimuli/SelectedImages/SN/SN181.bmp","76","","","","test","true","M + N","76","repetition","SN","SN181.bmp","forget","","53","3","prime1","right","","","",""
"html-keyboard-response","133","832770","0.0-4.0-1.0-3.4","z486ja3obpaotb3","prime","5e70e458f9b16800083e6733","5f60e3c0a3b16e07647b2ff9","5f63803996612b064e365ef0","false","null","<div style=""align-items: center; display: flex; color: darkorange; font-size: 90px""><b>ø</b></div>","null","","","","forget_cue","","","","","","","","","","","","","","","",""
"html-keyboard-response","134","833479","0.0-4.0-1.0-0.5","z486ja3obpaotb3","prime","5e70e458f9b16800083e6733","5f60e3c0a3b16e07647b2ff9","5f63803996612b064e365ef0","false","null","<span style=""color: black; font-size: 48px"">M + N</span>","null","","","","resp_prompt","","","","","","","","","","","","","","","",""
"categorize-image","135","834599","0.0-4.0-1.0-1.5","z486ja3obpaotb3","prime","5e70e458f9b16800083e6733","5f60e3c0a3b16e07647b2ff9","5f63803996612b064e365ef0","true","1113.5449999710545","./Stimuli/SelectedImages/LM/LM48.bmp","76","","","","test","false","M + N","83","repetition","LM","LM48.bmp","forget","","54","3","prime1","right","","","",""
"html-keyboard-response","136","835115","0.0-4.0-1.0-2.5-0.5","z486ja3obpaotb3","prime","5e70e458f9b16800083e6733","5f60e3c0a3b16e07647b2ff9","5f63803996612b064e365ef0","false","null","<span style=""color: red; font-size: 48px"">Error!</span>","null","","","","feedback","","","","","","","","","","","","","","","",""
"html-keyboard-response","137","837132","0.0-4.0-1.0-3.5","z486ja3obpaotb3","prime","5e70e458f9b16800083e6733","5f60e3c0a3b16e07647b2ff9","5f63803996612b064e365ef0","false","null","<div style=""align-items: center; display: flex; color: darkorange; font-size: 90px""><b>ø</b></div>","null","","","","forget_cue","","","","","","","","","","","","","","","",""
"html-keyboard-response","138","837837","0.0-4.0-1.0-0.6","z486ja3obpaotb3","prime","5e70e458f9b16800083e6733","5f60e3c0a3b16e07647b2ff9","5f63803996612b064e365ef0","false","null","<span style=""color: black; font-size: 48px"">M + N</span>","null","","","","resp_prompt","","","","","","","","","","","","","","","",""
"categorize-image","139","838874","0.0-4.0-1.0-1.6","z486ja3obpaotb3","prime","5e70e458f9b16800083e6733","5f60e3c0a3b16e07647b2ff9","5f63803996612b064e365ef0","true","1030.0700000370853","./Stimuli/SelectedImages/LM/LM129.bmp","83","","","","test","true","M + N","83","repetition","LM","LM129.bmp","forget","","55","3","prime1","left","","","",""
"html-keyboard-response","140","840882","0.0-4.0-1.0-3.6","z486ja3obpaotb3","prime","5e70e458f9b16800083e6733","5f60e3c0a3b16e07647b2ff9","5f63803996612b064e365ef0","false","null","<div style=""align-items: center; display: flex; color: darkorange; font-size: 90px""><b>ø</b></div>","null","","","","forget_cue","","","","","","","","","","","","","","","",""
"html-keyboard-response","141","841588","0.0-4.0-1.0-0.7","z486ja3obpaotb3","prime","5e70e458f9b16800083e6733","5f60e3c0a3b16e07647b2ff9","5f63803996612b064e365ef0","false","null","<span style=""color: black; font-size: 48px"">N + M</span>","null","","","","resp_prompt","","","","","","","","","","","","","","","",""
"categorize-image","142","842785","0.0-4.0-1.0-1.7","z486ja3obpaotb3","prime","5e70e458f9b16800083e6733","5f60e3c0a3b16e07647b2ff9","5f63803996612b064e365ef0","true","1189.9149999953806","./Stimuli/SelectedImages/SM/SM213.bmp","76","","","","test","true","N + M","76","switch","SM","SM213.bmp","remember","","56","3","prime1","right","","","",""
"html-keyboard-response","143","844800","0.0-4.0-1.0-3.7","z486ja3obpaotb3","prime","5e70e458f9b16800083e6733","5f60e3c0a3b16e07647b2ff9","5f63803996612b064e365ef0","false","null","<div style=""align-items: center; display: flex; color: dodgerblue; font-size: 90px""><b>o</b></div>","null","","","","forget_cue","","","","","","","","","","","","","","","",""
"html-keyboard-response","144","845507","0.0-4.0-1.0-0.8","z486ja3obpaotb3","prime","5e70e458f9b16800083e6733","5f60e3c0a3b16e07647b2ff9","5f63803996612b064e365ef0","false","null","<span style=""color: black; font-size: 48px"">N + M</span>","null","","","","resp_prompt","","","","","","","","","","","","","","","",""
"categorize-image","145","846126","0.0-4.0-1.0-1.8","z486ja3obpaotb3","prime","5e70e458f9b16800083e6733","5f60e3c0a3b16e07647b2ff9","5f63803996612b064e365ef0","true","612.5700000557117","./Stimuli/SelectedImages/LM/LM235.bmp","76","","","","test","true","N + M","76","switch","LM","LM235.bmp","forget","","57","3","prime1","right","","","",""
"html-keyboard-response","146","848130","0.0-4.0-1.0-3.8","z486ja3obpaotb3","prime","5e70e458f9b16800083e6733","5f60e3c0a3b16e07647b2ff9","5f63803996612b064e365ef0","false","null","<div style=""align-items: center; display: flex; color: darkorange; font-size: 90px""><b>ø</b></div>","null","","","","forget_cue","","","","","","","","","","","","","","","",""
"html-keyboard-response","147","848844","0.0-4.0-1.0-0.9","z486ja3obpaotb3","prime","5e70e458f9b16800083e6733","5f60e3c0a3b16e07647b2ff9","5f63803996612b064e365ef0","false","null","<span style=""color: black; font-size: 48px"">N + M</span>","null","","","","resp_prompt","","","","","","","","","","","","","","","",""
"categorize-image","148","849482","0.0-4.0-1.0-1.9","z486ja3obpaotb3","prime","5e70e458f9b16800083e6733","5f60e3c0a3b16e07647b2ff9","5f63803996612b064e365ef0","true","629.0949999820441","./Stimuli/SelectedImages/LN/LN166.bmp","83","","","","test","true","N + M","83","switch","LN","LN166.bmp","forget","","58","3","prime1","left","","","",""
"html-keyboard-response","149","851488","0.0-4.0-1.0-3.9","z486ja3obpaotb3","prime","5e70e458f9b16800083e6733","5f60e3c0a3b16e07647b2ff9","5f63803996612b064e365ef0","false","null","<div style=""align-items: center; display: flex; color: darkorange; font-size: 90px""><b>ø</b></div>","null","","","","forget_cue","","","","","","","","","","","","","","","",""
"html-keyboard-response","150","852196","0.0-4.0-1.0-0.10","z486ja3obpaotb3","prime","5e70e458f9b16800083e6733","5f60e3c0a3b16e07647b2ff9","5f63803996612b064e365ef0","false","null","<span style=""color: black; font-size: 48px"">M + N</span>","null","","","","resp_prompt","","","","","","","","","","","","","","","",""
"categorize-image","151","852847","0.0-4.0-1.0-1.10","z486ja3obpaotb3","prime","5e70e458f9b16800083e6733","5f60e3c0a3b16e07647b2ff9","5f63803996612b064e365ef0","true","645.13999997871","./Stimuli/SelectedImages/LN/LN101.bmp","76","","","","test","true","M + N","76","switch","LN","LN101.bmp","forget","","59","3","prime1","right","","","",""
"html-keyboard-response","152","854863","0.0-4.0-1.0-3.10","z486ja3obpaotb3","prime","5e70e458f9b16800083e6733","5f60e3c0a3b16e07647b2ff9","5f63803996612b064e365ef0","false","null","<div style=""align-items: center; display: flex; color: darkorange; font-size: 90px""><b>ø</b></div>","null","","","","forget_cue","","","","","","","","","","","","","","","",""
"html-keyboard-response","153","855577","0.0-4.0-1.0-0.11","z486ja3obpaotb3","prime","5e70e458f9b16800083e6733","5f60e3c0a3b16e07647b2ff9","5f63803996612b064e365ef0","false","null","<span style=""color: black; font-size: 48px"">M + N</span>","null","","","","resp_prompt","","","","","","","","","","","","","","","",""
"categorize-image","154","856268","0.0-4.0-1.0-1.11","z486ja3obpaotb3","prime","5e70e458f9b16800083e6733","5f60e3c0a3b16e07647b2ff9","5f63803996612b064e365ef0","true","685.5799999902956","./Stimuli/SelectedImages/SN/SN140.bmp","76","","","","test","true","M + N","76","switch","SN","SN140.bmp","forget","","60","3","prime1","right","","","",""
"html-keyboard-response","155","858284","0.0-4.0-1.0-3.11","z486ja3obpaotb3","prime","5e70e458f9b16800083e6733","5f60e3c0a3b16e07647b2ff9","5f63803996612b064e365ef0","false","null","<div style=""align-items: center; display: flex; color: darkorange; font-size: 90px""><b>ø</b></div>","null","","","","forget_cue","","","","","","","","","","","","","","","",""
"html-keyboard-response","156","858997","0.0-4.0-1.0-0.12","z486ja3obpaotb3","prime","5e70e458f9b16800083e6733","5f60e3c0a3b16e07647b2ff9","5f63803996612b064e365ef0","false","null","<span style=""color: black; font-size: 48px"">M + N</span>","null","","","","resp_prompt","","","","","","","","","","","","","","","",""
"categorize-image","157","859856","0.0-4.0-1.0-1.12","z486ja3obpaotb3","prime","5e70e458f9b16800083e6733","5f60e3c0a3b16e07647b2ff9","5f63803996612b064e365ef0","true","851.3500000117347","./Stimuli/SelectedImages/SM/SM24.bmp","83","","","","test","true","M + N","83","repetition","SM","SM24.bmp","forget","","61","3","prime1","left","","","",""
"html-keyboard-response","158","861871","0.0-4.0-1.0-3.12","z486ja3obpaotb3","prime","5e70e458f9b16800083e6733","5f60e3c0a3b16e07647b2ff9","5f63803996612b064e365ef0","false","null","<div style=""align-items: center; display: flex; color: darkorange; font-size: 90px""><b>ø</b></div>","null","","","","forget_cue","","","","","","","","","","","","","","","",""
"html-keyboard-response","159","862574","0.0-4.0-1.0-0.13","z486ja3obpaotb3","prime","5e70e458f9b16800083e6733","5f60e3c0a3b16e07647b2ff9","5f63803996612b064e365ef0","false","null","<span style=""color: black; font-size: 48px"">N + M</span>","null","","","","resp_prompt","","","","","","","","","","","","","","","",""
"categorize-image","160","863270","0.0-4.0-1.0-1.13","z486ja3obpaotb3","prime","5e70e458f9b16800083e6733","5f60e3c0a3b16e07647b2ff9","5f63803996612b064e365ef0","true","689.7149999858811","./Stimuli/SelectedImages/LM/LM157.bmp","76","","","","test","true","N + M","76","repetition","LM","LM157.bmp","remember","","62","3","prime1","right","","","",""
"html-keyboard-response","161","865278","0.0-4.0-1.0-3.13","z486ja3obpaotb3","prime","5e70e458f9b16800083e6733","5f60e3c0a3b16e07647b2ff9","5f63803996612b064e365ef0","false","null","<div style=""align-items: center; display: flex; color: dodgerblue; font-size: 90px""><b>o</b></div>","null","","","","forget_cue","","","","","","","","","","","","","","","",""
"html-keyboard-response","162","865984","0.0-4.0-1.0-0.14","z486ja3obpaotb3","prime","5e70e458f9b16800083e6733","5f60e3c0a3b16e07647b2ff9","5f63803996612b064e365ef0","false","null","<span style=""color: black; font-size: 48px"">N + M</span>","null","","","","resp_prompt","","","","","","","","","","","","","","","",""
"categorize-image","163","866538","0.0-4.0-1.0-1.14","z486ja3obpaotb3","prime","5e70e458f9b16800083e6733","5f60e3c0a3b16e07647b2ff9","5f63803996612b064e365ef0","true","547.7050000336021","./Stimuli/SelectedImages/SN/SN187.bmp","83","","","","test","true","N + M","83","switch","SN","SN187.bmp","forget","","63","3","prime1","left","","","",""
"html-keyboard-response","164","868545","0.0-4.0-1.0-3.14","z486ja3obpaotb3","prime","5e70e458f9b16800083e6733","5f60e3c0a3b16e07647b2ff9","5f63803996612b064e365ef0","false","null","<div style=""align-items: center; display: flex; color: darkorange; font-size: 90px""><b>ø</b></div>","null","","","","forget_cue","","","","","","","","","","","","","","","",""
"html-keyboard-response","165","869254","0.0-4.0-1.0-0.15","z486ja3obpaotb3","prime","5e70e458f9b16800083e6733","5f60e3c0a3b16e07647b2ff9","5f63803996612b064e365ef0","false","null","<span style=""color: black; font-size: 48px"">M + N</span>","null","","","","resp_prompt","","","","","","","","","","","","","","","",""
"categorize-image","166","870138","0.0-4.0-1.0-1.15","z486ja3obpaotb3","prime","5e70e458f9b16800083e6733","5f60e3c0a3b16e07647b2ff9","5f63803996612b064e365ef0","true","874.7999999905005","./Stimuli/SelectedImages/LM/LM59.bmp","76","","","","test","false","M + N","83","switch","LM","LM59.bmp","forget","","64","3","prime1","right","","","",""
"html-keyboard-response","167","870645","0.0-4.0-1.0-2.15-0.15","z486ja3obpaotb3","prime","5e70e458f9b16800083e6733","5f60e3c0a3b16e07647b2ff9","5f63803996612b064e365ef0","false","null","<span style=""color: red; font-size: 48px"">Error!</span>","null","","","","feedback","","","","","","","","","","","","","","","",""
"html-keyboard-response","168","872650","0.0-4.0-1.0-3.15","z486ja3obpaotb3","prime","5e70e458f9b16800083e6733","5f60e3c0a3b16e07647b2ff9","5f63803996612b064e365ef0","false","null","<div style=""align-items: center; display: flex; color: darkorange; font-size: 90px""><b>ø</b></div>","null","","","","forget_cue","","","","","","","","","","","","","","","",""
"html-keyboard-response","169","873353","0.0-4.0-1.0-0.16","z486ja3obpaotb3","prime","5e70e458f9b16800083e6733","5f60e3c0a3b16e07647b2ff9","5f63803996612b064e365ef0","false","null","<span style=""color: black; font-size: 48px"">M + N</span>","null","","","","resp_prompt","","","","","","","","","","","","","","","",""
"categorize-image","170","873948","0.0-4.0-1.0-1.16","z486ja3obpaotb3","prime","5e70e458f9b16800083e6733","5f60e3c0a3b16e07647b2ff9","5f63803996612b064e365ef0","true","587.8950000042096","./Stimuli/SelectedImages/SM/SM200.bmp","83","","","","test","true","M + N","83","repetition","SM","SM200.bmp","forget","","65","3","prime1","left","","","",""
"html-keyboard-response","171","875955","0.0-4.0-1.0-3.16","z486ja3obpaotb3","prime","5e70e458f9b16800083e6733","5f60e3c0a3b16e07647b2ff9","5f63803996612b064e365ef0","false","null","<div style=""align-items: center; display: flex; color: darkorange; font-size: 90px""><b>ø</b></div>","null","","","","forget_cue","","","","","","","","","","","","","","","",""
"html-keyboard-response","172","876661","0.0-4.0-1.0-0.17","z486ja3obpaotb3","prime","5e70e458f9b16800083e6733","5f60e3c0a3b16e07647b2ff9","5f63803996612b064e365ef0","false","null","<span style=""color: black; font-size: 48px"">N + M</span>","null","","","","resp_prompt","","","","","","","","","","","","","","","",""
"categorize-image","173","877372","0.0-4.0-1.0-1.17","z486ja3obpaotb3","prime","5e70e458f9b16800083e6733","5f60e3c0a3b16e07647b2ff9","5f63803996612b064e365ef0","true","703.9949999889359","./Stimuli/SelectedImages/SM/SM78.bmp","76","","","","test","true","N + M","76","repetition","SM","SM78.bmp","forget","","66","3","prime1","right","","","",""
"html-keyboard-response","174","879378","0.0-4.0-1.0-3.17","z486ja3obpaotb3","prime","5e70e458f9b16800083e6733","5f60e3c0a3b16e07647b2ff9","5f63803996612b064e365ef0","false","null","<div style=""align-items: center; display: flex; color: darkorange; font-size: 90px""><b>ø</b></div>","null","","","","forget_cue","","","","","","","","","","","","","","","",""
"html-keyboard-response","175","880084","0.0-4.0-1.0-0.18","z486ja3obpaotb3","prime","5e70e458f9b16800083e6733","5f60e3c0a3b16e07647b2ff9","5f63803996612b064e365ef0","false","null","<span style=""color: black; font-size: 48px"">N + M</span>","null","","","","resp_prompt","","","","","","","","","","","","","","","",""
"categorize-image","176","880535","0.0-4.0-1.0-1.18","z486ja3obpaotb3","prime","5e70e458f9b16800083e6733","5f60e3c0a3b16e07647b2ff9","5f63803996612b064e365ef0","true","445.39499998791143","./Stimuli/SelectedImages/SN/SN111.bmp","83","","","","test","true","N + M","83","repetition","SN","SN111.bmp","forget","","67","3","prime1","left","","","",""
"html-keyboard-response","177","882543","0.0-4.0-1.0-3.18","z486ja3obpaotb3","prime","5e70e458f9b16800083e6733","5f60e3c0a3b16e07647b2ff9","5f63803996612b064e365ef0","false","null","<div style=""align-items: center; display: flex; color: darkorange; font-size: 90px""><b>ø</b></div>","null","","","","forget_cue","","","","","","","","","","","","","","","",""
"html-keyboard-response","178","883252","0.0-4.0-1.0-0.19","z486ja3obpaotb3","prime","5e70e458f9b16800083e6733","5f60e3c0a3b16e07647b2ff9","5f63803996612b064e365ef0","false","null","<span style=""color: black; font-size: 48px"">N + M</span>","null","","","","resp_prompt","","","","","","","","","","","","","","","",""
"categorize-image","179","883893","0.0-4.0-1.0-1.19","z486ja3obpaotb3","prime","5e70e458f9b16800083e6733","5f60e3c0a3b16e07647b2ff9","5f63803996612b064e365ef0","true","625.9350000182167","./Stimuli/SelectedImages/LN/LN82.bmp","83","","","","test","true","N + M","83","switch","LN","LN82.bmp","remember","","68","3","prime1","left","","","",""
"html-keyboard-response","180","885903","0.0-4.0-1.0-3.19","z486ja3obpaotb3","prime","5e70e458f9b16800083e6733","5f60e3c0a3b16e07647b2ff9","5f63803996612b064e365ef0","false","null","<div style=""align-items: center; display: flex; color: dodgerblue; font-size: 90px""><b>o</b></div>","null","","","","forget_cue","","","","","","","","","","","","","","","",""
"html-keyboard-response","181","886611","0.0-4.0-1.0-0.20","z486ja3obpaotb3","prime","5e70e458f9b16800083e6733","5f60e3c0a3b16e07647b2ff9","5f63803996612b064e365ef0","false","null","<span style=""color: black; font-size: 48px"">N + M</span>","null","","","","resp_prompt","","","","","","","","","","","","","","","",""
"categorize-image","182","887301","0.0-4.0-1.0-1.20","z486ja3obpaotb3","prime","5e70e458f9b16800083e6733","5f60e3c0a3b16e07647b2ff9","5f63803996612b064e365ef0","true","683.2500000018626","./Stimuli/SelectedImages/LM/LM103.bmp","76","","","","test","true","N + M","76","repetition","LM","LM103.bmp","remember","","69","3","prime1","right","","","",""
"html-keyboard-response","183","889316","0.0-4.0-1.0-3.20","z486ja3obpaotb3","prime","5e70e458f9b16800083e6733","5f60e3c0a3b16e07647b2ff9","5f63803996612b064e365ef0","false","null","<div style=""align-items: center; display: flex; color: dodgerblue; font-size: 90px""><b>o</b></div>","null","","","","forget_cue","","","","","","","","","","","","","","","",""
"html-keyboard-response","184","890022","0.0-4.0-1.0-0.21","z486ja3obpaotb3","prime","5e70e458f9b16800083e6733","5f60e3c0a3b16e07647b2ff9","5f63803996612b064e365ef0","false","null","<span style=""color: black; font-size: 48px"">M + N</span>","null","","","","resp_prompt","","","","","","","","","","","","","","","",""
"categorize-image","185","891032","0.0-4.0-1.0-1.21","z486ja3obpaotb3","prime","5e70e458f9b16800083e6733","5f60e3c0a3b16e07647b2ff9","5f63803996612b064e365ef0","true","1004.3500000028871","./Stimuli/SelectedImages/SM/SM205.bmp","83","","","","test","true","M + N","83","switch","SM","SM205.bmp","forget","","70","3","prime1","left","","","",""
"html-keyboard-response","186","893043","0.0-4.0-1.0-3.21","z486ja3obpaotb3","prime","5e70e458f9b16800083e6733","5f60e3c0a3b16e07647b2ff9","5f63803996612b064e365ef0","false","null","<div style=""align-items: center; display: flex; color: darkorange; font-size: 90px""><b>ø</b></div>","null","","","","forget_cue","","","","","","","","","","","","","","","",""
"html-keyboard-response","187","893749","0.0-4.0-1.0-0.22","z486ja3obpaotb3","prime","5e70e458f9b16800083e6733","5f60e3c0a3b16e07647b2ff9","5f63803996612b064e365ef0","false","null","<span style=""color: black; font-size: 48px"">N + M</span>","null","","","","resp_prompt","","","","","","","","","","","","","","","",""
"categorize-image","188","894157","0.0-4.0-1.0-1.22","z486ja3obpaotb3","prime","5e70e458f9b16800083e6733","5f60e3c0a3b16e07647b2ff9","5f63803996612b064e365ef0","true","400.3900000243448","./Stimuli/SelectedImages/SN/SN128.bmp","83","","","","test","true","N + M","83","switch","SN","SN128.bmp","remember","","71","3","prime1","left","","","",""
"html-keyboard-response","189","896172","0.0-4.0-1.0-3.22","z486ja3obpaotb3","prime","5e70e458f9b16800083e6733","5f60e3c0a3b16e07647b2ff9","5f63803996612b064e365ef0","false","null","<div style=""align-items: center; display: flex; color: dodgerblue; font-size: 90px""><b>o</b></div>","null","","","","forget_cue","","","","","","","","","","","","","","","",""
"html-keyboard-response","190","896878","0.0-4.0-1.0-0.23","z486ja3obpaotb3","prime","5e70e458f9b16800083e6733","5f60e3c0a3b16e07647b2ff9","5f63803996612b064e365ef0","false","null","<span style=""color: black; font-size: 48px"">M + N</span>","null","","","","resp_prompt","","","","","","","","","","","","","","","",""
"categorize-image","191","897562","0.0-4.0-1.0-1.23","z486ja3obpaotb3","prime","5e70e458f9b16800083e6733","5f60e3c0a3b16e07647b2ff9","5f63803996612b064e365ef0","true","676.0249999933876","./Stimuli/SelectedImages/LM/LM179.bmp","83","","","","test","true","M + N","83","switch","LM","LM179.bmp","remember","","72","3","prime1","left","","","",""
"html-keyboard-response","192","899577","0.0-4.0-1.0-3.23","z486ja3obpaotb3","prime","5e70e458f9b16800083e6733","5f60e3c0a3b16e07647b2ff9","5f63803996612b064e365ef0","false","null","<div style=""align-items: center; display: flex; color: dodgerblue; font-size: 90px""><b>o</b></div>","null","","","","forget_cue","","","","","","","","","","","","","","","",""
"html-keyboard-response","193","900291","0.0-4.0-1.0-0.24","z486ja3obpaotb3","prime","5e70e458f9b16800083e6733","5f60e3c0a3b16e07647b2ff9","5f63803996612b064e365ef0","false","null","<span style=""color: black; font-size: 48px"">M + N</span>","null","","","","resp_prompt","","","","","","","","","","","","","","","",""
"categorize-image","194","900802","0.0-4.0-1.0-1.24","z486ja3obpaotb3","prime","5e70e458f9b16800083e6733","5f60e3c0a3b16e07647b2ff9","5f63803996612b064e365ef0","true","505.0349999801256","./Stimuli/SelectedImages/SN/SN155.bmp","76","","","","test","true","M + N","76","switch","SN","SN155.bmp","forget","","73","3","prime1","right","","","",""
"html-keyboard-response","195","902809","0.0-4.0-1.0-3.24","z486ja3obpaotb3","prime","5e70e458f9b16800083e6733","5f60e3c0a3b16e07647b2ff9","5f63803996612b064e365ef0","false","null","<div style=""align-items: center; display: flex; color: darkorange; font-size: 90px""><b>ø</b></div>","null","","","","forget_cue","","","","","","","","","","","","","","","",""
"html-keyboard-response","196","903515","0.0-4.0-1.0-0.25","z486ja3obpaotb3","prime","5e70e458f9b16800083e6733","5f60e3c0a3b16e07647b2ff9","5f63803996612b064e365ef0","false","null","<span style=""color: black; font-size: 48px"">N + M</span>","null","","","","resp_prompt","","","","","","","","","","","","","","","",""
"categorize-image","197","904158","0.0-4.0-1.0-1.25","z486ja3obpaotb3","prime","5e70e458f9b16800083e6733","5f60e3c0a3b16e07647b2ff9","5f63803996612b064e365ef0","true","635.6849999865517","./Stimuli/SelectedImages/LN/LN149.bmp","83","","","","test","true","N + M","83","switch","LN","LN149.bmp","remember","","74","3","prime1","left","","","",""
"html-keyboard-response","198","906174","0.0-4.0-1.0-3.25","z486ja3obpaotb3","prime","5e70e458f9b16800083e6733","5f60e3c0a3b16e07647b2ff9","5f63803996612b064e365ef0","false","null","<div style=""align-items: center; display: flex; color: dodgerblue; font-size: 90px""><b>o</b></div>","null","","","","forget_cue","","","","","","","","","","","","","","","",""
"html-keyboard-response","199","906879","0.0-4.0-1.0-0.26","z486ja3obpaotb3","prime","5e70e458f9b16800083e6733","5f60e3c0a3b16e07647b2ff9","5f63803996612b064e365ef0","false","null","<span style=""color: black; font-size: 48px"">N + M</span>","null","","","","resp_prompt","","","","","","","","","","","","","","","",""
"categorize-image","200","907525","0.0-4.0-1.0-1.26","z486ja3obpaotb3","prime","5e70e458f9b16800083e6733","5f60e3c0a3b16e07647b2ff9","5f63803996612b064e365ef0","true","639.2199999536388","./Stimuli/SelectedImages/LM/LM51.bmp","76","","","","test","true","N + M","76","repetition","LM","LM51.bmp","forget","","75","3","prime1","right","","","",""
"html-keyboard-response","201","909533","0.0-4.0-1.0-3.26","z486ja3obpaotb3","prime","5e70e458f9b16800083e6733","5f60e3c0a3b16e07647b2ff9","5f63803996612b064e365ef0","false","null","<div style=""align-items: center; display: flex; color: darkorange; font-size: 90px""><b>ø</b></div>","null","","","","forget_cue","","","","","","","","","","","","","","","",""
"html-keyboard-response","202","910239","0.0-4.0-1.0-0.27","z486ja3obpaotb3","prime","5e70e458f9b16800083e6733","5f60e3c0a3b16e07647b2ff9","5f63803996612b064e365ef0","false","null","<span style=""color: black; font-size: 48px"">M + N</span>","null","","","","resp_prompt","","","","","","","","","","","","","","","",""
"categorize-image","203","910969","0.0-4.0-1.0-1.27","z486ja3obpaotb3","prime","5e70e458f9b16800083e6733","5f60e3c0a3b16e07647b2ff9","5f63803996612b064e365ef0","true","724.2100000148639","./Stimuli/SelectedImages/SM/SM128.bmp","83","","","","test","true","M + N","83","switch","SM","SM128.bmp","remember","","76","3","prime1","left","","","",""
"html-keyboard-response","204","912976","0.0-4.0-1.0-3.27","z486ja3obpaotb3","prime","5e70e458f9b16800083e6733","5f60e3c0a3b16e07647b2ff9","5f63803996612b064e365ef0","false","null","<div style=""align-items: center; display: flex; color: dodgerblue; font-size: 90px""><b>o</b></div>","null","","","","forget_cue","","","","","","","","","","","","","","","",""
"html-keyboard-response","205","913691","0.0-4.0-1.0-0.28","z486ja3obpaotb3","prime","5e70e458f9b16800083e6733","5f60e3c0a3b16e07647b2ff9","5f63803996612b064e365ef0","false","null","<span style=""color: black; font-size: 48px"">M + N</span>","null","","","","resp_prompt","","","","","","","","","","","","","","","",""
"categorize-image","206","914352","0.0-4.0-1.0-1.28","z486ja3obpaotb3","prime","5e70e458f9b16800083e6733","5f60e3c0a3b16e07647b2ff9","5f63803996612b064e365ef0","true","654.0950000053272","./Stimuli/SelectedImages/SM/SM195.bmp","83","","","","test","true","M + N","83","switch","SM","SM195.bmp","remember","","77","3","prime1","left","","","",""
"html-keyboard-response","207","916362","0.0-4.0-1.0-3.28","z486ja3obpaotb3","prime","5e70e458f9b16800083e6733","5f60e3c0a3b16e07647b2ff9","5f63803996612b064e365ef0","false","null","<div style=""align-items: center; display: flex; color: dodgerblue; font-size: 90px""><b>o</b></div>","null","","","","forget_cue","","","","","","","","","","","","","","","",""
"html-keyboard-response","208","917067","0.0-4.0-1.0-0.29","z486ja3obpaotb3","prime","5e70e458f9b16800083e6733","5f60e3c0a3b16e07647b2ff9","5f63803996612b064e365ef0","false","null","<span style=""color: black; font-size: 48px"">N + M</span>","null","","","","resp_prompt","","","","","","","","","","","","","","","",""
"categorize-image","209","917701","0.0-4.0-1.0-1.29","z486ja3obpaotb3","prime","5e70e458f9b16800083e6733","5f60e3c0a3b16e07647b2ff9","5f63803996612b064e365ef0","true","627.4599999887869","./Stimuli/SelectedImages/LN/LN13.bmp","83","","","","test","true","N + M","83","repetition","LN","LN13.bmp","remember","","78","3","prime1","left","","","",""
"html-keyboard-response","210","919708","0.0-4.0-1.0-3.29","z486ja3obpaotb3","prime","5e70e458f9b16800083e6733","5f60e3c0a3b16e07647b2ff9","5f63803996612b064e365ef0","false","null","<div style=""align-items: center; display: flex; color: dodgerblue; font-size: 90px""><b>o</b></div>","null","","","","forget_cue","","","","","","","","","","","","","","","",""
"html-keyboard-response","211","920415","0.0-4.0-1.0-0.30","z486ja3obpaotb3","prime","5e70e458f9b16800083e6733","5f60e3c0a3b16e07647b2ff9","5f63803996612b064e365ef0","false","null","<span style=""color: black; font-size: 48px"">M + N</span>","null","","","","resp_prompt","","","","","","","","","","","","","","","",""
"categorize-image","212","920990","0.0-4.0-1.0-1.30","z486ja3obpaotb3","prime","5e70e458f9b16800083e6733","5f60e3c0a3b16e07647b2ff9","5f63803996612b064e365ef0","true","569.4999999832362","./Stimuli/SelectedImages/LN/LN150.bmp","76","","","","test","true","M + N","76","repetition","LN","LN150.bmp","remember","","79","3","prime1","right","","","",""
"html-keyboard-response","213","922998","0.0-4.0-1.0-3.30","z486ja3obpaotb3","prime","5e70e458f9b16800083e6733","5f60e3c0a3b16e07647b2ff9","5f63803996612b064e365ef0","false","null","<div style=""align-items: center; display: flex; color: dodgerblue; font-size: 90px""><b>o</b></div>","null","","","","forget_cue","","","","","","","","","","","","","","","",""
"html-keyboard-response","214","923705","0.0-4.0-1.0-0.31","z486ja3obpaotb3","prime","5e70e458f9b16800083e6733","5f60e3c0a3b16e07647b2ff9","5f63803996612b064e365ef0","false","null","<span style=""color: black; font-size: 48px"">M + N</span>","null","","","","resp_prompt","","","","","","","","","","","","","","","",""
"categorize-image","215","924228","0.0-4.0-1.0-1.31","z486ja3obpaotb3","prime","5e70e458f9b16800083e6733","5f60e3c0a3b16e07647b2ff9","5f63803996612b064e365ef0","true","515.7999999937601","./Stimuli/SelectedImages/SN/SN18.bmp","76","","","","test","true","M + N","76","repetition","SN","SN18.bmp","forget","","80","3","prime1","right","","","",""
"html-keyboard-response","216","926236","0.0-4.0-1.0-3.31","z486ja3obpaotb3","prime","5e70e458f9b16800083e6733","5f60e3c0a3b16e07647b2ff9","5f63803996612b064e365ef0","false","null","<div style=""align-items: center; display: flex; color: darkorange; font-size: 90px""><b>ø</b></div>","null","","","","forget_cue","","","","","","","","","","","","","","","",""
"html-keyboard-response","217","926948","0.0-4.0-1.0-0.32","z486ja3obpaotb3","prime","5e70e458f9b16800083e6733","5f60e3c0a3b16e07647b2ff9","5f63803996612b064e365ef0","false","null","<span style=""color: black; font-size: 48px"">N + M</span>","null","","","","resp_prompt","","","","","","","","","","","","","","","",""
"categorize-image","218","927568","0.0-4.0-1.0-1.32","z486ja3obpaotb3","prime","5e70e458f9b16800083e6733","5f60e3c0a3b16e07647b2ff9","5f63803996612b064e365ef0","true","616.0549999913201","./Stimuli/SelectedImages/LM/LM75.bmp","76","","","","test","true","N + M","76","repetition","LM","LM75.bmp","forget","","81","3","prime1","right","","","",""
"html-keyboard-response","219","929576","0.0-4.0-1.0-3.32","z486ja3obpaotb3","prime","5e70e458f9b16800083e6733","5f60e3c0a3b16e07647b2ff9","5f63803996612b064e365ef0","false","null","<div style=""align-items: center; display: flex; color: darkorange; font-size: 90px""><b>ø</b></div>","null","","","","forget_cue","","","","","","","","","","","","","","","",""
"html-keyboard-response","220","930289","0.0-4.0-1.0-0.33","z486ja3obpaotb3","prime","5e70e458f9b16800083e6733","5f60e3c0a3b16e07647b2ff9","5f63803996612b064e365ef0","false","null","<span style=""color: black; font-size: 48px"">M + N</span>","null","","","","resp_prompt","","","","","","","","","","","","","","","",""
"categorize-image","221","931669","0.0-4.0-1.0-1.33","z486ja3obpaotb3","prime","5e70e458f9b16800083e6733","5f60e3c0a3b16e07647b2ff9","5f63803996612b064e365ef0","true","1377.2900000330992","./Stimuli/SelectedImages/LN/LN59.bmp","76","","","","test","true","M + N","76","repetition","LN","LN59.bmp","forget","","82","3","prime1","right","","","",""
"html-keyboard-response","222","933687","0.0-4.0-1.0-3.33","z486ja3obpaotb3","prime","5e70e458f9b16800083e6733","5f60e3c0a3b16e07647b2ff9","5f63803996612b064e365ef0","false","null","<div style=""align-items: center; display: flex; color: darkorange; font-size: 90px""><b>ø</b></div>","null","","","","forget_cue","","","","","","","","","","","","","","","",""
"html-keyboard-response","223","934394","0.0-4.0-1.0-0.34","z486ja3obpaotb3","prime","5e70e458f9b16800083e6733","5f60e3c0a3b16e07647b2ff9","5f63803996612b064e365ef0","false","null","<span style=""color: black; font-size: 48px"">N + M</span>","null","","","","resp_prompt","","","","","","","","","","","","","","","",""
"categorize-image","224","934819","0.0-4.0-1.0-1.34","z486ja3obpaotb3","prime","5e70e458f9b16800083e6733","5f60e3c0a3b16e07647b2ff9","5f63803996612b064e365ef0","true","418.6699999845587","./Stimuli/SelectedImages/SM/SM74.bmp","83","","","","test","false","N + M","76","repetition","SM","SM74.bmp","forget","","83","3","prime1","left","","","",""
"html-keyboard-response","225","935332","0.0-4.0-1.0-2.34-0.34","z486ja3obpaotb3","prime","5e70e458f9b16800083e6733","5f60e3c0a3b16e07647b2ff9","5f63803996612b064e365ef0","false","null","<span style=""color: red; font-size: 48px"">Error!</span>","null","","","","feedback","","","","","","","","","","","","","","","",""
"html-keyboard-response","226","937340","0.0-4.0-1.0-3.34","z486ja3obpaotb3","prime","5e70e458f9b16800083e6733","5f60e3c0a3b16e07647b2ff9","5f63803996612b064e365ef0","false","null","<div style=""align-items: center; display: flex; color: darkorange; font-size: 90px""><b>ø</b></div>","null","","","","forget_cue","","","","","","","","","","","","","","","",""
"html-keyboard-response","227","938046","0.0-4.0-1.0-0.35","z486ja3obpaotb3","prime","5e70e458f9b16800083e6733","5f60e3c0a3b16e07647b2ff9","5f63803996612b064e365ef0","false","null","<span style=""color: black; font-size: 48px"">N + M</span>","null","","","","resp_prompt","","","","","","","","","","","","","","","",""
"categorize-image","228","938435","0.0-4.0-1.0-1.35","z486ja3obpaotb3","prime","5e70e458f9b16800083e6733","5f60e3c0a3b16e07647b2ff9","5f63803996612b064e365ef0","true","381.2799999723211","./Stimuli/SelectedImages/SN/SN93.bmp","83","","","","test","true","N + M","83","switch","SN","SN93.bmp","forget","","84","3","prime1","left","","","",""
"html-keyboard-response","229","940450","0.0-4.0-1.0-3.35","z486ja3obpaotb3","prime","5e70e458f9b16800083e6733","5f60e3c0a3b16e07647b2ff9","5f63803996612b064e365ef0","false","null","<div style=""align-items: center; display: flex; color: darkorange; font-size: 90px""><b>ø</b></div>","null","","","","forget_cue","","","","","","","","","","","","","","","",""
"html-keyboard-response","230","941163","0.0-4.0-1.0-0.36","z486ja3obpaotb3","prime","5e70e458f9b16800083e6733","5f60e3c0a3b16e07647b2ff9","5f63803996612b064e365ef0","false","null","<span style=""color: black; font-size: 48px"">M + N</span>","null","","","","resp_prompt","","","","","","","","","","","","","","","",""
"categorize-image","231","941633","0.0-4.0-1.0-1.36","z486ja3obpaotb3","prime","5e70e458f9b16800083e6733","5f60e3c0a3b16e07647b2ff9","5f63803996612b064e365ef0","true","463.29500002320856","./Stimuli/SelectedImages/SN/SN240.bmp","76","","","","test","true","M + N","76","repetition","SN","SN240.bmp","remember","","85","3","prime1","right","","","",""
"html-keyboard-response","232","943649","0.0-4.0-1.0-3.36","z486ja3obpaotb3","prime","5e70e458f9b16800083e6733","5f60e3c0a3b16e07647b2ff9","5f63803996612b064e365ef0","false","null","<div style=""align-items: center; display: flex; color: dodgerblue; font-size: 90px""><b>o</b></div>","null","","","","forget_cue","","","","","","","","","","","","","","","",""
"html-keyboard-response","233","944363","0.0-4.0-1.0-0.37","z486ja3obpaotb3","prime","5e70e458f9b16800083e6733","5f60e3c0a3b16e07647b2ff9","5f63803996612b064e365ef0","false","null","<span style=""color: black; font-size: 48px"">N + M</span>","null","","","","resp_prompt","","","","","","","","","","","","","","","",""
"categorize-image","234","945015","0.0-4.0-1.0-1.37","z486ja3obpaotb3","prime","5e70e458f9b16800083e6733","5f60e3c0a3b16e07647b2ff9","5f63803996612b064e365ef0","true","646.550000004936","./Stimuli/SelectedImages/LM/LM216.bmp","76","","","","test","true","N + M","76","switch","LM","LM216.bmp","remember","","86","3","prime1","right","","","",""
"html-keyboard-response","235","947031","0.0-4.0-1.0-3.37","z486ja3obpaotb3","prime","5e70e458f9b16800083e6733","5f60e3c0a3b16e07647b2ff9","5f63803996612b064e365ef0","false","null","<div style=""align-items: center; display: flex; color: dodgerblue; font-size: 90px""><b>o</b></div>","null","","","","forget_cue","","","","","","","","","","","","","","","",""
"html-keyboard-response","236","947744","0.0-4.0-1.0-0.38","z486ja3obpaotb3","prime","5e70e458f9b16800083e6733","5f60e3c0a3b16e07647b2ff9","5f63803996612b064e365ef0","false","null","<span style=""color: black; font-size: 48px"">N + M</span>","null","","","","resp_prompt","","","","","","","","","","","","","","","",""
"categorize-image","237","948253","0.0-4.0-1.0-1.38","z486ja3obpaotb3","prime","5e70e458f9b16800083e6733","5f60e3c0a3b16e07647b2ff9","5f63803996612b064e365ef0","true","501.9949999987148","./Stimuli/SelectedImages/SM/SM148.bmp","76","","","","test","true","N + M","76","switch","SM","SM148.bmp","forget","","87","3","prime1","right","","","",""
"html-keyboard-response","238","950269","0.0-4.0-1.0-3.38","z486ja3obpaotb3","prime","5e70e458f9b16800083e6733","5f60e3c0a3b16e07647b2ff9","5f63803996612b064e365ef0","false","null","<div style=""align-items: center; display: flex; color: darkorange; font-size: 90px""><b>ø</b></div>","null","","","","forget_cue","","","","","","","","","","","","","","","",""
"html-keyboard-response","239","950982","0.0-4.0-1.0-0.39","z486ja3obpaotb3","prime","5e70e458f9b16800083e6733","5f60e3c0a3b16e07647b2ff9","5f63803996612b064e365ef0","false","null","<span style=""color: black; font-size: 48px"">N + M</span>","null","","","","resp_prompt","","","","","","","","","","","","","","","",""
"categorize-image","240","951547","0.0-4.0-1.0-1.39","z486ja3obpaotb3","prime","5e70e458f9b16800083e6733","5f60e3c0a3b16e07647b2ff9","5f63803996612b064e365ef0","true","558.6350000230595","./Stimuli/SelectedImages/LM/LM167.bmp","76","","","","test","true","N + M","76","switch","LM","LM167.bmp","remember","","88","3","prime1","right","","","",""
"html-keyboard-response","241","953563","0.0-4.0-1.0-3.39","z486ja3obpaotb3","prime","5e70e458f9b16800083e6733","5f60e3c0a3b16e07647b2ff9","5f63803996612b064e365ef0","false","null","<div style=""align-items: center; display: flex; color: dodgerblue; font-size: 90px""><b>o</b></div>","null","","","","forget_cue","","","","","","","","","","","","","","","",""
"html-keyboard-response","242","954272","0.0-4.0-1.0-0.40","z486ja3obpaotb3","prime","5e70e458f9b16800083e6733","5f60e3c0a3b16e07647b2ff9","5f63803996612b064e365ef0","false","null","<span style=""color: black; font-size: 48px"">M + N</span>","null","","","","resp_prompt","","","","","","","","","","","","","","","",""
"categorize-image","243","954832","0.0-4.0-1.0-1.40","z486ja3obpaotb3","prime","5e70e458f9b16800083e6733","5f60e3c0a3b16e07647b2ff9","5f63803996612b064e365ef0","true","554.7150000347756","./Stimuli/SelectedImages/LN/LN12.bmp","76","","","","test","true","M + N","76","repetition","LN","LN12.bmp","remember","","89","3","prime1","right","","","",""
"html-keyboard-response","244","956848","0.0-4.0-1.0-3.40","z486ja3obpaotb3","prime","5e70e458f9b16800083e6733","5f60e3c0a3b16e07647b2ff9","5f63803996612b064e365ef0","false","null","<div style=""align-items: center; display: flex; color: dodgerblue; font-size: 90px""><b>o</b></div>","null","","","","forget_cue","","","","","","","","","","","","","","","",""
"html-keyboard-response","245","957550","0.0-4.0-1.0-0.41","z486ja3obpaotb3","prime","5e70e458f9b16800083e6733","5f60e3c0a3b16e07647b2ff9","5f63803996612b064e365ef0","false","null","<span style=""color: black; font-size: 48px"">N + M</span>","null","","","","resp_prompt","","","","","","","","","","","","","","","",""
"categorize-image","246","958180","0.0-4.0-1.0-1.41","z486ja3obpaotb3","prime","5e70e458f9b16800083e6733","5f60e3c0a3b16e07647b2ff9","5f63803996612b064e365ef0","true","622.7850000141189","./Stimuli/SelectedImages/SM/SM17.bmp","83","","","","test","false","N + M","76","repetition","SM","SM17.bmp","remember","","90","3","prime1","left","","","",""
"html-keyboard-response","247","958697","0.0-4.0-1.0-2.41-0.41","z486ja3obpaotb3","prime","5e70e458f9b16800083e6733","5f60e3c0a3b16e07647b2ff9","5f63803996612b064e365ef0","false","null","<span style=""color: red; font-size: 48px"">Error!</span>","null","","","","feedback","","","","","","","","","","","","","","","",""
"html-keyboard-response","248","960712","0.0-4.0-1.0-3.41","z486ja3obpaotb3","prime","5e70e458f9b16800083e6733","5f60e3c0a3b16e07647b2ff9","5f63803996612b064e365ef0","false","null","<div style=""align-items: center; display: flex; color: dodgerblue; font-size: 90px""><b>o</b></div>","null","","","","forget_cue","","","","","","","","","","","","","","","",""
"html-keyboard-response","249","961426","0.0-4.0-1.0-0.42","z486ja3obpaotb3","prime","5e70e458f9b16800083e6733","5f60e3c0a3b16e07647b2ff9","5f63803996612b064e365ef0","false","null","<span style=""color: black; font-size: 48px"">N + M</span>","null","","","","resp_prompt","","","","","","","","","","","","","","","",""
"categorize-image","250","962052","0.0-4.0-1.0-1.42","z486ja3obpaotb3","prime","5e70e458f9b16800083e6733","5f60e3c0a3b16e07647b2ff9","5f63803996612b064e365ef0","true","620.0400000088848","./Stimuli/SelectedImages/SM/SM106.bmp","76","","","","test","true","N + M","76","repetition","SM","SM106.bmp","remember","","91","3","prime1","right","","","",""
"html-keyboard-response","251","964068","0.0-4.0-1.0-3.42","z486ja3obpaotb3","prime","5e70e458f9b16800083e6733","5f60e3c0a3b16e07647b2ff9","5f63803996612b064e365ef0","false","null","<div style=""align-items: center; display: flex; color: dodgerblue; font-size: 90px""><b>o</b></div>","null","","","","forget_cue","","","","","","","","","","","","","","","",""
"html-keyboard-response","252","964781","0.0-4.0-1.0-0.43","z486ja3obpaotb3","prime","5e70e458f9b16800083e6733","5f60e3c0a3b16e07647b2ff9","5f63803996612b064e365ef0","false","null","<span style=""color: black; font-size: 48px"">N + M</span>","null","","","","resp_prompt","","","","","","","","","","","","","","","",""
