"trial_type","trial_index","time_elapsed","internal_node_id","subject","exp_part","prolific_PID","study_ID","session_ID","use","rt","stimulus","key_press","button_pressed","responses","question_order","trial_part","correct","resp_map","correct_resp","probe_condition","category","image","forget_condition","list","trial_num","block_num","block","response","test_part","n_span","sequence","num_spaces"
"pavlovia","0","8","0.0-0.0","u4wlhxv9j0jrsfv","","5ef24f45ba594791fb6cb88d","5f60e3c0a3b16e07647b2ff9","5f61dc8d2199f304bea2a4e9","false","","","","","","","","","","","","","","","","","","","","","","",""
"html-keyboard-response","1","20630","0.0-1.0-0.0-0.0","u4wlhxv9j0jrsfv","welcome","5ef24f45ba594791fb6cb88d","5f60e3c0a3b16e07647b2ff9","5f61dc8d2199f304bea2a4e9","false","20617.594999959692","<div align=left>Dear participant, <br> thank you for participating in an online study of the Cognition, Action, and Sustainability Unit of the University of Freiburg! <br> <br>The aim of this study is to examine our ability to remember previously learned information. <br>Our goal is to find out, whether our memory improves, when we only remember information that is relevant to us. <br>The experiment will take about 35 minutes to complete. <br> <br>Please, note that you can only participate in this study if you are using a device with a keyboard (PC, Laptop etc.) <br>and not if you are using a mobile device such as a tablet or smartphone.<br> <br>Press 'SPACE' to proceed to the experiment. </div>","32","","","","","","","","","","","","","","","","","","","",""
"html-keyboard-response","2","59528","0.0-1.0-0.0-1.0","u4wlhxv9j0jrsfv","welcome","5ef24f45ba594791fb6cb88d","5f60e3c0a3b16e07647b2ff9","5f61dc8d2199f304bea2a4e9","false","38893.9750000136","<div align=left><strong> Time Course of this experiment: </strong> <br><br> <strong> 1.</strong>  First, please fill in some information regarding your demographic data. <br><br> <strong> 2.</strong>  Next, your task will be to classify everyday objects. <br>In addition, you will be asked to remember certain objects and recall them later. <br>Working on these tasks requires your undivided attention and concentration.<br>It is therefore essential that you eliminate any sources of distraction in your  <br>environment and ensure that you will not be disturbed. <br><br><strong> 3.</strong>  At the end of the experiment, you will be asked to answer a few additional questions. <br> <br><strong> Important:</strong> After finishing the experiment, only close the browser window <br> by clicking on the 'end the experiment'-button when you are asked to do so. <br>Closing the browser window prematurely will make the allocation of your participation credit impossible. <br><br> Press 'SPACE' to start the experiment. </div>","32","","","","","","","","","","","","","","","","","","","",""
"html-button-response","3","67093","0.0-1.0-0.0-2.0","u4wlhxv9j0jrsfv","welcome","5ef24f45ba594791fb6cb88d","5f60e3c0a3b16e07647b2ff9","5f61dc8d2199f304bea2a4e9","true","7561.119999969378","<div align=left><strong> Informed consent </strong>  <br>The aim of our research is to better understand human behavior and mental processes. <br>In the following study your behavior (e.g. choices, reaction times) will be studied. <br> <br><strong> Voluntariness and Anonymity </strong> <br>Your participation in this study is  <strong> voluntary</strong>.<br>You may withdraw your consent to participate at any time without providing a reason for doing so and without fear of prejudice. <br><br>As no personal data will be collected, <strong>your data and your person cannot be connected after data collection</strong> – the data-set is anonymous. <br>Respectively, deletion of your data will not be possible after data collection has been completed, as we cannot retrace your data-set.<br>The results and anonymized data collected in this study will be published as a scientific publication. <br>This will happen in an <strong>anonymized format</strong>, so that no data can be traced back to a specific person. <br> <br>The anonymized data of this study will be made available to other researchers and/or in a data archive on the Internet as a means of transparency and to enable subsequent re-use. By doing so, this study follows the recommendations of the Deutsche Forschungsgemeinschaft (DFG, German Research Foundation) and Deutsche Gesellschaft für Psychologie (DGPS, German Psychological Society) regarding quality assurance in research.<br>If you have any questions now or after the experiment, please contact our team (experiments@cs.uni-freiburg.de).<br><br><br>I hereby declare, that I understand the above described conditions of participation and I agree to participate under these conditions. <br><br> </div>","","0","","","","","","","","","","","","","","","","","","",""
"html-keyboard-response","4","123083","0.0-1.0-0.0-3.0","u4wlhxv9j0jrsfv","welcome","5ef24f45ba594791fb6cb88d","5f60e3c0a3b16e07647b2ff9","5f61dc8d2199f304bea2a4e9","false","55987.945000000764","<div align=left><strong> General information concerning the experiment </strong>  <br> <br>Please follow the instructions:<ol> <li><strong> Do not leave this tab (your browser window) during the experiment and do not reload this tab! </strong>  <br>If you do switch tabs/windows during the experiment (to check your mail or visit another website, for example), <br>the experiment will end automatically and you will <strong>not receive credit</strong> for your participation. <br>Repeated participation or resumption of the experiment is impossible.</li> <br><li>Please close all other programs for the duration of your participation. </li> <br><li>Please mute or turn off your phone and put it out of your reach. </li> <br><li>Please also take off any disturbing accessories (such as wristwatches, bracelets, etc.). </li> <br><li>If you have music playing in the background, please turn it off now. </li> <br></ol>Thank you! <br>Press 'SPACE' to continue. </div>","32","","","","","","","","","","","","","","","","","","","",""
"survey-text","5","130059","0.0-1.0-1.0-0.0","u4wlhxv9j0jrsfv","demographics","5ef24f45ba594791fb6cb88d","5f60e3c0a3b16e07647b2ff9","5f61dc8d2199f304bea2a4e9","true","6965.280000003986","","","","{""age"":""38""}","","","","","","","","","","","","","","","","","",""
"survey-multi-choice","6","192975","0.0-1.0-1.0-1.0","u4wlhxv9j0jrsfv","demographics","5ef24f45ba594791fb6cb88d","5f60e3c0a3b16e07647b2ff9","5f61dc8d2199f304bea2a4e9","true","62910.4899999802","","","","{""gender"":""female"",""school"":""others"",""education"":""Still in training/ university""}","[0,1,2]","","","","","","","","","","","","","","","","",""
"survey-text","7","255837","0.0-1.0-1.0-2.0-0.0","u4wlhxv9j0jrsfv","demographics","5ef24f45ba594791fb6cb88d","5f60e3c0a3b16e07647b2ff9","5f61dc8d2199f304bea2a4e9","true","62848.93999999622","","","","{""education_text"":""2nd year Adult Nursing Degree student""}","","","","","","","","","","","","","","","","","",""
"html-keyboard-response","8","276815","0.0-1.0-2.0","u4wlhxv9j0jrsfv","instructions","5ef24f45ba594791fb6cb88d","5f60e3c0a3b16e07647b2ff9","5f61dc8d2199f304bea2a4e9","false","20975.084999983665","<div align=left> The experiment is now about to start: <br> <br>In the following part, you will be presented pictures of everyday objects. <br>Your first task is to <strong>classify these objects. </strong> <br> <br> You will classify them either as mechanical or non-mechanical objects. <br> <br>Objects that include any kind of technical mechanism (for example, wheels, switches, levers, <br> electronic components) fall under the category of <strong>mechanical</strong> objects. <br>Only objects without any kind of technical mechanism should be classified as <strong>non-mechanical</strong>. <br><br>Press 'SPACE' to continue. </div>","32","","","","","","","","","","","","","","","","","","","",""
"html-keyboard-response","9","481059","0.0-2.0-0.0","u4wlhxv9j0jrsfv","instructions","5ef24f45ba594791fb6cb88d","5f60e3c0a3b16e07647b2ff9","5f61dc8d2199f304bea2a4e9","false","204241.2899999763","<div align=justify>You will classify the objects using the <strong>'S'</strong> and the <strong>'L'</strong> keys on your keyboard.<br>For doing so, please place your <strong>left index finger</strong> on the <strong>'S'</strong> key and place your <strong>right index finger</strong> on the <strong>'L'</strong> key. <br><br> Each trial starts with an instruction, indicating which key ('S'/'L') you need to press to classify <br>the object as mechanical (letter M) or non-mechanical (letter N).<br>The instruction <strong>M + N</strong> indicates that, in the current trial, by pressing the left key ('S') you classify the displayed object as mechanical (M) <br> and by pressing the right key ('L') you classify the object as non-mechanical (N). <br>The instruction <strong>N + M</strong> on the other hand indicates that by pressing the left key ('S') you classify the displayed object as non-mechanical (N) <br> and by pressing the right key ('L') you classify the object as mechanical (M). <br><br>Please press the key corresponding to the correct classification as fast as possible as soon as the object is displayed and try to avoid making mistakes.<br>If you do not respond within a 2 second window, a corresponding feedback will be displayed and the next trial will start.<br> The experiment is divided into multiple blocks to give you the opportunity to take a break after each block. <br>First, you can now practice this task. <br><br>Please place your <strong>LEFT INDEX FINGER</strong> on the 'S' key and your <strong>RIGHT INDEX FINGER</strong> on the 'L' key now. <br><br>Press SPACE to continue.</div>","32","","","","","","","","","","","","","","","","","","","",""
"html-keyboard-response","10","502826","0.0-2.0-1.0","u4wlhxv9j0jrsfv","instructions","5ef24f45ba594791fb6cb88d","5f60e3c0a3b16e07647b2ff9","5f61dc8d2199f304bea2a4e9","false","21763.279999955557","<div align=left> You will now have time to practice this task.<br><br>Remember: <br> <br><li>Please place your index fingers on the <strong>'S'</strong> and <strong>'L'</strong> keys <br>to respond as fast and accurately as possible.</li><li>Every picture can be classified as either mechanical or non-mechanical.</li><li>If you do not respond in time or commit an error, you will receive a corresponding feedback. </li><li> Please try to respond as <strong> fast </strong> and as <strong> accurately as possible </strong> .<br><li>To ensure optimal results, please minimize distractions and stay focused. </li><br><br>Press SPACE to continue.</div>","32","","","","","","","","","","","","","","","","","","","",""
"html-keyboard-response","11","503544","0.0-2.0-2.0-0.0","u4wlhxv9j0jrsfv","practice_no_cue","5ef24f45ba594791fb6cb88d","5f60e3c0a3b16e07647b2ff9","5f61dc8d2199f304bea2a4e9","false","null","<span style=""color: black; font-size: 48px"">M + N</span>","null","","","","resp_prompt","","","","","","","","","","","","","","","",""
"categorize-image","12","506073","0.0-2.0-2.0-1.0","u4wlhxv9j0jrsfv","practice_no_cue","5ef24f45ba594791fb6cb88d","5f60e3c0a3b16e07647b2ff9","5f61dc8d2199f304bea2a4e9","true","null","./Stimuli/ImagesPractice/SN205.jpg","null","","","","test","false","M + N","76","","SN","SN205.jpg","forget","old","1","1","start","too_slow","","","",""
"html-keyboard-response","13","506777","0.0-2.0-2.0-0.1","u4wlhxv9j0jrsfv","practice_no_cue","5ef24f45ba594791fb6cb88d","5f60e3c0a3b16e07647b2ff9","5f61dc8d2199f304bea2a4e9","false","null","<span style=""color: black; font-size: 48px"">N + M</span>","null","","","","resp_prompt","","","","","","","","","","","","","","","",""
"categorize-image","14","507829","0.0-2.0-2.0-1.1","u4wlhxv9j0jrsfv","practice_no_cue","5ef24f45ba594791fb6cb88d","5f60e3c0a3b16e07647b2ff9","5f61dc8d2199f304bea2a4e9","true","536.1850000335835","./Stimuli/ImagesPractice/LM147.jpg","83","","","","test","false","N + M","76","","LM","LM147.jpg","forget","old","2","1","start","left","","","",""
"html-keyboard-response","15","508532","0.0-2.0-2.0-0.2","u4wlhxv9j0jrsfv","practice_no_cue","5ef24f45ba594791fb6cb88d","5f60e3c0a3b16e07647b2ff9","5f61dc8d2199f304bea2a4e9","false","null","<span style=""color: black; font-size: 48px"">N + M</span>","null","","","","resp_prompt","","","","","","","","","","","","","","","",""
"categorize-image","16","509842","0.0-2.0-2.0-1.2","u4wlhxv9j0jrsfv","practice_no_cue","5ef24f45ba594791fb6cb88d","5f60e3c0a3b16e07647b2ff9","5f61dc8d2199f304bea2a4e9","true","802.8550000162795","./Stimuli/ImagesPractice/SM37.jpg","76","","","","test","true","N + M","76","","SM","SM37.jpg","remember","old","3","1","start","right","","","",""
"html-keyboard-response","17","510546","0.0-2.0-2.0-0.3","u4wlhxv9j0jrsfv","practice_no_cue","5ef24f45ba594791fb6cb88d","5f60e3c0a3b16e07647b2ff9","5f61dc8d2199f304bea2a4e9","false","null","<span style=""color: black; font-size: 48px"">N + M</span>","null","","","","resp_prompt","","","","","","","","","","","","","","","",""
"categorize-image","18","511678","0.0-2.0-2.0-1.3","u4wlhxv9j0jrsfv","practice_no_cue","5ef24f45ba594791fb6cb88d","5f60e3c0a3b16e07647b2ff9","5f61dc8d2199f304bea2a4e9","true","626.6700000269338","./Stimuli/ImagesPractice/SN221.jpg","83","","","","test","true","N + M","83","","SN","SN221.jpg","remember","old","4","1","start","left","","","",""
"html-keyboard-response","19","512393","0.0-2.0-2.0-0.4","u4wlhxv9j0jrsfv","practice_no_cue","5ef24f45ba594791fb6cb88d","5f60e3c0a3b16e07647b2ff9","5f61dc8d2199f304bea2a4e9","false","null","<span style=""color: black; font-size: 48px"">N + M</span>","null","","","","resp_prompt","","","","","","","","","","","","","","","",""
"categorize-image","20","512982","0.0-2.0-2.0-1.4","u4wlhxv9j0jrsfv","practice_no_cue","5ef24f45ba594791fb6cb88d","5f60e3c0a3b16e07647b2ff9","5f61dc8d2199f304bea2a4e9","true","80.8250000118278","./Stimuli/ImagesPractice/SM97.jpg","76","","","","test","true","N + M","76","","SM","SM97.jpg","forget","old","5","1","start","right","","","",""
"html-keyboard-response","21","513687","0.0-2.0-2.0-0.5","u4wlhxv9j0jrsfv","practice_no_cue","5ef24f45ba594791fb6cb88d","5f60e3c0a3b16e07647b2ff9","5f61dc8d2199f304bea2a4e9","false","null","<span style=""color: black; font-size: 48px"">M + N</span>","null","","","","resp_prompt","","","","","","","","","","","","","","","",""
"categorize-image","22","515442","0.0-2.0-2.0-1.5","u4wlhxv9j0jrsfv","practice_no_cue","5ef24f45ba594791fb6cb88d","5f60e3c0a3b16e07647b2ff9","5f61dc8d2199f304bea2a4e9","true","1250.0650000292808","./Stimuli/ImagesPractice/LN72.jpg","76","","","","test","true","M + N","76","","LN","LN72.jpg","forget","old","6","1","start","right","","","",""
"html-keyboard-response","23","516158","0.0-2.0-2.0-0.6","u4wlhxv9j0jrsfv","practice_no_cue","5ef24f45ba594791fb6cb88d","5f60e3c0a3b16e07647b2ff9","5f61dc8d2199f304bea2a4e9","false","null","<span style=""color: black; font-size: 48px"">N + M</span>","null","","","","resp_prompt","","","","","","","","","","","","","","","",""
"categorize-image","24","517614","0.0-2.0-2.0-1.6","u4wlhxv9j0jrsfv","practice_no_cue","5ef24f45ba594791fb6cb88d","5f60e3c0a3b16e07647b2ff9","5f61dc8d2199f304bea2a4e9","true","935.0649999687448","./Stimuli/ImagesPractice/LN109.jpg","76","","","","test","false","N + M","83","","LN","LN109.jpg","forget","old","7","1","start","right","","","",""
"html-keyboard-response","25","518324","0.0-2.0-2.0-0.7","u4wlhxv9j0jrsfv","practice_no_cue","5ef24f45ba594791fb6cb88d","5f60e3c0a3b16e07647b2ff9","5f61dc8d2199f304bea2a4e9","false","null","<span style=""color: black; font-size: 48px"">M + N</span>","null","","","","resp_prompt","","","","","","","","","","","","","","","",""
"categorize-image","26","518993","0.0-2.0-2.0-1.7","u4wlhxv9j0jrsfv","practice_no_cue","5ef24f45ba594791fb6cb88d","5f60e3c0a3b16e07647b2ff9","5f61dc8d2199f304bea2a4e9","true","161.43500001635402","./Stimuli/ImagesPractice/SN75.jpg","83","","","","test","false","M + N","76","","SN","SN75.jpg","forget","old","8","1","start","left","","","",""
"html-keyboard-response","27","519711","0.0-2.0-2.0-0.8","u4wlhxv9j0jrsfv","practice_no_cue","5ef24f45ba594791fb6cb88d","5f60e3c0a3b16e07647b2ff9","5f61dc8d2199f304bea2a4e9","false","null","<span style=""color: black; font-size: 48px"">M + N</span>","null","","","","resp_prompt","","","","","","","","","","","","","","","",""
"categorize-image","28","520508","0.0-2.0-2.0-1.8","u4wlhxv9j0jrsfv","practice_no_cue","5ef24f45ba594791fb6cb88d","5f60e3c0a3b16e07647b2ff9","5f61dc8d2199f304bea2a4e9","true","276.880000019446","./Stimuli/ImagesPractice/LM55.jpg","76","","","","test","false","M + N","83","","LM","LM55.jpg","forget","old","9","1","start","right","","","",""
"html-keyboard-response","29","521210","0.0-2.0-2.0-0.9","u4wlhxv9j0jrsfv","practice_no_cue","5ef24f45ba594791fb6cb88d","5f60e3c0a3b16e07647b2ff9","5f61dc8d2199f304bea2a4e9","false","null","<span style=""color: black; font-size: 48px"">M + N</span>","null","","","","resp_prompt","","","","","","","","","","","","","","","",""
"categorize-image","30","522273","0.0-2.0-2.0-1.9","u4wlhxv9j0jrsfv","practice_no_cue","5ef24f45ba594791fb6cb88d","5f60e3c0a3b16e07647b2ff9","5f61dc8d2199f304bea2a4e9","true","551.1249999981374","./Stimuli/ImagesPractice/SN220.jpg","76","","","","test","true","M + N","76","","SN","SN220.jpg","remember","old","10","1","start","right","","","",""
"html-keyboard-response","31","522975","0.0-2.0-2.0-0.10","u4wlhxv9j0jrsfv","practice_no_cue","5ef24f45ba594791fb6cb88d","5f60e3c0a3b16e07647b2ff9","5f61dc8d2199f304bea2a4e9","false","null","<span style=""color: black; font-size: 48px"">N + M</span>","null","","","","resp_prompt","","","","","","","","","","","","","","","",""
"categorize-image","32","524009","0.0-2.0-2.0-1.10","u4wlhxv9j0jrsfv","practice_no_cue","5ef24f45ba594791fb6cb88d","5f60e3c0a3b16e07647b2ff9","5f61dc8d2199f304bea2a4e9","true","520.2350000035949","./Stimuli/ImagesPractice/LM230.jpg","76","","","","test","true","N + M","76","","LM","LM230.jpg","remember","old","11","1","start","right","","","",""
"html-keyboard-response","33","524722","0.0-2.0-2.0-0.11","u4wlhxv9j0jrsfv","practice_no_cue","5ef24f45ba594791fb6cb88d","5f60e3c0a3b16e07647b2ff9","5f61dc8d2199f304bea2a4e9","false","null","<span style=""color: black; font-size: 48px"">M + N</span>","null","","","","resp_prompt","","","","","","","","","","","","","","","",""
"categorize-image","34","525675","0.0-2.0-2.0-1.11","u4wlhxv9j0jrsfv","practice_no_cue","5ef24f45ba594791fb6cb88d","5f60e3c0a3b16e07647b2ff9","5f61dc8d2199f304bea2a4e9","true","439.0099999727681","./Stimuli/ImagesPractice/SN222.jpg","83","","","","test","false","M + N","76","","SN","SN222.jpg","remember","old","12","1","start","left","","","",""
"html-keyboard-response","35","526385","0.0-2.0-2.0-0.12","u4wlhxv9j0jrsfv","practice_no_cue","5ef24f45ba594791fb6cb88d","5f60e3c0a3b16e07647b2ff9","5f61dc8d2199f304bea2a4e9","false","null","<span style=""color: black; font-size: 48px"">M + N</span>","null","","","","resp_prompt","","","","","","","","","","","","","","","",""
"categorize-image","36","527607","0.0-2.0-2.0-1.12","u4wlhxv9j0jrsfv","practice_no_cue","5ef24f45ba594791fb6cb88d","5f60e3c0a3b16e07647b2ff9","5f61dc8d2199f304bea2a4e9","true","706.5500000026077","./Stimuli/ImagesPractice/LN2.jpg","83","","","","test","false","M + N","76","","LN","LN2.jpg","remember","old","13","1","start","left","","","",""
"html-keyboard-response","37","528318","0.0-2.0-2.0-0.13","u4wlhxv9j0jrsfv","practice_no_cue","5ef24f45ba594791fb6cb88d","5f60e3c0a3b16e07647b2ff9","5f61dc8d2199f304bea2a4e9","false","null","<span style=""color: black; font-size: 48px"">N + M</span>","null","","","","resp_prompt","","","","","","","","","","","","","","","",""
"categorize-image","38","529150","0.0-2.0-2.0-1.13","u4wlhxv9j0jrsfv","practice_no_cue","5ef24f45ba594791fb6cb88d","5f60e3c0a3b16e07647b2ff9","5f61dc8d2199f304bea2a4e9","true","323.40500003192574","./Stimuli/ImagesPractice/SM61.jpg","76","","","","test","true","N + M","76","","SM","SM61.jpg","forget","old","14","1","start","right","","","",""
"html-keyboard-response","39","529856","0.0-2.0-2.0-0.14","u4wlhxv9j0jrsfv","practice_no_cue","5ef24f45ba594791fb6cb88d","5f60e3c0a3b16e07647b2ff9","5f61dc8d2199f304bea2a4e9","false","null","<span style=""color: black; font-size: 48px"">M + N</span>","null","","","","resp_prompt","","","","","","","","","","","","","","","",""
"categorize-image","40","531016","0.0-2.0-2.0-1.14","u4wlhxv9j0jrsfv","practice_no_cue","5ef24f45ba594791fb6cb88d","5f60e3c0a3b16e07647b2ff9","5f61dc8d2199f304bea2a4e9","true","649.1950000054203","./Stimuli/ImagesPractice/SM98.jpg","83","","","","test","true","M + N","83","","SM","SM98.jpg","remember","old","15","1","start","left","","","",""
"html-keyboard-response","41","531724","0.0-2.0-2.0-0.15","u4wlhxv9j0jrsfv","practice_no_cue","5ef24f45ba594791fb6cb88d","5f60e3c0a3b16e07647b2ff9","5f61dc8d2199f304bea2a4e9","false","null","<span style=""color: black; font-size: 48px"">N + M</span>","null","","","","resp_prompt","","","","","","","","","","","","","","","",""
"categorize-image","42","532853","0.0-2.0-2.0-1.15","u4wlhxv9j0jrsfv","practice_no_cue","5ef24f45ba594791fb6cb88d","5f60e3c0a3b16e07647b2ff9","5f61dc8d2199f304bea2a4e9","true","610.5349999852479","./Stimuli/ImagesPractice/LN17.jpg","76","","","","test","false","N + M","83","","LN","LN17.jpg","remember","old","16","1","start","right","","","",""
"html-keyboard-response","43","541972","0.0-2.0-3.0","u4wlhxv9j0jrsfv","break","5ef24f45ba594791fb6cb88d","5f60e3c0a3b16e07647b2ff9","5f61dc8d2199f304bea2a4e9","false","9114.004999981262","<p style='font-size: 32px;'>Break</><br><br><br><br><br><p style='font-size: 24px;'>In the last block, you committed 7 errors and did not respond in time on 1 trials.
</p><p style='font-size: 24px;'>Try to respond as fast and accurately as possible in the next block as well! </p><p style='font-size: 24px;'>Press SPACE to continue.</p>","32","","","","","","","","","","","","","","","","","","","",""
"html-keyboard-response","44","559020","0.0-2.0-4.0","u4wlhxv9j0jrsfv","instructions","5ef24f45ba594791fb6cb88d","5f60e3c0a3b16e07647b2ff9","5f61dc8d2199f304bea2a4e9","false","17045.790000003763","<div align=left> Great!<br><br>Are you ready to continue?<br><br>If you want to reread the instructions and redo the practice trials, <br>please press „Z“. <br><br>Press SPACE to CONTINUE with the experiment when you are ready. </div>","90","","","","","","","","","","","","","","","","","","","",""
"html-keyboard-response","45","713915","0.0-2.1-0.1","u4wlhxv9j0jrsfv","instructions","5ef24f45ba594791fb6cb88d","5f60e3c0a3b16e07647b2ff9","5f61dc8d2199f304bea2a4e9","false","154889.94500000263","<div align=justify>You will classify the objects using the <strong>'S'</strong> and the <strong>'L'</strong> keys on your keyboard.<br>For doing so, please place your <strong>left index finger</strong> on the <strong>'S'</strong> key and place your <strong>right index finger</strong> on the <strong>'L'</strong> key. <br><br> Each trial starts with an instruction, indicating which key ('S'/'L') you need to press to classify <br>the object as mechanical (letter M) or non-mechanical (letter N).<br>The instruction <strong>M + N</strong> indicates that, in the current trial, by pressing the left key ('S') you classify the displayed object as mechanical (M) <br> and by pressing the right key ('L') you classify the object as non-mechanical (N). <br>The instruction <strong>N + M</strong> on the other hand indicates that by pressing the left key ('S') you classify the displayed object as non-mechanical (N) <br> and by pressing the right key ('L') you classify the object as mechanical (M). <br><br>Please press the key corresponding to the correct classification as fast as possible as soon as the object is displayed and try to avoid making mistakes.<br>If you do not respond within a 2 second window, a corresponding feedback will be displayed and the next trial will start.<br> The experiment is divided into multiple blocks to give you the opportunity to take a break after each block. <br>First, you can now practice this task. <br><br>Please place your <strong>LEFT INDEX FINGER</strong> on the 'S' key and your <strong>RIGHT INDEX FINGER</strong> on the 'L' key now. <br><br>Press SPACE to continue.</div>","32","","","","","","","","","","","","","","","","","","","",""
"html-keyboard-response","46","722062","0.0-2.1-1.1","u4wlhxv9j0jrsfv","instructions","5ef24f45ba594791fb6cb88d","5f60e3c0a3b16e07647b2ff9","5f61dc8d2199f304bea2a4e9","false","8142.634999996517","<div align=left> You will now have time to practice this task.<br><br>Remember: <br> <br><li>Please place your index fingers on the <strong>'S'</strong> and <strong>'L'</strong> keys <br>to respond as fast and accurately as possible.</li><li>Every picture can be classified as either mechanical or non-mechanical.</li><li>If you do not respond in time or commit an error, you will receive a corresponding feedback. </li><li> Please try to respond as <strong> fast </strong> and as <strong> accurately as possible </strong> .<br><li>To ensure optimal results, please minimize distractions and stay focused. </li><br><br>Press SPACE to continue.</div>","32","","","","","","","","","","","","","","","","","","","",""
"html-keyboard-response","47","722777","0.0-2.1-2.1-0.16","u4wlhxv9j0jrsfv","practice_no_cue","5ef24f45ba594791fb6cb88d","5f60e3c0a3b16e07647b2ff9","5f61dc8d2199f304bea2a4e9","false","null","<span style=""color: black; font-size: 48px"">M + N</span>","null","","","","resp_prompt","","","","","","","","","","","","","","","",""
"categorize-image","48","723562","0.0-2.1-2.1-1.16","u4wlhxv9j0jrsfv","practice_no_cue","5ef24f45ba594791fb6cb88d","5f60e3c0a3b16e07647b2ff9","5f61dc8d2199f304bea2a4e9","true","267.22999999765307","./Stimuli/ImagesPractice/LN2.jpg","76","","","","test","true","M + N","76","","LN","LN2.jpg","remember","old","17","2","practice_forget","right","","","",""
"html-keyboard-response","49","724265","0.0-2.1-2.1-0.17","u4wlhxv9j0jrsfv","practice_no_cue","5ef24f45ba594791fb6cb88d","5f60e3c0a3b16e07647b2ff9","5f61dc8d2199f304bea2a4e9","false","null","<span style=""color: black; font-size: 48px"">N + M</span>","null","","","","resp_prompt","","","","","","","","","","","","","","","",""
"categorize-image","50","725566","0.0-2.1-2.1-1.17","u4wlhxv9j0jrsfv","practice_no_cue","5ef24f45ba594791fb6cb88d","5f60e3c0a3b16e07647b2ff9","5f61dc8d2199f304bea2a4e9","true","793.6350000090897","./Stimuli/ImagesPractice/SN221.jpg","76","","","","test","false","N + M","83","","SN","SN221.jpg","remember","old","18","2","practice_forget","right","","","",""
"html-keyboard-response","51","726279","0.0-2.1-2.1-0.18","u4wlhxv9j0jrsfv","practice_no_cue","5ef24f45ba594791fb6cb88d","5f60e3c0a3b16e07647b2ff9","5f61dc8d2199f304bea2a4e9","false","null","<span style=""color: black; font-size: 48px"">M + N</span>","null","","","","resp_prompt","","","","","","","","","","","","","","","",""
"categorize-image","52","726813","0.0-2.1-2.1-1.18","u4wlhxv9j0jrsfv","practice_no_cue","5ef24f45ba594791fb6cb88d","5f60e3c0a3b16e07647b2ff9","5f61dc8d2199f304bea2a4e9","true","17.554999969433993","./Stimuli/ImagesPractice/SN75.jpg","76","","","","test","true","M + N","76","","SN","SN75.jpg","forget","old","19","2","practice_forget","right","","","",""
"html-keyboard-response","53","727516","0.0-2.1-2.1-0.19","u4wlhxv9j0jrsfv","practice_no_cue","5ef24f45ba594791fb6cb88d","5f60e3c0a3b16e07647b2ff9","5f61dc8d2199f304bea2a4e9","false","null","<span style=""color: black; font-size: 48px"">M + N</span>","null","","","","resp_prompt","","","","","","","","","","","","","","","",""
"categorize-image","54","728681","0.0-2.1-2.1-1.19","u4wlhxv9j0jrsfv","practice_no_cue","5ef24f45ba594791fb6cb88d","5f60e3c0a3b16e07647b2ff9","5f61dc8d2199f304bea2a4e9","true","646.0250000236556","./Stimuli/ImagesPractice/SM98.jpg","76","","","","test","false","M + N","83","","SM","SM98.jpg","remember","old","20","2","practice_forget","right","","","",""
"html-keyboard-response","55","729397","0.0-2.1-2.1-0.20","u4wlhxv9j0jrsfv","practice_no_cue","5ef24f45ba594791fb6cb88d","5f60e3c0a3b16e07647b2ff9","5f61dc8d2199f304bea2a4e9","false","null","<span style=""color: black; font-size: 48px"">M + N</span>","null","","","","resp_prompt","","","","","","","","","","","","","","","",""
"categorize-image","56","730546","0.0-2.1-2.1-1.20","u4wlhxv9j0jrsfv","practice_no_cue","5ef24f45ba594791fb6cb88d","5f60e3c0a3b16e07647b2ff9","5f61dc8d2199f304bea2a4e9","true","631.3850000151433","./Stimuli/ImagesPractice/SN205.jpg","83","","","","test","false","M + N","76","","SN","SN205.jpg","forget","old","21","2","practice_forget","left","","","",""
"html-keyboard-response","57","731260","0.0-2.1-2.1-0.21","u4wlhxv9j0jrsfv","practice_no_cue","5ef24f45ba594791fb6cb88d","5f60e3c0a3b16e07647b2ff9","5f61dc8d2199f304bea2a4e9","false","null","<span style=""color: black; font-size: 48px"">N + M</span>","null","","","","resp_prompt","","","","","","","","","","","","","","","",""
"categorize-image","58","732362","0.0-2.1-2.1-1.21","u4wlhxv9j0jrsfv","practice_no_cue","5ef24f45ba594791fb6cb88d","5f60e3c0a3b16e07647b2ff9","5f61dc8d2199f304bea2a4e9","true","585.2249999879859","./Stimuli/ImagesPractice/SM61.jpg","76","","","","test","true","N + M","76","","SM","SM61.jpg","forget","old","22","2","practice_forget","right","","","",""
"html-keyboard-response","59","733074","0.0-2.1-2.1-0.22","u4wlhxv9j0jrsfv","practice_no_cue","5ef24f45ba594791fb6cb88d","5f60e3c0a3b16e07647b2ff9","5f61dc8d2199f304bea2a4e9","false","null","<span style=""color: black; font-size: 48px"">N + M</span>","null","","","","resp_prompt","","","","","","","","","","","","","","","",""
"categorize-image","60","733656","0.0-2.1-2.1-1.22","u4wlhxv9j0jrsfv","practice_no_cue","5ef24f45ba594791fb6cb88d","5f60e3c0a3b16e07647b2ff9","5f61dc8d2199f304bea2a4e9","true","72.61999999172986","./Stimuli/ImagesPractice/SM37.jpg","76","","","","test","true","N + M","76","","SM","SM37.jpg","remember","old","23","2","practice_forget","right","","","",""
"html-keyboard-response","61","734359","0.0-2.1-2.1-0.23","u4wlhxv9j0jrsfv","practice_no_cue","5ef24f45ba594791fb6cb88d","5f60e3c0a3b16e07647b2ff9","5f61dc8d2199f304bea2a4e9","false","null","<span style=""color: black; font-size: 48px"">N + M</span>","null","","","","resp_prompt","","","","","","","","","","","","","","","",""
"categorize-image","62","734894","0.0-2.1-2.1-1.23","u4wlhxv9j0jrsfv","practice_no_cue","5ef24f45ba594791fb6cb88d","5f60e3c0a3b16e07647b2ff9","5f61dc8d2199f304bea2a4e9","true","15.590000024531037","./Stimuli/ImagesPractice/LN109.jpg","76","","","","test","false","N + M","83","","LN","LN109.jpg","forget","old","24","2","practice_forget","right","","","",""
"html-keyboard-response","63","735610","0.0-2.1-2.1-0.24","u4wlhxv9j0jrsfv","practice_no_cue","5ef24f45ba594791fb6cb88d","5f60e3c0a3b16e07647b2ff9","5f61dc8d2199f304bea2a4e9","false","null","<span style=""color: black; font-size: 48px"">N + M</span>","null","","","","resp_prompt","","","","","","","","","","","","","","","",""
"categorize-image","64","736539","0.0-2.1-2.1-1.24","u4wlhxv9j0jrsfv","practice_no_cue","5ef24f45ba594791fb6cb88d","5f60e3c0a3b16e07647b2ff9","5f61dc8d2199f304bea2a4e9","true","413.05500001180917","./Stimuli/ImagesPractice/LN17.jpg","83","","","","test","true","N + M","83","","LN","LN17.jpg","remember","old","25","2","practice_forget","left","","","",""
"html-keyboard-response","65","737247","0.0-2.1-2.1-0.25","u4wlhxv9j0jrsfv","practice_no_cue","5ef24f45ba594791fb6cb88d","5f60e3c0a3b16e07647b2ff9","5f61dc8d2199f304bea2a4e9","false","null","<span style=""color: black; font-size: 48px"">N + M</span>","null","","","","resp_prompt","","","","","","","","","","","","","","","",""
"categorize-image","66","738090","0.0-2.1-2.1-1.25","u4wlhxv9j0jrsfv","practice_no_cue","5ef24f45ba594791fb6cb88d","5f60e3c0a3b16e07647b2ff9","5f61dc8d2199f304bea2a4e9","true","333.8549999753013","./Stimuli/ImagesPractice/SM97.jpg","76","","","","test","true","N + M","76","","SM","SM97.jpg","forget","old","26","2","practice_forget","right","","","",""
"html-keyboard-response","67","738792","0.0-2.1-2.1-0.26","u4wlhxv9j0jrsfv","practice_no_cue","5ef24f45ba594791fb6cb88d","5f60e3c0a3b16e07647b2ff9","5f61dc8d2199f304bea2a4e9","false","null","<span style=""color: black; font-size: 48px"">N + M</span>","null","","","","resp_prompt","","","","","","","","","","","","","","","",""
"categorize-image","68","739677","0.0-2.1-2.1-1.26","u4wlhxv9j0jrsfv","practice_no_cue","5ef24f45ba594791fb6cb88d","5f60e3c0a3b16e07647b2ff9","5f61dc8d2199f304bea2a4e9","true","370.47500000335276","./Stimuli/ImagesPractice/LM230.jpg","83","","","","test","false","N + M","76","","LM","LM230.jpg","remember","old","27","2","practice_forget","left","","","",""
"html-keyboard-response","69","740393","0.0-2.1-2.1-0.27","u4wlhxv9j0jrsfv","practice_no_cue","5ef24f45ba594791fb6cb88d","5f60e3c0a3b16e07647b2ff9","5f61dc8d2199f304bea2a4e9","false","null","<span style=""color: black; font-size: 48px"">M + N</span>","null","","","","resp_prompt","","","","","","","","","","","","","","","",""
"categorize-image","70","741542","0.0-2.1-2.1-1.27","u4wlhxv9j0jrsfv","practice_no_cue","5ef24f45ba594791fb6cb88d","5f60e3c0a3b16e07647b2ff9","5f61dc8d2199f304bea2a4e9","true","634.0750000090338","./Stimuli/ImagesPractice/LN72.jpg","76","","","","test","true","M + N","76","","LN","LN72.jpg","forget","old","28","2","practice_forget","right","","","",""
"html-keyboard-response","71","742259","0.0-2.1-2.1-0.28","u4wlhxv9j0jrsfv","practice_no_cue","5ef24f45ba594791fb6cb88d","5f60e3c0a3b16e07647b2ff9","5f61dc8d2199f304bea2a4e9","false","null","<span style=""color: black; font-size: 48px"">M + N</span>","null","","","","resp_prompt","","","","","","","","","","","","","","","",""
"categorize-image","72","742972","0.0-2.1-2.1-1.28","u4wlhxv9j0jrsfv","practice_no_cue","5ef24f45ba594791fb6cb88d","5f60e3c0a3b16e07647b2ff9","5f61dc8d2199f304bea2a4e9","true","200.89500001631677","./Stimuli/ImagesPractice/SN222.jpg","76","","","","test","true","M + N","76","","SN","SN222.jpg","remember","old","29","2","practice_forget","right","","","",""
"html-keyboard-response","73","743689","0.0-2.1-2.1-0.29","u4wlhxv9j0jrsfv","practice_no_cue","5ef24f45ba594791fb6cb88d","5f60e3c0a3b16e07647b2ff9","5f61dc8d2199f304bea2a4e9","false","null","<span style=""color: black; font-size: 48px"">M + N</span>","null","","","","resp_prompt","","","","","","","","","","","","","","","",""
"categorize-image","74","744643","0.0-2.1-2.1-1.29","u4wlhxv9j0jrsfv","practice_no_cue","5ef24f45ba594791fb6cb88d","5f60e3c0a3b16e07647b2ff9","5f61dc8d2199f304bea2a4e9","true","437.50500003807247","./Stimuli/ImagesPractice/LM55.jpg","83","","","","test","true","M + N","83","","LM","LM55.jpg","forget","old","30","2","practice_forget","left","","","",""
"html-keyboard-response","75","745361","0.0-2.1-2.1-0.30","u4wlhxv9j0jrsfv","practice_no_cue","5ef24f45ba594791fb6cb88d","5f60e3c0a3b16e07647b2ff9","5f61dc8d2199f304bea2a4e9","false","null","<span style=""color: black; font-size: 48px"">N + M</span>","null","","","","resp_prompt","","","","","","","","","","","","","","","",""
"categorize-image","76","746577","0.0-2.1-2.1-1.30","u4wlhxv9j0jrsfv","practice_no_cue","5ef24f45ba594791fb6cb88d","5f60e3c0a3b16e07647b2ff9","5f61dc8d2199f304bea2a4e9","true","710.3050000150688","./Stimuli/ImagesPractice/LM147.jpg","83","","","","test","false","N + M","76","","LM","LM147.jpg","forget","old","31","2","practice_forget","left","","","",""
"html-keyboard-response","77","747281","0.0-2.1-2.1-0.31","u4wlhxv9j0jrsfv","practice_no_cue","5ef24f45ba594791fb6cb88d","5f60e3c0a3b16e07647b2ff9","5f61dc8d2199f304bea2a4e9","false","null","<span style=""color: black; font-size: 48px"">M + N</span>","null","","","","resp_prompt","","","","","","","","","","","","","","","",""
"categorize-image","78","748122","0.0-2.1-2.1-1.31","u4wlhxv9j0jrsfv","practice_no_cue","5ef24f45ba594791fb6cb88d","5f60e3c0a3b16e07647b2ff9","5f61dc8d2199f304bea2a4e9","true","320.09500003186986","./Stimuli/ImagesPractice/SN220.jpg","83","","","","test","false","M + N","76","","SN","SN220.jpg","remember","old","32","2","practice_forget","left","","","",""
"html-keyboard-response","79","758478","0.0-2.1-3.1","u4wlhxv9j0jrsfv","break","5ef24f45ba594791fb6cb88d","5f60e3c0a3b16e07647b2ff9","5f61dc8d2199f304bea2a4e9","false","10353.049999976065","<p style='font-size: 32px;'>Break</><br><br><br><br><br><p style='font-size: 24px;'>In the last block, you committed 7 errors and did not respond in time on 0 trials.
</p><p style='font-size: 24px;'>Try to respond as fast and accurately as possible in the next block as well! </p><p style='font-size: 24px;'>Press SPACE to continue.</p>","32","","","","","","","","","","","","","","","","","","","",""
"html-keyboard-response","80","762441","0.0-2.1-4.1","u4wlhxv9j0jrsfv","instructions","5ef24f45ba594791fb6cb88d","5f60e3c0a3b16e07647b2ff9","5f61dc8d2199f304bea2a4e9","false","3960.8449999941513","<div align=left> Great!<br><br>Are you ready to continue?<br><br>If you want to reread the instructions and redo the practice trials, <br>please press „Z“. <br><br>Press SPACE to CONTINUE with the experiment when you are ready. </div>","32","","","","","","","","","","","","","","","","","","","",""
"html-keyboard-response","81","809858","0.0-3.0-0.0","u4wlhxv9j0jrsfv","instructions","5ef24f45ba594791fb6cb88d","5f60e3c0a3b16e07647b2ff9","5f61dc8d2199f304bea2a4e9","false","47430.35999999847","<div align=left>Great!<br> <strong>Attention</strong>! You will now receive a second, additional task! <br><br>To this point it was you <strong>first task</strong> to correctly <strong>classify objects</strong>. <br><br>As mentioned in the beginning, we aim to examine how well humans can remember previously learned information.<br>We would like to find out whether our memory improves if we only remember information that is relevant to us. <br><br>Therefore, your <strong>second task</strong> will be to <strong>remember</strong> the pictures you are to categorize. <br> After the learning phase, there will be a memory test phase, in which you will be asked to indicate whether you have seen a picture before or not. <br>Some, but not all pictures shown in the learning phase will appear in the memory test phase.<br>After classifying a picture, you will be told whether you should remember it for the memory test phase or not. <br>Thus, some pictures can be forgotten, whereas others have to be remembered. <br><br>Note: From now on, feedback will only be displayed if you responded incorrectly or not in time.<br><br>Press SPACE to continue.</div>","32","","","","","","","","","","","","","","","","","","","",""
"html-keyboard-response","82","839325","0.0-3.0-1.0","u4wlhxv9j0jrsfv","instructions","5ef24f45ba594791fb6cb88d","5f60e3c0a3b16e07647b2ff9","5f61dc8d2199f304bea2a4e9","false","29461.584999982733","<div align=left>In the following part, you will thus have to remember only some pictures. <br>Immediately after seeing and classifying the picture, a symbol will be displayed, indicating whether you should remember or forget the previous picture. <br><br>A <span style='color: dodgerblue; font-size: 28px'>O</span> indicates REMEMBER. That means, you have to remember this picture, because it will be tested later. <br><br>A <span style='color: darkorange; font-size:28px'>Ø</span> indicates FORGET. You do not have to remember this picture. <br><br> As you will have to remember a lot of pictures, it will be hard for you to remember all of them. <br>It will put you at an advantage if you instantly forget the pictures you are not asked to remember. <br> This will make it easier for you to remember the pictures that will be tested afterwards. <br><br>Press SPACE to continue.</div>","32","","","","","","","","","","","","","","","","","","","",""
"html-keyboard-response","83","866129","0.0-3.0-2.0","u4wlhxv9j0jrsfv","instructions","5ef24f45ba594791fb6cb88d","5f60e3c0a3b16e07647b2ff9","5f61dc8d2199f304bea2a4e9","false","26801.110000000335","<div align=left> Now you have the chance to practice both tasks together.<br><br>Remember: <br> <br><li>Please place your index fingers on the <strong>'S'</strong> and <strong>'L'</strong> keys <br>to respond as fast and accurately as possible.</li><li>Every picture can be classified as either mechanical or non-mechanical.</li><li>If you do not respond in time or commit an error, you will receive a corresponding feedback. <br>Please try to respond as <strong> fast </strong> and as <strong> accurately as possible </strong>.</li><li> Please remember only the to-be-remembered <span style='color: dodgerblue; font-size: 28px'>O</span> pictures. <br></li><li> Please minimize distractions and stay focused. </li><br><br>Press SPACE to START</div>","32","","","","","","","","","","","","","","","","","","","",""
"html-keyboard-response","84","866833","0.0-3.0-3.0-0.0","u4wlhxv9j0jrsfv","practice_cue","5ef24f45ba594791fb6cb88d","5f60e3c0a3b16e07647b2ff9","5f61dc8d2199f304bea2a4e9","false","null","<span style=""color: black; font-size: 48px"">N + M</span>","null","","","","resp_prompt","","","","","","","","","","","","","","","",""
"categorize-image","85","866927","0.0-3.0-3.0-1.0","u4wlhxv9j0jrsfv","practice_cue","5ef24f45ba594791fb6cb88d","5f60e3c0a3b16e07647b2ff9","5f61dc8d2199f304bea2a4e9","true","84.96999996714294","./Stimuli/ImagesPractice/SM97.jpg","76","","","","test","true","N + M","76","","SM","SM97.jpg","forget","old","33","3","practice_forget","right","","","",""
"html-keyboard-response","86","868932","0.0-3.0-3.0-3.0","u4wlhxv9j0jrsfv","practice_cue","5ef24f45ba594791fb6cb88d","5f60e3c0a3b16e07647b2ff9","5f61dc8d2199f304bea2a4e9","false","null","<div style=""align-items: center; display: flex; color: darkorange; font-size: 90px""><b>ø</b></div>","null","","","","forget_cue","","","","","","","","","","","","","","","",""
"html-keyboard-response","87","869649","0.0-3.0-3.0-0.1","u4wlhxv9j0jrsfv","practice_cue","5ef24f45ba594791fb6cb88d","5f60e3c0a3b16e07647b2ff9","5f61dc8d2199f304bea2a4e9","false","null","<span style=""color: black; font-size: 48px"">N + M</span>","null","","","","resp_prompt","","","","","","","","","","","","","","","",""
"categorize-image","88","870308","0.0-3.0-3.0-1.1","u4wlhxv9j0jrsfv","practice_cue","5ef24f45ba594791fb6cb88d","5f60e3c0a3b16e07647b2ff9","5f61dc8d2199f304bea2a4e9","true","637.4949999735691","./Stimuli/ImagesPractice/LN109.jpg","76","","","","test","false","N + M","83","","LN","LN109.jpg","forget","old","34","3","practice_forget","right","","","",""
"html-keyboard-response","89","870811","0.0-3.0-3.0-2.1-0.1","u4wlhxv9j0jrsfv","practice_cue","5ef24f45ba594791fb6cb88d","5f60e3c0a3b16e07647b2ff9","5f61dc8d2199f304bea2a4e9","false","null","<span style=""color: red; font-size: 48px"">Error!</span>","null","","","","feedback","","","","","","","","","","","","","","","",""
"html-keyboard-response","90","872829","0.0-3.0-3.0-3.1","u4wlhxv9j0jrsfv","practice_cue","5ef24f45ba594791fb6cb88d","5f60e3c0a3b16e07647b2ff9","5f61dc8d2199f304bea2a4e9","false","null","<div style=""align-items: center; display: flex; color: darkorange; font-size: 90px""><b>ø</b></div>","null","","","","forget_cue","","","","","","","","","","","","","","","",""
"html-keyboard-response","91","873531","0.0-3.0-3.0-0.2","u4wlhxv9j0jrsfv","practice_cue","5ef24f45ba594791fb6cb88d","5f60e3c0a3b16e07647b2ff9","5f61dc8d2199f304bea2a4e9","false","null","<span style=""color: black; font-size: 48px"">N + M</span>","null","","","","resp_prompt","","","","","","","","","","","","","","","",""
"categorize-image","92","873915","0.0-3.0-3.0-1.2","u4wlhxv9j0jrsfv","practice_cue","5ef24f45ba594791fb6cb88d","5f60e3c0a3b16e07647b2ff9","5f61dc8d2199f304bea2a4e9","true","374.2700000293553","./Stimuli/ImagesPractice/SM37.jpg","83","","","","test","false","N + M","76","","SM","SM37.jpg","remember","old","35","3","practice_forget","left","","","",""
"html-keyboard-response","93","874434","0.0-3.0-3.0-2.2-0.2","u4wlhxv9j0jrsfv","practice_cue","5ef24f45ba594791fb6cb88d","5f60e3c0a3b16e07647b2ff9","5f61dc8d2199f304bea2a4e9","false","null","<span style=""color: red; font-size: 48px"">Error!</span>","null","","","","feedback","","","","","","","","","","","","","","","",""
"html-keyboard-response","94","876442","0.0-3.0-3.0-3.2","u4wlhxv9j0jrsfv","practice_cue","5ef24f45ba594791fb6cb88d","5f60e3c0a3b16e07647b2ff9","5f61dc8d2199f304bea2a4e9","false","null","<div style=""align-items: center; display: flex; color: dodgerblue; font-size: 90px""><b>o</b></div>","null","","","","forget_cue","","","","","","","","","","","","","","","",""
"html-keyboard-response","95","877158","0.0-3.0-3.0-0.3","u4wlhxv9j0jrsfv","practice_cue","5ef24f45ba594791fb6cb88d","5f60e3c0a3b16e07647b2ff9","5f61dc8d2199f304bea2a4e9","false","null","<span style=""color: black; font-size: 48px"">M + N</span>","null","","","","resp_prompt","","","","","","","","","","","","","","","",""
"categorize-image","96","877720","0.0-3.0-3.0-1.3","u4wlhxv9j0jrsfv","practice_cue","5ef24f45ba594791fb6cb88d","5f60e3c0a3b16e07647b2ff9","5f61dc8d2199f304bea2a4e9","true","554.085000010673","./Stimuli/ImagesPractice/LN2.jpg","76","","","","test","true","M + N","76","","LN","LN2.jpg","remember","old","36","3","practice_forget","right","","","",""
"html-keyboard-response","97","879730","0.0-3.0-3.0-3.3","u4wlhxv9j0jrsfv","practice_cue","5ef24f45ba594791fb6cb88d","5f60e3c0a3b16e07647b2ff9","5f61dc8d2199f304bea2a4e9","false","null","<div style=""align-items: center; display: flex; color: dodgerblue; font-size: 90px""><b>o</b></div>","null","","","","forget_cue","","","","","","","","","","","","","","","",""
"html-keyboard-response","98","880433","0.0-3.0-3.0-0.4","u4wlhxv9j0jrsfv","practice_cue","5ef24f45ba594791fb6cb88d","5f60e3c0a3b16e07647b2ff9","5f61dc8d2199f304bea2a4e9","false","null","<span style=""color: black; font-size: 48px"">N + M</span>","null","","","","resp_prompt","","","","","","","","","","","","","","","",""
"categorize-image","99","880485","0.0-3.0-3.0-1.4","u4wlhxv9j0jrsfv","practice_cue","5ef24f45ba594791fb6cb88d","5f60e3c0a3b16e07647b2ff9","5f61dc8d2199f304bea2a4e9","true","44.319999986328185","./Stimuli/ImagesPractice/LM147.jpg","83","","","","test","false","N + M","76","","LM","LM147.jpg","forget","old","37","3","practice_forget","left","","","",""
"html-keyboard-response","100","880992","0.0-3.0-3.0-2.4-0.4","u4wlhxv9j0jrsfv","practice_cue","5ef24f45ba594791fb6cb88d","5f60e3c0a3b16e07647b2ff9","5f61dc8d2199f304bea2a4e9","false","null","<span style=""color: red; font-size: 48px"">Error!</span>","null","","","","feedback","","","","","","","","","","","","","","","",""
"html-keyboard-response","101","883009","0.0-3.0-3.0-3.4","u4wlhxv9j0jrsfv","practice_cue","5ef24f45ba594791fb6cb88d","5f60e3c0a3b16e07647b2ff9","5f61dc8d2199f304bea2a4e9","false","null","<div style=""align-items: center; display: flex; color: darkorange; font-size: 90px""><b>ø</b></div>","null","","","","forget_cue","","","","","","","","","","","","","","","",""
"html-keyboard-response","102","883725","0.0-3.0-3.0-0.5","u4wlhxv9j0jrsfv","practice_cue","5ef24f45ba594791fb6cb88d","5f60e3c0a3b16e07647b2ff9","5f61dc8d2199f304bea2a4e9","false","null","<span style=""color: black; font-size: 48px"">M + N</span>","null","","","","resp_prompt","","","","","","","","","","","","","","","",""
"categorize-image","103","884234","0.0-3.0-3.0-1.5","u4wlhxv9j0jrsfv","practice_cue","5ef24f45ba594791fb6cb88d","5f60e3c0a3b16e07647b2ff9","5f61dc8d2199f304bea2a4e9","true","502.67999997595325","./Stimuli/ImagesPractice/SN222.jpg","76","","","","test","true","M + N","76","","SN","SN222.jpg","remember","old","38","3","practice_forget","right","","","",""
"html-keyboard-response","104","886245","0.0-3.0-3.0-3.5","u4wlhxv9j0jrsfv","practice_cue","5ef24f45ba594791fb6cb88d","5f60e3c0a3b16e07647b2ff9","5f61dc8d2199f304bea2a4e9","false","null","<div style=""align-items: center; display: flex; color: dodgerblue; font-size: 90px""><b>o</b></div>","null","","","","forget_cue","","","","","","","","","","","","","","","",""
"html-keyboard-response","105","886958","0.0-3.0-3.0-0.6","u4wlhxv9j0jrsfv","practice_cue","5ef24f45ba594791fb6cb88d","5f60e3c0a3b16e07647b2ff9","5f61dc8d2199f304bea2a4e9","false","null","<span style=""color: black; font-size: 48px"">N + M</span>","null","","","","resp_prompt","","","","","","","","","","","","","","","",""
"categorize-image","106","887096","0.0-3.0-3.0-1.6","u4wlhxv9j0jrsfv","practice_cue","5ef24f45ba594791fb6cb88d","5f60e3c0a3b16e07647b2ff9","5f61dc8d2199f304bea2a4e9","true","130.65999996615574","./Stimuli/ImagesPractice/SN221.jpg","76","","","","test","false","N + M","83","","SN","SN221.jpg","remember","old","39","3","practice_forget","right","","","",""
"html-keyboard-response","107","887605","0.0-3.0-3.0-2.6-0.6","u4wlhxv9j0jrsfv","practice_cue","5ef24f45ba594791fb6cb88d","5f60e3c0a3b16e07647b2ff9","5f61dc8d2199f304bea2a4e9","false","null","<span style=""color: red; font-size: 48px"">Error!</span>","null","","","","feedback","","","","","","","","","","","","","","","",""
"html-keyboard-response","108","889611","0.0-3.0-3.0-3.6","u4wlhxv9j0jrsfv","practice_cue","5ef24f45ba594791fb6cb88d","5f60e3c0a3b16e07647b2ff9","5f61dc8d2199f304bea2a4e9","false","null","<div style=""align-items: center; display: flex; color: dodgerblue; font-size: 90px""><b>o</b></div>","null","","","","forget_cue","","","","","","","","","","","","","","","",""
"html-keyboard-response","109","890328","0.0-3.0-3.0-0.7","u4wlhxv9j0jrsfv","practice_cue","5ef24f45ba594791fb6cb88d","5f60e3c0a3b16e07647b2ff9","5f61dc8d2199f304bea2a4e9","false","null","<span style=""color: black; font-size: 48px"">M + N</span>","null","","","","resp_prompt","","","","","","","","","","","","","","","",""
"categorize-image","110","890399","0.0-3.0-3.0-1.7","u4wlhxv9j0jrsfv","practice_cue","5ef24f45ba594791fb6cb88d","5f60e3c0a3b16e07647b2ff9","5f61dc8d2199f304bea2a4e9","true","64.40499995369464","./Stimuli/ImagesPractice/SN75.jpg","83","","","","test","false","M + N","76","","SN","SN75.jpg","forget","old","40","3","practice_forget","left","","","",""
"html-keyboard-response","111","890911","0.0-3.0-3.0-2.7-0.7","u4wlhxv9j0jrsfv","practice_cue","5ef24f45ba594791fb6cb88d","5f60e3c0a3b16e07647b2ff9","5f61dc8d2199f304bea2a4e9","false","null","<span style=""color: red; font-size: 48px"">Error!</span>","null","","","","feedback","","","","","","","","","","","","","","","",""
"html-keyboard-response","112","892928","0.0-3.0-3.0-3.7","u4wlhxv9j0jrsfv","practice_cue","5ef24f45ba594791fb6cb88d","5f60e3c0a3b16e07647b2ff9","5f61dc8d2199f304bea2a4e9","false","null","<div style=""align-items: center; display: flex; color: darkorange; font-size: 90px""><b>ø</b></div>","null","","","","forget_cue","","","","","","","","","","","","","","","",""
"html-keyboard-response","113","893644","0.0-3.0-3.0-0.8","u4wlhxv9j0jrsfv","practice_cue","5ef24f45ba594791fb6cb88d","5f60e3c0a3b16e07647b2ff9","5f61dc8d2199f304bea2a4e9","false","null","<span style=""color: black; font-size: 48px"">N + M</span>","null","","","","resp_prompt","","","","","","","","","","","","","","","",""
"categorize-image","114","894012","0.0-3.0-3.0-1.8","u4wlhxv9j0jrsfv","practice_cue","5ef24f45ba594791fb6cb88d","5f60e3c0a3b16e07647b2ff9","5f61dc8d2199f304bea2a4e9","true","362.84000001614913","./Stimuli/ImagesPractice/LN17.jpg","76","","","","test","false","N + M","83","","LN","LN17.jpg","remember","old","41","3","practice_forget","right","","","",""
"html-keyboard-response","115","894525","0.0-3.0-3.0-2.8-0.8","u4wlhxv9j0jrsfv","practice_cue","5ef24f45ba594791fb6cb88d","5f60e3c0a3b16e07647b2ff9","5f61dc8d2199f304bea2a4e9","false","null","<span style=""color: red; font-size: 48px"">Error!</span>","null","","","","feedback","","","","","","","","","","","","","","","",""
"html-keyboard-response","116","896538","0.0-3.0-3.0-3.8","u4wlhxv9j0jrsfv","practice_cue","5ef24f45ba594791fb6cb88d","5f60e3c0a3b16e07647b2ff9","5f61dc8d2199f304bea2a4e9","false","null","<div style=""align-items: center; display: flex; color: dodgerblue; font-size: 90px""><b>o</b></div>","null","","","","forget_cue","","","","","","","","","","","","","","","",""
"html-keyboard-response","117","897244","0.0-3.0-3.0-0.9","u4wlhxv9j0jrsfv","practice_cue","5ef24f45ba594791fb6cb88d","5f60e3c0a3b16e07647b2ff9","5f61dc8d2199f304bea2a4e9","false","null","<span style=""color: black; font-size: 48px"">M + N</span>","null","","","","resp_prompt","","","","","","","","","","","","","","","",""
"categorize-image","118","897580","0.0-3.0-3.0-1.9","u4wlhxv9j0jrsfv","practice_cue","5ef24f45ba594791fb6cb88d","5f60e3c0a3b16e07647b2ff9","5f61dc8d2199f304bea2a4e9","true","327.980000001844","./Stimuli/ImagesPractice/SM98.jpg","76","","","","test","false","M + N","83","","SM","SM98.jpg","remember","old","42","3","practice_forget","right","","","",""
"html-keyboard-response","119","898087","0.0-3.0-3.0-2.9-0.9","u4wlhxv9j0jrsfv","practice_cue","5ef24f45ba594791fb6cb88d","5f60e3c0a3b16e07647b2ff9","5f61dc8d2199f304bea2a4e9","false","null","<span style=""color: red; font-size: 48px"">Error!</span>","null","","","","feedback","","","","","","","","","","","","","","","",""
"html-keyboard-response","120","900105","0.0-3.0-3.0-3.9","u4wlhxv9j0jrsfv","practice_cue","5ef24f45ba594791fb6cb88d","5f60e3c0a3b16e07647b2ff9","5f61dc8d2199f304bea2a4e9","false","null","<div style=""align-items: center; display: flex; color: dodgerblue; font-size: 90px""><b>o</b></div>","null","","","","forget_cue","","","","","","","","","","","","","","","",""
"html-keyboard-response","121","900808","0.0-3.0-3.0-0.10","u4wlhxv9j0jrsfv","practice_cue","5ef24f45ba594791fb6cb88d","5f60e3c0a3b16e07647b2ff9","5f61dc8d2199f304bea2a4e9","false","null","<span style=""color: black; font-size: 48px"">N + M</span>","null","","","","resp_prompt","","","","","","","","","","","","","","","",""
"categorize-image","122","901476","0.0-3.0-3.0-1.10","u4wlhxv9j0jrsfv","practice_cue","5ef24f45ba594791fb6cb88d","5f60e3c0a3b16e07647b2ff9","5f61dc8d2199f304bea2a4e9","true","660.1950000040233","./Stimuli/ImagesPractice/SM61.jpg","76","","","","test","true","N + M","76","","SM","SM61.jpg","forget","old","43","3","practice_forget","right","","","",""
"html-keyboard-response","123","903491","0.0-3.0-3.0-3.10","u4wlhxv9j0jrsfv","practice_cue","5ef24f45ba594791fb6cb88d","5f60e3c0a3b16e07647b2ff9","5f61dc8d2199f304bea2a4e9","false","null","<div style=""align-items: center; display: flex; color: darkorange; font-size: 90px""><b>ø</b></div>","null","","","","forget_cue","","","","","","","","","","","","","","","",""
"html-keyboard-response","124","904207","0.0-3.0-3.0-0.11","u4wlhxv9j0jrsfv","practice_cue","5ef24f45ba594791fb6cb88d","5f60e3c0a3b16e07647b2ff9","5f61dc8d2199f304bea2a4e9","false","null","<span style=""color: black; font-size: 48px"">M + N</span>","null","","","","resp_prompt","","","","","","","","","","","","","","","",""
"categorize-image","125","904554","0.0-3.0-3.0-1.11","u4wlhxv9j0jrsfv","practice_cue","5ef24f45ba594791fb6cb88d","5f60e3c0a3b16e07647b2ff9","5f61dc8d2199f304bea2a4e9","true","340.0550000369549","./Stimuli/ImagesPractice/SN205.jpg","76","","","","test","true","M + N","76","","SN","SN205.jpg","forget","old","44","3","practice_forget","right","","","",""
"html-keyboard-response","126","906571","0.0-3.0-3.0-3.11","u4wlhxv9j0jrsfv","practice_cue","5ef24f45ba594791fb6cb88d","5f60e3c0a3b16e07647b2ff9","5f61dc8d2199f304bea2a4e9","false","null","<div style=""align-items: center; display: flex; color: darkorange; font-size: 90px""><b>ø</b></div>","null","","","","forget_cue","","","","","","","","","","","","","","","",""
"html-keyboard-response","127","907287","0.0-3.0-3.0-0.12","u4wlhxv9j0jrsfv","practice_cue","5ef24f45ba594791fb6cb88d","5f60e3c0a3b16e07647b2ff9","5f61dc8d2199f304bea2a4e9","false","null","<span style=""color: black; font-size: 48px"">M + N</span>","null","","","","resp_prompt","","","","","","","","","","","","","","","",""
"categorize-image","128","907915","0.0-3.0-3.0-1.12","u4wlhxv9j0jrsfv","practice_cue","5ef24f45ba594791fb6cb88d","5f60e3c0a3b16e07647b2ff9","5f61dc8d2199f304bea2a4e9","true","618.9700000104494","./Stimuli/ImagesPractice/LM55.jpg","83","","","","test","true","M + N","83","","LM","LM55.jpg","forget","old","45","3","practice_forget","left","","","",""
"html-keyboard-response","129","909919","0.0-3.0-3.0-3.12","u4wlhxv9j0jrsfv","practice_cue","5ef24f45ba594791fb6cb88d","5f60e3c0a3b16e07647b2ff9","5f61dc8d2199f304bea2a4e9","false","null","<div style=""align-items: center; display: flex; color: darkorange; font-size: 90px""><b>ø</b></div>","null","","","","forget_cue","","","","","","","","","","","","","","","",""
"html-keyboard-response","130","910634","0.0-3.0-3.0-0.13","u4wlhxv9j0jrsfv","practice_cue","5ef24f45ba594791fb6cb88d","5f60e3c0a3b16e07647b2ff9","5f61dc8d2199f304bea2a4e9","false","null","<span style=""color: black; font-size: 48px"">N + M</span>","null","","","","resp_prompt","","","","","","","","","","","","","","","",""
"categorize-image","131","911023","0.0-3.0-3.0-1.13","u4wlhxv9j0jrsfv","practice_cue","5ef24f45ba594791fb6cb88d","5f60e3c0a3b16e07647b2ff9","5f61dc8d2199f304bea2a4e9","true","380.62000001082197","./Stimuli/ImagesPractice/LM230.jpg","76","","","","test","true","N + M","76","","LM","LM230.jpg","remember","old","46","3","practice_forget","right","","","",""
"html-keyboard-response","132","913037","0.0-3.0-3.0-3.13","u4wlhxv9j0jrsfv","practice_cue","5ef24f45ba594791fb6cb88d","5f60e3c0a3b16e07647b2ff9","5f61dc8d2199f304bea2a4e9","false","null","<div style=""align-items: center; display: flex; color: dodgerblue; font-size: 90px""><b>o</b></div>","null","","","","forget_cue","","","","","","","","","","","","","","","",""
"html-keyboard-response","133","913746","0.0-3.0-3.0-0.14","u4wlhxv9j0jrsfv","practice_cue","5ef24f45ba594791fb6cb88d","5f60e3c0a3b16e07647b2ff9","5f61dc8d2199f304bea2a4e9","false","null","<span style=""color: black; font-size: 48px"">M + N</span>","null","","","","resp_prompt","","","","","","","","","","","","","","","",""
"categorize-image","134","914387","0.0-3.0-3.0-1.14","u4wlhxv9j0jrsfv","practice_cue","5ef24f45ba594791fb6cb88d","5f60e3c0a3b16e07647b2ff9","5f61dc8d2199f304bea2a4e9","true","633.5749999852851","./Stimuli/ImagesPractice/LN72.jpg","83","","","","test","false","M + N","76","","LN","LN72.jpg","forget","old","47","3","practice_forget","left","","","",""
"html-keyboard-response","135","914903","0.0-3.0-3.0-2.14-0.14","u4wlhxv9j0jrsfv","practice_cue","5ef24f45ba594791fb6cb88d","5f60e3c0a3b16e07647b2ff9","5f61dc8d2199f304bea2a4e9","false","null","<span style=""color: red; font-size: 48px"">Error!</span>","null","","","","feedback","","","","","","","","","","","","","","","",""
"html-keyboard-response","136","916916","0.0-3.0-3.0-3.14","u4wlhxv9j0jrsfv","practice_cue","5ef24f45ba594791fb6cb88d","5f60e3c0a3b16e07647b2ff9","5f61dc8d2199f304bea2a4e9","false","null","<div style=""align-items: center; display: flex; color: darkorange; font-size: 90px""><b>ø</b></div>","null","","","","forget_cue","","","","","","","","","","","","","","","",""
"html-keyboard-response","137","917622","0.0-3.0-3.0-0.15","u4wlhxv9j0jrsfv","practice_cue","5ef24f45ba594791fb6cb88d","5f60e3c0a3b16e07647b2ff9","5f61dc8d2199f304bea2a4e9","false","null","<span style=""color: black; font-size: 48px"">M + N</span>","null","","","","resp_prompt","","","","","","","","","","","","","","","",""
"categorize-image","138","918000","0.0-3.0-3.0-1.15","u4wlhxv9j0jrsfv","practice_cue","5ef24f45ba594791fb6cb88d","5f60e3c0a3b16e07647b2ff9","5f61dc8d2199f304bea2a4e9","true","370.35500002093613","./Stimuli/ImagesPractice/SN220.jpg","76","","","","test","true","M + N","76","","SN","SN220.jpg","remember","old","48","3","practice_forget","right","","","",""
"html-keyboard-response","139","920017","0.0-3.0-3.0-3.15","u4wlhxv9j0jrsfv","practice_cue","5ef24f45ba594791fb6cb88d","5f60e3c0a3b16e07647b2ff9","5f61dc8d2199f304bea2a4e9","false","null","<div style=""align-items: center; display: flex; color: dodgerblue; font-size: 90px""><b>o</b></div>","null","","","","forget_cue","","","","","","","","","","","","","","","",""
"html-keyboard-response","140","929446","0.0-3.0-4.0","u4wlhxv9j0jrsfv","break","5ef24f45ba594791fb6cb88d","5f60e3c0a3b16e07647b2ff9","5f61dc8d2199f304bea2a4e9","false","9427.399999985937","<p style='font-size: 32px;'>Break</><br><br><br><br><br><p style='font-size: 24px;'>In the last block, you committed 8 errors and did not respond in time on 0 trials.
</p><p style='font-size: 24px;'>Try to respond as fast and accurately as possible in the next block as well! </p><p style='font-size: 24px;'>Press SPACE to continue.</p>","32","","","","","","","","","","","","","","","","","","","",""
"html-keyboard-response","141","961894","0.0-3.0-5.0","u4wlhxv9j0jrsfv","instructions","5ef24f45ba594791fb6cb88d","5f60e3c0a3b16e07647b2ff9","5f61dc8d2199f304bea2a4e9","false","32452.70000002347","<div align=left> Now, to practice, we kindly ask you to remember as many of the to-be-remembered pictures<br>of the previous learning phase as possible.<br><br>The pictures you were instructed to remember were the pictures followed by a <span style='color: dodgerblue; font-size: 28px'>O</span>.<br><br>In this memory test phase, you will also see some new pictures.<br>It is your task to remember whether you were presented with this specific picture in this study so far or not.<br>If you recognize an object (you have already seen it in this study), it is an OLD object. <br>If you do not recognize an object (you have NOT seen it in this study), it is a NEW object. <br><strong> Attention</strong>: As already mentioned, <span style='color: darkorange; font-size:28px'>Ø</span>-pictures will <strong>never</strong> appear in this memory test (neither as new objects). <br><br>Press SPACE to continue. </div>","32","","","","","","","","","","","","","","","","","","","",""
"html-keyboard-response","142","1015732","0.0-3.0-6.0","u4wlhxv9j0jrsfv","instructions","5ef24f45ba594791fb6cb88d","5f60e3c0a3b16e07647b2ff9","5f61dc8d2199f304bea2a4e9","false","53834.52000003308","<div align=left> M and N no longer will appear on the left/right of the fixation cross. <br>Instead there will be a note at the bottom of the left or right side  <br>indicating which key you should press for an old or new object:  <br> <br>Press the <strong>right</strong> key to classify an object as <strong>old</strong> and press the <strong>left</strong>, to classify an object as <strong>new</strong>.<br>Please classify the objects as new/old by again placing your index finger on the 'S' and 'L' keys <br>and press them accordingly.<br><br><strong>Old:</strong> This object has been presented before. <br><strong>New:</strong> This object has <strong>not</strong> been presented.<br><br>Now please put your right and left index fingers on the 'S' and 'L' keys of your keyboard. <br>Please respond as fast and as accurately as possible!<br><br>Press SPACE to continue. </div>","32","","","","","","","","","","","","","","","","","","","",""
"categorize-image","143","1018990","0.0-3.0-7.0-0.0","u4wlhxv9j0jrsfv","practice_recog","5ef24f45ba594791fb6cb88d","5f60e3c0a3b16e07647b2ff9","5f61dc8d2199f304bea2a4e9","true","2739.6350000053644","./Stimuli/ImagesPractice/LM239.jpg","83","","","","test","false","","76","","LM","LM239.jpg","","new","49","4","practice_recog","left","","","",""
"categorize-image","144","1021553","0.0-3.0-7.0-0.1","u4wlhxv9j0jrsfv","practice_recog","5ef24f45ba594791fb6cb88d","5f60e3c0a3b16e07647b2ff9","5f61dc8d2199f304bea2a4e9","true","2048.0050000478514","./Stimuli/ImagesPractice/LN2.jpg","83","","","","test","true","","83","","LN","LN2.jpg","","old","50","4","practice_recog","left","","","",""
"categorize-image","145","1023655","0.0-3.0-7.0-0.2","u4wlhxv9j0jrsfv","practice_recog","5ef24f45ba594791fb6cb88d","5f60e3c0a3b16e07647b2ff9","5f61dc8d2199f304bea2a4e9","true","1588.4400000213645","./Stimuli/ImagesPractice/LN15.jpg","76","","","","test","true","","76","","LN","LN15.jpg","","new","51","4","practice_recog","right","","","",""
"categorize-image","146","1025806","0.0-3.0-7.0-0.3","u4wlhxv9j0jrsfv","practice_recog","5ef24f45ba594791fb6cb88d","5f60e3c0a3b16e07647b2ff9","5f61dc8d2199f304bea2a4e9","true","1634.154999977909","./Stimuli/ImagesPractice/SM35.jpg","76","","","","test","true","","76","","SM","SM35.jpg","","new","52","4","practice_recog","right","","","",""
"categorize-image","147","1027420","0.0-3.0-7.0-0.4","u4wlhxv9j0jrsfv","practice_recog","5ef24f45ba594791fb6cb88d","5f60e3c0a3b16e07647b2ff9","5f61dc8d2199f304bea2a4e9","true","1106.9900000002235","./Stimuli/ImagesPractice/SM62.jpg","76","","","","test","true","","76","","SM","SM62.jpg","","new","53","4","practice_recog","right","","","",""
"categorize-image","148","1029051","0.0-3.0-7.0-0.5","u4wlhxv9j0jrsfv","practice_recog","5ef24f45ba594791fb6cb88d","5f60e3c0a3b16e07647b2ff9","5f61dc8d2199f304bea2a4e9","true","1113.420000008773","./Stimuli/ImagesPractice/SM37.jpg","83","","","","test","true","","83","","SM","SM37.jpg","","old","54","4","practice_recog","left","","","",""
"categorize-image","149","1031037","0.0-3.0-7.0-0.6","u4wlhxv9j0jrsfv","practice_recog","5ef24f45ba594791fb6cb88d","5f60e3c0a3b16e07647b2ff9","5f61dc8d2199f304bea2a4e9","true","1470.0949999969453","./Stimuli/ImagesPractice/SN222.jpg","76","","","","test","false","","83","","SN","SN222.jpg","","old","55","4","practice_recog","right","","","",""
"categorize-image","150","1032748","0.0-3.0-7.0-0.7","u4wlhxv9j0jrsfv","practice_recog","5ef24f45ba594791fb6cb88d","5f60e3c0a3b16e07647b2ff9","5f61dc8d2199f304bea2a4e9","true","1201.2250000261702","./Stimuli/ImagesPractice/SN220.jpg","83","","","","test","true","","83","","SN","SN220.jpg","","old","56","4","practice_recog","left","","","",""
"categorize-image","151","1034235","0.0-3.0-7.0-0.8","u4wlhxv9j0jrsfv","practice_recog","5ef24f45ba594791fb6cb88d","5f60e3c0a3b16e07647b2ff9","5f61dc8d2199f304bea2a4e9","true","972.4249999853782","./Stimuli/ImagesPractice/SN76.jpg","76","","","","test","true","","76","","SN","SN76.jpg","","new","57","4","practice_recog","right","","","",""
"categorize-image","152","1035502","0.0-3.0-7.0-0.9","u4wlhxv9j0jrsfv","practice_recog","5ef24f45ba594791fb6cb88d","5f60e3c0a3b16e07647b2ff9","5f61dc8d2199f304bea2a4e9","true","753.5049999714829","./Stimuli/ImagesPractice/SN221.jpg","83","","","","test","true","","83","","SN","SN221.jpg","","old","58","4","practice_recog","left","","","",""
"categorize-image","153","1036959","0.0-3.0-7.0-0.10","u4wlhxv9j0jrsfv","practice_recog","5ef24f45ba594791fb6cb88d","5f60e3c0a3b16e07647b2ff9","5f61dc8d2199f304bea2a4e9","true","936.3900000462309","./Stimuli/ImagesPractice/SM98.jpg","83","","","","test","true","","83","","SM","SM98.jpg","","old","59","4","practice_recog","left","","","",""
"categorize-image","154","1038341","0.0-3.0-7.0-0.11","u4wlhxv9j0jrsfv","practice_recog","5ef24f45ba594791fb6cb88d","5f60e3c0a3b16e07647b2ff9","5f61dc8d2199f304bea2a4e9","true","867.8749999962747","./Stimuli/ImagesPractice/LM224.jpg","76","","","","test","true","","76","","LM","LM224.jpg","","new","60","4","practice_recog","right","","","",""
"categorize-image","155","1040066","0.0-3.0-7.0-0.12","u4wlhxv9j0jrsfv","practice_recog","5ef24f45ba594791fb6cb88d","5f60e3c0a3b16e07647b2ff9","5f61dc8d2199f304bea2a4e9","true","1207.6799999922514","./Stimuli/ImagesPractice/LM143.jpg","76","","","","test","true","","76","","LM","LM143.jpg","","new","61","4","practice_recog","right","","","",""
"categorize-image","156","1041452","0.0-3.0-7.0-0.13","u4wlhxv9j0jrsfv","practice_recog","5ef24f45ba594791fb6cb88d","5f60e3c0a3b16e07647b2ff9","5f61dc8d2199f304bea2a4e9","true","871.8299999600276","./Stimuli/ImagesPractice/LN4.jpg","76","","","","test","true","","76","","LN","LN4.jpg","","new","62","4","practice_recog","right","","","",""
"categorize-image","157","1042676","0.0-3.0-7.0-0.14","u4wlhxv9j0jrsfv","practice_recog","5ef24f45ba594791fb6cb88d","5f60e3c0a3b16e07647b2ff9","5f61dc8d2199f304bea2a4e9","true","711.6200000164099","./Stimuli/ImagesPractice/LN17.jpg","83","","","","test","true","","83","","LN","LN17.jpg","","old","63","4","practice_recog","left","","","",""
"categorize-image","158","1044349","0.0-3.0-7.0-0.15","u4wlhxv9j0jrsfv","practice_recog","5ef24f45ba594791fb6cb88d","5f60e3c0a3b16e07647b2ff9","5f61dc8d2199f304bea2a4e9","true","1157.1100000292063","./Stimuli/ImagesPractice/LM230.jpg","83","","","","test","true","","83","","LM","LM230.jpg","","old","64","4","practice_recog","left","","","",""
"html-keyboard-response","159","1067176","0.0-3.0-8.0","u4wlhxv9j0jrsfv","instructions","5ef24f45ba594791fb6cb88d","5f60e3c0a3b16e07647b2ff9","5f61dc8d2199f304bea2a4e9","false","22824.039999977686","<div align=left> Great!<br><br>Are you ready to continue?<br>If you want to reread the instructions and redo the practice trials, please <br>press „Z“.<br><br>You can proceed when you are ready.<br><br>After the presentation of each object, you will receive an instruction whether to <br>remember or to forget the object.<br>We will test your memory of the following pictures only at the very end of <br>the experiment after all learning blocks are completed. <br><br>Press SPACE to CONTINUE when you are ready. </div>","32","","","","","","","","","","","","","","","","","","","",""
"html-keyboard-response","160","1110809","0.0-4.0-0.0","u4wlhxv9j0jrsfv","instructions","5ef24f45ba594791fb6cb88d","5f60e3c0a3b16e07647b2ff9","5f61dc8d2199f304bea2a4e9","false","43620.17999996897","<div align=left> The actual experiment is about to start.<br>The practice trials are over!<br><br>Please always respond both fast and accurately!<br><br>Remember: <br> <br><li> Please place your index fingers on the <strong>'S'</strong> and <strong>'L'</strong> keys <br>to respond as fast and accurately as possible.</li><li> Every picture can be classified as either mechanical or non-mechanical.</li><li> If you do not respond in time or commit an error, you will receive a corresponding feedback.<br> Please try to respond as <strong> fast </strong> and as <strong> accurately as possible </strong>.</li><li> Remember the <span style='color: dodgerblue; font-size: 28px'>O</span> pictures. <br></li><li> Please minimize distractions and stay focused. </li><br><br>Press SPACE to START.</div>","32","","","","","","","","","","","","","","","","","","","",""
"html-keyboard-response","161","1111513","0.0-4.0-1.0-0.0","u4wlhxv9j0jrsfv","prime","5ef24f45ba594791fb6cb88d","5f60e3c0a3b16e07647b2ff9","5f61dc8d2199f304bea2a4e9","false","null","<span style=""color: black; font-size: 48px"">N + M</span>","null","","","","resp_prompt","","","","","","","","","","","","","","","",""
"categorize-image","162","1111979","0.0-4.0-1.0-1.0","u4wlhxv9j0jrsfv","prime","5ef24f45ba594791fb6cb88d","5f60e3c0a3b16e07647b2ff9","5f61dc8d2199f304bea2a4e9","true","457.3850000160746","./Stimuli/SelectedImages/SN/SN111.bmp","83","","","","test","true","N + M","83","switch","SN","SN111.bmp","forget","","65","4","prime1","left","","","",""
"html-keyboard-response","163","1113983","0.0-4.0-1.0-3.0","u4wlhxv9j0jrsfv","prime","5ef24f45ba594791fb6cb88d","5f60e3c0a3b16e07647b2ff9","5f61dc8d2199f304bea2a4e9","false","null","<div style=""align-items: center; display: flex; color: darkorange; font-size: 90px""><b>ø</b></div>","null","","","","forget_cue","","","","","","","","","","","","","","","",""
"html-keyboard-response","164","1114692","0.0-4.0-1.0-0.1","u4wlhxv9j0jrsfv","prime","5ef24f45ba594791fb6cb88d","5f60e3c0a3b16e07647b2ff9","5f61dc8d2199f304bea2a4e9","false","null","<span style=""color: black; font-size: 48px"">M + N</span>","null","","","","resp_prompt","","","","","","","","","","","","","","","",""
"categorize-image","165","1115274","0.0-4.0-1.0-1.1","u4wlhxv9j0jrsfv","prime","5ef24f45ba594791fb6cb88d","5f60e3c0a3b16e07647b2ff9","5f61dc8d2199f304bea2a4e9","true","575.6249999976717","./Stimuli/SelectedImages/LN/LN12.bmp","76","","","","test","true","M + N","76","repetition","LN","LN12.bmp","remember","","66","4","prime1","right","","","",""
"html-keyboard-response","166","1117288","0.0-4.0-1.0-3.1","u4wlhxv9j0jrsfv","prime","5ef24f45ba594791fb6cb88d","5f60e3c0a3b16e07647b2ff9","5f61dc8d2199f304bea2a4e9","false","null","<div style=""align-items: center; display: flex; color: dodgerblue; font-size: 90px""><b>o</b></div>","null","","","","forget_cue","","","","","","","","","","","","","","","",""
"html-keyboard-response","167","1117991","0.0-4.0-1.0-0.2","u4wlhxv9j0jrsfv","prime","5ef24f45ba594791fb6cb88d","5f60e3c0a3b16e07647b2ff9","5f61dc8d2199f304bea2a4e9","false","null","<span style=""color: black; font-size: 48px"">M + N</span>","null","","","","resp_prompt","","","","","","","","","","","","","","","",""
"categorize-image","168","1118177","0.0-4.0-1.0-1.2","u4wlhxv9j0jrsfv","prime","5ef24f45ba594791fb6cb88d","5f60e3c0a3b16e07647b2ff9","5f61dc8d2199f304bea2a4e9","true","178.9850000059232","./Stimuli/SelectedImages/LN/LN59.bmp","76","","","","test","true","M + N","76","switch","LN","LN59.bmp","remember","","67","4","prime1","right","","","",""
"html-keyboard-response","169","1120188","0.0-4.0-1.0-3.2","u4wlhxv9j0jrsfv","prime","5ef24f45ba594791fb6cb88d","5f60e3c0a3b16e07647b2ff9","5f61dc8d2199f304bea2a4e9","false","null","<div style=""align-items: center; display: flex; color: dodgerblue; font-size: 90px""><b>o</b></div>","null","","","","forget_cue","","","","","","","","","","","","","","","",""
"html-keyboard-response","170","1120893","0.0-4.0-1.0-0.3","u4wlhxv9j0jrsfv","prime","5ef24f45ba594791fb6cb88d","5f60e3c0a3b16e07647b2ff9","5f61dc8d2199f304bea2a4e9","false","null","<span style=""color: black; font-size: 48px"">N + M</span>","null","","","","resp_prompt","","","","","","","","","","","","","","","",""
"categorize-image","171","1121293","0.0-4.0-1.0-1.3","u4wlhxv9j0jrsfv","prime","5ef24f45ba594791fb6cb88d","5f60e3c0a3b16e07647b2ff9","5f61dc8d2199f304bea2a4e9","true","392.1449999907054","./Stimuli/SelectedImages/LN/LN92.bmp","83","","","","test","true","N + M","83","repetition","LN","LN92.bmp","remember","","68","4","prime1","left","","","",""
"html-keyboard-response","172","1123304","0.0-4.0-1.0-3.3","u4wlhxv9j0jrsfv","prime","5ef24f45ba594791fb6cb88d","5f60e3c0a3b16e07647b2ff9","5f61dc8d2199f304bea2a4e9","false","null","<div style=""align-items: center; display: flex; color: dodgerblue; font-size: 90px""><b>o</b></div>","null","","","","forget_cue","","","","","","","","","","","","","","","",""
"html-keyboard-response","173","1124026","0.0-4.0-1.0-0.4","u4wlhxv9j0jrsfv","prime","5ef24f45ba594791fb6cb88d","5f60e3c0a3b16e07647b2ff9","5f61dc8d2199f304bea2a4e9","false","null","<span style=""color: black; font-size: 48px"">M + N</span>","null","","","","resp_prompt","","","","","","","","","","","","","","","",""
"categorize-image","174","1124161","0.0-4.0-1.0-1.4","u4wlhxv9j0jrsfv","prime","5ef24f45ba594791fb6cb88d","5f60e3c0a3b16e07647b2ff9","5f61dc8d2199f304bea2a4e9","true","127.81999999424443","./Stimuli/SelectedImages/SM/SM213.bmp","76","","","","test","false","M + N","83","switch","SM","SM213.bmp","forget","","69","4","prime1","right","","","",""
"html-keyboard-response","175","1124677","0.0-4.0-1.0-2.4-0.4","u4wlhxv9j0jrsfv","prime","5ef24f45ba594791fb6cb88d","5f60e3c0a3b16e07647b2ff9","5f61dc8d2199f304bea2a4e9","false","null","<span style=""color: red; font-size: 48px"">Error!</span>","null","","","","feedback","","","","","","","","","","","","","","","",""
"html-keyboard-response","176","1126694","0.0-4.0-1.0-3.4","u4wlhxv9j0jrsfv","prime","5ef24f45ba594791fb6cb88d","5f60e3c0a3b16e07647b2ff9","5f61dc8d2199f304bea2a4e9","false","null","<div style=""align-items: center; display: flex; color: darkorange; font-size: 90px""><b>ø</b></div>","null","","","","forget_cue","","","","","","","","","","","","","","","",""
"html-keyboard-response","177","1127407","0.0-4.0-1.0-0.5","u4wlhxv9j0jrsfv","prime","5ef24f45ba594791fb6cb88d","5f60e3c0a3b16e07647b2ff9","5f61dc8d2199f304bea2a4e9","false","null","<span style=""color: black; font-size: 48px"">M + N</span>","null","","","","resp_prompt","","","","","","","","","","","","","","","",""
"categorize-image","178","1127643","0.0-4.0-1.0-1.5","u4wlhxv9j0jrsfv","prime","5ef24f45ba594791fb6cb88d","5f60e3c0a3b16e07647b2ff9","5f61dc8d2199f304bea2a4e9","true","227.30499994941056","./Stimuli/SelectedImages/SN/SN52.bmp","76","","","","test","true","M + N","76","switch","SN","SN52.bmp","remember","","70","4","prime1","right","","","",""
"html-keyboard-response","179","1129657","0.0-4.0-1.0-3.5","u4wlhxv9j0jrsfv","prime","5ef24f45ba594791fb6cb88d","5f60e3c0a3b16e07647b2ff9","5f61dc8d2199f304bea2a4e9","false","null","<div style=""align-items: center; display: flex; color: dodgerblue; font-size: 90px""><b>o</b></div>","null","","","","forget_cue","","","","","","","","","","","","","","","",""
"html-keyboard-response","180","1130365","0.0-4.0-1.0-0.6","u4wlhxv9j0jrsfv","prime","5ef24f45ba594791fb6cb88d","5f60e3c0a3b16e07647b2ff9","5f61dc8d2199f304bea2a4e9","false","null","<span style=""color: black; font-size: 48px"">M + N</span>","null","","","","resp_prompt","","","","","","","","","","","","","","","",""
"categorize-image","181","1130983","0.0-4.0-1.0-1.6","u4wlhxv9j0jrsfv","prime","5ef24f45ba594791fb6cb88d","5f60e3c0a3b16e07647b2ff9","5f61dc8d2199f304bea2a4e9","true","610.6000000145286","./Stimuli/SelectedImages/SN/SN27.bmp","76","","","","test","true","M + N","76","switch","SN","SN27.bmp","remember","","71","4","prime1","right","","","",""
"html-keyboard-response","182","1132988","0.0-4.0-1.0-3.6","u4wlhxv9j0jrsfv","prime","5ef24f45ba594791fb6cb88d","5f60e3c0a3b16e07647b2ff9","5f61dc8d2199f304bea2a4e9","false","null","<div style=""align-items: center; display: flex; color: dodgerblue; font-size: 90px""><b>o</b></div>","null","","","","forget_cue","","","","","","","","","","","","","","","",""
"html-keyboard-response","183","1133703","0.0-4.0-1.0-0.7","u4wlhxv9j0jrsfv","prime","5ef24f45ba594791fb6cb88d","5f60e3c0a3b16e07647b2ff9","5f61dc8d2199f304bea2a4e9","false","null","<span style=""color: black; font-size: 48px"">N + M</span>","null","","","","resp_prompt","","","","","","","","","","","","","","","",""
"categorize-image","184","1133764","0.0-4.0-1.0-1.7","u4wlhxv9j0jrsfv","prime","5ef24f45ba594791fb6cb88d","5f60e3c0a3b16e07647b2ff9","5f61dc8d2199f304bea2a4e9","true","54.00000000372529","./Stimuli/SelectedImages/SN/SN140.bmp","83","","","","test","true","N + M","83","repetition","SN","SN140.bmp","remember","","72","4","prime1","left","","","",""
"html-keyboard-response","185","1135782","0.0-4.0-1.0-3.7","u4wlhxv9j0jrsfv","prime","5ef24f45ba594791fb6cb88d","5f60e3c0a3b16e07647b2ff9","5f61dc8d2199f304bea2a4e9","false","null","<div style=""align-items: center; display: flex; color: dodgerblue; font-size: 90px""><b>o</b></div>","null","","","","forget_cue","","","","","","","","","","","","","","","",""
"html-keyboard-response","186","1136491","0.0-4.0-1.0-0.8","u4wlhxv9j0jrsfv","prime","5ef24f45ba594791fb6cb88d","5f60e3c0a3b16e07647b2ff9","5f61dc8d2199f304bea2a4e9","false","null","<span style=""color: black; font-size: 48px"">N + M</span>","null","","","","resp_prompt","","","","","","","","","","","","","","","",""
"categorize-image","187","1136583","0.0-4.0-1.0-1.8","u4wlhxv9j0jrsfv","prime","5ef24f45ba594791fb6cb88d","5f60e3c0a3b16e07647b2ff9","5f61dc8d2199f304bea2a4e9","true","85.46000003116205","./Stimuli/SelectedImages/LM/LM57.bmp","83","","","","test","false","N + M","76","repetition","LM","LM57.bmp","forget","","73","4","prime1","left","","","",""
"html-keyboard-response","188","1137098","0.0-4.0-1.0-2.8-0.8","u4wlhxv9j0jrsfv","prime","5ef24f45ba594791fb6cb88d","5f60e3c0a3b16e07647b2ff9","5f61dc8d2199f304bea2a4e9","false","null","<span style=""color: red; font-size: 48px"">Error!</span>","null","","","","feedback","","","","","","","","","","","","","","","",""
"html-keyboard-response","189","1139101","0.0-4.0-1.0-3.8","u4wlhxv9j0jrsfv","prime","5ef24f45ba594791fb6cb88d","5f60e3c0a3b16e07647b2ff9","5f61dc8d2199f304bea2a4e9","false","null","<div style=""align-items: center; display: flex; color: darkorange; font-size: 90px""><b>ø</b></div>","null","","","","forget_cue","","","","","","","","","","","","","","","",""
"html-keyboard-response","190","1139818","0.0-4.0-1.0-0.9","u4wlhxv9j0jrsfv","prime","5ef24f45ba594791fb6cb88d","5f60e3c0a3b16e07647b2ff9","5f61dc8d2199f304bea2a4e9","false","null","<span style=""color: black; font-size: 48px"">N + M</span>","null","","","","resp_prompt","","","","","","","","","","","","","","","",""
"categorize-image","191","1140288","0.0-4.0-1.0-1.9","u4wlhxv9j0jrsfv","prime","5ef24f45ba594791fb6cb88d","5f60e3c0a3b16e07647b2ff9","5f61dc8d2199f304bea2a4e9","true","463.3800000301562","./Stimuli/SelectedImages/LM/LM179.bmp","83","","","","test","false","N + M","76","repetition","LM","LM179.bmp","forget","","74","4","prime1","left","","","",""
"html-keyboard-response","192","1140804","0.0-4.0-1.0-2.9-0.9","u4wlhxv9j0jrsfv","prime","5ef24f45ba594791fb6cb88d","5f60e3c0a3b16e07647b2ff9","5f61dc8d2199f304bea2a4e9","false","null","<span style=""color: red; font-size: 48px"">Error!</span>","null","","","","feedback","","","","","","","","","","","","","","","",""
"html-keyboard-response","193","1142806","0.0-4.0-1.0-3.9","u4wlhxv9j0jrsfv","prime","5ef24f45ba594791fb6cb88d","5f60e3c0a3b16e07647b2ff9","5f61dc8d2199f304bea2a4e9","false","null","<div style=""align-items: center; display: flex; color: darkorange; font-size: 90px""><b>ø</b></div>","null","","","","forget_cue","","","","","","","","","","","","","","","",""
"html-keyboard-response","194","1143522","0.0-4.0-1.0-0.10","u4wlhxv9j0jrsfv","prime","5ef24f45ba594791fb6cb88d","5f60e3c0a3b16e07647b2ff9","5f61dc8d2199f304bea2a4e9","false","null","<span style=""color: black; font-size: 48px"">M + N</span>","null","","","","resp_prompt","","","","","","","","","","","","","","","",""
"categorize-image","195","1143859","0.0-4.0-1.0-1.10","u4wlhxv9j0jrsfv","prime","5ef24f45ba594791fb6cb88d","5f60e3c0a3b16e07647b2ff9","5f61dc8d2199f304bea2a4e9","true","329.65000002877787","./Stimuli/SelectedImages/SM/SM73.bmp","76","","","","test","false","M + N","83","repetition","SM","SM73.bmp","forget","","75","4","prime1","right","","","",""
"html-keyboard-response","196","1144370","0.0-4.0-1.0-2.10-0.10","u4wlhxv9j0jrsfv","prime","5ef24f45ba594791fb6cb88d","5f60e3c0a3b16e07647b2ff9","5f61dc8d2199f304bea2a4e9","false","null","<span style=""color: red; font-size: 48px"">Error!</span>","null","","","","feedback","","","","","","","","","","","","","","","",""
"html-keyboard-response","197","1146384","0.0-4.0-1.0-3.10","u4wlhxv9j0jrsfv","prime","5ef24f45ba594791fb6cb88d","5f60e3c0a3b16e07647b2ff9","5f61dc8d2199f304bea2a4e9","false","null","<div style=""align-items: center; display: flex; color: darkorange; font-size: 90px""><b>ø</b></div>","null","","","","forget_cue","","","","","","","","","","","","","","","",""
"html-keyboard-response","198","1147088","0.0-4.0-1.0-0.11","u4wlhxv9j0jrsfv","prime","5ef24f45ba594791fb6cb88d","5f60e3c0a3b16e07647b2ff9","5f61dc8d2199f304bea2a4e9","false","null","<span style=""color: black; font-size: 48px"">N + M</span>","null","","","","resp_prompt","","","","","","","","","","","","","","","",""
"categorize-image","199","1147232","0.0-4.0-1.0-1.11","u4wlhxv9j0jrsfv","prime","5ef24f45ba594791fb6cb88d","5f60e3c0a3b16e07647b2ff9","5f61dc8d2199f304bea2a4e9","true","137.72500003688037","./Stimuli/SelectedImages/LM/LM167.bmp","83","","","","test","false","N + M","76","switch","LM","LM167.bmp","remember","","76","4","prime1","left","","","",""
"html-keyboard-response","200","1147736","0.0-4.0-1.0-2.11-0.11","u4wlhxv9j0jrsfv","prime","5ef24f45ba594791fb6cb88d","5f60e3c0a3b16e07647b2ff9","5f61dc8d2199f304bea2a4e9","false","null","<span style=""color: red; font-size: 48px"">Error!</span>","null","","","","feedback","","","","","","","","","","","","","","","",""
"html-keyboard-response","201","1149749","0.0-4.0-1.0-3.11","u4wlhxv9j0jrsfv","prime","5ef24f45ba594791fb6cb88d","5f60e3c0a3b16e07647b2ff9","5f61dc8d2199f304bea2a4e9","false","null","<div style=""align-items: center; display: flex; color: dodgerblue; font-size: 90px""><b>o</b></div>","null","","","","forget_cue","","","","","","","","","","","","","","","",""
"html-keyboard-response","202","1150464","0.0-4.0-1.0-0.12","u4wlhxv9j0jrsfv","prime","5ef24f45ba594791fb6cb88d","5f60e3c0a3b16e07647b2ff9","5f61dc8d2199f304bea2a4e9","false","null","<span style=""color: black; font-size: 48px"">N + M</span>","null","","","","resp_prompt","","","","","","","","","","","","","","","",""
"categorize-image","203","1150533","0.0-4.0-1.0-1.12","u4wlhxv9j0jrsfv","prime","5ef24f45ba594791fb6cb88d","5f60e3c0a3b16e07647b2ff9","5f61dc8d2199f304bea2a4e9","true","62.774999998509884","./Stimuli/SelectedImages/SM/SM207.bmp","76","","","","test","true","N + M","76","switch","SM","SM207.bmp","forget","","77","4","prime1","right","","","",""
"html-keyboard-response","204","1152537","0.0-4.0-1.0-3.12","u4wlhxv9j0jrsfv","prime","5ef24f45ba594791fb6cb88d","5f60e3c0a3b16e07647b2ff9","5f61dc8d2199f304bea2a4e9","false","null","<div style=""align-items: center; display: flex; color: darkorange; font-size: 90px""><b>ø</b></div>","null","","","","forget_cue","","","","","","","","","","","","","","","",""
"html-keyboard-response","205","1153241","0.0-4.0-1.0-0.13","u4wlhxv9j0jrsfv","prime","5ef24f45ba594791fb6cb88d","5f60e3c0a3b16e07647b2ff9","5f61dc8d2199f304bea2a4e9","false","null","<span style=""color: black; font-size: 48px"">M + N</span>","null","","","","resp_prompt","","","","","","","","","","","","","","","",""
"categorize-image","206","1153739","0.0-4.0-1.0-1.13","u4wlhxv9j0jrsfv","prime","5ef24f45ba594791fb6cb88d","5f60e3c0a3b16e07647b2ff9","5f61dc8d2199f304bea2a4e9","true","489.3949999823235","./Stimuli/SelectedImages/LN/LN177.bmp","76","","","","test","true","M + N","76","switch","LN","LN177.bmp","forget","","78","4","prime1","right","","","",""
"html-keyboard-response","207","1155748","0.0-4.0-1.0-3.13","u4wlhxv9j0jrsfv","prime","5ef24f45ba594791fb6cb88d","5f60e3c0a3b16e07647b2ff9","5f61dc8d2199f304bea2a4e9","false","null","<div style=""align-items: center; display: flex; color: darkorange; font-size: 90px""><b>ø</b></div>","null","","","","forget_cue","","","","","","","","","","","","","","","",""
"html-keyboard-response","208","1156469","0.0-4.0-1.0-0.14","u4wlhxv9j0jrsfv","prime","5ef24f45ba594791fb6cb88d","5f60e3c0a3b16e07647b2ff9","5f61dc8d2199f304bea2a4e9","false","null","<span style=""color: black; font-size: 48px"">M + N</span>","null","","","","resp_prompt","","","","","","","","","","","","","","","",""
"categorize-image","209","1156818","0.0-4.0-1.0-1.14","u4wlhxv9j0jrsfv","prime","5ef24f45ba594791fb6cb88d","5f60e3c0a3b16e07647b2ff9","5f61dc8d2199f304bea2a4e9","true","341.4350000093691","./Stimuli/SelectedImages/SN/SN155.bmp","83","","","","test","false","M + N","76","repetition","SN","SN155.bmp","forget","","79","4","prime1","left","","","",""
"html-keyboard-response","210","1157333","0.0-4.0-1.0-2.14-0.14","u4wlhxv9j0jrsfv","prime","5ef24f45ba594791fb6cb88d","5f60e3c0a3b16e07647b2ff9","5f61dc8d2199f304bea2a4e9","false","null","<span style=""color: red; font-size: 48px"">Error!</span>","null","","","","feedback","","","","","","","","","","","","","","","",""
"html-keyboard-response","211","1159350","0.0-4.0-1.0-3.14","u4wlhxv9j0jrsfv","prime","5ef24f45ba594791fb6cb88d","5f60e3c0a3b16e07647b2ff9","5f61dc8d2199f304bea2a4e9","false","null","<div style=""align-items: center; display: flex; color: darkorange; font-size: 90px""><b>ø</b></div>","null","","","","forget_cue","","","","","","","","","","","","","","","",""
"html-keyboard-response","212","1160065","0.0-4.0-1.0-0.15","u4wlhxv9j0jrsfv","prime","5ef24f45ba594791fb6cb88d","5f60e3c0a3b16e07647b2ff9","5f61dc8d2199f304bea2a4e9","false","null","<span style=""color: black; font-size: 48px"">N + M</span>","null","","","","resp_prompt","","","","","","","","","","","","","","","",""
"categorize-image","213","1160158","0.0-4.0-1.0-1.15","u4wlhxv9j0jrsfv","prime","5ef24f45ba594791fb6cb88d","5f60e3c0a3b16e07647b2ff9","5f61dc8d2199f304bea2a4e9","true","84.22000001883134","./Stimuli/SelectedImages/SM/SM76.bmp","76","","","","test","true","N + M","76","switch","SM","SM76.bmp","forget","","80","4","prime1","right","","","",""
"html-keyboard-response","214","1162166","0.0-4.0-1.0-3.15","u4wlhxv9j0jrsfv","prime","5ef24f45ba594791fb6cb88d","5f60e3c0a3b16e07647b2ff9","5f61dc8d2199f304bea2a4e9","false","null","<div style=""align-items: center; display: flex; color: darkorange; font-size: 90px""><b>ø</b></div>","null","","","","forget_cue","","","","","","","","","","","","","","","",""
"html-keyboard-response","215","1162882","0.0-4.0-1.0-0.16","u4wlhxv9j0jrsfv","prime","5ef24f45ba594791fb6cb88d","5f60e3c0a3b16e07647b2ff9","5f61dc8d2199f304bea2a4e9","false","null","<span style=""color: black; font-size: 48px"">M + N</span>","null","","","","resp_prompt","","","","","","","","","","","","","","","",""
"categorize-image","216","1163258","0.0-4.0-1.0-1.16","u4wlhxv9j0jrsfv","prime","5ef24f45ba594791fb6cb88d","5f60e3c0a3b16e07647b2ff9","5f61dc8d2199f304bea2a4e9","true","369.43999998038635","./Stimuli/SelectedImages/SN/SN60.bmp","83","","","","test","false","M + N","76","repetition","SN","SN60.bmp","remember","","81","4","prime1","left","","","",""
"html-keyboard-response","217","1163761","0.0-4.0-1.0-2.16-0.16","u4wlhxv9j0jrsfv","prime","5ef24f45ba594791fb6cb88d","5f60e3c0a3b16e07647b2ff9","5f61dc8d2199f304bea2a4e9","false","null","<span style=""color: red; font-size: 48px"">Error!</span>","null","","","","feedback","","","","","","","","","","","","","","","",""
"html-keyboard-response","218","1165764","0.0-4.0-1.0-3.16","u4wlhxv9j0jrsfv","prime","5ef24f45ba594791fb6cb88d","5f60e3c0a3b16e07647b2ff9","5f61dc8d2199f304bea2a4e9","false","null","<div style=""align-items: center; display: flex; color: dodgerblue; font-size: 90px""><b>o</b></div>","null","","","","forget_cue","","","","","","","","","","","","","","","",""
"html-keyboard-response","219","1166481","0.0-4.0-1.0-0.17","u4wlhxv9j0jrsfv","prime","5ef24f45ba594791fb6cb88d","5f60e3c0a3b16e07647b2ff9","5f61dc8d2199f304bea2a4e9","false","null","<span style=""color: black; font-size: 48px"">M + N</span>","null","","","","resp_prompt","","","","","","","","","","","","","","","",""
"categorize-image","220","1166898","0.0-4.0-1.0-1.17","u4wlhxv9j0jrsfv","prime","5ef24f45ba594791fb6cb88d","5f60e3c0a3b16e07647b2ff9","5f61dc8d2199f304bea2a4e9","true","409.0650000143796","./Stimuli/SelectedImages/SM/SM128.bmp","76","","","","test","false","M + N","83","switch","SM","SM128.bmp","remember","","82","4","prime1","right","","","",""
"html-keyboard-response","221","1167413","0.0-4.0-1.0-2.17-0.17","u4wlhxv9j0jrsfv","prime","5ef24f45ba594791fb6cb88d","5f60e3c0a3b16e07647b2ff9","5f61dc8d2199f304bea2a4e9","false","null","<span style=""color: red; font-size: 48px"">Error!</span>","null","","","","feedback","","","","","","","","","","","","","","","",""
"html-keyboard-response","222","1169415","0.0-4.0-1.0-3.17","u4wlhxv9j0jrsfv","prime","5ef24f45ba594791fb6cb88d","5f60e3c0a3b16e07647b2ff9","5f61dc8d2199f304bea2a4e9","false","null","<div style=""align-items: center; display: flex; color: dodgerblue; font-size: 90px""><b>o</b></div>","null","","","","forget_cue","","","","","","","","","","","","","","","",""
"html-keyboard-response","223","1170131","0.0-4.0-1.0-0.18","u4wlhxv9j0jrsfv","prime","5ef24f45ba594791fb6cb88d","5f60e3c0a3b16e07647b2ff9","5f61dc8d2199f304bea2a4e9","false","null","<span style=""color: black; font-size: 48px"">M + N</span>","null","","","","resp_prompt","","","","","","","","","","","","","","","",""
"categorize-image","224","1170365","0.0-4.0-1.0-1.18","u4wlhxv9j0jrsfv","prime","5ef24f45ba594791fb6cb88d","5f60e3c0a3b16e07647b2ff9","5f61dc8d2199f304bea2a4e9","true","222.98500000033528","./Stimuli/SelectedImages/SN/SN64.bmp","83","","","","test","false","M + N","76","switch","SN","SN64.bmp","forget","","83","4","prime1","left","","","",""
"html-keyboard-response","225","1170878","0.0-4.0-1.0-2.18-0.18","u4wlhxv9j0jrsfv","prime","5ef24f45ba594791fb6cb88d","5f60e3c0a3b16e07647b2ff9","5f61dc8d2199f304bea2a4e9","false","null","<span style=""color: red; font-size: 48px"">Error!</span>","null","","","","feedback","","","","","","","","","","","","","","","",""
"html-keyboard-response","226","1172895","0.0-4.0-1.0-3.18","u4wlhxv9j0jrsfv","prime","5ef24f45ba594791fb6cb88d","5f60e3c0a3b16e07647b2ff9","5f61dc8d2199f304bea2a4e9","false","null","<div style=""align-items: center; display: flex; color: darkorange; font-size: 90px""><b>ø</b></div>","null","","","","forget_cue","","","","","","","","","","","","","","","",""
"html-keyboard-response","227","1173606","0.0-4.0-1.0-0.19","u4wlhxv9j0jrsfv","prime","5ef24f45ba594791fb6cb88d","5f60e3c0a3b16e07647b2ff9","5f61dc8d2199f304bea2a4e9","false","null","<span style=""color: black; font-size: 48px"">N + M</span>","null","","","","resp_prompt","","","","","","","","","","","","","","","",""
"categorize-image","228","1174259","0.0-4.0-1.0-1.19","u4wlhxv9j0jrsfv","prime","5ef24f45ba594791fb6cb88d","5f60e3c0a3b16e07647b2ff9","5f61dc8d2199f304bea2a4e9","true","645.5849999911152","./Stimuli/SelectedImages/SM/SM74.bmp","83","","","","test","false","N + M","76","switch","SM","SM74.bmp","remember","","84","4","prime1","left","","","",""
"html-keyboard-response","229","1174762","0.0-4.0-1.0-2.19-0.19","u4wlhxv9j0jrsfv","prime","5ef24f45ba594791fb6cb88d","5f60e3c0a3b16e07647b2ff9","5f61dc8d2199f304bea2a4e9","false","null","<span style=""color: red; font-size: 48px"">Error!</span>","null","","","","feedback","","","","","","","","","","","","","","","",""
"html-keyboard-response","230","1176776","0.0-4.0-1.0-3.19","u4wlhxv9j0jrsfv","prime","5ef24f45ba594791fb6cb88d","5f60e3c0a3b16e07647b2ff9","5f61dc8d2199f304bea2a4e9","false","null","<div style=""align-items: center; display: flex; color: dodgerblue; font-size: 90px""><b>o</b></div>","null","","","","forget_cue","","","","","","","","","","","","","","","",""
"html-keyboard-response","231","1177478","0.0-4.0-1.0-0.20","u4wlhxv9j0jrsfv","prime","5ef24f45ba594791fb6cb88d","5f60e3c0a3b16e07647b2ff9","5f61dc8d2199f304bea2a4e9","false","null","<span style=""color: black; font-size: 48px"">N + M</span>","null","","","","resp_prompt","","","","","","","","","","","","","","","",""
"categorize-image","232","1177910","0.0-4.0-1.0-1.20","u4wlhxv9j0jrsfv","prime","5ef24f45ba594791fb6cb88d","5f60e3c0a3b16e07647b2ff9","5f61dc8d2199f304bea2a4e9","true","423.75000001629815","./Stimuli/SelectedImages/LN/LN166.bmp","76","","","","test","false","N + M","83","switch","LN","LN166.bmp","remember","","85","4","prime1","right","","","",""
"html-keyboard-response","233","1178416","0.0-4.0-1.0-2.20-0.20","u4wlhxv9j0jrsfv","prime","5ef24f45ba594791fb6cb88d","5f60e3c0a3b16e07647b2ff9","5f61dc8d2199f304bea2a4e9","false","null","<span style=""color: red; font-size: 48px"">Error!</span>","null","","","","feedback","","","","","","","","","","","","","","","",""
"html-keyboard-response","234","1180427","0.0-4.0-1.0-3.20","u4wlhxv9j0jrsfv","prime","5ef24f45ba594791fb6cb88d","5f60e3c0a3b16e07647b2ff9","5f61dc8d2199f304bea2a4e9","false","null","<div style=""align-items: center; display: flex; color: dodgerblue; font-size: 90px""><b>o</b></div>","null","","","","forget_cue","","","","","","","","","","","","","","","",""
"html-keyboard-response","235","1181143","0.0-4.0-1.0-0.21","u4wlhxv9j0jrsfv","prime","5ef24f45ba594791fb6cb88d","5f60e3c0a3b16e07647b2ff9","5f61dc8d2199f304bea2a4e9","false","null","<span style=""color: black; font-size: 48px"">N + M</span>","null","","","","resp_prompt","","","","","","","","","","","","","","","",""
"categorize-image","236","1181691","0.0-4.0-1.0-1.21","u4wlhxv9j0jrsfv","prime","5ef24f45ba594791fb6cb88d","5f60e3c0a3b16e07647b2ff9","5f61dc8d2199f304bea2a4e9","true","540.7000000122935","./Stimuli/SelectedImages/LM/LM150.bmp","83","","","","test","false","N + M","76","repetition","LM","LM150.bmp","remember","","86","4","prime1","left","","","",""
"html-keyboard-response","237","1182196","0.0-4.0-1.0-2.21-0.21","u4wlhxv9j0jrsfv","prime","5ef24f45ba594791fb6cb88d","5f60e3c0a3b16e07647b2ff9","5f61dc8d2199f304bea2a4e9","false","null","<span style=""color: red; font-size: 48px"">Error!</span>","null","","","","feedback","","","","","","","","","","","","","","","",""
"html-keyboard-response","238","1184207","0.0-4.0-1.0-3.21","u4wlhxv9j0jrsfv","prime","5ef24f45ba594791fb6cb88d","5f60e3c0a3b16e07647b2ff9","5f61dc8d2199f304bea2a4e9","false","null","<div style=""align-items: center; display: flex; color: dodgerblue; font-size: 90px""><b>o</b></div>","null","","","","forget_cue","","","","","","","","","","","","","","","",""
"html-keyboard-response","239","1184919","0.0-4.0-1.0-0.22","u4wlhxv9j0jrsfv","prime","5ef24f45ba594791fb6cb88d","5f60e3c0a3b16e07647b2ff9","5f61dc8d2199f304bea2a4e9","false","null","<span style=""color: black; font-size: 48px"">N + M</span>","null","","","","resp_prompt","","","","","","","","","","","","","","","",""
"categorize-image","240","1185631","0.0-4.0-1.0-1.22","u4wlhxv9j0jrsfv","prime","5ef24f45ba594791fb6cb88d","5f60e3c0a3b16e07647b2ff9","5f61dc8d2199f304bea2a4e9","true","704.7100000199862","./Stimuli/SelectedImages/LM/LM59.bmp","76","","","","test","true","N + M","76","switch","LM","LM59.bmp","forget","","87","4","prime1","right","","","",""
"html-keyboard-response","241","1187634","0.0-4.0-1.0-3.22","u4wlhxv9j0jrsfv","prime","5ef24f45ba594791fb6cb88d","5f60e3c0a3b16e07647b2ff9","5f61dc8d2199f304bea2a4e9","false","null","<div style=""align-items: center; display: flex; color: darkorange; font-size: 90px""><b>ø</b></div>","null","","","","forget_cue","","","","","","","","","","","","","","","",""
"html-keyboard-response","242","1188343","0.0-4.0-1.0-0.23","u4wlhxv9j0jrsfv","prime","5ef24f45ba594791fb6cb88d","5f60e3c0a3b16e07647b2ff9","5f61dc8d2199f304bea2a4e9","false","null","<span style=""color: black; font-size: 48px"">N + M</span>","null","","","","resp_prompt","","","","","","","","","","","","","","","",""
"categorize-image","243","1189141","0.0-4.0-1.0-1.23","u4wlhxv9j0jrsfv","prime","5ef24f45ba594791fb6cb88d","5f60e3c0a3b16e07647b2ff9","5f61dc8d2199f304bea2a4e9","true","788.8449999736622","./Stimuli/SelectedImages/LM/LM216.bmp","76","","","","test","true","N + M","76","repetition","LM","LM216.bmp","remember","","88","4","prime1","right","","","",""
"html-keyboard-response","244","1191162","0.0-4.0-1.0-3.23","u4wlhxv9j0jrsfv","prime","5ef24f45ba594791fb6cb88d","5f60e3c0a3b16e07647b2ff9","5f61dc8d2199f304bea2a4e9","false","null","<div style=""align-items: center; display: flex; color: dodgerblue; font-size: 90px""><b>o</b></div>","null","","","","forget_cue","","","","","","","","","","","","","","","",""
"html-keyboard-response","245","1191864","0.0-4.0-1.0-0.24","u4wlhxv9j0jrsfv","prime","5ef24f45ba594791fb6cb88d","5f60e3c0a3b16e07647b2ff9","5f61dc8d2199f304bea2a4e9","false","null","<span style=""color: black; font-size: 48px"">M + N</span>","null","","","","resp_prompt","","","","","","","","","","","","","","","",""
