"trial_type","trial_index","time_elapsed","internal_node_id","subject","exp_part","prolific_PID","study_ID","session_ID","use","rt","stimulus","key_press","button_pressed","responses","question_order","trial_part","correct","resp_map","correct_resp","probe_condition","category","image","forget_condition","list","trial_num","block_num","block","response","test_part","n_span","sequence","num_spaces"
"pavlovia","0","11","0.0-0.0","w871vsjsgsocvlq","","5f58e69c670dc40a0ee2dc7b","5f60e3c0a3b16e07647b2ff9","5f60ec0d2087970008568d0c","false","","","","","","","","","","","","","","","","","","","","","","",""
"html-keyboard-response","1","2703","0.0-1.0-0.0-0.0","w871vsjsgsocvlq","welcome","5f58e69c670dc40a0ee2dc7b","5f60e3c0a3b16e07647b2ff9","5f60ec0d2087970008568d0c","false","2681.1250000000086","<div align=left>Dear participant, <br> thank you for participating in an online study of the Cognition, Action, and Sustainability Unit of the University of Freiburg! <br> <br>The aim of this study is to examine our ability to remember previously learned information. <br>Our goal is to find out, whether our memory improves, when we only remember information that is relevant to us. <br>The experiment will take about 35 minutes to complete. <br> <br>Please, note that you can only participate in this study if you are using a device with a keyboard (PC, Laptop etc.) <br>and not if you are using a mobile device such as a tablet or smartphone.<br> <br>Press 'SPACE' to proceed to the experiment. </div>","32","","","","","","","","","","","","","","","","","","","",""
"html-keyboard-response","2","9738","0.0-1.0-0.0-1.0","w871vsjsgsocvlq","welcome","5f58e69c670dc40a0ee2dc7b","5f60e3c0a3b16e07647b2ff9","5f60ec0d2087970008568d0c","false","7034.025000000043","<div align=left><strong> Time Course of this experiment: </strong> <br><br> <strong> 1.</strong>  First, please fill in some information regarding your demographic data. <br><br> <strong> 2.</strong>  Next, your task will be to classify everyday objects. <br>In addition, you will be asked to remember certain objects and recall them later. <br>Working on these tasks requires your undivided attention and concentration.<br>It is therefore essential that you eliminate any sources of distraction in your  <br>environment and ensure that you will not be disturbed. <br><br><strong> 3.</strong>  At the end of the experiment, you will be asked to answer a few additional questions. <br> <br><strong> Important:</strong> After finishing the experiment, only close the browser window <br> by clicking on the 'end the experiment'-button when you are asked to do so. <br>Closing the browser window prematurely will make the allocation of your participation credit impossible. <br><br> Press 'SPACE' to start the experiment. </div>","32","","","","","","","","","","","","","","","","","","","",""
"html-button-response","3","14967","0.0-1.0-0.0-2.0","w871vsjsgsocvlq","welcome","5f58e69c670dc40a0ee2dc7b","5f60e3c0a3b16e07647b2ff9","5f60ec0d2087970008568d0c","true","5225.900000000023","<div align=left><strong> Informed consent </strong>  <br>The aim of our research is to better understand human behavior and mental processes. <br>In the following study your behavior (e.g. choices, reaction times) will be studied. <br> <br><strong> Voluntariness and Anonymity </strong> <br>Your participation in this study is  <strong> voluntary</strong>.<br>You may withdraw your consent to participate at any time without providing a reason for doing so and without fear of prejudice. <br><br>As no personal data will be collected, <strong>your data and your person cannot be connected after data collection</strong> – the data-set is anonymous. <br>Respectively, deletion of your data will not be possible after data collection has been completed, as we cannot retrace your data-set.<br>The results and anonymized data collected in this study will be published as a scientific publication. <br>This will happen in an <strong>anonymized format</strong>, so that no data can be traced back to a specific person. <br> <br>The anonymized data of this study will be made available to other researchers and/or in a data archive on the Internet as a means of transparency and to enable subsequent re-use. By doing so, this study follows the recommendations of the Deutsche Forschungsgemeinschaft (DFG, German Research Foundation) and Deutsche Gesellschaft für Psychologie (DGPS, German Psychological Society) regarding quality assurance in research.<br>If you have any questions now or after the experiment, please contact our team (experiments@cs.uni-freiburg.de).<br><br><br>I hereby declare, that I understand the above described conditions of participation and I agree to participate under these conditions. <br><br> </div>","","0","","","","","","","","","","","","","","","","","","",""
"html-keyboard-response","4","34494","0.0-1.0-0.0-3.0","w871vsjsgsocvlq","welcome","5f58e69c670dc40a0ee2dc7b","5f60e3c0a3b16e07647b2ff9","5f60ec0d2087970008568d0c","false","19524.690000000024","<div align=left><strong> General information concerning the experiment </strong>  <br> <br>Please follow the instructions:<ol> <li><strong> Do not leave this tab (your browser window) during the experiment and do not reload this tab! </strong>  <br>If you do switch tabs/windows during the experiment (to check your mail or visit another website, for example), <br>the experiment will end automatically and you will <strong>not receive credit</strong> for your participation. <br>Repeated participation or resumption of the experiment is impossible.</li> <br><li>Please close all other programs for the duration of your participation. </li> <br><li>Please mute or turn off your phone and put it out of your reach. </li> <br><li>Please also take off any disturbing accessories (such as wristwatches, bracelets, etc.). </li> <br><li>If you have music playing in the background, please turn it off now. </li> <br></ol>Thank you! <br>Press 'SPACE' to continue. </div>","32","","","","","","","","","","","","","","","","","","","",""
"survey-text","5","36863","0.0-1.0-1.0-0.0","w871vsjsgsocvlq","demographics","5f58e69c670dc40a0ee2dc7b","5f60e3c0a3b16e07647b2ff9","5f60ec0d2087970008568d0c","true","2362.6700000000346","","","","{""age"":""30""}","","","","","","","","","","","","","","","","","",""
"survey-multi-choice","6","66784","0.0-1.0-1.0-1.0","w871vsjsgsocvlq","demographics","5f58e69c670dc40a0ee2dc7b","5f60e3c0a3b16e07647b2ff9","5f60ec0d2087970008568d0c","true","29918.340000000004","","","","{""gender"":""female"",""school"":""others"",""education"":""Completed university degree or equivalent""}","[0,1,2]","","","","","","","","","","","","","","","","",""
"html-keyboard-response","7","74938","0.0-1.0-2.0","w871vsjsgsocvlq","instructions","5f58e69c670dc40a0ee2dc7b","5f60e3c0a3b16e07647b2ff9","5f60ec0d2087970008568d0c","false","8151.194999999978","<div align=left> The experiment is now about to start: <br> <br>In the following part, you will be presented pictures of everyday objects. <br>Your first task is to <strong>classify these objects. </strong> <br> <br> You will classify them either as mechanical or non-mechanical objects. <br> <br>Objects that include any kind of technical mechanism (for example, wheels, switches, levers, <br> electronic components) fall under the category of <strong>mechanical</strong> objects. <br>Only objects without any kind of technical mechanism should be classified as <strong>non-mechanical</strong>. <br><br>Press 'SPACE' to continue. </div>","32","","","","","","","","","","","","","","","","","","","",""
"html-keyboard-response","8","109556","0.0-2.0-0.0","w871vsjsgsocvlq","instructions","5f58e69c670dc40a0ee2dc7b","5f60e3c0a3b16e07647b2ff9","5f60ec0d2087970008568d0c","false","34618.119999999966","<div align=justify>You will classify the objects using the <strong>'S'</strong> and the <strong>'L'</strong> keys on your keyboard.<br>For doing so, please place your <strong>left index finger</strong> on the <strong>'S'</strong> key and place your <strong>right index finger</strong> on the <strong>'L'</strong> key. <br><br> Each trial starts with an instruction, indicating which key ('S'/'L') you need to press to classify <br>the object as mechanical (letter M) or non-mechanical (letter N).<br>The instruction <strong>M + N</strong> indicates that, in the current trial, by pressing the left key ('S') you classify the displayed object as mechanical (M) <br> and by pressing the right key ('L') you classify the object as non-mechanical (N). <br>The instruction <strong>N + M</strong> on the other hand indicates that by pressing the left key ('S') you classify the displayed object as non-mechanical (N) <br> and by pressing the right key ('L') you classify the object as mechanical (M). <br><br>Please press the key corresponding to the correct classification as fast as possible as soon as the object is displayed and try to avoid making mistakes.<br>If you do not respond within a 2 second window, a corresponding feedback will be displayed and the next trial will start.<br> The experiment is divided into multiple blocks to give you the opportunity to take a break after each block. <br>First, you can now practice this task. <br><br>Please place your <strong>LEFT INDEX FINGER</strong> on the 'S' key and your <strong>RIGHT INDEX FINGER</strong> on the 'L' key now. <br><br>Press SPACE to continue.</div>","32","","","","","","","","","","","","","","","","","","","",""
"html-keyboard-response","9","116469","0.0-2.0-1.0","w871vsjsgsocvlq","instructions","5f58e69c670dc40a0ee2dc7b","5f60e3c0a3b16e07647b2ff9","5f60ec0d2087970008568d0c","false","6910.844999999987","<div align=left> You will now have time to practice this task.<br><br>Remember: <br> <br><li>Please place your index fingers on the <strong>'S'</strong> and <strong>'L'</strong> keys <br>to respond as fast and accurately as possible.</li><li>Every picture can be classified as either mechanical or non-mechanical.</li><li>If you do not respond in time or commit an error, you will receive a corresponding feedback. </li><li> Please try to respond as <strong> fast </strong> and as <strong> accurately as possible </strong> .<br><li>To ensure optimal results, please minimize distractions and stay focused. </li><br><br>Press SPACE to continue.</div>","32","","","","","","","","","","","","","","","","","","","",""
"html-keyboard-response","10","117176","0.0-2.0-2.0-0.0","w871vsjsgsocvlq","practice_no_cue","5f58e69c670dc40a0ee2dc7b","5f60e3c0a3b16e07647b2ff9","5f60ec0d2087970008568d0c","false","null","<span style=""color: black; font-size: 48px"">M + N</span>","null","","","","resp_prompt","","","","","","","","","","","","","","","",""
"categorize-image","11","119687","0.0-2.0-2.0-1.0","w871vsjsgsocvlq","practice_no_cue","5f58e69c670dc40a0ee2dc7b","5f60e3c0a3b16e07647b2ff9","5f60ec0d2087970008568d0c","true","null","./Stimuli/ImagesPractice/LM230.jpg","null","","","","test","false","M + N","83","","LM","LM230.jpg","forget","old","1","1","start","too_slow","","","",""
"html-keyboard-response","12","120395","0.0-2.0-2.0-0.1","w871vsjsgsocvlq","practice_no_cue","5f58e69c670dc40a0ee2dc7b","5f60e3c0a3b16e07647b2ff9","5f60ec0d2087970008568d0c","false","null","<span style=""color: black; font-size: 48px"">N + M</span>","null","","","","resp_prompt","","","","","","","","","","","","","","","",""
"categorize-image","13","122080","0.0-2.0-2.0-1.1","w871vsjsgsocvlq","practice_no_cue","5f58e69c670dc40a0ee2dc7b","5f60e3c0a3b16e07647b2ff9","5f60ec0d2087970008568d0c","true","1182.300000000003","./Stimuli/ImagesPractice/SM35.jpg","83","","","","test","false","N + M","76","","SM","SM35.jpg","forget","old","2","1","start","left","","","",""
"html-keyboard-response","14","122787","0.0-2.0-2.0-0.2","w871vsjsgsocvlq","practice_no_cue","5f58e69c670dc40a0ee2dc7b","5f60e3c0a3b16e07647b2ff9","5f60ec0d2087970008568d0c","false","null","<span style=""color: black; font-size: 48px"">M + N</span>","null","","","","resp_prompt","","","","","","","","","","","","","","","",""
"categorize-image","15","124209","0.0-2.0-2.0-1.2","w871vsjsgsocvlq","practice_no_cue","5f58e69c670dc40a0ee2dc7b","5f60e3c0a3b16e07647b2ff9","5f60ec0d2087970008568d0c","true","919.6799999999785","./Stimuli/ImagesPractice/SN75.jpg","76","","","","test","true","M + N","76","","SN","SN75.jpg","forget","old","3","1","start","right","","","",""
"html-keyboard-response","16","124912","0.0-2.0-2.0-0.3","w871vsjsgsocvlq","practice_no_cue","5f58e69c670dc40a0ee2dc7b","5f60e3c0a3b16e07647b2ff9","5f60ec0d2087970008568d0c","false","null","<span style=""color: black; font-size: 48px"">N + M</span>","null","","","","resp_prompt","","","","","","","","","","","","","","","",""
"categorize-image","17","126350","0.0-2.0-2.0-1.3","w871vsjsgsocvlq","practice_no_cue","5f58e69c670dc40a0ee2dc7b","5f60e3c0a3b16e07647b2ff9","5f60ec0d2087970008568d0c","true","930.679999999993","./Stimuli/ImagesPractice/SN221.jpg","83","","","","test","true","N + M","83","","SN","SN221.jpg","forget","old","4","1","start","left","","","",""
"html-keyboard-response","18","127056","0.0-2.0-2.0-0.4","w871vsjsgsocvlq","practice_no_cue","5f58e69c670dc40a0ee2dc7b","5f60e3c0a3b16e07647b2ff9","5f60ec0d2087970008568d0c","false","null","<span style=""color: black; font-size: 48px"">M + N</span>","null","","","","resp_prompt","","","","","","","","","","","","","","","",""
"categorize-image","19","128340","0.0-2.0-2.0-1.4","w871vsjsgsocvlq","practice_no_cue","5f58e69c670dc40a0ee2dc7b","5f60e3c0a3b16e07647b2ff9","5f60ec0d2087970008568d0c","true","778.3300000000309","./Stimuli/ImagesPractice/LN4.jpg","76","","","","test","true","M + N","76","","LN","LN4.jpg","remember","old","5","1","start","right","","","",""
"html-keyboard-response","20","129046","0.0-2.0-2.0-0.5","w871vsjsgsocvlq","practice_no_cue","5f58e69c670dc40a0ee2dc7b","5f60e3c0a3b16e07647b2ff9","5f60ec0d2087970008568d0c","false","null","<span style=""color: black; font-size: 48px"">N + M</span>","null","","","","resp_prompt","","","","","","","","","","","","","","","",""
"categorize-image","21","130155","0.0-2.0-2.0-1.5","w871vsjsgsocvlq","practice_no_cue","5f58e69c670dc40a0ee2dc7b","5f60e3c0a3b16e07647b2ff9","5f60ec0d2087970008568d0c","true","604.2999999999593","./Stimuli/ImagesPractice/LN15.jpg","83","","","","test","true","N + M","83","","LN","LN15.jpg","forget","old","6","1","start","left","","","",""
"html-keyboard-response","22","130862","0.0-2.0-2.0-0.6","w871vsjsgsocvlq","practice_no_cue","5f58e69c670dc40a0ee2dc7b","5f60e3c0a3b16e07647b2ff9","5f60ec0d2087970008568d0c","false","null","<span style=""color: black; font-size: 48px"">M + N</span>","null","","","","resp_prompt","","","","","","","","","","","","","","","",""
"categorize-image","23","132270","0.0-2.0-2.0-1.6","w871vsjsgsocvlq","practice_no_cue","5f58e69c670dc40a0ee2dc7b","5f60e3c0a3b16e07647b2ff9","5f60ec0d2087970008568d0c","true","900.1999999999825","./Stimuli/ImagesPractice/SM98.jpg","76","","","","test","false","M + N","83","","SM","SM98.jpg","forget","old","7","1","start","right","","","",""
"html-keyboard-response","24","132977","0.0-2.0-2.0-0.7","w871vsjsgsocvlq","practice_no_cue","5f58e69c670dc40a0ee2dc7b","5f60e3c0a3b16e07647b2ff9","5f60ec0d2087970008568d0c","false","null","<span style=""color: black; font-size: 48px"">N + M</span>","null","","","","resp_prompt","","","","","","","","","","","","","","","",""
"categorize-image","25","134147","0.0-2.0-2.0-1.7","w871vsjsgsocvlq","practice_no_cue","5f58e69c670dc40a0ee2dc7b","5f60e3c0a3b16e07647b2ff9","5f60ec0d2087970008568d0c","true","665.4950000000244","./Stimuli/ImagesPractice/LN17.jpg","83","","","","test","true","N + M","83","","LN","LN17.jpg","forget","old","8","1","start","left","","","",""
"html-keyboard-response","26","134853","0.0-2.0-2.0-0.8","w871vsjsgsocvlq","practice_no_cue","5f58e69c670dc40a0ee2dc7b","5f60e3c0a3b16e07647b2ff9","5f60ec0d2087970008568d0c","false","null","<span style=""color: black; font-size: 48px"">M + N</span>","null","","","","resp_prompt","","","","","","","","","","","","","","","",""
"categorize-image","27","136453","0.0-2.0-2.0-1.8","w871vsjsgsocvlq","practice_no_cue","5f58e69c670dc40a0ee2dc7b","5f60e3c0a3b16e07647b2ff9","5f60ec0d2087970008568d0c","true","1093.3150000000023","./Stimuli/ImagesPractice/LM147.jpg","83","","","","test","true","M + N","83","","LM","LM147.jpg","forget","old","9","1","start","left","","","",""
"html-keyboard-response","28","137157","0.0-2.0-2.0-0.9","w871vsjsgsocvlq","practice_no_cue","5f58e69c670dc40a0ee2dc7b","5f60e3c0a3b16e07647b2ff9","5f60ec0d2087970008568d0c","false","null","<span style=""color: black; font-size: 48px"">M + N</span>","null","","","","resp_prompt","","","","","","","","","","","","","","","",""
"categorize-image","29","138850","0.0-2.0-2.0-1.9","w871vsjsgsocvlq","practice_no_cue","5f58e69c670dc40a0ee2dc7b","5f60e3c0a3b16e07647b2ff9","5f60ec0d2087970008568d0c","true","1188.6050000000396","./Stimuli/ImagesPractice/LM239.jpg","76","","","","test","false","M + N","83","","LM","LM239.jpg","remember","old","10","1","start","right","","","",""
"html-keyboard-response","30","139555","0.0-2.0-2.0-0.10","w871vsjsgsocvlq","practice_no_cue","5f58e69c670dc40a0ee2dc7b","5f60e3c0a3b16e07647b2ff9","5f60ec0d2087970008568d0c","false","null","<span style=""color: black; font-size: 48px"">N + M</span>","null","","","","resp_prompt","","","","","","","","","","","","","","","",""
"categorize-image","31","141363","0.0-2.0-2.0-1.10","w871vsjsgsocvlq","practice_no_cue","5f58e69c670dc40a0ee2dc7b","5f60e3c0a3b16e07647b2ff9","5f60ec0d2087970008568d0c","true","1303.2649999999849","./Stimuli/ImagesPractice/LM55.jpg","83","","","","test","false","N + M","76","","LM","LM55.jpg","remember","old","11","1","start","left","","","",""
"html-keyboard-response","32","142068","0.0-2.0-2.0-0.11","w871vsjsgsocvlq","practice_no_cue","5f58e69c670dc40a0ee2dc7b","5f60e3c0a3b16e07647b2ff9","5f60ec0d2087970008568d0c","false","null","<span style=""color: black; font-size: 48px"">M + N</span>","null","","","","resp_prompt","","","","","","","","","","","","","","","",""
"categorize-image","33","143970","0.0-2.0-2.0-1.11","w871vsjsgsocvlq","practice_no_cue","5f58e69c670dc40a0ee2dc7b","5f60e3c0a3b16e07647b2ff9","5f60ec0d2087970008568d0c","true","1397.5149999999849","./Stimuli/ImagesPractice/SM61.jpg","83","","","","test","true","M + N","83","","SM","SM61.jpg","remember","old","12","1","start","left","","","",""
"html-keyboard-response","34","144676","0.0-2.0-2.0-0.12","w871vsjsgsocvlq","practice_no_cue","5f58e69c670dc40a0ee2dc7b","5f60e3c0a3b16e07647b2ff9","5f60ec0d2087970008568d0c","false","null","<span style=""color: black; font-size: 48px"">M + N</span>","null","","","","resp_prompt","","","","","","","","","","","","","","","",""
"categorize-image","35","146459","0.0-2.0-2.0-1.12","w871vsjsgsocvlq","practice_no_cue","5f58e69c670dc40a0ee2dc7b","5f60e3c0a3b16e07647b2ff9","5f60ec0d2087970008568d0c","true","1277.8650000000198","./Stimuli/ImagesPractice/SN205.jpg","76","","","","test","true","M + N","76","","SN","SN205.jpg","remember","old","13","1","start","right","","","",""
"html-keyboard-response","36","147162","0.0-2.0-2.0-0.13","w871vsjsgsocvlq","practice_no_cue","5f58e69c670dc40a0ee2dc7b","5f60e3c0a3b16e07647b2ff9","5f60ec0d2087970008568d0c","false","null","<span style=""color: black; font-size: 48px"">N + M</span>","null","","","","resp_prompt","","","","","","","","","","","","","","","",""
"categorize-image","37","148489","0.0-2.0-2.0-1.13","w871vsjsgsocvlq","practice_no_cue","5f58e69c670dc40a0ee2dc7b","5f60e3c0a3b16e07647b2ff9","5f60ec0d2087970008568d0c","true","823.4500000000407","./Stimuli/ImagesPractice/LM224.jpg","83","","","","test","false","N + M","76","","LM","LM224.jpg","remember","old","14","1","start","left","","","",""
"html-keyboard-response","38","149192","0.0-2.0-2.0-0.14","w871vsjsgsocvlq","practice_no_cue","5f58e69c670dc40a0ee2dc7b","5f60e3c0a3b16e07647b2ff9","5f60ec0d2087970008568d0c","false","null","<span style=""color: black; font-size: 48px"">N + M</span>","null","","","","resp_prompt","","","","","","","","","","","","","","","",""
"categorize-image","39","150429","0.0-2.0-2.0-1.14","w871vsjsgsocvlq","practice_no_cue","5f58e69c670dc40a0ee2dc7b","5f60e3c0a3b16e07647b2ff9","5f60ec0d2087970008568d0c","true","729.445000000007","./Stimuli/ImagesPractice/SM97.jpg","83","","","","test","false","N + M","76","","SM","SM97.jpg","remember","old","15","1","start","left","","","",""
"html-keyboard-response","40","151134","0.0-2.0-2.0-0.15","w871vsjsgsocvlq","practice_no_cue","5f58e69c670dc40a0ee2dc7b","5f60e3c0a3b16e07647b2ff9","5f60ec0d2087970008568d0c","false","null","<span style=""color: black; font-size: 48px"">N + M</span>","null","","","","resp_prompt","","","","","","","","","","","","","","","",""
"categorize-image","41","152501","0.0-2.0-2.0-1.15","w871vsjsgsocvlq","practice_no_cue","5f58e69c670dc40a0ee2dc7b","5f60e3c0a3b16e07647b2ff9","5f60ec0d2087970008568d0c","true","858.8650000000198","./Stimuli/ImagesPractice/SN220.jpg","76","","","","test","false","N + M","83","","SN","SN220.jpg","remember","old","16","1","start","right","","","",""
"html-keyboard-response","42","155904","0.0-2.0-3.0","w871vsjsgsocvlq","break","5f58e69c670dc40a0ee2dc7b","5f60e3c0a3b16e07647b2ff9","5f60ec0d2087970008568d0c","false","3399.834999999992","<p style='font-size: 32px;'>Break</><br><br><br><br><br><p style='font-size: 24px;'>In the last block, you committed 7 errors and did not respond in time on 1 trials.
</p><p style='font-size: 24px;'>Try to respond as fast and accurately as possible in the next block as well! </p><p style='font-size: 24px;'>Press SPACE to continue.</p>","32","","","","","","","","","","","","","","","","","","","",""
"html-keyboard-response","43","158649","0.0-2.0-4.0","w871vsjsgsocvlq","instructions","5f58e69c670dc40a0ee2dc7b","5f60e3c0a3b16e07647b2ff9","5f60ec0d2087970008568d0c","false","2743.25","<div align=left> Great!<br><br>Are you ready to continue?<br><br>If you want to reread the instructions and redo the practice trials, <br>please press „Z“. <br><br>Press SPACE to CONTINUE with the experiment when you are ready. </div>","32","","","","","","","","","","","","","","","","","","","",""
"html-keyboard-response","44","176015","0.0-3.0-0.0","w871vsjsgsocvlq","instructions","5f58e69c670dc40a0ee2dc7b","5f60e3c0a3b16e07647b2ff9","5f60ec0d2087970008568d0c","false","17364.869999999995","<div align=left>Great!<br> <strong>Attention</strong>! You will now receive a second, additional task! <br><br>To this point it was you <strong>first task</strong> to correctly <strong>classify objects</strong>. <br><br>As mentioned in the beginning, we aim to examine how well humans can remember previously learned information.<br>We would like to find out whether our memory improves if we only remember information that is relevant to us. <br><br>Therefore, your <strong>second task</strong> will be to <strong>remember</strong> the pictures you are to categorize. <br> After the learning phase, there will be a memory test phase, in which you will be asked to indicate whether you have seen a picture before or not. <br>Some, but not all pictures shown in the learning phase will appear in the memory test phase.<br>After classifying a picture, you will be told whether you should remember it for the memory test phase or not. <br>Thus, some pictures can be forgotten, whereas others have to be remembered. <br><br>Note: From now on, feedback will only be displayed if you responded incorrectly or not in time.<br><br>Press SPACE to continue.</div>","32","","","","","","","","","","","","","","","","","","","",""
"html-keyboard-response","45","190234","0.0-3.0-1.0","w871vsjsgsocvlq","instructions","5f58e69c670dc40a0ee2dc7b","5f60e3c0a3b16e07647b2ff9","5f60ec0d2087970008568d0c","false","14217.639999999956","<div align=left>In the following part, you will thus have to remember only some pictures. <br>Immediately after seeing and classifying the picture, a symbol will be displayed, indicating whether you should remember or forget the previous picture. <br><br>A <span style='color: dodgerblue; font-size: 28px'>O</span> indicates REMEMBER. That means, you have to remember this picture, because it will be tested later. <br><br>A <span style='color: darkorange; font-size:28px'>Ø</span> indicates FORGET. You do not have to remember this picture. <br><br> As you will have to remember a lot of pictures, it will be hard for you to remember all of them. <br>It will put you at an advantage if you instantly forget the pictures you are not asked to remember. <br> This will make it easier for you to remember the pictures that will be tested afterwards. <br><br>Press SPACE to continue.</div>","32","","","","","","","","","","","","","","","","","","","",""
"html-keyboard-response","46","193883","0.0-3.0-2.0","w871vsjsgsocvlq","instructions","5f58e69c670dc40a0ee2dc7b","5f60e3c0a3b16e07647b2ff9","5f60ec0d2087970008568d0c","false","3647.2850000000035","<div align=left> Now you have the chance to practice both tasks together.<br><br>Remember: <br> <br><li>Please place your index fingers on the <strong>'S'</strong> and <strong>'L'</strong> keys <br>to respond as fast and accurately as possible.</li><li>Every picture can be classified as either mechanical or non-mechanical.</li><li>If you do not respond in time or commit an error, you will receive a corresponding feedback. <br>Please try to respond as <strong> fast </strong> and as <strong> accurately as possible </strong>.</li><li> Please remember only the to-be-remembered <span style='color: dodgerblue; font-size: 28px'>O</span> pictures. <br></li><li> Please minimize distractions and stay focused. </li><br><br>Press SPACE to START</div>","32","","","","","","","","","","","","","","","","","","","",""
"html-keyboard-response","47","194588","0.0-3.0-3.0-0.0","w871vsjsgsocvlq","practice_cue","5f58e69c670dc40a0ee2dc7b","5f60e3c0a3b16e07647b2ff9","5f60ec0d2087970008568d0c","false","null","<span style=""color: black; font-size: 48px"">M + N</span>","null","","","","resp_prompt","","","","","","","","","","","","","","","",""
"categorize-image","48","195387","0.0-3.0-3.0-1.0","w871vsjsgsocvlq","practice_cue","5f58e69c670dc40a0ee2dc7b","5f60e3c0a3b16e07647b2ff9","5f60ec0d2087970008568d0c","true","794.2699999999895","./Stimuli/ImagesPractice/SN75.jpg","76","","","","test","true","M + N","76","","SN","SN75.jpg","forget","old","17","2","practice_forget","right","","","",""
"html-keyboard-response","49","197395","0.0-3.0-3.0-3.0","w871vsjsgsocvlq","practice_cue","5f58e69c670dc40a0ee2dc7b","5f60e3c0a3b16e07647b2ff9","5f60ec0d2087970008568d0c","false","null","<div style=""align-items: center; display: flex; color: darkorange; font-size: 90px""><b>ø</b></div>","null","","","","forget_cue","","","","","","","","","","","","","","","",""
"html-keyboard-response","50","198101","0.0-3.0-3.0-0.1","w871vsjsgsocvlq","practice_cue","5f58e69c670dc40a0ee2dc7b","5f60e3c0a3b16e07647b2ff9","5f60ec0d2087970008568d0c","false","null","<span style=""color: black; font-size: 48px"">M + N</span>","null","","","","resp_prompt","","","","","","","","","","","","","","","",""
"categorize-image","51","198884","0.0-3.0-3.0-1.1","w871vsjsgsocvlq","practice_cue","5f58e69c670dc40a0ee2dc7b","5f60e3c0a3b16e07647b2ff9","5f60ec0d2087970008568d0c","true","778.7399999999616","./Stimuli/ImagesPractice/SN205.jpg","76","","","","test","true","M + N","76","","SN","SN205.jpg","remember","old","18","2","practice_forget","right","","","",""
"html-keyboard-response","52","200886","0.0-3.0-3.0-3.1","w871vsjsgsocvlq","practice_cue","5f58e69c670dc40a0ee2dc7b","5f60e3c0a3b16e07647b2ff9","5f60ec0d2087970008568d0c","false","null","<div style=""align-items: center; display: flex; color: dodgerblue; font-size: 90px""><b>o</b></div>","null","","","","forget_cue","","","","","","","","","","","","","","","",""
"html-keyboard-response","53","201589","0.0-3.0-3.0-0.2","w871vsjsgsocvlq","practice_cue","5f58e69c670dc40a0ee2dc7b","5f60e3c0a3b16e07647b2ff9","5f60ec0d2087970008568d0c","false","null","<span style=""color: black; font-size: 48px"">N + M</span>","null","","","","resp_prompt","","","","","","","","","","","","","","","",""
"categorize-image","54","202428","0.0-3.0-3.0-1.2","w871vsjsgsocvlq","practice_cue","5f58e69c670dc40a0ee2dc7b","5f60e3c0a3b16e07647b2ff9","5f60ec0d2087970008568d0c","true","833.539999999979","./Stimuli/ImagesPractice/SN220.jpg","83","","","","test","true","N + M","83","","SN","SN220.jpg","remember","old","19","2","practice_forget","left","","","",""
"html-keyboard-response","55","204430","0.0-3.0-3.0-3.2","w871vsjsgsocvlq","practice_cue","5f58e69c670dc40a0ee2dc7b","5f60e3c0a3b16e07647b2ff9","5f60ec0d2087970008568d0c","false","null","<div style=""align-items: center; display: flex; color: dodgerblue; font-size: 90px""><b>o</b></div>","null","","","","forget_cue","","","","","","","","","","","","","","","",""
"html-keyboard-response","56","205133","0.0-3.0-3.0-0.3","w871vsjsgsocvlq","practice_cue","5f58e69c670dc40a0ee2dc7b","5f60e3c0a3b16e07647b2ff9","5f60ec0d2087970008568d0c","false","null","<span style=""color: black; font-size: 48px"">N + M</span>","null","","","","resp_prompt","","","","","","","","","","","","","","","",""
"categorize-image","57","206044","0.0-3.0-3.0-1.3","w871vsjsgsocvlq","practice_cue","5f58e69c670dc40a0ee2dc7b","5f60e3c0a3b16e07647b2ff9","5f60ec0d2087970008568d0c","true","906.2700000000477","./Stimuli/ImagesPractice/LM55.jpg","76","","","","test","true","N + M","76","","LM","LM55.jpg","remember","old","20","2","practice_forget","right","","","",""
"html-keyboard-response","58","208051","0.0-3.0-3.0-3.3","w871vsjsgsocvlq","practice_cue","5f58e69c670dc40a0ee2dc7b","5f60e3c0a3b16e07647b2ff9","5f60ec0d2087970008568d0c","false","null","<div style=""align-items: center; display: flex; color: dodgerblue; font-size: 90px""><b>o</b></div>","null","","","","forget_cue","","","","","","","","","","","","","","","",""
"html-keyboard-response","59","208755","0.0-3.0-3.0-0.4","w871vsjsgsocvlq","practice_cue","5f58e69c670dc40a0ee2dc7b","5f60e3c0a3b16e07647b2ff9","5f60ec0d2087970008568d0c","false","null","<span style=""color: black; font-size: 48px"">N + M</span>","null","","","","resp_prompt","","","","","","","","","","","","","","","",""
"categorize-image","60","209617","0.0-3.0-3.0-1.4","w871vsjsgsocvlq","practice_cue","5f58e69c670dc40a0ee2dc7b","5f60e3c0a3b16e07647b2ff9","5f60ec0d2087970008568d0c","true","856.445000000007","./Stimuli/ImagesPractice/LN15.jpg","83","","","","test","true","N + M","83","","LN","LN15.jpg","forget","old","21","2","practice_forget","left","","","",""
"html-keyboard-response","61","211619","0.0-3.0-3.0-3.4","w871vsjsgsocvlq","practice_cue","5f58e69c670dc40a0ee2dc7b","5f60e3c0a3b16e07647b2ff9","5f60ec0d2087970008568d0c","false","null","<div style=""align-items: center; display: flex; color: darkorange; font-size: 90px""><b>ø</b></div>","null","","","","forget_cue","","","","","","","","","","","","","","","",""
"html-keyboard-response","62","212324","0.0-3.0-3.0-0.5","w871vsjsgsocvlq","practice_cue","5f58e69c670dc40a0ee2dc7b","5f60e3c0a3b16e07647b2ff9","5f60ec0d2087970008568d0c","false","null","<span style=""color: black; font-size: 48px"">M + N</span>","null","","","","resp_prompt","","","","","","","","","","","","","","","",""
"categorize-image","63","213409","0.0-3.0-3.0-1.5","w871vsjsgsocvlq","practice_cue","5f58e69c670dc40a0ee2dc7b","5f60e3c0a3b16e07647b2ff9","5f60ec0d2087970008568d0c","true","1079.755000000092","./Stimuli/ImagesPractice/LN4.jpg","76","","","","test","true","M + N","76","","LN","LN4.jpg","remember","old","22","2","practice_forget","right","","","",""
"html-keyboard-response","64","215412","0.0-3.0-3.0-3.5","w871vsjsgsocvlq","practice_cue","5f58e69c670dc40a0ee2dc7b","5f60e3c0a3b16e07647b2ff9","5f60ec0d2087970008568d0c","false","null","<div style=""align-items: center; display: flex; color: dodgerblue; font-size: 90px""><b>o</b></div>","null","","","","forget_cue","","","","","","","","","","","","","","","",""
"html-keyboard-response","65","216119","0.0-3.0-3.0-0.6","w871vsjsgsocvlq","practice_cue","5f58e69c670dc40a0ee2dc7b","5f60e3c0a3b16e07647b2ff9","5f60ec0d2087970008568d0c","false","null","<span style=""color: black; font-size: 48px"">M + N</span>","null","","","","resp_prompt","","","","","","","","","","","","","","","",""
"categorize-image","66","216842","0.0-3.0-3.0-1.6","w871vsjsgsocvlq","practice_cue","5f58e69c670dc40a0ee2dc7b","5f60e3c0a3b16e07647b2ff9","5f60ec0d2087970008568d0c","true","719.4649999999965","./Stimuli/ImagesPractice/SM61.jpg","83","","","","test","true","M + N","83","","SM","SM61.jpg","remember","old","23","2","practice_forget","left","","","",""
"html-keyboard-response","67","218846","0.0-3.0-3.0-3.6","w871vsjsgsocvlq","practice_cue","5f58e69c670dc40a0ee2dc7b","5f60e3c0a3b16e07647b2ff9","5f60ec0d2087970008568d0c","false","null","<div style=""align-items: center; display: flex; color: dodgerblue; font-size: 90px""><b>o</b></div>","null","","","","forget_cue","","","","","","","","","","","","","","","",""
"html-keyboard-response","68","219552","0.0-3.0-3.0-0.7","w871vsjsgsocvlq","practice_cue","5f58e69c670dc40a0ee2dc7b","5f60e3c0a3b16e07647b2ff9","5f60ec0d2087970008568d0c","false","null","<span style=""color: black; font-size: 48px"">M + N</span>","null","","","","resp_prompt","","","","","","","","","","","","","","","",""
"categorize-image","69","220400","0.0-3.0-3.0-1.7","w871vsjsgsocvlq","practice_cue","5f58e69c670dc40a0ee2dc7b","5f60e3c0a3b16e07647b2ff9","5f60ec0d2087970008568d0c","true","843.2049999998999","./Stimuli/ImagesPractice/LM147.jpg","76","","","","test","false","M + N","83","","LM","LM147.jpg","forget","old","24","2","practice_forget","right","","","",""
"html-keyboard-response","70","220902","0.0-3.0-3.0-2.7-0.7","w871vsjsgsocvlq","practice_cue","5f58e69c670dc40a0ee2dc7b","5f60e3c0a3b16e07647b2ff9","5f60ec0d2087970008568d0c","false","null","<span style=""color: red; font-size: 48px"">Error!</span>","null","","","","feedback","","","","","","","","","","","","","","","",""
"html-keyboard-response","71","222907","0.0-3.0-3.0-3.7","w871vsjsgsocvlq","practice_cue","5f58e69c670dc40a0ee2dc7b","5f60e3c0a3b16e07647b2ff9","5f60ec0d2087970008568d0c","false","null","<div style=""align-items: center; display: flex; color: darkorange; font-size: 90px""><b>ø</b></div>","null","","","","forget_cue","","","","","","","","","","","","","","","",""
"html-keyboard-response","72","223610","0.0-3.0-3.0-0.8","w871vsjsgsocvlq","practice_cue","5f58e69c670dc40a0ee2dc7b","5f60e3c0a3b16e07647b2ff9","5f60ec0d2087970008568d0c","false","null","<span style=""color: black; font-size: 48px"">N + M</span>","null","","","","resp_prompt","","","","","","","","","","","","","","","",""
"categorize-image","73","224705","0.0-3.0-3.0-1.8","w871vsjsgsocvlq","practice_cue","5f58e69c670dc40a0ee2dc7b","5f60e3c0a3b16e07647b2ff9","5f60ec0d2087970008568d0c","true","1089.7050000001036","./Stimuli/ImagesPractice/SM35.jpg","76","","","","test","true","N + M","76","","SM","SM35.jpg","forget","old","25","2","practice_forget","right","","","",""
"html-keyboard-response","74","226709","0.0-3.0-3.0-3.8","w871vsjsgsocvlq","practice_cue","5f58e69c670dc40a0ee2dc7b","5f60e3c0a3b16e07647b2ff9","5f60ec0d2087970008568d0c","false","null","<div style=""align-items: center; display: flex; color: darkorange; font-size: 90px""><b>ø</b></div>","null","","","","forget_cue","","","","","","","","","","","","","","","",""
"html-keyboard-response","75","227412","0.0-3.0-3.0-0.9","w871vsjsgsocvlq","practice_cue","5f58e69c670dc40a0ee2dc7b","5f60e3c0a3b16e07647b2ff9","5f60ec0d2087970008568d0c","false","null","<span style=""color: black; font-size: 48px"">M + N</span>","null","","","","resp_prompt","","","","","","","","","","","","","","","",""
"categorize-image","76","228002","0.0-3.0-3.0-1.9","w871vsjsgsocvlq","practice_cue","5f58e69c670dc40a0ee2dc7b","5f60e3c0a3b16e07647b2ff9","5f60ec0d2087970008568d0c","true","584.8899999999849","./Stimuli/ImagesPractice/LM239.jpg","83","","","","test","true","M + N","83","","LM","LM239.jpg","remember","old","26","2","practice_forget","left","","","",""
"html-keyboard-response","77","230009","0.0-3.0-3.0-3.9","w871vsjsgsocvlq","practice_cue","5f58e69c670dc40a0ee2dc7b","5f60e3c0a3b16e07647b2ff9","5f60ec0d2087970008568d0c","false","null","<div style=""align-items: center; display: flex; color: dodgerblue; font-size: 90px""><b>o</b></div>","null","","","","forget_cue","","","","","","","","","","","","","","","",""
"html-keyboard-response","78","230714","0.0-3.0-3.0-0.10","w871vsjsgsocvlq","practice_cue","5f58e69c670dc40a0ee2dc7b","5f60e3c0a3b16e07647b2ff9","5f60ec0d2087970008568d0c","false","null","<span style=""color: black; font-size: 48px"">M + N</span>","null","","","","resp_prompt","","","","","","","","","","","","","","","",""
"categorize-image","79","231375","0.0-3.0-3.0-1.10","w871vsjsgsocvlq","practice_cue","5f58e69c670dc40a0ee2dc7b","5f60e3c0a3b16e07647b2ff9","5f60ec0d2087970008568d0c","true","657.0599999999977","./Stimuli/ImagesPractice/LM230.jpg","83","","","","test","true","M + N","83","","LM","LM230.jpg","forget","old","27","2","practice_forget","left","","","",""
"html-keyboard-response","80","233379","0.0-3.0-3.0-3.10","w871vsjsgsocvlq","practice_cue","5f58e69c670dc40a0ee2dc7b","5f60e3c0a3b16e07647b2ff9","5f60ec0d2087970008568d0c","false","null","<div style=""align-items: center; display: flex; color: darkorange; font-size: 90px""><b>ø</b></div>","null","","","","forget_cue","","","","","","","","","","","","","","","",""
"html-keyboard-response","81","234086","0.0-3.0-3.0-0.11","w871vsjsgsocvlq","practice_cue","5f58e69c670dc40a0ee2dc7b","5f60e3c0a3b16e07647b2ff9","5f60ec0d2087970008568d0c","false","null","<span style=""color: black; font-size: 48px"">M + N</span>","null","","","","resp_prompt","","","","","","","","","","","","","","","",""
"categorize-image","82","234696","0.0-3.0-3.0-1.11","w871vsjsgsocvlq","practice_cue","5f58e69c670dc40a0ee2dc7b","5f60e3c0a3b16e07647b2ff9","5f60ec0d2087970008568d0c","true","605.1750000000466","./Stimuli/ImagesPractice/SM98.jpg","83","","","","test","true","M + N","83","","SM","SM98.jpg","forget","old","28","2","practice_forget","left","","","",""
"html-keyboard-response","83","236698","0.0-3.0-3.0-3.11","w871vsjsgsocvlq","practice_cue","5f58e69c670dc40a0ee2dc7b","5f60e3c0a3b16e07647b2ff9","5f60ec0d2087970008568d0c","false","null","<div style=""align-items: center; display: flex; color: darkorange; font-size: 90px""><b>ø</b></div>","null","","","","forget_cue","","","","","","","","","","","","","","","",""
"html-keyboard-response","84","237402","0.0-3.0-3.0-0.12","w871vsjsgsocvlq","practice_cue","5f58e69c670dc40a0ee2dc7b","5f60e3c0a3b16e07647b2ff9","5f60ec0d2087970008568d0c","false","null","<span style=""color: black; font-size: 48px"">N + M</span>","null","","","","resp_prompt","","","","","","","","","","","","","","","",""
"categorize-image","85","237960","0.0-3.0-3.0-1.12","w871vsjsgsocvlq","practice_cue","5f58e69c670dc40a0ee2dc7b","5f60e3c0a3b16e07647b2ff9","5f60ec0d2087970008568d0c","true","552.265000000014","./Stimuli/ImagesPractice/SM97.jpg","76","","","","test","true","N + M","76","","SM","SM97.jpg","remember","old","29","2","practice_forget","right","","","",""
"html-keyboard-response","86","239966","0.0-3.0-3.0-3.12","w871vsjsgsocvlq","practice_cue","5f58e69c670dc40a0ee2dc7b","5f60e3c0a3b16e07647b2ff9","5f60ec0d2087970008568d0c","false","null","<div style=""align-items: center; display: flex; color: dodgerblue; font-size: 90px""><b>o</b></div>","null","","","","forget_cue","","","","","","","","","","","","","","","",""
"html-keyboard-response","87","240670","0.0-3.0-3.0-0.13","w871vsjsgsocvlq","practice_cue","5f58e69c670dc40a0ee2dc7b","5f60e3c0a3b16e07647b2ff9","5f60ec0d2087970008568d0c","false","null","<span style=""color: black; font-size: 48px"">N + M</span>","null","","","","resp_prompt","","","","","","","","","","","","","","","",""
"categorize-image","88","241444","0.0-3.0-3.0-1.13","w871vsjsgsocvlq","practice_cue","5f58e69c670dc40a0ee2dc7b","5f60e3c0a3b16e07647b2ff9","5f60ec0d2087970008568d0c","true","768.9850000000442","./Stimuli/ImagesPractice/LN17.jpg","83","","","","test","true","N + M","83","","LN","LN17.jpg","forget","old","30","2","practice_forget","left","","","",""
"html-keyboard-response","89","243450","0.0-3.0-3.0-3.13","w871vsjsgsocvlq","practice_cue","5f58e69c670dc40a0ee2dc7b","5f60e3c0a3b16e07647b2ff9","5f60ec0d2087970008568d0c","false","null","<div style=""align-items: center; display: flex; color: darkorange; font-size: 90px""><b>ø</b></div>","null","","","","forget_cue","","","","","","","","","","","","","","","",""
"html-keyboard-response","90","244154","0.0-3.0-3.0-0.14","w871vsjsgsocvlq","practice_cue","5f58e69c670dc40a0ee2dc7b","5f60e3c0a3b16e07647b2ff9","5f60ec0d2087970008568d0c","false","null","<span style=""color: black; font-size: 48px"">N + M</span>","null","","","","resp_prompt","","","","","","","","","","","","","","","",""
"categorize-image","91","245149","0.0-3.0-3.0-1.14","w871vsjsgsocvlq","practice_cue","5f58e69c670dc40a0ee2dc7b","5f60e3c0a3b16e07647b2ff9","5f60ec0d2087970008568d0c","true","990.5649999999441","./Stimuli/ImagesPractice/LM224.jpg","83","","","","test","false","N + M","76","","LM","LM224.jpg","remember","old","31","2","practice_forget","left","","","",""
"html-keyboard-response","92","245650","0.0-3.0-3.0-2.14-0.14","w871vsjsgsocvlq","practice_cue","5f58e69c670dc40a0ee2dc7b","5f60e3c0a3b16e07647b2ff9","5f60ec0d2087970008568d0c","false","null","<span style=""color: red; font-size: 48px"">Error!</span>","null","","","","feedback","","","","","","","","","","","","","","","",""
"html-keyboard-response","93","247655","0.0-3.0-3.0-3.14","w871vsjsgsocvlq","practice_cue","5f58e69c670dc40a0ee2dc7b","5f60e3c0a3b16e07647b2ff9","5f60ec0d2087970008568d0c","false","null","<div style=""align-items: center; display: flex; color: dodgerblue; font-size: 90px""><b>o</b></div>","null","","","","forget_cue","","","","","","","","","","","","","","","",""
"html-keyboard-response","94","248358","0.0-3.0-3.0-0.15","w871vsjsgsocvlq","practice_cue","5f58e69c670dc40a0ee2dc7b","5f60e3c0a3b16e07647b2ff9","5f60ec0d2087970008568d0c","false","null","<span style=""color: black; font-size: 48px"">N + M</span>","null","","","","resp_prompt","","","","","","","","","","","","","","","",""
"categorize-image","95","249101","0.0-3.0-3.0-1.15","w871vsjsgsocvlq","practice_cue","5f58e69c670dc40a0ee2dc7b","5f60e3c0a3b16e07647b2ff9","5f60ec0d2087970008568d0c","true","737.7850000000326","./Stimuli/ImagesPractice/SN221.jpg","76","","","","test","false","N + M","83","","SN","SN221.jpg","forget","old","32","2","practice_forget","right","","","",""
"html-keyboard-response","96","249604","0.0-3.0-3.0-2.15-0.15","w871vsjsgsocvlq","practice_cue","5f58e69c670dc40a0ee2dc7b","5f60e3c0a3b16e07647b2ff9","5f60ec0d2087970008568d0c","false","null","<span style=""color: red; font-size: 48px"">Error!</span>","null","","","","feedback","","","","","","","","","","","","","","","",""
"html-keyboard-response","97","251611","0.0-3.0-3.0-3.15","w871vsjsgsocvlq","practice_cue","5f58e69c670dc40a0ee2dc7b","5f60e3c0a3b16e07647b2ff9","5f60ec0d2087970008568d0c","false","null","<div style=""align-items: center; display: flex; color: darkorange; font-size: 90px""><b>ø</b></div>","null","","","","forget_cue","","","","","","","","","","","","","","","",""
"html-keyboard-response","98","255473","0.0-3.0-4.0","w871vsjsgsocvlq","break","5f58e69c670dc40a0ee2dc7b","5f60e3c0a3b16e07647b2ff9","5f60ec0d2087970008568d0c","false","3858.2449999999953","<p style='font-size: 32px;'>Break</><br><br><br><br><br><p style='font-size: 24px;'>In the last block, you committed 3 errors and did not respond in time on 0 trials.
</p><p style='font-size: 24px;'>Try to respond as fast and accurately as possible in the next block as well! </p><p style='font-size: 24px;'>Press SPACE to continue.</p>","32","","","","","","","","","","","","","","","","","","","",""
"html-keyboard-response","99","274562","0.0-3.0-5.0","w871vsjsgsocvlq","instructions","5f58e69c670dc40a0ee2dc7b","5f60e3c0a3b16e07647b2ff9","5f60ec0d2087970008568d0c","false","19088.975000000006","<div align=left> Now, to practice, we kindly ask you to remember as many of the to-be-remembered pictures<br>of the previous learning phase as possible.<br><br>The pictures you were instructed to remember were the pictures followed by a <span style='color: dodgerblue; font-size: 28px'>O</span>.<br><br>In this memory test phase, you will also see some new pictures.<br>It is your task to remember whether you were presented with this specific picture in this study so far or not.<br>If you recognize an object (you have already seen it in this study), it is an OLD object. <br>If you do not recognize an object (you have NOT seen it in this study), it is a NEW object. <br><strong> Attention</strong>: As already mentioned, <span style='color: darkorange; font-size:28px'>Ø</span>-pictures will <strong>never</strong> appear in this memory test (neither as new objects). <br><br>Press SPACE to continue. </div>","32","","","","","","","","","","","","","","","","","","","",""
"html-keyboard-response","100","298740","0.0-3.0-6.0","w871vsjsgsocvlq","instructions","5f58e69c670dc40a0ee2dc7b","5f60e3c0a3b16e07647b2ff9","5f60ec0d2087970008568d0c","false","24176.485000000102","<div align=left> M and N no longer will appear on the left/right of the fixation cross. <br>Instead there will be a note at the bottom of the left or right side  <br>indicating which key you should press for an old or new object:  <br> <br>Press the <strong>right</strong> key to classify an object as <strong>old</strong> and press the <strong>left</strong>, to classify an object as <strong>new</strong>.<br>Please classify the objects as new/old by again placing your index finger on the 'S' and 'L' keys <br>and press them accordingly.<br><br><strong>Old:</strong> This object has been presented before. <br><strong>New:</strong> This object has <strong>not</strong> been presented.<br><br>Now please put your right and left index fingers on the 'S' and 'L' keys of your keyboard. <br>Please respond as fast and as accurately as possible!<br><br>Press SPACE to continue. </div>","32","","","","","","","","","","","","","","","","","","","",""
"categorize-image","101","301045","0.0-3.0-7.0-0.0","w871vsjsgsocvlq","practice_recog","5f58e69c670dc40a0ee2dc7b","5f60e3c0a3b16e07647b2ff9","5f60ec0d2087970008568d0c","true","1796.1050000000396","./Stimuli/ImagesPractice/SN220.jpg","83","","","","test","true","","83","","SN","SN220.jpg","","old","33","3","practice_recog","left","","","",""
"categorize-image","102","302347","0.0-3.0-7.0-0.1","w871vsjsgsocvlq","practice_recog","5f58e69c670dc40a0ee2dc7b","5f60e3c0a3b16e07647b2ff9","5f60ec0d2087970008568d0c","true","796.2349999999278","./Stimuli/ImagesPractice/SM61.jpg","83","","","","test","true","","83","","SM","SM61.jpg","","old","34","3","practice_recog","left","","","",""
"categorize-image","103","303588","0.0-3.0-7.0-0.2","w871vsjsgsocvlq","practice_recog","5f58e69c670dc40a0ee2dc7b","5f60e3c0a3b16e07647b2ff9","5f60ec0d2087970008568d0c","true","734.109999999986","./Stimuli/ImagesPractice/SM62.jpg","76","","","","test","true","","76","","SM","SM62.jpg","","new","35","3","practice_recog","right","","","",""
"categorize-image","104","304849","0.0-3.0-7.0-0.3","w871vsjsgsocvlq","practice_recog","5f58e69c670dc40a0ee2dc7b","5f60e3c0a3b16e07647b2ff9","5f60ec0d2087970008568d0c","true","757.6699999999255","./Stimuli/ImagesPractice/LM55.jpg","83","","","","test","true","","83","","LM","LM55.jpg","","old","36","3","practice_recog","left","","","",""
"categorize-image","105","306236","0.0-3.0-7.0-0.4","w871vsjsgsocvlq","practice_recog","5f58e69c670dc40a0ee2dc7b","5f60e3c0a3b16e07647b2ff9","5f60ec0d2087970008568d0c","true","879.9700000000885","./Stimuli/ImagesPractice/LM224.jpg","83","","","","test","true","","83","","LM","LM224.jpg","","old","37","3","practice_recog","left","","","",""
"categorize-image","106","307377","0.0-3.0-7.0-0.5","w871vsjsgsocvlq","practice_recog","5f58e69c670dc40a0ee2dc7b","5f60e3c0a3b16e07647b2ff9","5f60ec0d2087970008568d0c","true","637.5449999999255","./Stimuli/ImagesPractice/SN76.jpg","76","","","","test","true","","76","","SN","SN76.jpg","","new","38","3","practice_recog","right","","","",""
"categorize-image","107","308681","0.0-3.0-7.0-0.6","w871vsjsgsocvlq","practice_recog","5f58e69c670dc40a0ee2dc7b","5f60e3c0a3b16e07647b2ff9","5f60ec0d2087970008568d0c","true","800.0049999999464","./Stimuli/ImagesPractice/SN205.jpg","83","","","","test","true","","83","","SN","SN205.jpg","","old","39","3","practice_recog","left","","","",""
"categorize-image","108","309797","0.0-3.0-7.0-0.7","w871vsjsgsocvlq","practice_recog","5f58e69c670dc40a0ee2dc7b","5f60e3c0a3b16e07647b2ff9","5f60ec0d2087970008568d0c","true","607.9800000000396","./Stimuli/ImagesPractice/SM97.jpg","83","","","","test","true","","83","","SM","SM97.jpg","","old","40","3","practice_recog","left","","","",""
"categorize-image","109","310852","0.0-3.0-7.0-0.8","w871vsjsgsocvlq","practice_recog","5f58e69c670dc40a0ee2dc7b","5f60e3c0a3b16e07647b2ff9","5f60ec0d2087970008568d0c","true","547.9599999999627","./Stimuli/ImagesPractice/LN2.jpg","76","","","","test","true","","76","","LN","LN2.jpg","","new","41","3","practice_recog","right","","","",""
"categorize-image","110","312188","0.0-3.0-7.0-0.9","w871vsjsgsocvlq","practice_recog","5f58e69c670dc40a0ee2dc7b","5f60e3c0a3b16e07647b2ff9","5f60ec0d2087970008568d0c","true","828.7350000000442","./Stimuli/ImagesPractice/LM143.jpg","76","","","","test","true","","76","","LM","LM143.jpg","","new","42","3","practice_recog","right","","","",""
"categorize-image","111","313508","0.0-3.0-7.0-0.10","w871vsjsgsocvlq","practice_recog","5f58e69c670dc40a0ee2dc7b","5f60e3c0a3b16e07647b2ff9","5f60ec0d2087970008568d0c","true","812.8299999999581","./Stimuli/ImagesPractice/LN109.jpg","76","","","","test","true","","76","","LN","LN109.jpg","","new","43","3","practice_recog","right","","","",""
"categorize-image","112","314629","0.0-3.0-7.0-0.11","w871vsjsgsocvlq","practice_recog","5f58e69c670dc40a0ee2dc7b","5f60e3c0a3b16e07647b2ff9","5f60ec0d2087970008568d0c","true","613.2949999999837","./Stimuli/ImagesPractice/LM239.jpg","83","","","","test","true","","83","","LM","LM239.jpg","","old","44","3","practice_recog","left","","","",""
"categorize-image","113","315781","0.0-3.0-7.0-0.12","w871vsjsgsocvlq","practice_recog","5f58e69c670dc40a0ee2dc7b","5f60e3c0a3b16e07647b2ff9","5f60ec0d2087970008568d0c","true","644.5450000000419","./Stimuli/ImagesPractice/LN4.jpg","83","","","","test","true","","83","","LN","LN4.jpg","","old","45","3","practice_recog","left","","","",""
"categorize-image","114","316967","0.0-3.0-7.0-0.13","w871vsjsgsocvlq","practice_recog","5f58e69c670dc40a0ee2dc7b","5f60e3c0a3b16e07647b2ff9","5f60ec0d2087970008568d0c","true","683.6849999999977","./Stimuli/ImagesPractice/SM37.jpg","76","","","","test","true","","76","","SM","SM37.jpg","","new","46","3","practice_recog","right","","","",""
"categorize-image","115","318051","0.0-3.0-7.0-0.14","w871vsjsgsocvlq","practice_recog","5f58e69c670dc40a0ee2dc7b","5f60e3c0a3b16e07647b2ff9","5f60ec0d2087970008568d0c","true","578.2249999999767","./Stimuli/ImagesPractice/SN222.jpg","76","","","","test","true","","76","","SN","SN222.jpg","","new","47","3","practice_recog","right","","","",""
"categorize-image","116","319225","0.0-3.0-7.0-0.15","w871vsjsgsocvlq","practice_recog","5f58e69c670dc40a0ee2dc7b","5f60e3c0a3b16e07647b2ff9","5f60ec0d2087970008568d0c","true","669.2449999999953","./Stimuli/ImagesPractice/LN72.jpg","76","","","","test","true","","76","","LN","LN72.jpg","","new","48","3","practice_recog","right","","","",""
"html-keyboard-response","117","321571","0.0-3.0-8.0","w871vsjsgsocvlq","instructions","5f58e69c670dc40a0ee2dc7b","5f60e3c0a3b16e07647b2ff9","5f60ec0d2087970008568d0c","false","2344.8850000001257","<div align=left> Great!<br><br>Are you ready to continue?<br>If you want to reread the instructions and redo the practice trials, please <br>press „Z“.<br><br>You can proceed when you are ready.<br><br>After the presentation of each object, you will receive an instruction whether to <br>remember or to forget the object.<br>We will test your memory of the following pictures only at the very end of <br>the experiment after all learning blocks are completed. <br><br>Press SPACE to CONTINUE when you are ready. </div>","32","","","","","","","","","","","","","","","","","","","",""
"html-keyboard-response","118","332962","0.0-4.0-0.0","w871vsjsgsocvlq","instructions","5f58e69c670dc40a0ee2dc7b","5f60e3c0a3b16e07647b2ff9","5f60ec0d2087970008568d0c","false","11388.930000000051","<div align=left> The actual experiment is about to start.<br>The practice trials are over!<br><br>Please always respond both fast and accurately!<br><br>Remember: <br> <br><li> Please place your index fingers on the <strong>'S'</strong> and <strong>'L'</strong> keys <br>to respond as fast and accurately as possible.</li><li> Every picture can be classified as either mechanical or non-mechanical.</li><li> If you do not respond in time or commit an error, you will receive a corresponding feedback.<br> Please try to respond as <strong> fast </strong> and as <strong> accurately as possible </strong>.</li><li> Remember the <span style='color: dodgerblue; font-size: 28px'>O</span> pictures. <br></li><li> Please minimize distractions and stay focused. </li><br><br>Press SPACE to START.</div>","32","","","","","","","","","","","","","","","","","","","",""
"html-keyboard-response","119","333666","0.0-4.0-1.0-0.0","w871vsjsgsocvlq","prime","5f58e69c670dc40a0ee2dc7b","5f60e3c0a3b16e07647b2ff9","5f60ec0d2087970008568d0c","false","null","<span style=""color: black; font-size: 48px"">N + M</span>","null","","","","resp_prompt","","","","","","","","","","","","","","","",""
"categorize-image","120","334332","0.0-4.0-1.0-1.0","w871vsjsgsocvlq","prime","5f58e69c670dc40a0ee2dc7b","5f60e3c0a3b16e07647b2ff9","5f60ec0d2087970008568d0c","true","661.4899999999907","./Stimuli/SelectedImages/SM/SM74.bmp","76","","","","test","true","N + M","76","repetition","SM","SM74.bmp","forget","","49","3","prime1","right","","","",""
"html-keyboard-response","121","336337","0.0-4.0-1.0-3.0","w871vsjsgsocvlq","prime","5f58e69c670dc40a0ee2dc7b","5f60e3c0a3b16e07647b2ff9","5f60ec0d2087970008568d0c","false","null","<div style=""align-items: center; display: flex; color: darkorange; font-size: 90px""><b>ø</b></div>","null","","","","forget_cue","","","","","","","","","","","","","","","",""
"html-keyboard-response","122","337039","0.0-4.0-1.0-0.1","w871vsjsgsocvlq","prime","5f58e69c670dc40a0ee2dc7b","5f60e3c0a3b16e07647b2ff9","5f60ec0d2087970008568d0c","false","null","<span style=""color: black; font-size: 48px"">M + N</span>","null","","","","resp_prompt","","","","","","","","","","","","","","","",""
"categorize-image","123","338044","0.0-4.0-1.0-1.1","w871vsjsgsocvlq","prime","5f58e69c670dc40a0ee2dc7b","5f60e3c0a3b16e07647b2ff9","5f60ec0d2087970008568d0c","true","999.5199999999604","./Stimuli/SelectedImages/LM/LM58.bmp","83","","","","test","true","M + N","83","repetition","LM","LM58.bmp","forget","","50","3","prime1","left","","","",""
"html-keyboard-response","124","340048","0.0-4.0-1.0-3.1","w871vsjsgsocvlq","prime","5f58e69c670dc40a0ee2dc7b","5f60e3c0a3b16e07647b2ff9","5f60ec0d2087970008568d0c","false","null","<div style=""align-items: center; display: flex; color: darkorange; font-size: 90px""><b>ø</b></div>","null","","","","forget_cue","","","","","","","","","","","","","","","",""
"html-keyboard-response","125","340753","0.0-4.0-1.0-0.2","w871vsjsgsocvlq","prime","5f58e69c670dc40a0ee2dc7b","5f60e3c0a3b16e07647b2ff9","5f60ec0d2087970008568d0c","false","null","<span style=""color: black; font-size: 48px"">M + N</span>","null","","","","resp_prompt","","","","","","","","","","","","","","","",""
"categorize-image","126","341669","0.0-4.0-1.0-1.2","w871vsjsgsocvlq","prime","5f58e69c670dc40a0ee2dc7b","5f60e3c0a3b16e07647b2ff9","5f60ec0d2087970008568d0c","true","912.0900000000838","./Stimuli/SelectedImages/SM/SM24.bmp","83","","","","test","true","M + N","83","repetition","SM","SM24.bmp","forget","","51","3","prime1","left","","","",""
"html-keyboard-response","127","343673","0.0-4.0-1.0-3.2","w871vsjsgsocvlq","prime","5f58e69c670dc40a0ee2dc7b","5f60e3c0a3b16e07647b2ff9","5f60ec0d2087970008568d0c","false","null","<div style=""align-items: center; display: flex; color: darkorange; font-size: 90px""><b>ø</b></div>","null","","","","forget_cue","","","","","","","","","","","","","","","",""
"html-keyboard-response","128","344375","0.0-4.0-1.0-0.3","w871vsjsgsocvlq","prime","5f58e69c670dc40a0ee2dc7b","5f60e3c0a3b16e07647b2ff9","5f60ec0d2087970008568d0c","false","null","<span style=""color: black; font-size: 48px"">M + N</span>","null","","","","resp_prompt","","","","","","","","","","","","","","","",""
"categorize-image","129","345309","0.0-4.0-1.0-1.3","w871vsjsgsocvlq","prime","5f58e69c670dc40a0ee2dc7b","5f60e3c0a3b16e07647b2ff9","5f60ec0d2087970008568d0c","true","928.7299999999814","./Stimuli/SelectedImages/LN/LN9.bmp","76","","","","test","true","M + N","76","switch","LN","LN9.bmp","forget","","52","3","prime1","right","","","",""
"html-keyboard-response","130","347315","0.0-4.0-1.0-3.3","w871vsjsgsocvlq","prime","5f58e69c670dc40a0ee2dc7b","5f60e3c0a3b16e07647b2ff9","5f60ec0d2087970008568d0c","false","null","<div style=""align-items: center; display: flex; color: darkorange; font-size: 90px""><b>ø</b></div>","null","","","","forget_cue","","","","","","","","","","","","","","","",""
"html-keyboard-response","131","348022","0.0-4.0-1.0-0.4","w871vsjsgsocvlq","prime","5f58e69c670dc40a0ee2dc7b","5f60e3c0a3b16e07647b2ff9","5f60ec0d2087970008568d0c","false","null","<span style=""color: black; font-size: 48px"">M + N</span>","null","","","","resp_prompt","","","","","","","","","","","","","","","",""
"categorize-image","132","348898","0.0-4.0-1.0-1.4","w871vsjsgsocvlq","prime","5f58e69c670dc40a0ee2dc7b","5f60e3c0a3b16e07647b2ff9","5f60ec0d2087970008568d0c","true","871.7400000000489","./Stimuli/SelectedImages/LM/LM48.bmp","83","","","","test","true","M + N","83","repetition","LM","LM48.bmp","remember","","53","3","prime1","left","","","",""
"html-keyboard-response","133","350903","0.0-4.0-1.0-3.4","w871vsjsgsocvlq","prime","5f58e69c670dc40a0ee2dc7b","5f60e3c0a3b16e07647b2ff9","5f60ec0d2087970008568d0c","false","null","<div style=""align-items: center; display: flex; color: dodgerblue; font-size: 90px""><b>o</b></div>","null","","","","forget_cue","","","","","","","","","","","","","","","",""
"html-keyboard-response","134","351610","0.0-4.0-1.0-0.5","w871vsjsgsocvlq","prime","5f58e69c670dc40a0ee2dc7b","5f60e3c0a3b16e07647b2ff9","5f60ec0d2087970008568d0c","false","null","<span style=""color: black; font-size: 48px"">N + M</span>","null","","","","resp_prompt","","","","","","","","","","","","","","","",""
"categorize-image","135","352708","0.0-4.0-1.0-1.5","w871vsjsgsocvlq","prime","5f58e69c670dc40a0ee2dc7b","5f60e3c0a3b16e07647b2ff9","5f60ec0d2087970008568d0c","true","1093.475000000035","./Stimuli/SelectedImages/SM/SM205.bmp","83","","","","test","false","N + M","76","repetition","SM","SM205.bmp","forget","","54","3","prime1","left","","","",""
"html-keyboard-response","136","353210","0.0-4.0-1.0-2.5-0.5","w871vsjsgsocvlq","prime","5f58e69c670dc40a0ee2dc7b","5f60e3c0a3b16e07647b2ff9","5f60ec0d2087970008568d0c","false","null","<span style=""color: red; font-size: 48px"">Error!</span>","null","","","","feedback","","","","","","","","","","","","","","","",""
"html-keyboard-response","137","355217","0.0-4.0-1.0-3.5","w871vsjsgsocvlq","prime","5f58e69c670dc40a0ee2dc7b","5f60e3c0a3b16e07647b2ff9","5f60ec0d2087970008568d0c","false","null","<div style=""align-items: center; display: flex; color: darkorange; font-size: 90px""><b>ø</b></div>","null","","","","forget_cue","","","","","","","","","","","","","","","",""
"html-keyboard-response","138","355923","0.0-4.0-1.0-0.6","w871vsjsgsocvlq","prime","5f58e69c670dc40a0ee2dc7b","5f60e3c0a3b16e07647b2ff9","5f60ec0d2087970008568d0c","false","null","<span style=""color: black; font-size: 48px"">N + M</span>","null","","","","resp_prompt","","","","","","","","","","","","","","","",""
"categorize-image","139","356913","0.0-4.0-1.0-1.6","w871vsjsgsocvlq","prime","5f58e69c670dc40a0ee2dc7b","5f60e3c0a3b16e07647b2ff9","5f60ec0d2087970008568d0c","true","985.3799999999464","./Stimuli/SelectedImages/LM/LM100.bmp","83","","","","test","false","N + M","76","switch","LM","LM100.bmp","forget","","55","3","prime1","left","","","",""
"html-keyboard-response","140","357416","0.0-4.0-1.0-2.6-0.6","w871vsjsgsocvlq","prime","5f58e69c670dc40a0ee2dc7b","5f60e3c0a3b16e07647b2ff9","5f60ec0d2087970008568d0c","false","null","<span style=""color: red; font-size: 48px"">Error!</span>","null","","","","feedback","","","","","","","","","","","","","","","",""
"html-keyboard-response","141","359422","0.0-4.0-1.0-3.6","w871vsjsgsocvlq","prime","5f58e69c670dc40a0ee2dc7b","5f60e3c0a3b16e07647b2ff9","5f60ec0d2087970008568d0c","false","null","<div style=""align-items: center; display: flex; color: darkorange; font-size: 90px""><b>ø</b></div>","null","","","","forget_cue","","","","","","","","","","","","","","","",""
"html-keyboard-response","142","360125","0.0-4.0-1.0-0.7","w871vsjsgsocvlq","prime","5f58e69c670dc40a0ee2dc7b","5f60e3c0a3b16e07647b2ff9","5f60ec0d2087970008568d0c","false","null","<span style=""color: black; font-size: 48px"">M + N</span>","null","","","","resp_prompt","","","","","","","","","","","","","","","",""
"categorize-image","143","361106","0.0-4.0-1.0-1.7","w871vsjsgsocvlq","prime","5f58e69c670dc40a0ee2dc7b","5f60e3c0a3b16e07647b2ff9","5f60ec0d2087970008568d0c","true","976.7799999999697","./Stimuli/SelectedImages/LN/LN111.bmp","83","","","","test","false","M + N","76","repetition","LN","LN111.bmp","remember","","56","3","prime1","left","","","",""
"html-keyboard-response","144","361608","0.0-4.0-1.0-2.7-0.7","w871vsjsgsocvlq","prime","5f58e69c670dc40a0ee2dc7b","5f60e3c0a3b16e07647b2ff9","5f60ec0d2087970008568d0c","false","null","<span style=""color: red; font-size: 48px"">Error!</span>","null","","","","feedback","","","","","","","","","","","","","","","",""
"html-keyboard-response","145","363615","0.0-4.0-1.0-3.7","w871vsjsgsocvlq","prime","5f58e69c670dc40a0ee2dc7b","5f60e3c0a3b16e07647b2ff9","5f60ec0d2087970008568d0c","false","null","<div style=""align-items: center; display: flex; color: dodgerblue; font-size: 90px""><b>o</b></div>","null","","","","forget_cue","","","","","","","","","","","","","","","",""
"html-keyboard-response","146","364321","0.0-4.0-1.0-0.8","w871vsjsgsocvlq","prime","5f58e69c670dc40a0ee2dc7b","5f60e3c0a3b16e07647b2ff9","5f60ec0d2087970008568d0c","false","null","<span style=""color: black; font-size: 48px"">N + M</span>","null","","","","resp_prompt","","","","","","","","","","","","","","","",""
"categorize-image","147","365023","0.0-4.0-1.0-1.8","w871vsjsgsocvlq","prime","5f58e69c670dc40a0ee2dc7b","5f60e3c0a3b16e07647b2ff9","5f60ec0d2087970008568d0c","true","697.0400000000373","./Stimuli/SelectedImages/LM/LM57.bmp","76","","","","test","true","N + M","76","repetition","LM","LM57.bmp","forget","","57","3","prime1","right","","","",""
"html-keyboard-response","148","367025","0.0-4.0-1.0-3.8","w871vsjsgsocvlq","prime","5f58e69c670dc40a0ee2dc7b","5f60e3c0a3b16e07647b2ff9","5f60ec0d2087970008568d0c","false","null","<div style=""align-items: center; display: flex; color: darkorange; font-size: 90px""><b>ø</b></div>","null","","","","forget_cue","","","","","","","","","","","","","","","",""
"html-keyboard-response","149","367728","0.0-4.0-1.0-0.9","w871vsjsgsocvlq","prime","5f58e69c670dc40a0ee2dc7b","5f60e3c0a3b16e07647b2ff9","5f60ec0d2087970008568d0c","false","null","<span style=""color: black; font-size: 48px"">N + M</span>","null","","","","resp_prompt","","","","","","","","","","","","","","","",""
"categorize-image","150","368560","0.0-4.0-1.0-1.9","w871vsjsgsocvlq","prime","5f58e69c670dc40a0ee2dc7b","5f60e3c0a3b16e07647b2ff9","5f60ec0d2087970008568d0c","true","827.4000000000233","./Stimuli/SelectedImages/LN/LN131.bmp","76","","","","test","false","N + M","83","repetition","LN","LN131.bmp","remember","","58","3","prime1","right","","","",""
"html-keyboard-response","151","369066","0.0-4.0-1.0-2.9-0.9","w871vsjsgsocvlq","prime","5f58e69c670dc40a0ee2dc7b","5f60e3c0a3b16e07647b2ff9","5f60ec0d2087970008568d0c","false","null","<span style=""color: red; font-size: 48px"">Error!</span>","null","","","","feedback","","","","","","","","","","","","","","","",""
"html-keyboard-response","152","371070","0.0-4.0-1.0-3.9","w871vsjsgsocvlq","prime","5f58e69c670dc40a0ee2dc7b","5f60e3c0a3b16e07647b2ff9","5f60ec0d2087970008568d0c","false","null","<div style=""align-items: center; display: flex; color: dodgerblue; font-size: 90px""><b>o</b></div>","null","","","","forget_cue","","","","","","","","","","","","","","","",""
"html-keyboard-response","153","371780","0.0-4.0-1.0-0.10","w871vsjsgsocvlq","prime","5f58e69c670dc40a0ee2dc7b","5f60e3c0a3b16e07647b2ff9","5f60ec0d2087970008568d0c","false","null","<span style=""color: black; font-size: 48px"">N + M</span>","null","","","","resp_prompt","","","","","","","","","","","","","","","",""
"categorize-image","154","372645","0.0-4.0-1.0-1.10","w871vsjsgsocvlq","prime","5f58e69c670dc40a0ee2dc7b","5f60e3c0a3b16e07647b2ff9","5f60ec0d2087970008568d0c","true","859.5900000000256","./Stimuli/SelectedImages/SN/SN240.bmp","76","","","","test","false","N + M","83","switch","SN","SN240.bmp","remember","","59","3","prime1","right","","","",""
"html-keyboard-response","155","373151","0.0-4.0-1.0-2.10-0.10","w871vsjsgsocvlq","prime","5f58e69c670dc40a0ee2dc7b","5f60e3c0a3b16e07647b2ff9","5f60ec0d2087970008568d0c","false","null","<span style=""color: red; font-size: 48px"">Error!</span>","null","","","","feedback","","","","","","","","","","","","","","","",""
"html-keyboard-response","156","375154","0.0-4.0-1.0-3.10","w871vsjsgsocvlq","prime","5f58e69c670dc40a0ee2dc7b","5f60e3c0a3b16e07647b2ff9","5f60ec0d2087970008568d0c","false","null","<div style=""align-items: center; display: flex; color: dodgerblue; font-size: 90px""><b>o</b></div>","null","","","","forget_cue","","","","","","","","","","","","","","","",""
"html-keyboard-response","157","375856","0.0-4.0-1.0-0.11","w871vsjsgsocvlq","prime","5f58e69c670dc40a0ee2dc7b","5f60e3c0a3b16e07647b2ff9","5f60ec0d2087970008568d0c","false","null","<span style=""color: black; font-size: 48px"">M + N</span>","null","","","","resp_prompt","","","","","","","","","","","","","","","",""
"categorize-image","158","376556","0.0-4.0-1.0-1.11","w871vsjsgsocvlq","prime","5f58e69c670dc40a0ee2dc7b","5f60e3c0a3b16e07647b2ff9","5f60ec0d2087970008568d0c","true","695.1450000000186","./Stimuli/SelectedImages/SN/SN93.bmp","76","","","","test","true","M + N","76","repetition","SN","SN93.bmp","forget","","60","3","prime1","right","","","",""
"html-keyboard-response","159","378560","0.0-4.0-1.0-3.11","w871vsjsgsocvlq","prime","5f58e69c670dc40a0ee2dc7b","5f60e3c0a3b16e07647b2ff9","5f60ec0d2087970008568d0c","false","null","<div style=""align-items: center; display: flex; color: darkorange; font-size: 90px""><b>ø</b></div>","null","","","","forget_cue","","","","","","","","","","","","","","","",""
"html-keyboard-response","160","379262","0.0-4.0-1.0-0.12","w871vsjsgsocvlq","prime","5f58e69c670dc40a0ee2dc7b","5f60e3c0a3b16e07647b2ff9","5f60ec0d2087970008568d0c","false","null","<span style=""color: black; font-size: 48px"">N + M</span>","null","","","","resp_prompt","","","","","","","","","","","","","","","",""
"categorize-image","161","379740","0.0-4.0-1.0-1.12","w871vsjsgsocvlq","prime","5f58e69c670dc40a0ee2dc7b","5f60e3c0a3b16e07647b2ff9","5f60ec0d2087970008568d0c","true","473.89000000001397","./Stimuli/SelectedImages/SN/SN179.bmp","83","","","","test","true","N + M","83","repetition","SN","SN179.bmp","remember","","61","3","prime1","left","","","",""
"html-keyboard-response","162","381752","0.0-4.0-1.0-3.12","w871vsjsgsocvlq","prime","5f58e69c670dc40a0ee2dc7b","5f60e3c0a3b16e07647b2ff9","5f60ec0d2087970008568d0c","false","null","<div style=""align-items: center; display: flex; color: dodgerblue; font-size: 90px""><b>o</b></div>","null","","","","forget_cue","","","","","","","","","","","","","","","",""
"html-keyboard-response","163","382462","0.0-4.0-1.0-0.13","w871vsjsgsocvlq","prime","5f58e69c670dc40a0ee2dc7b","5f60e3c0a3b16e07647b2ff9","5f60ec0d2087970008568d0c","false","null","<span style=""color: black; font-size: 48px"">N + M</span>","null","","","","resp_prompt","","","","","","","","","","","","","","","",""
"categorize-image","164","383636","0.0-4.0-1.0-1.13","w871vsjsgsocvlq","prime","5f58e69c670dc40a0ee2dc7b","5f60e3c0a3b16e07647b2ff9","5f60ec0d2087970008568d0c","true","1170.3150000000605","./Stimuli/SelectedImages/SM/SM148.bmp","76","","","","test","true","N + M","76","switch","SM","SM148.bmp","remember","","62","3","prime1","right","","","",""
"html-keyboard-response","165","385644","0.0-4.0-1.0-3.13","w871vsjsgsocvlq","prime","5f58e69c670dc40a0ee2dc7b","5f60e3c0a3b16e07647b2ff9","5f60ec0d2087970008568d0c","false","null","<div style=""align-items: center; display: flex; color: dodgerblue; font-size: 90px""><b>o</b></div>","null","","","","forget_cue","","","","","","","","","","","","","","","",""
"html-keyboard-response","166","386354","0.0-4.0-1.0-0.14","w871vsjsgsocvlq","prime","5f58e69c670dc40a0ee2dc7b","5f60e3c0a3b16e07647b2ff9","5f60ec0d2087970008568d0c","false","null","<span style=""color: black; font-size: 48px"">M + N</span>","null","","","","resp_prompt","","","","","","","","","","","","","","","",""
"categorize-image","167","387174","0.0-4.0-1.0-1.14","w871vsjsgsocvlq","prime","5f58e69c670dc40a0ee2dc7b","5f60e3c0a3b16e07647b2ff9","5f60ec0d2087970008568d0c","true","813.4800000000396","./Stimuli/SelectedImages/LM/LM209.bmp","83","","","","test","true","M + N","83","switch","LM","LM209.bmp","forget","","63","3","prime1","left","","","",""
"html-keyboard-response","168","389180","0.0-4.0-1.0-3.14","w871vsjsgsocvlq","prime","5f58e69c670dc40a0ee2dc7b","5f60e3c0a3b16e07647b2ff9","5f60ec0d2087970008568d0c","false","null","<div style=""align-items: center; display: flex; color: darkorange; font-size: 90px""><b>ø</b></div>","null","","","","forget_cue","","","","","","","","","","","","","","","",""
"html-keyboard-response","169","389888","0.0-4.0-1.0-0.15","w871vsjsgsocvlq","prime","5f58e69c670dc40a0ee2dc7b","5f60e3c0a3b16e07647b2ff9","5f60ec0d2087970008568d0c","false","null","<span style=""color: black; font-size: 48px"">M + N</span>","null","","","","resp_prompt","","","","","","","","","","","","","","","",""
"categorize-image","170","390584","0.0-4.0-1.0-1.15","w871vsjsgsocvlq","prime","5f58e69c670dc40a0ee2dc7b","5f60e3c0a3b16e07647b2ff9","5f60ec0d2087970008568d0c","true","690.9499999998952","./Stimuli/SelectedImages/SN/SN140.bmp","76","","","","test","true","M + N","76","switch","SN","SN140.bmp","remember","","64","3","prime1","right","","","",""
"html-keyboard-response","171","392586","0.0-4.0-1.0-3.15","w871vsjsgsocvlq","prime","5f58e69c670dc40a0ee2dc7b","5f60e3c0a3b16e07647b2ff9","5f60ec0d2087970008568d0c","false","null","<div style=""align-items: center; display: flex; color: dodgerblue; font-size: 90px""><b>o</b></div>","null","","","","forget_cue","","","","","","","","","","","","","","","",""
"html-keyboard-response","172","393295","0.0-4.0-1.0-0.16","w871vsjsgsocvlq","prime","5f58e69c670dc40a0ee2dc7b","5f60e3c0a3b16e07647b2ff9","5f60ec0d2087970008568d0c","false","null","<span style=""color: black; font-size: 48px"">N + M</span>","null","","","","resp_prompt","","","","","","","","","","","","","","","",""
"categorize-image","173","394093","0.0-4.0-1.0-1.16","w871vsjsgsocvlq","prime","5f58e69c670dc40a0ee2dc7b","5f60e3c0a3b16e07647b2ff9","5f60ec0d2087970008568d0c","true","793.6049999999814","./Stimuli/SelectedImages/LM/LM129.bmp","83","","","","test","false","N + M","76","repetition","LM","LM129.bmp","forget","","65","3","prime1","left","","","",""
"html-keyboard-response","174","394595","0.0-4.0-1.0-2.16-0.16","w871vsjsgsocvlq","prime","5f58e69c670dc40a0ee2dc7b","5f60e3c0a3b16e07647b2ff9","5f60ec0d2087970008568d0c","false","null","<span style=""color: red; font-size: 48px"">Error!</span>","null","","","","feedback","","","","","","","","","","","","","","","",""
"html-keyboard-response","175","396601","0.0-4.0-1.0-3.16","w871vsjsgsocvlq","prime","5f58e69c670dc40a0ee2dc7b","5f60e3c0a3b16e07647b2ff9","5f60ec0d2087970008568d0c","false","null","<div style=""align-items: center; display: flex; color: darkorange; font-size: 90px""><b>ø</b></div>","null","","","","forget_cue","","","","","","","","","","","","","","","",""
"html-keyboard-response","176","397305","0.0-4.0-1.0-0.17","w871vsjsgsocvlq","prime","5f58e69c670dc40a0ee2dc7b","5f60e3c0a3b16e07647b2ff9","5f60ec0d2087970008568d0c","false","null","<span style=""color: black; font-size: 48px"">N + M</span>","null","","","","resp_prompt","","","","","","","","","","","","","","","",""
"categorize-image","177","398437","0.0-4.0-1.0-1.17","w871vsjsgsocvlq","prime","5f58e69c670dc40a0ee2dc7b","5f60e3c0a3b16e07647b2ff9","5f60ec0d2087970008568d0c","true","1127.164999999979","./Stimuli/SelectedImages/SN/SN181.bmp","83","","","","test","true","N + M","83","switch","SN","SN181.bmp","forget","","66","3","prime1","left","","","",""
"html-keyboard-response","178","400446","0.0-4.0-1.0-3.17","w871vsjsgsocvlq","prime","5f58e69c670dc40a0ee2dc7b","5f60e3c0a3b16e07647b2ff9","5f60ec0d2087970008568d0c","false","null","<div style=""align-items: center; display: flex; color: darkorange; font-size: 90px""><b>ø</b></div>","null","","","","forget_cue","","","","","","","","","","","","","","","",""
"html-keyboard-response","179","401149","0.0-4.0-1.0-0.18","w871vsjsgsocvlq","prime","5f58e69c670dc40a0ee2dc7b","5f60e3c0a3b16e07647b2ff9","5f60ec0d2087970008568d0c","false","null","<span style=""color: black; font-size: 48px"">N + M</span>","null","","","","resp_prompt","","","","","","","","","","","","","","","",""
"categorize-image","180","401782","0.0-4.0-1.0-1.18","w871vsjsgsocvlq","prime","5f58e69c670dc40a0ee2dc7b","5f60e3c0a3b16e07647b2ff9","5f60ec0d2087970008568d0c","true","627.4799999999814","./Stimuli/SelectedImages/LN/LN149.bmp","83","","","","test","true","N + M","83","repetition","LN","LN149.bmp","forget","","67","3","prime1","left","","","",""
"html-keyboard-response","181","403793","0.0-4.0-1.0-3.18","w871vsjsgsocvlq","prime","5f58e69c670dc40a0ee2dc7b","5f60e3c0a3b16e07647b2ff9","5f60ec0d2087970008568d0c","false","null","<div style=""align-items: center; display: flex; color: darkorange; font-size: 90px""><b>ø</b></div>","null","","","","forget_cue","","","","","","","","","","","","","","","",""
"html-keyboard-response","182","404498","0.0-4.0-1.0-0.19","w871vsjsgsocvlq","prime","5f58e69c670dc40a0ee2dc7b","5f60e3c0a3b16e07647b2ff9","5f60ec0d2087970008568d0c","false","null","<span style=""color: black; font-size: 48px"">M + N</span>","null","","","","resp_prompt","","","","","","","","","","","","","","","",""
"categorize-image","183","405542","0.0-4.0-1.0-1.19","w871vsjsgsocvlq","prime","5f58e69c670dc40a0ee2dc7b","5f60e3c0a3b16e07647b2ff9","5f60ec0d2087970008568d0c","true","1040.0399999999208","./Stimuli/SelectedImages/SM/SM73.bmp","83","","","","test","true","M + N","83","switch","SM","SM73.bmp","forget","","68","3","prime1","left","","","",""
"html-keyboard-response","184","407550","0.0-4.0-1.0-3.19","w871vsjsgsocvlq","prime","5f58e69c670dc40a0ee2dc7b","5f60e3c0a3b16e07647b2ff9","5f60ec0d2087970008568d0c","false","null","<div style=""align-items: center; display: flex; color: darkorange; font-size: 90px""><b>ø</b></div>","null","","","","forget_cue","","","","","","","","","","","","","","","",""
"html-keyboard-response","185","408254","0.0-4.0-1.0-0.20","w871vsjsgsocvlq","prime","5f58e69c670dc40a0ee2dc7b","5f60e3c0a3b16e07647b2ff9","5f60ec0d2087970008568d0c","false","null","<span style=""color: black; font-size: 48px"">M + N</span>","null","","","","resp_prompt","","","","","","","","","","","","","","","",""
"categorize-image","186","408915","0.0-4.0-1.0-1.20","w871vsjsgsocvlq","prime","5f58e69c670dc40a0ee2dc7b","5f60e3c0a3b16e07647b2ff9","5f60ec0d2087970008568d0c","true","656.5850000000792","./Stimuli/SelectedImages/LM/LM179.bmp","83","","","","test","true","M + N","83","repetition","LM","LM179.bmp","remember","","69","3","prime1","left","","","",""
"html-keyboard-response","187","410925","0.0-4.0-1.0-3.20","w871vsjsgsocvlq","prime","5f58e69c670dc40a0ee2dc7b","5f60e3c0a3b16e07647b2ff9","5f60ec0d2087970008568d0c","false","null","<div style=""align-items: center; display: flex; color: dodgerblue; font-size: 90px""><b>o</b></div>","null","","","","forget_cue","","","","","","","","","","","","","","","",""
"html-keyboard-response","188","411631","0.0-4.0-1.0-0.21","w871vsjsgsocvlq","prime","5f58e69c670dc40a0ee2dc7b","5f60e3c0a3b16e07647b2ff9","5f60ec0d2087970008568d0c","false","null","<span style=""color: black; font-size: 48px"">M + N</span>","null","","","","resp_prompt","","","","","","","","","","","","","","","",""
"categorize-image","189","412453","0.0-4.0-1.0-1.21","w871vsjsgsocvlq","prime","5f58e69c670dc40a0ee2dc7b","5f60e3c0a3b16e07647b2ff9","5f60ec0d2087970008568d0c","true","817.0300000000861","./Stimuli/SelectedImages/LM/LM157.bmp","83","","","","test","true","M + N","83","repetition","LM","LM157.bmp","forget","","70","3","prime1","left","","","",""
"html-keyboard-response","190","414459","0.0-4.0-1.0-3.21","w871vsjsgsocvlq","prime","5f58e69c670dc40a0ee2dc7b","5f60e3c0a3b16e07647b2ff9","5f60ec0d2087970008568d0c","false","null","<div style=""align-items: center; display: flex; color: darkorange; font-size: 90px""><b>ø</b></div>","null","","","","forget_cue","","","","","","","","","","","","","","","",""
"html-keyboard-response","191","415162","0.0-4.0-1.0-0.22","w871vsjsgsocvlq","prime","5f58e69c670dc40a0ee2dc7b","5f60e3c0a3b16e07647b2ff9","5f60ec0d2087970008568d0c","false","null","<span style=""color: black; font-size: 48px"">N + M</span>","null","","","","resp_prompt","","","","","","","","","","","","","","","",""
"categorize-image","192","415540","0.0-4.0-1.0-1.22","w871vsjsgsocvlq","prime","5f58e69c670dc40a0ee2dc7b","5f60e3c0a3b16e07647b2ff9","5f60ec0d2087970008568d0c","true","373.6800000000512","./Stimuli/SelectedImages/LN/LN101.bmp","76","","","","test","false","N + M","83","switch","LN","LN101.bmp","forget","","71","3","prime1","right","","","",""
"html-keyboard-response","193","416044","0.0-4.0-1.0-2.22-0.22","w871vsjsgsocvlq","prime","5f58e69c670dc40a0ee2dc7b","5f60e3c0a3b16e07647b2ff9","5f60ec0d2087970008568d0c","false","null","<span style=""color: red; font-size: 48px"">Error!</span>","null","","","","feedback","","","","","","","","","","","","","","","",""
"html-keyboard-response","194","418053","0.0-4.0-1.0-3.22","w871vsjsgsocvlq","prime","5f58e69c670dc40a0ee2dc7b","5f60e3c0a3b16e07647b2ff9","5f60ec0d2087970008568d0c","false","null","<div style=""align-items: center; display: flex; color: darkorange; font-size: 90px""><b>ø</b></div>","null","","","","forget_cue","","","","","","","","","","","","","","","",""
"html-keyboard-response","195","418764","0.0-4.0-1.0-0.23","w871vsjsgsocvlq","prime","5f58e69c670dc40a0ee2dc7b","5f60e3c0a3b16e07647b2ff9","5f60ec0d2087970008568d0c","false","null","<span style=""color: black; font-size: 48px"">M + N</span>","null","","","","resp_prompt","","","","","","","","","","","","","","","",""
"categorize-image","196","419437","0.0-4.0-1.0-1.23","w871vsjsgsocvlq","prime","5f58e69c670dc40a0ee2dc7b","5f60e3c0a3b16e07647b2ff9","5f60ec0d2087970008568d0c","true","670.0849999999627","./Stimuli/SelectedImages/LN/LN128.bmp","76","","","","test","true","M + N","76","switch","LN","LN128.bmp","remember","","72","3","prime1","right","","","",""
"html-keyboard-response","197","421449","0.0-4.0-1.0-3.23","w871vsjsgsocvlq","prime","5f58e69c670dc40a0ee2dc7b","5f60e3c0a3b16e07647b2ff9","5f60ec0d2087970008568d0c","false","null","<div style=""align-items: center; display: flex; color: dodgerblue; font-size: 90px""><b>o</b></div>","null","","","","forget_cue","","","","","","","","","","","","","","","",""
"html-keyboard-response","198","422157","0.0-4.0-1.0-0.24","w871vsjsgsocvlq","prime","5f58e69c670dc40a0ee2dc7b","5f60e3c0a3b16e07647b2ff9","5f60ec0d2087970008568d0c","false","null","<span style=""color: black; font-size: 48px"">N + M</span>","null","","","","resp_prompt","","","","","","","","","","","","","","","",""
"categorize-image","199","423158","0.0-4.0-1.0-1.24","w871vsjsgsocvlq","prime","5f58e69c670dc40a0ee2dc7b","5f60e3c0a3b16e07647b2ff9","5f60ec0d2087970008568d0c","true","996.4949999999953","./Stimuli/SelectedImages/LM/LM235.bmp","76","","","","test","true","N + M","76","repetition","LM","LM235.bmp","remember","","73","3","prime1","right","","","",""
"html-keyboard-response","200","425164","0.0-4.0-1.0-3.24","w871vsjsgsocvlq","prime","5f58e69c670dc40a0ee2dc7b","5f60e3c0a3b16e07647b2ff9","5f60ec0d2087970008568d0c","false","null","<div style=""align-items: center; display: flex; color: dodgerblue; font-size: 90px""><b>o</b></div>","null","","","","forget_cue","","","","","","","","","","","","","","","",""
"html-keyboard-response","201","425868","0.0-4.0-1.0-0.25","w871vsjsgsocvlq","prime","5f58e69c670dc40a0ee2dc7b","5f60e3c0a3b16e07647b2ff9","5f60ec0d2087970008568d0c","false","null","<span style=""color: black; font-size: 48px"">M + N</span>","null","","","","resp_prompt","","","","","","","","","","","","","","","",""
"categorize-image","202","427433","0.0-4.0-1.0-1.25","w871vsjsgsocvlq","prime","5f58e69c670dc40a0ee2dc7b","5f60e3c0a3b16e07647b2ff9","5f60ec0d2087970008568d0c","true","1559.7999999999884","./Stimuli/SelectedImages/SN/SN155.bmp","76","","","","test","true","M + N","76","repetition","SN","SN155.bmp","remember","","74","3","prime1","right","","","",""
"html-keyboard-response","203","429443","0.0-4.0-1.0-3.25","w871vsjsgsocvlq","prime","5f58e69c670dc40a0ee2dc7b","5f60e3c0a3b16e07647b2ff9","5f60ec0d2087970008568d0c","false","null","<div style=""align-items: center; display: flex; color: dodgerblue; font-size: 90px""><b>o</b></div>","null","","","","forget_cue","","","","","","","","","","","","","","","",""
"html-keyboard-response","204","430148","0.0-4.0-1.0-0.26","w871vsjsgsocvlq","prime","5f58e69c670dc40a0ee2dc7b","5f60e3c0a3b16e07647b2ff9","5f60ec0d2087970008568d0c","false","null","<span style=""color: black; font-size: 48px"">N + M</span>","null","","","","resp_prompt","","","","","","","","","","","","","","","",""
"categorize-image","205","431705","0.0-4.0-1.0-1.26","w871vsjsgsocvlq","prime","5f58e69c670dc40a0ee2dc7b","5f60e3c0a3b16e07647b2ff9","5f60ec0d2087970008568d0c","true","1552.3949999999604","./Stimuli/SelectedImages/SM/SM213.bmp","76","","","","test","true","N + M","76","repetition","SM","SM213.bmp","remember","","75","3","prime1","right","","","",""
"html-keyboard-response","206","433711","0.0-4.0-1.0-3.26","w871vsjsgsocvlq","prime","5f58e69c670dc40a0ee2dc7b","5f60e3c0a3b16e07647b2ff9","5f60ec0d2087970008568d0c","false","null","<div style=""align-items: center; display: flex; color: dodgerblue; font-size: 90px""><b>o</b></div>","null","","","","forget_cue","","","","","","","","","","","","","","","",""
"html-keyboard-response","207","434417","0.0-4.0-1.0-0.27","w871vsjsgsocvlq","prime","5f58e69c670dc40a0ee2dc7b","5f60e3c0a3b16e07647b2ff9","5f60ec0d2087970008568d0c","false","null","<span style=""color: black; font-size: 48px"">M + N</span>","null","","","","resp_prompt","","","","","","","","","","","","","","","",""
"categorize-image","208","435406","0.0-4.0-1.0-1.27","w871vsjsgsocvlq","prime","5f58e69c670dc40a0ee2dc7b","5f60e3c0a3b16e07647b2ff9","5f60ec0d2087970008568d0c","true","984.0249999999651","./Stimuli/SelectedImages/LN/LN92.bmp","76","","","","test","true","M + N","76","repetition","LN","LN92.bmp","forget","","76","3","prime1","right","","","",""
"html-keyboard-response","209","437418","0.0-4.0-1.0-3.27","w871vsjsgsocvlq","prime","5f58e69c670dc40a0ee2dc7b","5f60e3c0a3b16e07647b2ff9","5f60ec0d2087970008568d0c","false","null","<div style=""align-items: center; display: flex; color: darkorange; font-size: 90px""><b>ø</b></div>","null","","","","forget_cue","","","","","","","","","","","","","","","",""
"html-keyboard-response","210","438122","0.0-4.0-1.0-0.28","w871vsjsgsocvlq","prime","5f58e69c670dc40a0ee2dc7b","5f60e3c0a3b16e07647b2ff9","5f60ec0d2087970008568d0c","false","null","<span style=""color: black; font-size: 48px"">M + N</span>","null","","","","resp_prompt","","","","","","","","","","","","","","","",""
"categorize-image","211","439141","0.0-4.0-1.0-1.28","w871vsjsgsocvlq","prime","5f58e69c670dc40a0ee2dc7b","5f60e3c0a3b16e07647b2ff9","5f60ec0d2087970008568d0c","true","1014.4500000000116","./Stimuli/SelectedImages/SM/SM184.bmp","83","","","","test","true","M + N","83","repetition","SM","SM184.bmp","remember","","77","3","prime1","left","","","",""
"html-keyboard-response","212","441148","0.0-4.0-1.0-3.28","w871vsjsgsocvlq","prime","5f58e69c670dc40a0ee2dc7b","5f60e3c0a3b16e07647b2ff9","5f60ec0d2087970008568d0c","false","null","<div style=""align-items: center; display: flex; color: dodgerblue; font-size: 90px""><b>o</b></div>","null","","","","forget_cue","","","","","","","","","","","","","","","",""
"html-keyboard-response","213","441858","0.0-4.0-1.0-0.29","w871vsjsgsocvlq","prime","5f58e69c670dc40a0ee2dc7b","5f60e3c0a3b16e07647b2ff9","5f60ec0d2087970008568d0c","false","null","<span style=""color: black; font-size: 48px"">N + M</span>","null","","","","resp_prompt","","","","","","","","","","","","","","","",""
"categorize-image","214","442662","0.0-4.0-1.0-1.29","w871vsjsgsocvlq","prime","5f58e69c670dc40a0ee2dc7b","5f60e3c0a3b16e07647b2ff9","5f60ec0d2087970008568d0c","true","799.3250000000698","./Stimuli/SelectedImages/SN/SN187.bmp","76","","","","test","false","N + M","83","repetition","SN","SN187.bmp","forget","","78","3","prime1","right","","","",""
"html-keyboard-response","215","443166","0.0-4.0-1.0-2.29-0.29","w871vsjsgsocvlq","prime","5f58e69c670dc40a0ee2dc7b","5f60e3c0a3b16e07647b2ff9","5f60ec0d2087970008568d0c","false","null","<span style=""color: red; font-size: 48px"">Error!</span>","null","","","","feedback","","","","","","","","","","","","","","","",""
"html-keyboard-response","216","445177","0.0-4.0-1.0-3.29","w871vsjsgsocvlq","prime","5f58e69c670dc40a0ee2dc7b","5f60e3c0a3b16e07647b2ff9","5f60ec0d2087970008568d0c","false","null","<div style=""align-items: center; display: flex; color: darkorange; font-size: 90px""><b>ø</b></div>","null","","","","forget_cue","","","","","","","","","","","","","","","",""
"html-keyboard-response","217","445885","0.0-4.0-1.0-0.30","w871vsjsgsocvlq","prime","5f58e69c670dc40a0ee2dc7b","5f60e3c0a3b16e07647b2ff9","5f60ec0d2087970008568d0c","false","null","<span style=""color: black; font-size: 48px"">N + M</span>","null","","","","resp_prompt","","","","","","","","","","","","","","","",""
"categorize-image","218","447071","0.0-4.0-1.0-1.30","w871vsjsgsocvlq","prime","5f58e69c670dc40a0ee2dc7b","5f60e3c0a3b16e07647b2ff9","5f60ec0d2087970008568d0c","true","1180.6749999999302","./Stimuli/SelectedImages/LN/LN12.bmp","76","","","","test","false","N + M","83","switch","LN","LN12.bmp","remember","","79","3","prime1","right","","","",""
"html-keyboard-response","219","447579","0.0-4.0-1.0-2.30-0.30","w871vsjsgsocvlq","prime","5f58e69c670dc40a0ee2dc7b","5f60e3c0a3b16e07647b2ff9","5f60ec0d2087970008568d0c","false","null","<span style=""color: red; font-size: 48px"">Error!</span>","null","","","","feedback","","","","","","","","","","","","","","","",""
"html-keyboard-response","220","449585","0.0-4.0-1.0-3.30","w871vsjsgsocvlq","prime","5f58e69c670dc40a0ee2dc7b","5f60e3c0a3b16e07647b2ff9","5f60ec0d2087970008568d0c","false","null","<div style=""align-items: center; display: flex; color: dodgerblue; font-size: 90px""><b>o</b></div>","null","","","","forget_cue","","","","","","","","","","","","","","","",""
"html-keyboard-response","221","450292","0.0-4.0-1.0-0.31","w871vsjsgsocvlq","prime","5f58e69c670dc40a0ee2dc7b","5f60e3c0a3b16e07647b2ff9","5f60ec0d2087970008568d0c","false","null","<span style=""color: black; font-size: 48px"">M + N</span>","null","","","","resp_prompt","","","","","","","","","","","","","","","",""
"categorize-image","222","451613","0.0-4.0-1.0-1.31","w871vsjsgsocvlq","prime","5f58e69c670dc40a0ee2dc7b","5f60e3c0a3b16e07647b2ff9","5f60ec0d2087970008568d0c","true","1316.0200000000186","./Stimuli/SelectedImages/LN/LN13.bmp","76","","","","test","true","M + N","76","repetition","LN","LN13.bmp","forget","","80","3","prime1","right","","","",""
"html-keyboard-response","223","453618","0.0-4.0-1.0-3.31","w871vsjsgsocvlq","prime","5f58e69c670dc40a0ee2dc7b","5f60e3c0a3b16e07647b2ff9","5f60ec0d2087970008568d0c","false","null","<div style=""align-items: center; display: flex; color: darkorange; font-size: 90px""><b>ø</b></div>","null","","","","forget_cue","","","","","","","","","","","","","","","",""
"html-keyboard-response","224","454330","0.0-4.0-1.0-0.32","w871vsjsgsocvlq","prime","5f58e69c670dc40a0ee2dc7b","5f60e3c0a3b16e07647b2ff9","5f60ec0d2087970008568d0c","false","null","<span style=""color: black; font-size: 48px"">M + N</span>","null","","","","resp_prompt","","","","","","","","","","","","","","","",""
"categorize-image","225","455609","0.0-4.0-1.0-1.32","w871vsjsgsocvlq","prime","5f58e69c670dc40a0ee2dc7b","5f60e3c0a3b16e07647b2ff9","5f60ec0d2087970008568d0c","true","1274.5750000000116","./Stimuli/SelectedImages/LN/LN166.bmp","83","","","","test","false","M + N","76","repetition","LN","LN166.bmp","remember","","81","3","prime1","left","","","",""
"html-keyboard-response","226","456118","0.0-4.0-1.0-2.32-0.32","w871vsjsgsocvlq","prime","5f58e69c670dc40a0ee2dc7b","5f60e3c0a3b16e07647b2ff9","5f60ec0d2087970008568d0c","false","null","<span style=""color: red; font-size: 48px"">Error!</span>","null","","","","feedback","","","","","","","","","","","","","","","",""
"html-keyboard-response","227","458128","0.0-4.0-1.0-3.32","w871vsjsgsocvlq","prime","5f58e69c670dc40a0ee2dc7b","5f60e3c0a3b16e07647b2ff9","5f60ec0d2087970008568d0c","false","null","<div style=""align-items: center; display: flex; color: dodgerblue; font-size: 90px""><b>o</b></div>","null","","","","forget_cue","","","","","","","","","","","","","","","",""
"html-keyboard-response","228","458835","0.0-4.0-1.0-0.33","w871vsjsgsocvlq","prime","5f58e69c670dc40a0ee2dc7b","5f60e3c0a3b16e07647b2ff9","5f60ec0d2087970008568d0c","false","null","<span style=""color: black; font-size: 48px"">M + N</span>","null","","","","resp_prompt","","","","","","","","","","","","","","","",""
"categorize-image","229","459571","0.0-4.0-1.0-1.33","w871vsjsgsocvlq","prime","5f58e69c670dc40a0ee2dc7b","5f60e3c0a3b16e07647b2ff9","5f60ec0d2087970008568d0c","true","730.4249999999302","./Stimuli/SelectedImages/SN/SN18.bmp","76","","","","test","true","M + N","76","switch","SN","SN18.bmp","forget","","82","3","prime1","right","","","",""
"html-keyboard-response","230","461576","0.0-4.0-1.0-3.33","w871vsjsgsocvlq","prime","5f58e69c670dc40a0ee2dc7b","5f60e3c0a3b16e07647b2ff9","5f60ec0d2087970008568d0c","false","null","<div style=""align-items: center; display: flex; color: darkorange; font-size: 90px""><b>ø</b></div>","null","","","","forget_cue","","","","","","","","","","","","","","","",""
"html-keyboard-response","231","462279","0.0-4.0-1.0-0.34","w871vsjsgsocvlq","prime","5f58e69c670dc40a0ee2dc7b","5f60e3c0a3b16e07647b2ff9","5f60ec0d2087970008568d0c","false","null","<span style=""color: black; font-size: 48px"">N + M</span>","null","","","","resp_prompt","","","","","","","","","","","","","","","",""
"categorize-image","232","463434","0.0-4.0-1.0-1.34","w871vsjsgsocvlq","prime","5f58e69c670dc40a0ee2dc7b","5f60e3c0a3b16e07647b2ff9","5f60ec0d2087970008568d0c","true","1150.4449999999488","./Stimuli/SelectedImages/LN/LN42.bmp","83","","","","test","true","N + M","83","switch","LN","LN42.bmp","forget","","83","3","prime1","left","","","",""
"html-keyboard-response","233","465440","0.0-4.0-1.0-3.34","w871vsjsgsocvlq","prime","5f58e69c670dc40a0ee2dc7b","5f60e3c0a3b16e07647b2ff9","5f60ec0d2087970008568d0c","false","null","<div style=""align-items: center; display: flex; color: darkorange; font-size: 90px""><b>ø</b></div>","null","","","","forget_cue","","","","","","","","","","","","","","","",""
"html-keyboard-response","234","466146","0.0-4.0-1.0-0.35","w871vsjsgsocvlq","prime","5f58e69c670dc40a0ee2dc7b","5f60e3c0a3b16e07647b2ff9","5f60ec0d2087970008568d0c","false","null","<span style=""color: black; font-size: 48px"">M + N</span>","null","","","","resp_prompt","","","","","","","","","","","","","","","",""
"categorize-image","235","467250","0.0-4.0-1.0-1.35","w871vsjsgsocvlq","prime","5f58e69c670dc40a0ee2dc7b","5f60e3c0a3b16e07647b2ff9","5f60ec0d2087970008568d0c","true","1098.875","./Stimuli/SelectedImages/SN/SN128.bmp","76","","","","test","true","M + N","76","repetition","SN","SN128.bmp","remember","","84","3","prime1","right","","","",""
"html-keyboard-response","236","469252","0.0-4.0-1.0-3.35","w871vsjsgsocvlq","prime","5f58e69c670dc40a0ee2dc7b","5f60e3c0a3b16e07647b2ff9","5f60ec0d2087970008568d0c","false","null","<div style=""align-items: center; display: flex; color: dodgerblue; font-size: 90px""><b>o</b></div>","null","","","","forget_cue","","","","","","","","","","","","","","","",""
"html-keyboard-response","237","469958","0.0-4.0-1.0-0.36","w871vsjsgsocvlq","prime","5f58e69c670dc40a0ee2dc7b","5f60e3c0a3b16e07647b2ff9","5f60ec0d2087970008568d0c","false","null","<span style=""color: black; font-size: 48px"">N + M</span>","null","","","","resp_prompt","","","","","","","","","","","","","","","",""
"categorize-image","238","470978","0.0-4.0-1.0-1.36","w871vsjsgsocvlq","prime","5f58e69c670dc40a0ee2dc7b","5f60e3c0a3b16e07647b2ff9","5f60ec0d2087970008568d0c","true","1015.7800000000861","./Stimuli/SelectedImages/SN/SN52.bmp","83","","","","test","true","N + M","83","switch","SN","SN52.bmp","remember","","85","3","prime1","left","","","",""
"html-keyboard-response","239","472985","0.0-4.0-1.0-3.36","w871vsjsgsocvlq","prime","5f58e69c670dc40a0ee2dc7b","5f60e3c0a3b16e07647b2ff9","5f60ec0d2087970008568d0c","false","null","<div style=""align-items: center; display: flex; color: dodgerblue; font-size: 90px""><b>o</b></div>","null","","","","forget_cue","","","","","","","","","","","","","","","",""
"html-keyboard-response","240","473687","0.0-4.0-1.0-0.37","w871vsjsgsocvlq","prime","5f58e69c670dc40a0ee2dc7b","5f60e3c0a3b16e07647b2ff9","5f60ec0d2087970008568d0c","false","null","<span style=""color: black; font-size: 48px"">N + M</span>","null","","","","resp_prompt","","","","","","","","","","","","","","","",""
"categorize-image","241","474403","0.0-4.0-1.0-1.37","w871vsjsgsocvlq","prime","5f58e69c670dc40a0ee2dc7b","5f60e3c0a3b16e07647b2ff9","5f60ec0d2087970008568d0c","true","710.8699999999953","./Stimuli/SelectedImages/SM/SM76.bmp","76","","","","test","true","N + M","76","switch","SM","SM76.bmp","forget","","86","3","prime1","right","","","",""
"html-keyboard-response","242","476407","0.0-4.0-1.0-3.37","w871vsjsgsocvlq","prime","5f58e69c670dc40a0ee2dc7b","5f60e3c0a3b16e07647b2ff9","5f60ec0d2087970008568d0c","false","null","<div style=""align-items: center; display: flex; color: darkorange; font-size: 90px""><b>ø</b></div>","null","","","","forget_cue","","","","","","","","","","","","","","","",""
"html-keyboard-response","243","477114","0.0-4.0-1.0-0.38","w871vsjsgsocvlq","prime","5f58e69c670dc40a0ee2dc7b","5f60e3c0a3b16e07647b2ff9","5f60ec0d2087970008568d0c","false","null","<span style=""color: black; font-size: 48px"">N + M</span>","null","","","","resp_prompt","","","","","","","","","","","","","","","",""
"categorize-image","244","477995","0.0-4.0-1.0-1.38","w871vsjsgsocvlq","prime","5f58e69c670dc40a0ee2dc7b","5f60e3c0a3b16e07647b2ff9","5f60ec0d2087970008568d0c","true","876.8149999999441","./Stimuli/SelectedImages/SN/SN60.bmp","83","","","","test","true","N + M","83","repetition","SN","SN60.bmp","remember","","87","3","prime1","left","","","",""
"html-keyboard-response","245","479998","0.0-4.0-1.0-3.38","w871vsjsgsocvlq","prime","5f58e69c670dc40a0ee2dc7b","5f60e3c0a3b16e07647b2ff9","5f60ec0d2087970008568d0c","false","null","<div style=""align-items: center; display: flex; color: dodgerblue; font-size: 90px""><b>o</b></div>","null","","","","forget_cue","","","","","","","","","","","","","","","",""
"html-keyboard-response","246","480702","0.0-4.0-1.0-0.39","w871vsjsgsocvlq","prime","5f58e69c670dc40a0ee2dc7b","5f60e3c0a3b16e07647b2ff9","5f60ec0d2087970008568d0c","false","null","<span style=""color: black; font-size: 48px"">M + N</span>","null","","","","resp_prompt","","","","","","","","","","","","","","","",""
"categorize-image","247","481741","0.0-4.0-1.0-1.39","w871vsjsgsocvlq","prime","5f58e69c670dc40a0ee2dc7b","5f60e3c0a3b16e07647b2ff9","5f60ec0d2087970008568d0c","true","1033.5499999999884","./Stimuli/SelectedImages/SN/SN49.bmp","76","","","","test","true","M + N","76","switch","SN","SN49.bmp","forget","","88","3","prime1","right","","","",""
"html-keyboard-response","248","483747","0.0-4.0-1.0-3.39","w871vsjsgsocvlq","prime","5f58e69c670dc40a0ee2dc7b","5f60e3c0a3b16e07647b2ff9","5f60ec0d2087970008568d0c","false","null","<div style=""align-items: center; display: flex; color: darkorange; font-size: 90px""><b>ø</b></div>","null","","","","forget_cue","","","","","","","","","","","","","","","",""
"html-keyboard-response","249","484454","0.0-4.0-1.0-0.40","w871vsjsgsocvlq","prime","5f58e69c670dc40a0ee2dc7b","5f60e3c0a3b16e07647b2ff9","5f60ec0d2087970008568d0c","false","null","<span style=""color: black; font-size: 48px"">M + N</span>","null","","","","resp_prompt","","","","","","","","","","","","","","","",""
"categorize-image","250","485349","0.0-4.0-1.0-1.40","w871vsjsgsocvlq","prime","5f58e69c670dc40a0ee2dc7b","5f60e3c0a3b16e07647b2ff9","5f60ec0d2087970008568d0c","true","889.7300000000978","./Stimuli/SelectedImages/LM/LM103.bmp","83","","","","test","true","M + N","83","switch","LM","LM103.bmp","forget","","89","3","prime1","left","","","",""
"html-keyboard-response","251","487350","0.0-4.0-1.0-3.40","w871vsjsgsocvlq","prime","5f58e69c670dc40a0ee2dc7b","5f60e3c0a3b16e07647b2ff9","5f60ec0d2087970008568d0c","false","null","<div style=""align-items: center; display: flex; color: darkorange; font-size: 90px""><b>ø</b></div>","null","","","","forget_cue","","","","","","","","","","","","","","","",""
"html-keyboard-response","252","488052","0.0-4.0-1.0-0.41","w871vsjsgsocvlq","prime","5f58e69c670dc40a0ee2dc7b","5f60e3c0a3b16e07647b2ff9","5f60ec0d2087970008568d0c","false","null","<span style=""color: black; font-size: 48px"">M + N</span>","null","","","","resp_prompt","","","","","","","","","","","","","","","",""
"categorize-image","253","488961","0.0-4.0-1.0-1.41","w871vsjsgsocvlq","prime","5f58e69c670dc40a0ee2dc7b","5f60e3c0a3b16e07647b2ff9","5f60ec0d2087970008568d0c","true","903.9800000000396","./Stimuli/SelectedImages/SM/SM195.bmp","83","","","","test","true","M + N","83","switch","SM","SM195.bmp","remember","","90","3","prime1","left","","","",""
