"trial_type","trial_index","time_elapsed","internal_node_id","subject","exp_part","prolific_PID","study_ID","session_ID","use","rt","stimulus","key_press","button_pressed","responses","question_order","trial_part","correct","resp_map","correct_resp","probe_condition","category","image","forget_condition","list","trial_num","block_num","block","response","test_part","n_span","sequence","num_spaces"
"pavlovia","0","3","0.0-0.0","zn15zgtx7vp82mv","","5d4ad488dfd8230018fd0b45","5f60e3c0a3b16e07647b2ff9","5f646b5dcef0791fd99042d0","false","","","","","","","","","","","","","","","","","","","","","","",""
"html-keyboard-response","1","48582","0.0-1.0-0.0-0.0","zn15zgtx7vp82mv","welcome","5d4ad488dfd8230018fd0b45","5f60e3c0a3b16e07647b2ff9","5f646b5dcef0791fd99042d0","false","48577.35999999568","<div align=left>Dear participant, <br> thank you for participating in an online study of the Cognition, Action, and Sustainability Unit of the University of Freiburg! <br> <br>The aim of this study is to examine our ability to remember previously learned information. <br>Our goal is to find out, whether our memory improves, when we only remember information that is relevant to us. <br>The experiment will take about 35 minutes to complete. <br> <br>Please, note that you can only participate in this study if you are using a device with a keyboard (PC, Laptop etc.) <br>and not if you are using a mobile device such as a tablet or smartphone.<br> <br>Press 'SPACE' to proceed to the experiment. </div>","32","","","","","","","","","","","","","","","","","","","",""
"html-keyboard-response","2","103125","0.0-1.0-0.0-1.0","zn15zgtx7vp82mv","welcome","5d4ad488dfd8230018fd0b45","5f60e3c0a3b16e07647b2ff9","5f646b5dcef0791fd99042d0","false","54542.21499999403","<div align=left><strong> Time Course of this experiment: </strong> <br><br> <strong> 1.</strong>  First, please fill in some information regarding your demographic data. <br><br> <strong> 2.</strong>  Next, your task will be to classify everyday objects. <br>In addition, you will be asked to remember certain objects and recall them later. <br>Working on these tasks requires your undivided attention and concentration.<br>It is therefore essential that you eliminate any sources of distraction in your  <br>environment and ensure that you will not be disturbed. <br><br><strong> 3.</strong>  At the end of the experiment, you will be asked to answer a few additional questions. <br> <br><strong> Important:</strong> After finishing the experiment, only close the browser window <br> by clicking on the 'end the experiment'-button when you are asked to do so. <br>Closing the browser window prematurely will make the allocation of your participation credit impossible. <br><br> Press 'SPACE' to start the experiment. </div>","32","","","","","","","","","","","","","","","","","","","",""
"html-button-response","3","110880","0.0-1.0-0.0-2.0","zn15zgtx7vp82mv","welcome","5d4ad488dfd8230018fd0b45","5f60e3c0a3b16e07647b2ff9","5f646b5dcef0791fd99042d0","true","7753.505000000587","<div align=left><strong> Informed consent </strong>  <br>The aim of our research is to better understand human behavior and mental processes. <br>In the following study your behavior (e.g. choices, reaction times) will be studied. <br> <br><strong> Voluntariness and Anonymity </strong> <br>Your participation in this study is  <strong> voluntary</strong>.<br>You may withdraw your consent to participate at any time without providing a reason for doing so and without fear of prejudice. <br><br>As no personal data will be collected, <strong>your data and your person cannot be connected after data collection</strong> – the data-set is anonymous. <br>Respectively, deletion of your data will not be possible after data collection has been completed, as we cannot retrace your data-set.<br>The results and anonymized data collected in this study will be published as a scientific publication. <br>This will happen in an <strong>anonymized format</strong>, so that no data can be traced back to a specific person. <br> <br>The anonymized data of this study will be made available to other researchers and/or in a data archive on the Internet as a means of transparency and to enable subsequent re-use. By doing so, this study follows the recommendations of the Deutsche Forschungsgemeinschaft (DFG, German Research Foundation) and Deutsche Gesellschaft für Psychologie (DGPS, German Psychological Society) regarding quality assurance in research.<br>If you have any questions now or after the experiment, please contact our team (experiments@cs.uni-freiburg.de).<br><br><br>I hereby declare, that I understand the above described conditions of participation and I agree to participate under these conditions. <br><br> </div>","","0","","","","","","","","","","","","","","","","","","",""
"html-keyboard-response","4","178021","0.0-1.0-0.0-3.0","zn15zgtx7vp82mv","welcome","5d4ad488dfd8230018fd0b45","5f60e3c0a3b16e07647b2ff9","5f646b5dcef0791fd99042d0","false","67139.12499998696","<div align=left><strong> General information concerning the experiment </strong>  <br> <br>Please follow the instructions:<ol> <li><strong> Do not leave this tab (your browser window) during the experiment and do not reload this tab! </strong>  <br>If you do switch tabs/windows during the experiment (to check your mail or visit another website, for example), <br>the experiment will end automatically and you will <strong>not receive credit</strong> for your participation. <br>Repeated participation or resumption of the experiment is impossible.</li> <br><li>Please close all other programs for the duration of your participation. </li> <br><li>Please mute or turn off your phone and put it out of your reach. </li> <br><li>Please also take off any disturbing accessories (such as wristwatches, bracelets, etc.). </li> <br><li>If you have music playing in the background, please turn it off now. </li> <br></ol>Thank you! <br>Press 'SPACE' to continue. </div>","32","","","","","","","","","","","","","","","","","","","",""
"survey-text","5","190016","0.0-1.0-1.0-0.0","zn15zgtx7vp82mv","demographics","5d4ad488dfd8230018fd0b45","5f60e3c0a3b16e07647b2ff9","5f646b5dcef0791fd99042d0","true","11991.199999989476","","","","{""age"":""32""}","","","","","","","","","","","","","","","","","",""
"survey-multi-choice","6","226692","0.0-1.0-1.0-1.0","zn15zgtx7vp82mv","demographics","5d4ad488dfd8230018fd0b45","5f60e3c0a3b16e07647b2ff9","5f646b5dcef0791fd99042d0","true","36673.949999996694","","","","{""gender"":""male"",""school"":""others"",""education"":""Less than high school diploma""}","[0,1,2]","","","","","","","","","","","","","","","","",""
"html-keyboard-response","7","289109","0.0-1.0-2.0","zn15zgtx7vp82mv","instructions","5d4ad488dfd8230018fd0b45","5f60e3c0a3b16e07647b2ff9","5f646b5dcef0791fd99042d0","false","62412.91500002262","<div align=left> The experiment is now about to start: <br> <br>In the following part, you will be presented pictures of everyday objects. <br>Your first task is to <strong>classify these objects. </strong> <br> <br> You will classify them either as mechanical or non-mechanical objects. <br> <br>Objects that include any kind of technical mechanism (for example, wheels, switches, levers, <br> electronic components) fall under the category of <strong>mechanical</strong> objects. <br>Only objects without any kind of technical mechanism should be classified as <strong>non-mechanical</strong>. <br><br>Press 'SPACE' to continue. </div>","32","","","","","","","","","","","","","","","","","","","",""
"html-keyboard-response","8","453611","0.0-2.0-0.0","zn15zgtx7vp82mv","instructions","5d4ad488dfd8230018fd0b45","5f60e3c0a3b16e07647b2ff9","5f646b5dcef0791fd99042d0","false","164501.80499997805","<div align=justify>You will classify the objects using the <strong>'S'</strong> and the <strong>'L'</strong> keys on your keyboard.<br>For doing so, please place your <strong>left index finger</strong> on the <strong>'S'</strong> key and place your <strong>right index finger</strong> on the <strong>'L'</strong> key. <br><br> Each trial starts with an instruction, indicating which key ('S'/'L') you need to press to classify <br>the object as mechanical (letter M) or non-mechanical (letter N).<br>The instruction <strong>M + N</strong> indicates that, in the current trial, by pressing the left key ('S') you classify the displayed object as mechanical (M) <br> and by pressing the right key ('L') you classify the object as non-mechanical (N). <br>The instruction <strong>N + M</strong> on the other hand indicates that by pressing the left key ('S') you classify the displayed object as non-mechanical (N) <br> and by pressing the right key ('L') you classify the object as mechanical (M). <br><br>Please press the key corresponding to the correct classification as fast as possible as soon as the object is displayed and try to avoid making mistakes.<br>If you do not respond within a 2 second window, a corresponding feedback will be displayed and the next trial will start.<br> The experiment is divided into multiple blocks to give you the opportunity to take a break after each block. <br>First, you can now practice this task. <br><br>Please place your <strong>LEFT INDEX FINGER</strong> on the 'S' key and your <strong>RIGHT INDEX FINGER</strong> on the 'L' key now. <br><br>Press SPACE to continue.</div>","32","","","","","","","","","","","","","","","","","","","",""
"html-keyboard-response","9","473731","0.0-2.0-1.0","zn15zgtx7vp82mv","instructions","5d4ad488dfd8230018fd0b45","5f60e3c0a3b16e07647b2ff9","5f646b5dcef0791fd99042d0","false","20118.860000016866","<div align=left> You will now have time to practice this task.<br><br>Remember: <br> <br><li>Please place your index fingers on the <strong>'S'</strong> and <strong>'L'</strong> keys <br>to respond as fast and accurately as possible.</li><li>Every picture can be classified as either mechanical or non-mechanical.</li><li>If you do not respond in time or commit an error, you will receive a corresponding feedback. </li><li> Please try to respond as <strong> fast </strong> and as <strong> accurately as possible </strong> .<br><li>To ensure optimal results, please minimize distractions and stay focused. </li><br><br>Press SPACE to continue.</div>","32","","","","","","","","","","","","","","","","","","","",""
"html-keyboard-response","10","474434","0.0-2.0-2.0-0.0","zn15zgtx7vp82mv","practice_no_cue","5d4ad488dfd8230018fd0b45","5f60e3c0a3b16e07647b2ff9","5f646b5dcef0791fd99042d0","false","null","<span style=""color: black; font-size: 48px"">M + N</span>","null","","","","resp_prompt","","","","","","","","","","","","","","","",""
"categorize-image","11","476938","0.0-2.0-2.0-1.0","zn15zgtx7vp82mv","practice_no_cue","5d4ad488dfd8230018fd0b45","5f60e3c0a3b16e07647b2ff9","5f646b5dcef0791fd99042d0","true","null","./Stimuli/ImagesPractice/SM97.jpg","null","","","","test","false","M + N","83","","SM","SM97.jpg","forget","old","1","1","start","too_slow","","","",""
"html-keyboard-response","12","477641","0.0-2.0-2.0-0.1","zn15zgtx7vp82mv","practice_no_cue","5d4ad488dfd8230018fd0b45","5f60e3c0a3b16e07647b2ff9","5f646b5dcef0791fd99042d0","false","null","<span style=""color: black; font-size: 48px"">N + M</span>","null","","","","resp_prompt","","","","","","","","","","","","","","","",""
"categorize-image","13","479639","0.0-2.0-2.0-1.1","zn15zgtx7vp82mv","practice_no_cue","5d4ad488dfd8230018fd0b45","5f60e3c0a3b16e07647b2ff9","5f646b5dcef0791fd99042d0","true","1497.1500000101514","./Stimuli/ImagesPractice/LN109.jpg","76","","","","test","false","N + M","83","","LN","LN109.jpg","forget","old","2","1","start","right","","","",""
"html-keyboard-response","14","480341","0.0-2.0-2.0-0.2","zn15zgtx7vp82mv","practice_no_cue","5d4ad488dfd8230018fd0b45","5f60e3c0a3b16e07647b2ff9","5f646b5dcef0791fd99042d0","false","null","<span style=""color: black; font-size: 48px"">N + M</span>","null","","","","resp_prompt","","","","","","","","","","","","","","","",""
"categorize-image","15","481584","0.0-2.0-2.0-1.2","zn15zgtx7vp82mv","practice_no_cue","5d4ad488dfd8230018fd0b45","5f60e3c0a3b16e07647b2ff9","5f646b5dcef0791fd99042d0","true","740.9349999797996","./Stimuli/ImagesPractice/SN220.jpg","83","","","","test","true","N + M","83","","SN","SN220.jpg","remember","old","3","1","start","left","","","",""
"html-keyboard-response","16","482286","0.0-2.0-2.0-0.3","zn15zgtx7vp82mv","practice_no_cue","5d4ad488dfd8230018fd0b45","5f60e3c0a3b16e07647b2ff9","5f646b5dcef0791fd99042d0","false","null","<span style=""color: black; font-size: 48px"">N + M</span>","null","","","","resp_prompt","","","","","","","","","","","","","","","",""
"categorize-image","17","483592","0.0-2.0-2.0-1.3","zn15zgtx7vp82mv","practice_no_cue","5d4ad488dfd8230018fd0b45","5f60e3c0a3b16e07647b2ff9","5f646b5dcef0791fd99042d0","true","804.1950000042561","./Stimuli/ImagesPractice/LM55.jpg","76","","","","test","true","N + M","76","","LM","LM55.jpg","forget","old","4","1","start","right","","","",""
"html-keyboard-response","18","484294","0.0-2.0-2.0-0.4","zn15zgtx7vp82mv","practice_no_cue","5d4ad488dfd8230018fd0b45","5f60e3c0a3b16e07647b2ff9","5f646b5dcef0791fd99042d0","false","null","<span style=""color: black; font-size: 48px"">M + N</span>","null","","","","resp_prompt","","","","","","","","","","","","","","","",""
"categorize-image","19","485608","0.0-2.0-2.0-1.4","zn15zgtx7vp82mv","practice_no_cue","5d4ad488dfd8230018fd0b45","5f60e3c0a3b16e07647b2ff9","5f646b5dcef0791fd99042d0","true","812.3399999749381","./Stimuli/ImagesPractice/SM62.jpg","76","","","","test","false","M + N","83","","SM","SM62.jpg","remember","old","5","1","start","right","","","",""
"html-keyboard-response","20","486310","0.0-2.0-2.0-0.5","zn15zgtx7vp82mv","practice_no_cue","5d4ad488dfd8230018fd0b45","5f60e3c0a3b16e07647b2ff9","5f646b5dcef0791fd99042d0","false","null","<span style=""color: black; font-size: 48px"">M + N</span>","null","","","","resp_prompt","","","","","","","","","","","","","","","",""
"categorize-image","21","487521","0.0-2.0-2.0-1.5","zn15zgtx7vp82mv","practice_no_cue","5d4ad488dfd8230018fd0b45","5f60e3c0a3b16e07647b2ff9","5f646b5dcef0791fd99042d0","true","707.4499999871477","./Stimuli/ImagesPractice/LM224.jpg","76","","","","test","false","M + N","83","","LM","LM224.jpg","remember","old","6","1","start","right","","","",""
"html-keyboard-response","22","488223","0.0-2.0-2.0-0.6","zn15zgtx7vp82mv","practice_no_cue","5d4ad488dfd8230018fd0b45","5f60e3c0a3b16e07647b2ff9","5f646b5dcef0791fd99042d0","false","null","<span style=""color: black; font-size: 48px"">N + M</span>","null","","","","resp_prompt","","","","","","","","","","","","","","","",""
"categorize-image","23","489575","0.0-2.0-2.0-1.6","zn15zgtx7vp82mv","practice_no_cue","5d4ad488dfd8230018fd0b45","5f60e3c0a3b16e07647b2ff9","5f646b5dcef0791fd99042d0","true","851.0600000154227","./Stimuli/ImagesPractice/LN4.jpg","83","","","","test","true","N + M","83","","LN","LN4.jpg","forget","old","7","1","start","left","","","",""
"html-keyboard-response","24","490277","0.0-2.0-2.0-0.7","zn15zgtx7vp82mv","practice_no_cue","5d4ad488dfd8230018fd0b45","5f60e3c0a3b16e07647b2ff9","5f646b5dcef0791fd99042d0","false","null","<span style=""color: black; font-size: 48px"">N + M</span>","null","","","","resp_prompt","","","","","","","","","","","","","","","",""
"categorize-image","25","491639","0.0-2.0-2.0-1.7","zn15zgtx7vp82mv","practice_no_cue","5d4ad488dfd8230018fd0b45","5f60e3c0a3b16e07647b2ff9","5f646b5dcef0791fd99042d0","true","860.8349999994971","./Stimuli/ImagesPractice/SM35.jpg","83","","","","test","false","N + M","76","","SM","SM35.jpg","remember","old","8","1","start","left","","","",""
"html-keyboard-response","26","492341","0.0-2.0-2.0-0.8","zn15zgtx7vp82mv","practice_no_cue","5d4ad488dfd8230018fd0b45","5f60e3c0a3b16e07647b2ff9","5f646b5dcef0791fd99042d0","false","null","<span style=""color: black; font-size: 48px"">N + M</span>","null","","","","resp_prompt","","","","","","","","","","","","","","","",""
"categorize-image","27","493752","0.0-2.0-2.0-1.8","zn15zgtx7vp82mv","practice_no_cue","5d4ad488dfd8230018fd0b45","5f60e3c0a3b16e07647b2ff9","5f646b5dcef0791fd99042d0","true","909.0250000008382","./Stimuli/ImagesPractice/LN2.jpg","83","","","","test","true","N + M","83","","LN","LN2.jpg","remember","old","9","1","start","left","","","",""
"html-keyboard-response","28","494453","0.0-2.0-2.0-0.9","zn15zgtx7vp82mv","practice_no_cue","5d4ad488dfd8230018fd0b45","5f60e3c0a3b16e07647b2ff9","5f646b5dcef0791fd99042d0","false","null","<span style=""color: black; font-size: 48px"">M + N</span>","null","","","","resp_prompt","","","","","","","","","","","","","","","",""
"categorize-image","29","495721","0.0-2.0-2.0-1.9","zn15zgtx7vp82mv","practice_no_cue","5d4ad488dfd8230018fd0b45","5f60e3c0a3b16e07647b2ff9","5f646b5dcef0791fd99042d0","true","764.8949999711476","./Stimuli/ImagesPractice/SN76.jpg","83","","","","test","false","M + N","76","","SN","SN76.jpg","remember","old","10","1","start","left","","","",""
"html-keyboard-response","30","496421","0.0-2.0-2.0-0.10","zn15zgtx7vp82mv","practice_no_cue","5d4ad488dfd8230018fd0b45","5f60e3c0a3b16e07647b2ff9","5f646b5dcef0791fd99042d0","false","null","<span style=""color: black; font-size: 48px"">N + M</span>","null","","","","resp_prompt","","","","","","","","","","","","","","","",""
"categorize-image","31","497575","0.0-2.0-2.0-1.10","zn15zgtx7vp82mv","practice_no_cue","5d4ad488dfd8230018fd0b45","5f60e3c0a3b16e07647b2ff9","5f646b5dcef0791fd99042d0","true","652.3400000005495","./Stimuli/ImagesPractice/SN222.jpg","83","","","","test","true","N + M","83","","SN","SN222.jpg","remember","old","11","1","start","left","","","",""
"html-keyboard-response","32","498276","0.0-2.0-2.0-0.11","zn15zgtx7vp82mv","practice_no_cue","5d4ad488dfd8230018fd0b45","5f60e3c0a3b16e07647b2ff9","5f646b5dcef0791fd99042d0","false","null","<span style=""color: black; font-size: 48px"">M + N</span>","null","","","","resp_prompt","","","","","","","","","","","","","","","",""
"categorize-image","33","499471","0.0-2.0-2.0-1.11","zn15zgtx7vp82mv","practice_no_cue","5d4ad488dfd8230018fd0b45","5f60e3c0a3b16e07647b2ff9","5f646b5dcef0791fd99042d0","true","693.3800000115298","./Stimuli/ImagesPractice/SM61.jpg","83","","","","test","true","M + N","83","","SM","SM61.jpg","remember","old","12","1","start","left","","","",""
"html-keyboard-response","34","500173","0.0-2.0-2.0-0.12","zn15zgtx7vp82mv","practice_no_cue","5d4ad488dfd8230018fd0b45","5f60e3c0a3b16e07647b2ff9","5f646b5dcef0791fd99042d0","false","null","<span style=""color: black; font-size: 48px"">M + N</span>","null","","","","resp_prompt","","","","","","","","","","","","","","","",""
"categorize-image","35","501161","0.0-2.0-2.0-1.12","zn15zgtx7vp82mv","practice_no_cue","5d4ad488dfd8230018fd0b45","5f60e3c0a3b16e07647b2ff9","5f646b5dcef0791fd99042d0","true","484.6549999783747","./Stimuli/ImagesPractice/LN17.jpg","83","","","","test","false","M + N","76","","LN","LN17.jpg","forget","old","13","1","start","left","","","",""
"html-keyboard-response","36","501862","0.0-2.0-2.0-0.13","zn15zgtx7vp82mv","practice_no_cue","5d4ad488dfd8230018fd0b45","5f60e3c0a3b16e07647b2ff9","5f646b5dcef0791fd99042d0","false","null","<span style=""color: black; font-size: 48px"">M + N</span>","null","","","","resp_prompt","","","","","","","","","","","","","","","",""
"categorize-image","37","502855","0.0-2.0-2.0-1.13","zn15zgtx7vp82mv","practice_no_cue","5d4ad488dfd8230018fd0b45","5f60e3c0a3b16e07647b2ff9","5f646b5dcef0791fd99042d0","true","491.52999999932945","./Stimuli/ImagesPractice/LN15.jpg","83","","","","test","false","M + N","76","","LN","LN15.jpg","forget","old","14","1","start","left","","","",""
"html-keyboard-response","38","503557","0.0-2.0-2.0-0.14","zn15zgtx7vp82mv","practice_no_cue","5d4ad488dfd8230018fd0b45","5f60e3c0a3b16e07647b2ff9","5f646b5dcef0791fd99042d0","false","null","<span style=""color: black; font-size: 48px"">M + N</span>","null","","","","resp_prompt","","","","","","","","","","","","","","","",""
"categorize-image","39","504632","0.0-2.0-2.0-1.14","zn15zgtx7vp82mv","practice_no_cue","5d4ad488dfd8230018fd0b45","5f60e3c0a3b16e07647b2ff9","5f646b5dcef0791fd99042d0","true","572.5549999915529","./Stimuli/ImagesPractice/SN221.jpg","83","","","","test","false","M + N","76","","SN","SN221.jpg","forget","old","15","1","start","left","","","",""
"html-keyboard-response","40","505332","0.0-2.0-2.0-0.15","zn15zgtx7vp82mv","practice_no_cue","5d4ad488dfd8230018fd0b45","5f60e3c0a3b16e07647b2ff9","5f646b5dcef0791fd99042d0","false","null","<span style=""color: black; font-size: 48px"">N + M</span>","null","","","","resp_prompt","","","","","","","","","","","","","","","",""
"categorize-image","41","506272","0.0-2.0-2.0-1.15","zn15zgtx7vp82mv","practice_no_cue","5d4ad488dfd8230018fd0b45","5f60e3c0a3b16e07647b2ff9","5f646b5dcef0791fd99042d0","true","437.5900000159163","./Stimuli/ImagesPractice/LM230.jpg","76","","","","test","true","N + M","76","","LM","LM230.jpg","forget","old","16","1","start","right","","","",""
"html-keyboard-response","42","516003","0.0-2.0-3.0","zn15zgtx7vp82mv","break","5d4ad488dfd8230018fd0b45","5f60e3c0a3b16e07647b2ff9","5f646b5dcef0791fd99042d0","false","9729.584999993676","<p style='font-size: 32px;'>Break</><br><br><br><br><br><p style='font-size: 24px;'>In the last block, you committed 8 errors and did not respond in time on 1 trials.
</p><p style='font-size: 24px;'>Try to respond as fast and accurately as possible in the next block as well! </p><p style='font-size: 24px;'>Press SPACE to continue.</p>","32","","","","","","","","","","","","","","","","","","","",""
"html-keyboard-response","43","526995","0.0-2.0-4.0","zn15zgtx7vp82mv","instructions","5d4ad488dfd8230018fd0b45","5f60e3c0a3b16e07647b2ff9","5f646b5dcef0791fd99042d0","false","10991.049999982351","<div align=left> Great!<br><br>Are you ready to continue?<br><br>If you want to reread the instructions and redo the practice trials, <br>please press „Z“. <br><br>Press SPACE to CONTINUE with the experiment when you are ready. </div>","32","","","","","","","","","","","","","","","","","","","",""
"html-keyboard-response","44","598722","0.0-3.0-0.0","zn15zgtx7vp82mv","instructions","5d4ad488dfd8230018fd0b45","5f60e3c0a3b16e07647b2ff9","5f646b5dcef0791fd99042d0","false","71726.39499997604","<div align=left>Great!<br> <strong>Attention</strong>! You will now receive a second, additional task! <br><br>To this point it was you <strong>first task</strong> to correctly <strong>classify objects</strong>. <br><br>As mentioned in the beginning, we aim to examine how well humans can remember previously learned information.<br>We would like to find out whether our memory improves if we only remember information that is relevant to us. <br><br>Therefore, your <strong>second task</strong> will be to <strong>remember</strong> the pictures you are to categorize. <br> After the learning phase, there will be a memory test phase, in which you will be asked to indicate whether you have seen a picture before or not. <br>Some, but not all pictures shown in the learning phase will appear in the memory test phase.<br>After classifying a picture, you will be told whether you should remember it for the memory test phase or not. <br>Thus, some pictures can be forgotten, whereas others have to be remembered. <br><br>Note: From now on, feedback will only be displayed if you responded incorrectly or not in time.<br><br>Press SPACE to continue.</div>","32","","","","","","","","","","","","","","","","","","","",""
"html-keyboard-response","45","635610","0.0-3.0-1.0","zn15zgtx7vp82mv","instructions","5d4ad488dfd8230018fd0b45","5f60e3c0a3b16e07647b2ff9","5f646b5dcef0791fd99042d0","false","36886.785000009695","<div align=left>In the following part, you will thus have to remember only some pictures. <br>Immediately after seeing and classifying the picture, a symbol will be displayed, indicating whether you should remember or forget the previous picture. <br><br>A <span style='color: dodgerblue; font-size: 28px'>O</span> indicates REMEMBER. That means, you have to remember this picture, because it will be tested later. <br><br>A <span style='color: darkorange; font-size:28px'>Ø</span> indicates FORGET. You do not have to remember this picture. <br><br> As you will have to remember a lot of pictures, it will be hard for you to remember all of them. <br>It will put you at an advantage if you instantly forget the pictures you are not asked to remember. <br> This will make it easier for you to remember the pictures that will be tested afterwards. <br><br>Press SPACE to continue.</div>","32","","","","","","","","","","","","","","","","","","","",""
"html-keyboard-response","46","659426","0.0-3.0-2.0","zn15zgtx7vp82mv","instructions","5d4ad488dfd8230018fd0b45","5f60e3c0a3b16e07647b2ff9","5f646b5dcef0791fd99042d0","false","23814.905000006547","<div align=left> Now you have the chance to practice both tasks together.<br><br>Remember: <br> <br><li>Please place your index fingers on the <strong>'S'</strong> and <strong>'L'</strong> keys <br>to respond as fast and accurately as possible.</li><li>Every picture can be classified as either mechanical or non-mechanical.</li><li>If you do not respond in time or commit an error, you will receive a corresponding feedback. <br>Please try to respond as <strong> fast </strong> and as <strong> accurately as possible </strong>.</li><li> Please remember only the to-be-remembered <span style='color: dodgerblue; font-size: 28px'>O</span> pictures. <br></li><li> Please minimize distractions and stay focused. </li><br><br>Press SPACE to START</div>","32","","","","","","","","","","","","","","","","","","","",""
"html-keyboard-response","47","660128","0.0-3.0-3.0-0.0","zn15zgtx7vp82mv","practice_cue","5d4ad488dfd8230018fd0b45","5f60e3c0a3b16e07647b2ff9","5f646b5dcef0791fd99042d0","false","null","<span style=""color: black; font-size: 48px"">N + M</span>","null","","","","resp_prompt","","","","","","","","","","","","","","","",""
"categorize-image","48","660787","0.0-3.0-3.0-1.0","zn15zgtx7vp82mv","practice_cue","5d4ad488dfd8230018fd0b45","5f60e3c0a3b16e07647b2ff9","5f646b5dcef0791fd99042d0","true","655.9050000214484","./Stimuli/ImagesPractice/SM35.jpg","83","","","","test","false","N + M","76","","SM","SM35.jpg","remember","old","17","2","practice_forget","left","","","",""
"html-keyboard-response","49","661289","0.0-3.0-3.0-2.0-0.0","zn15zgtx7vp82mv","practice_cue","5d4ad488dfd8230018fd0b45","5f60e3c0a3b16e07647b2ff9","5f646b5dcef0791fd99042d0","false","null","<span style=""color: red; font-size: 48px"">Error!</span>","null","","","","feedback","","","","","","","","","","","","","","","",""
"html-keyboard-response","50","663290","0.0-3.0-3.0-3.0","zn15zgtx7vp82mv","practice_cue","5d4ad488dfd8230018fd0b45","5f60e3c0a3b16e07647b2ff9","5f646b5dcef0791fd99042d0","false","null","<div style=""align-items: center; display: flex; color: dodgerblue; font-size: 90px""><b>o</b></div>","null","","","","forget_cue","","","","","","","","","","","","","","","",""
"html-keyboard-response","51","663992","0.0-3.0-3.0-0.1","zn15zgtx7vp82mv","practice_cue","5d4ad488dfd8230018fd0b45","5f60e3c0a3b16e07647b2ff9","5f646b5dcef0791fd99042d0","false","null","<span style=""color: black; font-size: 48px"">M + N</span>","null","","","","resp_prompt","","","","","","","","","","","","","","","",""
"categorize-image","52","664715","0.0-3.0-3.0-1.1","zn15zgtx7vp82mv","practice_cue","5d4ad488dfd8230018fd0b45","5f60e3c0a3b16e07647b2ff9","5f646b5dcef0791fd99042d0","true","720.6400000141002","./Stimuli/ImagesPractice/SN76.jpg","83","","","","test","false","M + N","76","","SN","SN76.jpg","remember","old","18","2","practice_forget","left","","","",""
"html-keyboard-response","53","665216","0.0-3.0-3.0-2.1-0.1","zn15zgtx7vp82mv","practice_cue","5d4ad488dfd8230018fd0b45","5f60e3c0a3b16e07647b2ff9","5f646b5dcef0791fd99042d0","false","null","<span style=""color: red; font-size: 48px"">Error!</span>","null","","","","feedback","","","","","","","","","","","","","","","",""
"html-keyboard-response","54","667218","0.0-3.0-3.0-3.1","zn15zgtx7vp82mv","practice_cue","5d4ad488dfd8230018fd0b45","5f60e3c0a3b16e07647b2ff9","5f646b5dcef0791fd99042d0","false","null","<div style=""align-items: center; display: flex; color: dodgerblue; font-size: 90px""><b>o</b></div>","null","","","","forget_cue","","","","","","","","","","","","","","","",""
"html-keyboard-response","55","667919","0.0-3.0-3.0-0.2","zn15zgtx7vp82mv","practice_cue","5d4ad488dfd8230018fd0b45","5f60e3c0a3b16e07647b2ff9","5f646b5dcef0791fd99042d0","false","null","<span style=""color: black; font-size: 48px"">N + M</span>","null","","","","resp_prompt","","","","","","","","","","","","","","","",""
"categorize-image","56","668539","0.0-3.0-3.0-1.2","zn15zgtx7vp82mv","practice_cue","5d4ad488dfd8230018fd0b45","5f60e3c0a3b16e07647b2ff9","5f646b5dcef0791fd99042d0","true","617.164999974193","./Stimuli/ImagesPractice/LM55.jpg","83","","","","test","false","N + M","76","","LM","LM55.jpg","forget","old","19","2","practice_forget","left","","","",""
"html-keyboard-response","57","669041","0.0-3.0-3.0-2.2-0.2","zn15zgtx7vp82mv","practice_cue","5d4ad488dfd8230018fd0b45","5f60e3c0a3b16e07647b2ff9","5f646b5dcef0791fd99042d0","false","null","<span style=""color: red; font-size: 48px"">Error!</span>","null","","","","feedback","","","","","","","","","","","","","","","",""
"html-keyboard-response","58","671042","0.0-3.0-3.0-3.2","zn15zgtx7vp82mv","practice_cue","5d4ad488dfd8230018fd0b45","5f60e3c0a3b16e07647b2ff9","5f646b5dcef0791fd99042d0","false","null","<div style=""align-items: center; display: flex; color: darkorange; font-size: 90px""><b>ø</b></div>","null","","","","forget_cue","","","","","","","","","","","","","","","",""
"html-keyboard-response","59","671744","0.0-3.0-3.0-0.3","zn15zgtx7vp82mv","practice_cue","5d4ad488dfd8230018fd0b45","5f60e3c0a3b16e07647b2ff9","5f646b5dcef0791fd99042d0","false","null","<span style=""color: black; font-size: 48px"">N + M</span>","null","","","","resp_prompt","","","","","","","","","","","","","","","",""
"categorize-image","60","672235","0.0-3.0-3.0-1.3","zn15zgtx7vp82mv","practice_cue","5d4ad488dfd8230018fd0b45","5f60e3c0a3b16e07647b2ff9","5f646b5dcef0791fd99042d0","true","488.9850000035949","./Stimuli/ImagesPractice/SN220.jpg","76","","","","test","false","N + M","83","","SN","SN220.jpg","remember","old","20","2","practice_forget","right","","","",""
"html-keyboard-response","61","672737","0.0-3.0-3.0-2.3-0.3","zn15zgtx7vp82mv","practice_cue","5d4ad488dfd8230018fd0b45","5f60e3c0a3b16e07647b2ff9","5f646b5dcef0791fd99042d0","false","null","<span style=""color: red; font-size: 48px"">Error!</span>","null","","","","feedback","","","","","","","","","","","","","","","",""
"html-keyboard-response","62","674738","0.0-3.0-3.0-3.3","zn15zgtx7vp82mv","practice_cue","5d4ad488dfd8230018fd0b45","5f60e3c0a3b16e07647b2ff9","5f646b5dcef0791fd99042d0","false","null","<div style=""align-items: center; display: flex; color: dodgerblue; font-size: 90px""><b>o</b></div>","null","","","","forget_cue","","","","","","","","","","","","","","","",""
"html-keyboard-response","63","675440","0.0-3.0-3.0-0.4","zn15zgtx7vp82mv","practice_cue","5d4ad488dfd8230018fd0b45","5f60e3c0a3b16e07647b2ff9","5f646b5dcef0791fd99042d0","false","null","<span style=""color: black; font-size: 48px"">M + N</span>","null","","","","resp_prompt","","","","","","","","","","","","","","","",""
"categorize-image","64","676067","0.0-3.0-3.0-1.4","zn15zgtx7vp82mv","practice_cue","5d4ad488dfd8230018fd0b45","5f60e3c0a3b16e07647b2ff9","5f646b5dcef0791fd99042d0","true","624.1849999933038","./Stimuli/ImagesPractice/LN15.jpg","83","","","","test","false","M + N","76","","LN","LN15.jpg","forget","old","21","2","practice_forget","left","","","",""
"html-keyboard-response","65","676568","0.0-3.0-3.0-2.4-0.4","zn15zgtx7vp82mv","practice_cue","5d4ad488dfd8230018fd0b45","5f60e3c0a3b16e07647b2ff9","5f646b5dcef0791fd99042d0","false","null","<span style=""color: red; font-size: 48px"">Error!</span>","null","","","","feedback","","","","","","","","","","","","","","","",""
"html-keyboard-response","66","678570","0.0-3.0-3.0-3.4","zn15zgtx7vp82mv","practice_cue","5d4ad488dfd8230018fd0b45","5f60e3c0a3b16e07647b2ff9","5f646b5dcef0791fd99042d0","false","null","<div style=""align-items: center; display: flex; color: darkorange; font-size: 90px""><b>ø</b></div>","null","","","","forget_cue","","","","","","","","","","","","","","","",""
"html-keyboard-response","67","679272","0.0-3.0-3.0-0.5","zn15zgtx7vp82mv","practice_cue","5d4ad488dfd8230018fd0b45","5f60e3c0a3b16e07647b2ff9","5f646b5dcef0791fd99042d0","false","null","<span style=""color: black; font-size: 48px"">N + M</span>","null","","","","resp_prompt","","","","","","","","","","","","","","","",""
"categorize-image","68","679651","0.0-3.0-3.0-1.5","zn15zgtx7vp82mv","practice_cue","5d4ad488dfd8230018fd0b45","5f60e3c0a3b16e07647b2ff9","5f646b5dcef0791fd99042d0","true","376.4499999815598","./Stimuli/ImagesPractice/LM230.jpg","83","","","","test","false","N + M","76","","LM","LM230.jpg","forget","old","22","2","practice_forget","left","","","",""
"html-keyboard-response","69","680152","0.0-3.0-3.0-2.5-0.5","zn15zgtx7vp82mv","practice_cue","5d4ad488dfd8230018fd0b45","5f60e3c0a3b16e07647b2ff9","5f646b5dcef0791fd99042d0","false","null","<span style=""color: red; font-size: 48px"">Error!</span>","null","","","","feedback","","","","","","","","","","","","","","","",""
"html-keyboard-response","70","682154","0.0-3.0-3.0-3.5","zn15zgtx7vp82mv","practice_cue","5d4ad488dfd8230018fd0b45","5f60e3c0a3b16e07647b2ff9","5f646b5dcef0791fd99042d0","false","null","<div style=""align-items: center; display: flex; color: darkorange; font-size: 90px""><b>ø</b></div>","null","","","","forget_cue","","","","","","","","","","","","","","","",""
"html-keyboard-response","71","682858","0.0-3.0-3.0-0.6","zn15zgtx7vp82mv","practice_cue","5d4ad488dfd8230018fd0b45","5f60e3c0a3b16e07647b2ff9","5f646b5dcef0791fd99042d0","false","null","<span style=""color: black; font-size: 48px"">M + N</span>","null","","","","resp_prompt","","","","","","","","","","","","","","","",""
"categorize-image","72","683459","0.0-3.0-3.0-1.6","zn15zgtx7vp82mv","practice_cue","5d4ad488dfd8230018fd0b45","5f60e3c0a3b16e07647b2ff9","5f646b5dcef0791fd99042d0","true","598.039999982575","./Stimuli/ImagesPractice/SM61.jpg","76","","","","test","false","M + N","83","","SM","SM61.jpg","remember","old","23","2","practice_forget","right","","","",""
"html-keyboard-response","73","683960","0.0-3.0-3.0-2.6-0.6","zn15zgtx7vp82mv","practice_cue","5d4ad488dfd8230018fd0b45","5f60e3c0a3b16e07647b2ff9","5f646b5dcef0791fd99042d0","false","null","<span style=""color: red; font-size: 48px"">Error!</span>","null","","","","feedback","","","","","","","","","","","","","","","",""
"html-keyboard-response","74","685961","0.0-3.0-3.0-3.6","zn15zgtx7vp82mv","practice_cue","5d4ad488dfd8230018fd0b45","5f60e3c0a3b16e07647b2ff9","5f646b5dcef0791fd99042d0","false","null","<div style=""align-items: center; display: flex; color: dodgerblue; font-size: 90px""><b>o</b></div>","null","","","","forget_cue","","","","","","","","","","","","","","","",""
"html-keyboard-response","75","686663","0.0-3.0-3.0-0.7","zn15zgtx7vp82mv","practice_cue","5d4ad488dfd8230018fd0b45","5f60e3c0a3b16e07647b2ff9","5f646b5dcef0791fd99042d0","false","null","<span style=""color: black; font-size: 48px"">N + M</span>","null","","","","resp_prompt","","","","","","","","","","","","","","","",""
"categorize-image","76","687131","0.0-3.0-3.0-1.7","zn15zgtx7vp82mv","practice_cue","5d4ad488dfd8230018fd0b45","5f60e3c0a3b16e07647b2ff9","5f646b5dcef0791fd99042d0","true","465.07999999448657","./Stimuli/ImagesPractice/SN222.jpg","83","","","","test","true","N + M","83","","SN","SN222.jpg","remember","old","24","2","practice_forget","left","","","",""
"html-keyboard-response","77","689132","0.0-3.0-3.0-3.7","zn15zgtx7vp82mv","practice_cue","5d4ad488dfd8230018fd0b45","5f60e3c0a3b16e07647b2ff9","5f646b5dcef0791fd99042d0","false","null","<div style=""align-items: center; display: flex; color: dodgerblue; font-size: 90px""><b>o</b></div>","null","","","","forget_cue","","","","","","","","","","","","","","","",""
"html-keyboard-response","78","689834","0.0-3.0-3.0-0.8","zn15zgtx7vp82mv","practice_cue","5d4ad488dfd8230018fd0b45","5f60e3c0a3b16e07647b2ff9","5f646b5dcef0791fd99042d0","false","null","<span style=""color: black; font-size: 48px"">N + M</span>","null","","","","resp_prompt","","","","","","","","","","","","","","","",""
"categorize-image","79","690387","0.0-3.0-3.0-1.8","zn15zgtx7vp82mv","practice_cue","5d4ad488dfd8230018fd0b45","5f60e3c0a3b16e07647b2ff9","5f646b5dcef0791fd99042d0","true","549.8849999858066","./Stimuli/ImagesPractice/LN4.jpg","83","","","","test","true","N + M","83","","LN","LN4.jpg","forget","old","25","2","practice_forget","left","","","",""
"html-keyboard-response","80","692388","0.0-3.0-3.0-3.8","zn15zgtx7vp82mv","practice_cue","5d4ad488dfd8230018fd0b45","5f60e3c0a3b16e07647b2ff9","5f646b5dcef0791fd99042d0","false","null","<div style=""align-items: center; display: flex; color: darkorange; font-size: 90px""><b>ø</b></div>","null","","","","forget_cue","","","","","","","","","","","","","","","",""
"html-keyboard-response","81","693089","0.0-3.0-3.0-0.9","zn15zgtx7vp82mv","practice_cue","5d4ad488dfd8230018fd0b45","5f60e3c0a3b16e07647b2ff9","5f646b5dcef0791fd99042d0","false","null","<span style=""color: black; font-size: 48px"">N + M</span>","null","","","","resp_prompt","","","","","","","","","","","","","","","",""
"categorize-image","82","693652","0.0-3.0-3.0-1.9","zn15zgtx7vp82mv","practice_cue","5d4ad488dfd8230018fd0b45","5f60e3c0a3b16e07647b2ff9","5f646b5dcef0791fd99042d0","true","559.7349999879953","./Stimuli/ImagesPractice/LN2.jpg","83","","","","test","true","N + M","83","","LN","LN2.jpg","remember","old","26","2","practice_forget","left","","","",""
"html-keyboard-response","83","695654","0.0-3.0-3.0-3.9","zn15zgtx7vp82mv","practice_cue","5d4ad488dfd8230018fd0b45","5f60e3c0a3b16e07647b2ff9","5f646b5dcef0791fd99042d0","false","null","<div style=""align-items: center; display: flex; color: dodgerblue; font-size: 90px""><b>o</b></div>","null","","","","forget_cue","","","","","","","","","","","","","","","",""
"html-keyboard-response","84","696355","0.0-3.0-3.0-0.10","zn15zgtx7vp82mv","practice_cue","5d4ad488dfd8230018fd0b45","5f60e3c0a3b16e07647b2ff9","5f646b5dcef0791fd99042d0","false","null","<span style=""color: black; font-size: 48px"">M + N</span>","null","","","","resp_prompt","","","","","","","","","","","","","","","",""
"categorize-image","85","696995","0.0-3.0-3.0-1.10","zn15zgtx7vp82mv","practice_cue","5d4ad488dfd8230018fd0b45","5f60e3c0a3b16e07647b2ff9","5f646b5dcef0791fd99042d0","true","637.1599999838509","./Stimuli/ImagesPractice/SM62.jpg","76","","","","test","false","M + N","83","","SM","SM62.jpg","remember","old","27","2","practice_forget","right","","","",""
"html-keyboard-response","86","697497","0.0-3.0-3.0-2.10-0.10","zn15zgtx7vp82mv","practice_cue","5d4ad488dfd8230018fd0b45","5f60e3c0a3b16e07647b2ff9","5f646b5dcef0791fd99042d0","false","null","<span style=""color: red; font-size: 48px"">Error!</span>","null","","","","feedback","","","","","","","","","","","","","","","",""
"html-keyboard-response","87","699499","0.0-3.0-3.0-3.10","zn15zgtx7vp82mv","practice_cue","5d4ad488dfd8230018fd0b45","5f60e3c0a3b16e07647b2ff9","5f646b5dcef0791fd99042d0","false","null","<div style=""align-items: center; display: flex; color: dodgerblue; font-size: 90px""><b>o</b></div>","null","","","","forget_cue","","","","","","","","","","","","","","","",""
"html-keyboard-response","88","700201","0.0-3.0-3.0-0.11","zn15zgtx7vp82mv","practice_cue","5d4ad488dfd8230018fd0b45","5f60e3c0a3b16e07647b2ff9","5f646b5dcef0791fd99042d0","false","null","<span style=""color: black; font-size: 48px"">M + N</span>","null","","","","resp_prompt","","","","","","","","","","","","","","","",""
"categorize-image","89","700804","0.0-3.0-3.0-1.11","zn15zgtx7vp82mv","practice_cue","5d4ad488dfd8230018fd0b45","5f60e3c0a3b16e07647b2ff9","5f646b5dcef0791fd99042d0","true","598.9000000117812","./Stimuli/ImagesPractice/SM97.jpg","83","","","","test","true","M + N","83","","SM","SM97.jpg","forget","old","28","2","practice_forget","left","","","",""
"html-keyboard-response","90","702805","0.0-3.0-3.0-3.11","zn15zgtx7vp82mv","practice_cue","5d4ad488dfd8230018fd0b45","5f60e3c0a3b16e07647b2ff9","5f646b5dcef0791fd99042d0","false","null","<div style=""align-items: center; display: flex; color: darkorange; font-size: 90px""><b>ø</b></div>","null","","","","forget_cue","","","","","","","","","","","","","","","",""
"html-keyboard-response","91","703506","0.0-3.0-3.0-0.12","zn15zgtx7vp82mv","practice_cue","5d4ad488dfd8230018fd0b45","5f60e3c0a3b16e07647b2ff9","5f646b5dcef0791fd99042d0","false","null","<span style=""color: black; font-size: 48px"">N + M</span>","null","","","","resp_prompt","","","","","","","","","","","","","","","",""
"categorize-image","92","704060","0.0-3.0-3.0-1.12","zn15zgtx7vp82mv","practice_cue","5d4ad488dfd8230018fd0b45","5f60e3c0a3b16e07647b2ff9","5f646b5dcef0791fd99042d0","true","550.0999999931082","./Stimuli/ImagesPractice/LN109.jpg","83","","","","test","true","N + M","83","","LN","LN109.jpg","forget","old","29","2","practice_forget","left","","","",""
"html-keyboard-response","93","706061","0.0-3.0-3.0-3.12","zn15zgtx7vp82mv","practice_cue","5d4ad488dfd8230018fd0b45","5f60e3c0a3b16e07647b2ff9","5f646b5dcef0791fd99042d0","false","null","<div style=""align-items: center; display: flex; color: darkorange; font-size: 90px""><b>ø</b></div>","null","","","","forget_cue","","","","","","","","","","","","","","","",""
"html-keyboard-response","94","706762","0.0-3.0-3.0-0.13","zn15zgtx7vp82mv","practice_cue","5d4ad488dfd8230018fd0b45","5f60e3c0a3b16e07647b2ff9","5f646b5dcef0791fd99042d0","false","null","<span style=""color: black; font-size: 48px"">M + N</span>","null","","","","resp_prompt","","","","","","","","","","","","","","","",""
"categorize-image","95","707323","0.0-3.0-3.0-1.13","zn15zgtx7vp82mv","practice_cue","5d4ad488dfd8230018fd0b45","5f60e3c0a3b16e07647b2ff9","5f646b5dcef0791fd99042d0","true","557.9800000123214","./Stimuli/ImagesPractice/SN221.jpg","83","","","","test","false","M + N","76","","SN","SN221.jpg","forget","old","30","2","practice_forget","left","","","",""
"html-keyboard-response","96","707825","0.0-3.0-3.0-2.13-0.13","zn15zgtx7vp82mv","practice_cue","5d4ad488dfd8230018fd0b45","5f60e3c0a3b16e07647b2ff9","5f646b5dcef0791fd99042d0","false","null","<span style=""color: red; font-size: 48px"">Error!</span>","null","","","","feedback","","","","","","","","","","","","","","","",""
"html-keyboard-response","97","709827","0.0-3.0-3.0-3.13","zn15zgtx7vp82mv","practice_cue","5d4ad488dfd8230018fd0b45","5f60e3c0a3b16e07647b2ff9","5f646b5dcef0791fd99042d0","false","null","<div style=""align-items: center; display: flex; color: darkorange; font-size: 90px""><b>ø</b></div>","null","","","","forget_cue","","","","","","","","","","","","","","","",""
"html-keyboard-response","98","710528","0.0-3.0-3.0-0.14","zn15zgtx7vp82mv","practice_cue","5d4ad488dfd8230018fd0b45","5f60e3c0a3b16e07647b2ff9","5f646b5dcef0791fd99042d0","false","null","<span style=""color: black; font-size: 48px"">M + N</span>","null","","","","resp_prompt","","","","","","","","","","","","","","","",""
"categorize-image","99","711082","0.0-3.0-3.0-1.14","zn15zgtx7vp82mv","practice_cue","5d4ad488dfd8230018fd0b45","5f60e3c0a3b16e07647b2ff9","5f646b5dcef0791fd99042d0","true","552.1249999874271","./Stimuli/ImagesPractice/LM224.jpg","83","","","","test","true","M + N","83","","LM","LM224.jpg","remember","old","31","2","practice_forget","left","","","",""
"html-keyboard-response","100","713084","0.0-3.0-3.0-3.14","zn15zgtx7vp82mv","practice_cue","5d4ad488dfd8230018fd0b45","5f60e3c0a3b16e07647b2ff9","5f646b5dcef0791fd99042d0","false","null","<div style=""align-items: center; display: flex; color: dodgerblue; font-size: 90px""><b>o</b></div>","null","","","","forget_cue","","","","","","","","","","","","","","","",""
"html-keyboard-response","101","713786","0.0-3.0-3.0-0.15","zn15zgtx7vp82mv","practice_cue","5d4ad488dfd8230018fd0b45","5f60e3c0a3b16e07647b2ff9","5f646b5dcef0791fd99042d0","false","null","<span style=""color: black; font-size: 48px"">M + N</span>","null","","","","resp_prompt","","","","","","","","","","","","","","","",""
"categorize-image","102","714315","0.0-3.0-3.0-1.15","zn15zgtx7vp82mv","practice_cue","5d4ad488dfd8230018fd0b45","5f60e3c0a3b16e07647b2ff9","5f646b5dcef0791fd99042d0","true","526.5699999872595","./Stimuli/ImagesPractice/LN17.jpg","83","","","","test","false","M + N","76","","LN","LN17.jpg","forget","old","32","2","practice_forget","left","","","",""
"html-keyboard-response","103","714817","0.0-3.0-3.0-2.15-0.15","zn15zgtx7vp82mv","practice_cue","5d4ad488dfd8230018fd0b45","5f60e3c0a3b16e07647b2ff9","5f646b5dcef0791fd99042d0","false","null","<span style=""color: red; font-size: 48px"">Error!</span>","null","","","","feedback","","","","","","","","","","","","","","","",""
"html-keyboard-response","104","716818","0.0-3.0-3.0-3.15","zn15zgtx7vp82mv","practice_cue","5d4ad488dfd8230018fd0b45","5f60e3c0a3b16e07647b2ff9","5f646b5dcef0791fd99042d0","false","null","<div style=""align-items: center; display: flex; color: darkorange; font-size: 90px""><b>ø</b></div>","null","","","","forget_cue","","","","","","","","","","","","","","","",""
"html-keyboard-response","105","722816","0.0-3.0-4.0","zn15zgtx7vp82mv","break","5d4ad488dfd8230018fd0b45","5f60e3c0a3b16e07647b2ff9","5f646b5dcef0791fd99042d0","false","5997.764999978244","<p style='font-size: 32px;'>Break</><br><br><br><br><br><p style='font-size: 24px;'>In the last block, you committed 10 errors and did not respond in time on 0 trials.
</p><p style='font-size: 24px;'>Try to respond as fast and accurately as possible in the next block as well! </p><p style='font-size: 24px;'>Press SPACE to continue.</p>","32","","","","","","","","","","","","","","","","","","","",""
"html-keyboard-response","106","750249","0.0-3.0-5.0","zn15zgtx7vp82mv","instructions","5d4ad488dfd8230018fd0b45","5f60e3c0a3b16e07647b2ff9","5f646b5dcef0791fd99042d0","false","27431.24999999418","<div align=left> Now, to practice, we kindly ask you to remember as many of the to-be-remembered pictures<br>of the previous learning phase as possible.<br><br>The pictures you were instructed to remember were the pictures followed by a <span style='color: dodgerblue; font-size: 28px'>O</span>.<br><br>In this memory test phase, you will also see some new pictures.<br>It is your task to remember whether you were presented with this specific picture in this study so far or not.<br>If you recognize an object (you have already seen it in this study), it is an OLD object. <br>If you do not recognize an object (you have NOT seen it in this study), it is a NEW object. <br><strong> Attention</strong>: As already mentioned, <span style='color: darkorange; font-size:28px'>Ø</span>-pictures will <strong>never</strong> appear in this memory test (neither as new objects). <br><br>Press SPACE to continue. </div>","32","","","","","","","","","","","","","","","","","","","",""
"html-keyboard-response","107","788280","0.0-3.0-6.0","zn15zgtx7vp82mv","instructions","5d4ad488dfd8230018fd0b45","5f60e3c0a3b16e07647b2ff9","5f646b5dcef0791fd99042d0","false","38030.73500000755","<div align=left> M and N no longer will appear on the left/right of the fixation cross. <br>Instead there will be a note at the bottom of the left or right side  <br>indicating which key you should press for an old or new object:  <br> <br>Press the <strong>right</strong> key to classify an object as <strong>old</strong> and press the <strong>left</strong>, to classify an object as <strong>new</strong>.<br>Please classify the objects as new/old by again placing your index finger on the 'S' and 'L' keys <br>and press them accordingly.<br><br><strong>Old:</strong> This object has been presented before. <br><strong>New:</strong> This object has <strong>not</strong> been presented.<br><br>Now please put your right and left index fingers on the 'S' and 'L' keys of your keyboard. <br>Please respond as fast and as accurately as possible!<br><br>Press SPACE to continue. </div>","32","","","","","","","","","","","","","","","","","","","",""
"categorize-image","108","789885","0.0-3.0-7.0-0.0","zn15zgtx7vp82mv","practice_recog","5d4ad488dfd8230018fd0b45","5f60e3c0a3b16e07647b2ff9","5f646b5dcef0791fd99042d0","true","1102.069999993546","./Stimuli/ImagesPractice/SN76.jpg","76","","","","test","true","","76","","SN","SN76.jpg","","old","33","3","practice_recog","right","","","",""
"categorize-image","109","792629","0.0-3.0-7.0-0.1","zn15zgtx7vp82mv","practice_recog","5d4ad488dfd8230018fd0b45","5f60e3c0a3b16e07647b2ff9","5f646b5dcef0791fd99042d0","true","2241.840000002412","./Stimuli/ImagesPractice/SM61.jpg","76","","","","test","true","","76","","SM","SM61.jpg","","old","34","3","practice_recog","right","","","",""
"categorize-image","110","793910","0.0-3.0-7.0-0.2","zn15zgtx7vp82mv","practice_recog","5d4ad488dfd8230018fd0b45","5f60e3c0a3b16e07647b2ff9","5f646b5dcef0791fd99042d0","true","777.6999999769032","./Stimuli/ImagesPractice/LM224.jpg","76","","","","test","true","","76","","LM","LM224.jpg","","old","35","3","practice_recog","right","","","",""
"categorize-image","111","795820","0.0-3.0-7.0-0.3","zn15zgtx7vp82mv","practice_recog","5d4ad488dfd8230018fd0b45","5f60e3c0a3b16e07647b2ff9","5f646b5dcef0791fd99042d0","true","1409.2599999858066","./Stimuli/ImagesPractice/LN2.jpg","76","","","","test","true","","76","","LN","LN2.jpg","","old","36","3","practice_recog","right","","","",""
"categorize-image","112","797188","0.0-3.0-7.0-0.4","zn15zgtx7vp82mv","practice_recog","5d4ad488dfd8230018fd0b45","5f60e3c0a3b16e07647b2ff9","5f646b5dcef0791fd99042d0","true","866.7100000020582","./Stimuli/ImagesPractice/LN72.jpg","83","","","","test","true","","83","","LN","LN72.jpg","","new","37","3","practice_recog","left","","","",""
"categorize-image","113","798644","0.0-3.0-7.0-0.5","zn15zgtx7vp82mv","practice_recog","5d4ad488dfd8230018fd0b45","5f60e3c0a3b16e07647b2ff9","5f646b5dcef0791fd99042d0","true","954.7550000133924","./Stimuli/ImagesPractice/LM147.jpg","83","","","","test","true","","83","","LM","LM147.jpg","","new","38","3","practice_recog","left","","","",""
"categorize-image","114","800062","0.0-3.0-7.0-0.6","zn15zgtx7vp82mv","practice_recog","5d4ad488dfd8230018fd0b45","5f60e3c0a3b16e07647b2ff9","5f646b5dcef0791fd99042d0","true","914.3849999818485","./Stimuli/ImagesPractice/SN222.jpg","76","","","","test","true","","76","","SN","SN222.jpg","","old","39","3","practice_recog","right","","","",""
"categorize-image","115","802126","0.0-3.0-7.0-0.7","zn15zgtx7vp82mv","practice_recog","5d4ad488dfd8230018fd0b45","5f60e3c0a3b16e07647b2ff9","5f646b5dcef0791fd99042d0","true","1560.9049999911804","./Stimuli/ImagesPractice/LM239.jpg","83","","","","test","true","","83","","LM","LM239.jpg","","new","40","3","practice_recog","left","","","",""
"categorize-image","116","803589","0.0-3.0-7.0-0.8","zn15zgtx7vp82mv","practice_recog","5d4ad488dfd8230018fd0b45","5f60e3c0a3b16e07647b2ff9","5f646b5dcef0791fd99042d0","true","961.0500000126194","./Stimuli/ImagesPractice/SM35.jpg","76","","","","test","true","","76","","SM","SM35.jpg","","old","41","3","practice_recog","right","","","",""
"categorize-image","117","806126","0.0-3.0-7.0-0.9","zn15zgtx7vp82mv","practice_recog","5d4ad488dfd8230018fd0b45","5f60e3c0a3b16e07647b2ff9","5f646b5dcef0791fd99042d0","true","2034.0399999986403","./Stimuli/ImagesPractice/LM143.jpg","83","","","","test","true","","83","","LM","LM143.jpg","","new","42","3","practice_recog","left","","","",""
"categorize-image","118","807492","0.0-3.0-7.0-0.10","zn15zgtx7vp82mv","practice_recog","5d4ad488dfd8230018fd0b45","5f60e3c0a3b16e07647b2ff9","5f646b5dcef0791fd99042d0","true","865.10999998427","./Stimuli/ImagesPractice/SN220.jpg","76","","","","test","true","","76","","SN","SN220.jpg","","old","43","3","practice_recog","right","","","",""
"categorize-image","119","809078","0.0-3.0-7.0-0.11","zn15zgtx7vp82mv","practice_recog","5d4ad488dfd8230018fd0b45","5f60e3c0a3b16e07647b2ff9","5f646b5dcef0791fd99042d0","true","1082.2449999977835","./Stimuli/ImagesPractice/SM62.jpg","76","","","","test","true","","76","","SM","SM62.jpg","","old","44","3","practice_recog","right","","","",""
"categorize-image","120","810949","0.0-3.0-7.0-0.12","zn15zgtx7vp82mv","practice_recog","5d4ad488dfd8230018fd0b45","5f60e3c0a3b16e07647b2ff9","5f646b5dcef0791fd99042d0","true","1369.2450000089593","./Stimuli/ImagesPractice/SN205.jpg","83","","","","test","true","","83","","SN","SN205.jpg","","new","45","3","practice_recog","left","","","",""
"categorize-image","121","812309","0.0-3.0-7.0-0.13","zn15zgtx7vp82mv","practice_recog","5d4ad488dfd8230018fd0b45","5f60e3c0a3b16e07647b2ff9","5f646b5dcef0791fd99042d0","true","857.3600000236183","./Stimuli/ImagesPractice/SM37.jpg","83","","","","test","true","","83","","SM","SM37.jpg","","new","46","3","practice_recog","left","","","",""
"categorize-image","122","813710","0.0-3.0-7.0-0.14","zn15zgtx7vp82mv","practice_recog","5d4ad488dfd8230018fd0b45","5f60e3c0a3b16e07647b2ff9","5f646b5dcef0791fd99042d0","true","898.365000000922","./Stimuli/ImagesPractice/SN75.jpg","83","","","","test","true","","83","","SN","SN75.jpg","","new","47","3","practice_recog","left","","","",""
"categorize-image","123","815069","0.0-3.0-7.0-0.15","zn15zgtx7vp82mv","practice_recog","5d4ad488dfd8230018fd0b45","5f60e3c0a3b16e07647b2ff9","5f646b5dcef0791fd99042d0","true","856.9549999956507","./Stimuli/ImagesPractice/SM98.jpg","83","","","","test","true","","83","","SM","SM98.jpg","","new","48","3","practice_recog","left","","","",""
"html-keyboard-response","124","826008","0.0-3.0-8.0","zn15zgtx7vp82mv","instructions","5d4ad488dfd8230018fd0b45","5f60e3c0a3b16e07647b2ff9","5f646b5dcef0791fd99042d0","false","10937.819999991916","<div align=left> Great!<br><br>Are you ready to continue?<br>If you want to reread the instructions and redo the practice trials, please <br>press „Z“.<br><br>You can proceed when you are ready.<br><br>After the presentation of each object, you will receive an instruction whether to <br>remember or to forget the object.<br>We will test your memory of the following pictures only at the very end of <br>the experiment after all learning blocks are completed. <br><br>Press SPACE to CONTINUE when you are ready. </div>","32","","","","","","","","","","","","","","","","","","","",""
"html-keyboard-response","125","838872","0.0-4.0-0.0","zn15zgtx7vp82mv","instructions","5d4ad488dfd8230018fd0b45","5f60e3c0a3b16e07647b2ff9","5f646b5dcef0791fd99042d0","false","12862.859999993816","<div align=left> The actual experiment is about to start.<br>The practice trials are over!<br><br>Please always respond both fast and accurately!<br><br>Remember: <br> <br><li> Please place your index fingers on the <strong>'S'</strong> and <strong>'L'</strong> keys <br>to respond as fast and accurately as possible.</li><li> Every picture can be classified as either mechanical or non-mechanical.</li><li> If you do not respond in time or commit an error, you will receive a corresponding feedback.<br> Please try to respond as <strong> fast </strong> and as <strong> accurately as possible </strong>.</li><li> Remember the <span style='color: dodgerblue; font-size: 28px'>O</span> pictures. <br></li><li> Please minimize distractions and stay focused. </li><br><br>Press SPACE to START.</div>","32","","","","","","","","","","","","","","","","","","","",""
"html-keyboard-response","126","839574","0.0-4.0-1.0-0.0","zn15zgtx7vp82mv","prime","5d4ad488dfd8230018fd0b45","5f60e3c0a3b16e07647b2ff9","5f646b5dcef0791fd99042d0","false","null","<span style=""color: black; font-size: 48px"">N + M</span>","null","","","","resp_prompt","","","","","","","","","","","","","","","",""
"categorize-image","127","840202","0.0-4.0-1.0-1.0","zn15zgtx7vp82mv","prime","5d4ad488dfd8230018fd0b45","5f60e3c0a3b16e07647b2ff9","5f646b5dcef0791fd99042d0","true","624.0450000041164","./Stimuli/SelectedImages/LN/LN13.bmp","83","","","","test","true","N + M","83","repetition","LN","LN13.bmp","remember","","49","3","prime1","left","","","",""
"html-keyboard-response","128","842204","0.0-4.0-1.0-3.0","zn15zgtx7vp82mv","prime","5d4ad488dfd8230018fd0b45","5f60e3c0a3b16e07647b2ff9","5f646b5dcef0791fd99042d0","false","null","<div style=""align-items: center; display: flex; color: dodgerblue; font-size: 90px""><b>o</b></div>","null","","","","forget_cue","","","","","","","","","","","","","","","",""
"html-keyboard-response","129","842905","0.0-4.0-1.0-0.1","zn15zgtx7vp82mv","prime","5d4ad488dfd8230018fd0b45","5f60e3c0a3b16e07647b2ff9","5f646b5dcef0791fd99042d0","false","null","<span style=""color: black; font-size: 48px"">M + N</span>","null","","","","resp_prompt","","","","","","","","","","","","","","","",""
"categorize-image","130","843609","0.0-4.0-1.0-1.1","zn15zgtx7vp82mv","prime","5d4ad488dfd8230018fd0b45","5f60e3c0a3b16e07647b2ff9","5f646b5dcef0791fd99042d0","true","701.165000005858","./Stimuli/SelectedImages/SN/SN240.bmp","83","","","","test","false","M + N","76","switch","SN","SN240.bmp","remember","","50","3","prime1","left","","","",""
"html-keyboard-response","131","844111","0.0-4.0-1.0-2.1-0.1","zn15zgtx7vp82mv","prime","5d4ad488dfd8230018fd0b45","5f60e3c0a3b16e07647b2ff9","5f646b5dcef0791fd99042d0","false","null","<span style=""color: red; font-size: 48px"">Error!</span>","null","","","","feedback","","","","","","","","","","","","","","","",""
"html-keyboard-response","132","846113","0.0-4.0-1.0-3.1","zn15zgtx7vp82mv","prime","5d4ad488dfd8230018fd0b45","5f60e3c0a3b16e07647b2ff9","5f646b5dcef0791fd99042d0","false","null","<div style=""align-items: center; display: flex; color: dodgerblue; font-size: 90px""><b>o</b></div>","null","","","","forget_cue","","","","","","","","","","","","","","","",""
"html-keyboard-response","133","846814","0.0-4.0-1.0-0.2","zn15zgtx7vp82mv","prime","5d4ad488dfd8230018fd0b45","5f60e3c0a3b16e07647b2ff9","5f646b5dcef0791fd99042d0","false","null","<span style=""color: black; font-size: 48px"">M + N</span>","null","","","","resp_prompt","","","","","","","","","","","","","","","",""
"categorize-image","134","847369","0.0-4.0-1.0-1.2","zn15zgtx7vp82mv","prime","5d4ad488dfd8230018fd0b45","5f60e3c0a3b16e07647b2ff9","5f646b5dcef0791fd99042d0","true","552.510000008624","./Stimuli/SelectedImages/SM/SM24.bmp","83","","","","test","true","M + N","83","repetition","SM","SM24.bmp","forget","","51","3","prime1","left","","","",""
"html-keyboard-response","135","849371","0.0-4.0-1.0-3.2","zn15zgtx7vp82mv","prime","5d4ad488dfd8230018fd0b45","5f60e3c0a3b16e07647b2ff9","5f646b5dcef0791fd99042d0","false","null","<div style=""align-items: center; display: flex; color: darkorange; font-size: 90px""><b>ø</b></div>","null","","","","forget_cue","","","","","","","","","","","","","","","",""
"html-keyboard-response","136","850072","0.0-4.0-1.0-0.3","zn15zgtx7vp82mv","prime","5d4ad488dfd8230018fd0b45","5f60e3c0a3b16e07647b2ff9","5f646b5dcef0791fd99042d0","false","null","<span style=""color: black; font-size: 48px"">M + N</span>","null","","","","resp_prompt","","","","","","","","","","","","","","","",""
"categorize-image","137","850858","0.0-4.0-1.0-1.3","zn15zgtx7vp82mv","prime","5d4ad488dfd8230018fd0b45","5f60e3c0a3b16e07647b2ff9","5f646b5dcef0791fd99042d0","true","782.6500000082888","./Stimuli/SelectedImages/LN/LN9.bmp","76","","","","test","true","M + N","76","repetition","LN","LN9.bmp","remember","","52","3","prime1","right","","","",""
"html-keyboard-response","138","852859","0.0-4.0-1.0-3.3","zn15zgtx7vp82mv","prime","5d4ad488dfd8230018fd0b45","5f60e3c0a3b16e07647b2ff9","5f646b5dcef0791fd99042d0","false","null","<div style=""align-items: center; display: flex; color: dodgerblue; font-size: 90px""><b>o</b></div>","null","","","","forget_cue","","","","","","","","","","","","","","","",""
"html-keyboard-response","139","853561","0.0-4.0-1.0-0.4","zn15zgtx7vp82mv","prime","5d4ad488dfd8230018fd0b45","5f60e3c0a3b16e07647b2ff9","5f646b5dcef0791fd99042d0","false","null","<span style=""color: black; font-size: 48px"">N + M</span>","null","","","","resp_prompt","","","","","","","","","","","","","","","",""
"categorize-image","140","854129","0.0-4.0-1.0-1.4","zn15zgtx7vp82mv","prime","5d4ad488dfd8230018fd0b45","5f60e3c0a3b16e07647b2ff9","5f646b5dcef0791fd99042d0","true","565.9349999914411","./Stimuli/SelectedImages/LN/LN150.bmp","83","","","","test","true","N + M","83","repetition","LN","LN150.bmp","forget","","53","3","prime1","left","","","",""
"html-keyboard-response","141","856131","0.0-4.0-1.0-3.4","zn15zgtx7vp82mv","prime","5d4ad488dfd8230018fd0b45","5f60e3c0a3b16e07647b2ff9","5f646b5dcef0791fd99042d0","false","null","<div style=""align-items: center; display: flex; color: darkorange; font-size: 90px""><b>ø</b></div>","null","","","","forget_cue","","","","","","","","","","","","","","","",""
"html-keyboard-response","142","856832","0.0-4.0-1.0-0.5","zn15zgtx7vp82mv","prime","5d4ad488dfd8230018fd0b45","5f60e3c0a3b16e07647b2ff9","5f646b5dcef0791fd99042d0","false","null","<span style=""color: black; font-size: 48px"">M + N</span>","null","","","","resp_prompt","","","","","","","","","","","","","","","",""
"categorize-image","143","857529","0.0-4.0-1.0-1.5","zn15zgtx7vp82mv","prime","5d4ad488dfd8230018fd0b45","5f60e3c0a3b16e07647b2ff9","5f646b5dcef0791fd99042d0","true","695.0450000003912","./Stimuli/SelectedImages/LM/LM167.bmp","76","","","","test","false","M + N","83","repetition","LM","LM167.bmp","forget","","54","3","prime1","right","","","",""
"html-keyboard-response","144","858032","0.0-4.0-1.0-2.5-0.5","zn15zgtx7vp82mv","prime","5d4ad488dfd8230018fd0b45","5f60e3c0a3b16e07647b2ff9","5f646b5dcef0791fd99042d0","false","null","<span style=""color: red; font-size: 48px"">Error!</span>","null","","","","feedback","","","","","","","","","","","","","","","",""
"html-keyboard-response","145","860034","0.0-4.0-1.0-3.5","zn15zgtx7vp82mv","prime","5d4ad488dfd8230018fd0b45","5f60e3c0a3b16e07647b2ff9","5f646b5dcef0791fd99042d0","false","null","<div style=""align-items: center; display: flex; color: darkorange; font-size: 90px""><b>ø</b></div>","null","","","","forget_cue","","","","","","","","","","","","","","","",""
"html-keyboard-response","146","860736","0.0-4.0-1.0-0.6","zn15zgtx7vp82mv","prime","5d4ad488dfd8230018fd0b45","5f60e3c0a3b16e07647b2ff9","5f646b5dcef0791fd99042d0","false","null","<span style=""color: black; font-size: 48px"">M + N</span>","null","","","","resp_prompt","","","","","","","","","","","","","","","",""
"categorize-image","147","861372","0.0-4.0-1.0-1.6","zn15zgtx7vp82mv","prime","5d4ad488dfd8230018fd0b45","5f60e3c0a3b16e07647b2ff9","5f646b5dcef0791fd99042d0","true","631.0250000096858","./Stimuli/SelectedImages/SN/SN181.bmp","76","","","","test","true","M + N","76","switch","SN","SN181.bmp","forget","","55","3","prime1","right","","","",""
"html-keyboard-response","148","863374","0.0-4.0-1.0-3.6","zn15zgtx7vp82mv","prime","5d4ad488dfd8230018fd0b45","5f60e3c0a3b16e07647b2ff9","5f646b5dcef0791fd99042d0","false","null","<div style=""align-items: center; display: flex; color: darkorange; font-size: 90px""><b>ø</b></div>","null","","","","forget_cue","","","","","","","","","","","","","","","",""
"html-keyboard-response","149","864076","0.0-4.0-1.0-0.7","zn15zgtx7vp82mv","prime","5d4ad488dfd8230018fd0b45","5f60e3c0a3b16e07647b2ff9","5f646b5dcef0791fd99042d0","false","null","<span style=""color: black; font-size: 48px"">N + M</span>","null","","","","resp_prompt","","","","","","","","","","","","","","","",""
"categorize-image","150","864633","0.0-4.0-1.0-1.7","zn15zgtx7vp82mv","prime","5d4ad488dfd8230018fd0b45","5f60e3c0a3b16e07647b2ff9","5f646b5dcef0791fd99042d0","true","555.3249999938998","./Stimuli/SelectedImages/LN/LN42.bmp","83","","","","test","true","N + M","83","repetition","LN","LN42.bmp","forget","","56","3","prime1","left","","","",""
"html-keyboard-response","151","866637","0.0-4.0-1.0-3.7","zn15zgtx7vp82mv","prime","5d4ad488dfd8230018fd0b45","5f60e3c0a3b16e07647b2ff9","5f646b5dcef0791fd99042d0","false","null","<div style=""align-items: center; display: flex; color: darkorange; font-size: 90px""><b>ø</b></div>","null","","","","forget_cue","","","","","","","","","","","","","","","",""
"html-keyboard-response","152","867339","0.0-4.0-1.0-0.8","zn15zgtx7vp82mv","prime","5d4ad488dfd8230018fd0b45","5f60e3c0a3b16e07647b2ff9","5f646b5dcef0791fd99042d0","false","null","<span style=""color: black; font-size: 48px"">N + M</span>","null","","","","resp_prompt","","","","","","","","","","","","","","","",""
"categorize-image","153","868161","0.0-4.0-1.0-1.8","zn15zgtx7vp82mv","prime","5d4ad488dfd8230018fd0b45","5f60e3c0a3b16e07647b2ff9","5f646b5dcef0791fd99042d0","true","820.1150000095367","./Stimuli/SelectedImages/LM/LM157.bmp","76","","","","test","true","N + M","76","repetition","LM","LM157.bmp","remember","","57","3","prime1","right","","","",""
"html-keyboard-response","154","870163","0.0-4.0-1.0-3.8","zn15zgtx7vp82mv","prime","5d4ad488dfd8230018fd0b45","5f60e3c0a3b16e07647b2ff9","5f646b5dcef0791fd99042d0","false","null","<div style=""align-items: center; display: flex; color: dodgerblue; font-size: 90px""><b>o</b></div>","null","","","","forget_cue","","","","","","","","","","","","","","","",""
"html-keyboard-response","155","870864","0.0-4.0-1.0-0.9","zn15zgtx7vp82mv","prime","5d4ad488dfd8230018fd0b45","5f60e3c0a3b16e07647b2ff9","5f646b5dcef0791fd99042d0","false","null","<span style=""color: black; font-size: 48px"">N + M</span>","null","","","","resp_prompt","","","","","","","","","","","","","","","",""
"categorize-image","156","871410","0.0-4.0-1.0-1.9","zn15zgtx7vp82mv","prime","5d4ad488dfd8230018fd0b45","5f60e3c0a3b16e07647b2ff9","5f646b5dcef0791fd99042d0","true","542.8350000001956","./Stimuli/SelectedImages/LN/LN128.bmp","83","","","","test","true","N + M","83","repetition","LN","LN128.bmp","remember","","58","3","prime1","left","","","",""
"html-keyboard-response","157","873411","0.0-4.0-1.0-3.9","zn15zgtx7vp82mv","prime","5d4ad488dfd8230018fd0b45","5f60e3c0a3b16e07647b2ff9","5f646b5dcef0791fd99042d0","false","null","<div style=""align-items: center; display: flex; color: dodgerblue; font-size: 90px""><b>o</b></div>","null","","","","forget_cue","","","","","","","","","","","","","","","",""
"html-keyboard-response","158","874111","0.0-4.0-1.0-0.10","zn15zgtx7vp82mv","prime","5d4ad488dfd8230018fd0b45","5f60e3c0a3b16e07647b2ff9","5f646b5dcef0791fd99042d0","false","null","<span style=""color: black; font-size: 48px"">M + N</span>","null","","","","resp_prompt","","","","","","","","","","","","","","","",""
"categorize-image","159","874722","0.0-4.0-1.0-1.10","zn15zgtx7vp82mv","prime","5d4ad488dfd8230018fd0b45","5f60e3c0a3b16e07647b2ff9","5f646b5dcef0791fd99042d0","true","607.3700000124518","./Stimuli/SelectedImages/LN/LN166.bmp","76","","","","test","true","M + N","76","switch","LN","LN166.bmp","remember","","59","3","prime1","right","","","",""
"html-keyboard-response","160","876724","0.0-4.0-1.0-3.10","zn15zgtx7vp82mv","prime","5d4ad488dfd8230018fd0b45","5f60e3c0a3b16e07647b2ff9","5f646b5dcef0791fd99042d0","false","null","<div style=""align-items: center; display: flex; color: dodgerblue; font-size: 90px""><b>o</b></div>","null","","","","forget_cue","","","","","","","","","","","","","","","",""
"html-keyboard-response","161","877426","0.0-4.0-1.0-0.11","zn15zgtx7vp82mv","prime","5d4ad488dfd8230018fd0b45","5f60e3c0a3b16e07647b2ff9","5f646b5dcef0791fd99042d0","false","null","<span style=""color: black; font-size: 48px"">N + M</span>","null","","","","resp_prompt","","","","","","","","","","","","","","","",""
"categorize-image","162","877874","0.0-4.0-1.0-1.11","zn15zgtx7vp82mv","prime","5d4ad488dfd8230018fd0b45","5f60e3c0a3b16e07647b2ff9","5f646b5dcef0791fd99042d0","true","445.47000000602566","./Stimuli/SelectedImages/SN/SN52.bmp","83","","","","test","true","N + M","83","repetition","SN","SN52.bmp","remember","","60","3","prime1","left","","","",""
"html-keyboard-response","163","879875","0.0-4.0-1.0-3.11","zn15zgtx7vp82mv","prime","5d4ad488dfd8230018fd0b45","5f60e3c0a3b16e07647b2ff9","5f646b5dcef0791fd99042d0","false","null","<div style=""align-items: center; display: flex; color: dodgerblue; font-size: 90px""><b>o</b></div>","null","","","","forget_cue","","","","","","","","","","","","","","","",""
"html-keyboard-response","164","880577","0.0-4.0-1.0-0.12","zn15zgtx7vp82mv","prime","5d4ad488dfd8230018fd0b45","5f60e3c0a3b16e07647b2ff9","5f646b5dcef0791fd99042d0","false","null","<span style=""color: black; font-size: 48px"">M + N</span>","null","","","","resp_prompt","","","","","","","","","","","","","","","",""
"categorize-image","165","881361","0.0-4.0-1.0-1.12","zn15zgtx7vp82mv","prime","5d4ad488dfd8230018fd0b45","5f60e3c0a3b16e07647b2ff9","5f646b5dcef0791fd99042d0","true","781.684999994468","./Stimuli/SelectedImages/LM/LM103.bmp","83","","","","test","true","M + N","83","repetition","LM","LM103.bmp","forget","","61","3","prime1","left","","","",""
"html-keyboard-response","166","883363","0.0-4.0-1.0-3.12","zn15zgtx7vp82mv","prime","5d4ad488dfd8230018fd0b45","5f60e3c0a3b16e07647b2ff9","5f646b5dcef0791fd99042d0","false","null","<div style=""align-items: center; display: flex; color: darkorange; font-size: 90px""><b>ø</b></div>","null","","","","forget_cue","","","","","","","","","","","","","","","",""
"html-keyboard-response","167","884064","0.0-4.0-1.0-0.13","zn15zgtx7vp82mv","prime","5d4ad488dfd8230018fd0b45","5f60e3c0a3b16e07647b2ff9","5f646b5dcef0791fd99042d0","false","null","<span style=""color: black; font-size: 48px"">M + N</span>","null","","","","resp_prompt","","","","","","","","","","","","","","","",""
"categorize-image","168","884569","0.0-4.0-1.0-1.13","zn15zgtx7vp82mv","prime","5d4ad488dfd8230018fd0b45","5f60e3c0a3b16e07647b2ff9","5f646b5dcef0791fd99042d0","true","502.520000009099","./Stimuli/SelectedImages/LN/LN92.bmp","76","","","","test","true","M + N","76","repetition","LN","LN92.bmp","forget","","62","3","prime1","right","","","",""
"html-keyboard-response","169","886571","0.0-4.0-1.0-3.13","zn15zgtx7vp82mv","prime","5d4ad488dfd8230018fd0b45","5f60e3c0a3b16e07647b2ff9","5f646b5dcef0791fd99042d0","false","null","<div style=""align-items: center; display: flex; color: darkorange; font-size: 90px""><b>ø</b></div>","null","","","","forget_cue","","","","","","","","","","","","","","","",""
"html-keyboard-response","170","887273","0.0-4.0-1.0-0.14","zn15zgtx7vp82mv","prime","5d4ad488dfd8230018fd0b45","5f60e3c0a3b16e07647b2ff9","5f646b5dcef0791fd99042d0","false","null","<span style=""color: black; font-size: 48px"">N + M</span>","null","","","","resp_prompt","","","","","","","","","","","","","","","",""
"categorize-image","171","888033","0.0-4.0-1.0-1.14","zn15zgtx7vp82mv","prime","5d4ad488dfd8230018fd0b45","5f60e3c0a3b16e07647b2ff9","5f646b5dcef0791fd99042d0","true","758.1800000043586","./Stimuli/SelectedImages/SN/SN155.bmp","83","","","","test","true","N + M","83","repetition","SN","SN155.bmp","forget","","63","3","prime1","left","","","",""
"html-keyboard-response","172","890035","0.0-4.0-1.0-3.14","zn15zgtx7vp82mv","prime","5d4ad488dfd8230018fd0b45","5f60e3c0a3b16e07647b2ff9","5f646b5dcef0791fd99042d0","false","null","<div style=""align-items: center; display: flex; color: darkorange; font-size: 90px""><b>ø</b></div>","null","","","","forget_cue","","","","","","","","","","","","","","","",""
"html-keyboard-response","173","890737","0.0-4.0-1.0-0.15","zn15zgtx7vp82mv","prime","5d4ad488dfd8230018fd0b45","5f60e3c0a3b16e07647b2ff9","5f646b5dcef0791fd99042d0","false","null","<span style=""color: black; font-size: 48px"">M + N</span>","null","","","","resp_prompt","","","","","","","","","","","","","","","",""
"categorize-image","174","891257","0.0-4.0-1.0-1.15","zn15zgtx7vp82mv","prime","5d4ad488dfd8230018fd0b45","5f60e3c0a3b16e07647b2ff9","5f646b5dcef0791fd99042d0","true","518.2400000048801","./Stimuli/SelectedImages/SN/SN111.bmp","76","","","","test","true","M + N","76","repetition","SN","SN111.bmp","forget","","64","3","prime1","right","","","",""
"html-keyboard-response","175","893260","0.0-4.0-1.0-3.15","zn15zgtx7vp82mv","prime","5d4ad488dfd8230018fd0b45","5f60e3c0a3b16e07647b2ff9","5f646b5dcef0791fd99042d0","false","null","<div style=""align-items: center; display: flex; color: darkorange; font-size: 90px""><b>ø</b></div>","null","","","","forget_cue","","","","","","","","","","","","","","","",""
"html-keyboard-response","176","893961","0.0-4.0-1.0-0.16","zn15zgtx7vp82mv","prime","5d4ad488dfd8230018fd0b45","5f60e3c0a3b16e07647b2ff9","5f646b5dcef0791fd99042d0","false","null","<span style=""color: black; font-size: 48px"">M + N</span>","null","","","","resp_prompt","","","","","","","","","","","","","","","",""
"categorize-image","177","894609","0.0-4.0-1.0-1.16","zn15zgtx7vp82mv","prime","5d4ad488dfd8230018fd0b45","5f60e3c0a3b16e07647b2ff9","5f646b5dcef0791fd99042d0","true","645.9949999989476","./Stimuli/SelectedImages/SM/SM76.bmp","83","","","","test","true","M + N","83","switch","SM","SM76.bmp","remember","","65","3","prime1","left","","","",""
"html-keyboard-response","178","896611","0.0-4.0-1.0-3.16","zn15zgtx7vp82mv","prime","5d4ad488dfd8230018fd0b45","5f60e3c0a3b16e07647b2ff9","5f646b5dcef0791fd99042d0","false","null","<div style=""align-items: center; display: flex; color: dodgerblue; font-size: 90px""><b>o</b></div>","null","","","","forget_cue","","","","","","","","","","","","","","","",""
"html-keyboard-response","179","897313","0.0-4.0-1.0-0.17","zn15zgtx7vp82mv","prime","5d4ad488dfd8230018fd0b45","5f60e3c0a3b16e07647b2ff9","5f646b5dcef0791fd99042d0","false","null","<span style=""color: black; font-size: 48px"">M + N</span>","null","","","","resp_prompt","","","","","","","","","","","","","","","",""
"categorize-image","180","897969","0.0-4.0-1.0-1.17","zn15zgtx7vp82mv","prime","5d4ad488dfd8230018fd0b45","5f60e3c0a3b16e07647b2ff9","5f646b5dcef0791fd99042d0","true","653.9300000004005","./Stimuli/SelectedImages/LN/LN82.bmp","76","","","","test","true","M + N","76","switch","LN","LN82.bmp","forget","","66","3","prime1","right","","","",""
"html-keyboard-response","181","899970","0.0-4.0-1.0-3.17","zn15zgtx7vp82mv","prime","5d4ad488dfd8230018fd0b45","5f60e3c0a3b16e07647b2ff9","5f646b5dcef0791fd99042d0","false","null","<div style=""align-items: center; display: flex; color: darkorange; font-size: 90px""><b>ø</b></div>","null","","","","forget_cue","","","","","","","","","","","","","","","",""
"html-keyboard-response","182","900672","0.0-4.0-1.0-0.18","zn15zgtx7vp82mv","prime","5d4ad488dfd8230018fd0b45","5f60e3c0a3b16e07647b2ff9","5f646b5dcef0791fd99042d0","false","null","<span style=""color: black; font-size: 48px"">M + N</span>","null","","","","resp_prompt","","","","","","","","","","","","","","","",""
"categorize-image","183","901217","0.0-4.0-1.0-1.18","zn15zgtx7vp82mv","prime","5d4ad488dfd8230018fd0b45","5f60e3c0a3b16e07647b2ff9","5f646b5dcef0791fd99042d0","true","543.1850000168197","./Stimuli/SelectedImages/SN/SN179.bmp","76","","","","test","true","M + N","76","switch","SN","SN179.bmp","remember","","67","3","prime1","right","","","",""
"html-keyboard-response","184","903219","0.0-4.0-1.0-3.18","zn15zgtx7vp82mv","prime","5d4ad488dfd8230018fd0b45","5f60e3c0a3b16e07647b2ff9","5f646b5dcef0791fd99042d0","false","null","<div style=""align-items: center; display: flex; color: dodgerblue; font-size: 90px""><b>o</b></div>","null","","","","forget_cue","","","","","","","","","","","","","","","",""
"html-keyboard-response","185","903920","0.0-4.0-1.0-0.19","zn15zgtx7vp82mv","prime","5d4ad488dfd8230018fd0b45","5f60e3c0a3b16e07647b2ff9","5f646b5dcef0791fd99042d0","false","null","<span style=""color: black; font-size: 48px"">N + M</span>","null","","","","resp_prompt","","","","","","","","","","","","","","","",""
"categorize-image","186","904457","0.0-4.0-1.0-1.19","zn15zgtx7vp82mv","prime","5d4ad488dfd8230018fd0b45","5f60e3c0a3b16e07647b2ff9","5f646b5dcef0791fd99042d0","true","534.3750000174623","./Stimuli/SelectedImages/SN/SN128.bmp","83","","","","test","true","N + M","83","switch","SN","SN128.bmp","forget","","68","3","prime1","left","","","",""
"html-keyboard-response","187","906458","0.0-4.0-1.0-3.19","zn15zgtx7vp82mv","prime","5d4ad488dfd8230018fd0b45","5f60e3c0a3b16e07647b2ff9","5f646b5dcef0791fd99042d0","false","null","<div style=""align-items: center; display: flex; color: darkorange; font-size: 90px""><b>ø</b></div>","null","","","","forget_cue","","","","","","","","","","","","","","","",""
"html-keyboard-response","188","907160","0.0-4.0-1.0-0.20","zn15zgtx7vp82mv","prime","5d4ad488dfd8230018fd0b45","5f60e3c0a3b16e07647b2ff9","5f646b5dcef0791fd99042d0","false","null","<span style=""color: black; font-size: 48px"">M + N</span>","null","","","","resp_prompt","","","","","","","","","","","","","","","",""
"categorize-image","189","907937","0.0-4.0-1.0-1.20","zn15zgtx7vp82mv","prime","5d4ad488dfd8230018fd0b45","5f60e3c0a3b16e07647b2ff9","5f646b5dcef0791fd99042d0","true","775.0850000011269","./Stimuli/SelectedImages/SM/SM205.bmp","83","","","","test","true","M + N","83","switch","SM","SM205.bmp","remember","","69","3","prime1","left","","","",""
"html-keyboard-response","190","909939","0.0-4.0-1.0-3.20","zn15zgtx7vp82mv","prime","5d4ad488dfd8230018fd0b45","5f60e3c0a3b16e07647b2ff9","5f646b5dcef0791fd99042d0","false","null","<div style=""align-items: center; display: flex; color: dodgerblue; font-size: 90px""><b>o</b></div>","null","","","","forget_cue","","","","","","","","","","","","","","","",""
"html-keyboard-response","191","910640","0.0-4.0-1.0-0.21","zn15zgtx7vp82mv","prime","5d4ad488dfd8230018fd0b45","5f60e3c0a3b16e07647b2ff9","5f646b5dcef0791fd99042d0","false","null","<span style=""color: black; font-size: 48px"">M + N</span>","null","","","","resp_prompt","","","","","","","","","","","","","","","",""
"categorize-image","192","911185","0.0-4.0-1.0-1.21","zn15zgtx7vp82mv","prime","5d4ad488dfd8230018fd0b45","5f60e3c0a3b16e07647b2ff9","5f646b5dcef0791fd99042d0","true","542.3850000079256","./Stimuli/SelectedImages/LN/LN101.bmp","76","","","","test","true","M + N","76","repetition","LN","LN101.bmp","forget","","70","3","prime1","right","","","",""
"html-keyboard-response","193","913187","0.0-4.0-1.0-3.21","zn15zgtx7vp82mv","prime","5d4ad488dfd8230018fd0b45","5f60e3c0a3b16e07647b2ff9","5f646b5dcef0791fd99042d0","false","null","<div style=""align-items: center; display: flex; color: darkorange; font-size: 90px""><b>ø</b></div>","null","","","","forget_cue","","","","","","","","","","","","","","","",""
"html-keyboard-response","194","913889","0.0-4.0-1.0-0.22","zn15zgtx7vp82mv","prime","5d4ad488dfd8230018fd0b45","5f60e3c0a3b16e07647b2ff9","5f646b5dcef0791fd99042d0","false","null","<span style=""color: black; font-size: 48px"">N + M</span>","null","","","","resp_prompt","","","","","","","","","","","","","","","",""
"categorize-image","195","914529","0.0-4.0-1.0-1.22","zn15zgtx7vp82mv","prime","5d4ad488dfd8230018fd0b45","5f60e3c0a3b16e07647b2ff9","5f646b5dcef0791fd99042d0","true","637.9650000017136","./Stimuli/SelectedImages/LN/LN28.bmp","83","","","","test","true","N + M","83","switch","LN","LN28.bmp","forget","","71","3","prime1","left","","","",""
"html-keyboard-response","196","916531","0.0-4.0-1.0-3.22","zn15zgtx7vp82mv","prime","5d4ad488dfd8230018fd0b45","5f60e3c0a3b16e07647b2ff9","5f646b5dcef0791fd99042d0","false","null","<div style=""align-items: center; display: flex; color: darkorange; font-size: 90px""><b>ø</b></div>","null","","","","forget_cue","","","","","","","","","","","","","","","",""
"html-keyboard-response","197","917233","0.0-4.0-1.0-0.23","zn15zgtx7vp82mv","prime","5d4ad488dfd8230018fd0b45","5f60e3c0a3b16e07647b2ff9","5f646b5dcef0791fd99042d0","false","null","<span style=""color: black; font-size: 48px"">M + N</span>","null","","","","resp_prompt","","","","","","","","","","","","","","","",""
"categorize-image","198","918057","0.0-4.0-1.0-1.23","zn15zgtx7vp82mv","prime","5d4ad488dfd8230018fd0b45","5f60e3c0a3b16e07647b2ff9","5f646b5dcef0791fd99042d0","true","822.0049999945331","./Stimuli/SelectedImages/SM/SM148.bmp","83","","","","test","true","M + N","83","switch","SM","SM148.bmp","forget","","72","3","prime1","left","","","",""
"html-keyboard-response","199","920058","0.0-4.0-1.0-3.23","zn15zgtx7vp82mv","prime","5d4ad488dfd8230018fd0b45","5f60e3c0a3b16e07647b2ff9","5f646b5dcef0791fd99042d0","false","null","<div style=""align-items: center; display: flex; color: darkorange; font-size: 90px""><b>ø</b></div>","null","","","","forget_cue","","","","","","","","","","","","","","","",""
"html-keyboard-response","200","920759","0.0-4.0-1.0-0.24","zn15zgtx7vp82mv","prime","5d4ad488dfd8230018fd0b45","5f60e3c0a3b16e07647b2ff9","5f646b5dcef0791fd99042d0","false","null","<span style=""color: black; font-size: 48px"">M + N</span>","null","","","","resp_prompt","","","","","","","","","","","","","","","",""
"categorize-image","201","921297","0.0-4.0-1.0-1.24","zn15zgtx7vp82mv","prime","5d4ad488dfd8230018fd0b45","5f60e3c0a3b16e07647b2ff9","5f646b5dcef0791fd99042d0","true","535.4799999913666","./Stimuli/SelectedImages/LN/LN111.bmp","76","","","","test","true","M + N","76","switch","LN","LN111.bmp","forget","","73","3","prime1","right","","","",""
"html-keyboard-response","202","923299","0.0-4.0-1.0-3.24","zn15zgtx7vp82mv","prime","5d4ad488dfd8230018fd0b45","5f60e3c0a3b16e07647b2ff9","5f646b5dcef0791fd99042d0","false","null","<div style=""align-items: center; display: flex; color: darkorange; font-size: 90px""><b>ø</b></div>","null","","","","forget_cue","","","","","","","","","","","","","","","",""
"html-keyboard-response","203","924001","0.0-4.0-1.0-0.25","zn15zgtx7vp82mv","prime","5d4ad488dfd8230018fd0b45","5f60e3c0a3b16e07647b2ff9","5f646b5dcef0791fd99042d0","false","null","<span style=""color: black; font-size: 48px"">N + M</span>","null","","","","resp_prompt","","","","","","","","","","","","","","","",""
"categorize-image","204","924633","0.0-4.0-1.0-1.25","zn15zgtx7vp82mv","prime","5d4ad488dfd8230018fd0b45","5f60e3c0a3b16e07647b2ff9","5f646b5dcef0791fd99042d0","true","629.9500000022817","./Stimuli/SelectedImages/LN/LN131.bmp","83","","","","test","true","N + M","83","switch","LN","LN131.bmp","remember","","74","3","prime1","left","","","",""
"html-keyboard-response","205","926634","0.0-4.0-1.0-3.25","zn15zgtx7vp82mv","prime","5d4ad488dfd8230018fd0b45","5f60e3c0a3b16e07647b2ff9","5f646b5dcef0791fd99042d0","false","null","<div style=""align-items: center; display: flex; color: dodgerblue; font-size: 90px""><b>o</b></div>","null","","","","forget_cue","","","","","","","","","","","","","","","",""
"html-keyboard-response","206","927336","0.0-4.0-1.0-0.26","zn15zgtx7vp82mv","prime","5d4ad488dfd8230018fd0b45","5f60e3c0a3b16e07647b2ff9","5f646b5dcef0791fd99042d0","false","null","<span style=""color: black; font-size: 48px"">N + M</span>","null","","","","resp_prompt","","","","","","","","","","","","","","","",""
"categorize-image","207","927929","0.0-4.0-1.0-1.26","zn15zgtx7vp82mv","prime","5d4ad488dfd8230018fd0b45","5f60e3c0a3b16e07647b2ff9","5f646b5dcef0791fd99042d0","true","590.939999994589","./Stimuli/SelectedImages/LM/LM235.bmp","76","","","","test","true","N + M","76","repetition","LM","LM235.bmp","forget","","75","3","prime1","right","","","",""
"html-keyboard-response","208","929930","0.0-4.0-1.0-3.26","zn15zgtx7vp82mv","prime","5d4ad488dfd8230018fd0b45","5f60e3c0a3b16e07647b2ff9","5f646b5dcef0791fd99042d0","false","null","<div style=""align-items: center; display: flex; color: darkorange; font-size: 90px""><b>ø</b></div>","null","","","","forget_cue","","","","","","","","","","","","","","","",""
"html-keyboard-response","209","930631","0.0-4.0-1.0-0.27","zn15zgtx7vp82mv","prime","5d4ad488dfd8230018fd0b45","5f60e3c0a3b16e07647b2ff9","5f646b5dcef0791fd99042d0","false","null","<span style=""color: black; font-size: 48px"">N + M</span>","null","","","","resp_prompt","","","","","","","","","","","","","","","",""
"categorize-image","210","931641","0.0-4.0-1.0-1.27","zn15zgtx7vp82mv","prime","5d4ad488dfd8230018fd0b45","5f60e3c0a3b16e07647b2ff9","5f646b5dcef0791fd99042d0","true","1007.4249999888707","./Stimuli/SelectedImages/SM/SM108.bmp","83","","","","test","false","N + M","76","repetition","SM","SM108.bmp","forget","","76","3","prime1","left","","","",""
"html-keyboard-response","211","932143","0.0-4.0-1.0-2.27-0.27","zn15zgtx7vp82mv","prime","5d4ad488dfd8230018fd0b45","5f60e3c0a3b16e07647b2ff9","5f646b5dcef0791fd99042d0","false","null","<span style=""color: red; font-size: 48px"">Error!</span>","null","","","","feedback","","","","","","","","","","","","","","","",""
"html-keyboard-response","212","934145","0.0-4.0-1.0-3.27","zn15zgtx7vp82mv","prime","5d4ad488dfd8230018fd0b45","5f60e3c0a3b16e07647b2ff9","5f646b5dcef0791fd99042d0","false","null","<div style=""align-items: center; display: flex; color: darkorange; font-size: 90px""><b>ø</b></div>","null","","","","forget_cue","","","","","","","","","","","","","","","",""
"html-keyboard-response","213","934846","0.0-4.0-1.0-0.28","zn15zgtx7vp82mv","prime","5d4ad488dfd8230018fd0b45","5f60e3c0a3b16e07647b2ff9","5f646b5dcef0791fd99042d0","false","null","<span style=""color: black; font-size: 48px"">N + M</span>","null","","","","resp_prompt","","","","","","","","","","","","","","","",""
"categorize-image","214","935745","0.0-4.0-1.0-1.28","zn15zgtx7vp82mv","prime","5d4ad488dfd8230018fd0b45","5f60e3c0a3b16e07647b2ff9","5f646b5dcef0791fd99042d0","true","896.1899999994785","./Stimuli/SelectedImages/SM/SM195.bmp","83","","","","test","false","N + M","76","switch","SM","SM195.bmp","remember","","77","3","prime1","left","","","",""
"html-keyboard-response","215","936248","0.0-4.0-1.0-2.28-0.28","zn15zgtx7vp82mv","prime","5d4ad488dfd8230018fd0b45","5f60e3c0a3b16e07647b2ff9","5f646b5dcef0791fd99042d0","false","null","<span style=""color: red; font-size: 48px"">Error!</span>","null","","","","feedback","","","","","","","","","","","","","","","",""
"html-keyboard-response","216","938250","0.0-4.0-1.0-3.28","zn15zgtx7vp82mv","prime","5d4ad488dfd8230018fd0b45","5f60e3c0a3b16e07647b2ff9","5f646b5dcef0791fd99042d0","false","null","<div style=""align-items: center; display: flex; color: dodgerblue; font-size: 90px""><b>o</b></div>","null","","","","forget_cue","","","","","","","","","","","","","","","",""
"html-keyboard-response","217","938952","0.0-4.0-1.0-0.29","zn15zgtx7vp82mv","prime","5d4ad488dfd8230018fd0b45","5f60e3c0a3b16e07647b2ff9","5f646b5dcef0791fd99042d0","false","null","<span style=""color: black; font-size: 48px"">N + M</span>","null","","","","resp_prompt","","","","","","","","","","","","","","","",""
"categorize-image","218","939529","0.0-4.0-1.0-1.29","zn15zgtx7vp82mv","prime","5d4ad488dfd8230018fd0b45","5f60e3c0a3b16e07647b2ff9","5f646b5dcef0791fd99042d0","true","574.7799999953713","./Stimuli/SelectedImages/SM/SM213.bmp","76","","","","test","true","N + M","76","repetition","SM","SM213.bmp","remember","","78","3","prime1","right","","","",""
"html-keyboard-response","219","941530","0.0-4.0-1.0-3.29","zn15zgtx7vp82mv","prime","5d4ad488dfd8230018fd0b45","5f60e3c0a3b16e07647b2ff9","5f646b5dcef0791fd99042d0","false","null","<div style=""align-items: center; display: flex; color: dodgerblue; font-size: 90px""><b>o</b></div>","null","","","","forget_cue","","","","","","","","","","","","","","","",""
"html-keyboard-response","220","942231","0.0-4.0-1.0-0.30","zn15zgtx7vp82mv","prime","5d4ad488dfd8230018fd0b45","5f60e3c0a3b16e07647b2ff9","5f646b5dcef0791fd99042d0","false","null","<span style=""color: black; font-size: 48px"">N + M</span>","null","","","","resp_prompt","","","","","","","","","","","","","","","",""
"categorize-image","221","942865","0.0-4.0-1.0-1.30","zn15zgtx7vp82mv","prime","5d4ad488dfd8230018fd0b45","5f60e3c0a3b16e07647b2ff9","5f646b5dcef0791fd99042d0","true","631.3300000037998","./Stimuli/SelectedImages/LM/LM58.bmp","76","","","","test","true","N + M","76","switch","LM","LM58.bmp","forget","","79","3","prime1","right","","","",""
"html-keyboard-response","222","944866","0.0-4.0-1.0-3.30","zn15zgtx7vp82mv","prime","5d4ad488dfd8230018fd0b45","5f60e3c0a3b16e07647b2ff9","5f646b5dcef0791fd99042d0","false","null","<div style=""align-items: center; display: flex; color: darkorange; font-size: 90px""><b>ø</b></div>","null","","","","forget_cue","","","","","","","","","","","","","","","",""
"html-keyboard-response","223","945568","0.0-4.0-1.0-0.31","zn15zgtx7vp82mv","prime","5d4ad488dfd8230018fd0b45","5f60e3c0a3b16e07647b2ff9","5f646b5dcef0791fd99042d0","false","null","<span style=""color: black; font-size: 48px"">N + M</span>","null","","","","resp_prompt","","","","","","","","","","","","","","","",""
"categorize-image","224","946577","0.0-4.0-1.0-1.31","zn15zgtx7vp82mv","prime","5d4ad488dfd8230018fd0b45","5f60e3c0a3b16e07647b2ff9","5f646b5dcef0791fd99042d0","true","1004.7300000151154","./Stimuli/SelectedImages/SM/SM207.bmp","76","","","","test","true","N + M","76","repetition","SM","SM207.bmp","remember","","80","3","prime1","right","","","",""
"html-keyboard-response","225","948579","0.0-4.0-1.0-3.31","zn15zgtx7vp82mv","prime","5d4ad488dfd8230018fd0b45","5f60e3c0a3b16e07647b2ff9","5f646b5dcef0791fd99042d0","false","null","<div style=""align-items: center; display: flex; color: dodgerblue; font-size: 90px""><b>o</b></div>","null","","","","forget_cue","","","","","","","","","","","","","","","",""
"html-keyboard-response","226","949280","0.0-4.0-1.0-0.32","zn15zgtx7vp82mv","prime","5d4ad488dfd8230018fd0b45","5f60e3c0a3b16e07647b2ff9","5f646b5dcef0791fd99042d0","false","null","<span style=""color: black; font-size: 48px"">N + M</span>","null","","","","resp_prompt","","","","","","","","","","","","","","","",""
"categorize-image","227","949873","0.0-4.0-1.0-1.32","zn15zgtx7vp82mv","prime","5d4ad488dfd8230018fd0b45","5f60e3c0a3b16e07647b2ff9","5f646b5dcef0791fd99042d0","true","590.7900000165682","./Stimuli/SelectedImages/SN/SN182.bmp","83","","","","test","true","N + M","83","switch","SN","SN182.bmp","remember","","81","3","prime1","left","","","",""
"html-keyboard-response","228","951874","0.0-4.0-1.0-3.32","zn15zgtx7vp82mv","prime","5d4ad488dfd8230018fd0b45","5f60e3c0a3b16e07647b2ff9","5f646b5dcef0791fd99042d0","false","null","<div style=""align-items: center; display: flex; color: dodgerblue; font-size: 90px""><b>o</b></div>","null","","","","forget_cue","","","","","","","","","","","","","","","",""
"html-keyboard-response","229","952576","0.0-4.0-1.0-0.33","zn15zgtx7vp82mv","prime","5d4ad488dfd8230018fd0b45","5f60e3c0a3b16e07647b2ff9","5f646b5dcef0791fd99042d0","false","null","<span style=""color: black; font-size: 48px"">N + M</span>","null","","","","resp_prompt","","","","","","","","","","","","","","","",""
"categorize-image","230","953281","0.0-4.0-1.0-1.33","zn15zgtx7vp82mv","prime","5d4ad488dfd8230018fd0b45","5f60e3c0a3b16e07647b2ff9","5f646b5dcef0791fd99042d0","true","703.1800000113435","./Stimuli/SelectedImages/SN/SN49.bmp","83","","","","test","true","N + M","83","switch","SN","SN49.bmp","forget","","82","3","prime1","left","","","",""
"html-keyboard-response","231","955282","0.0-4.0-1.0-3.33","zn15zgtx7vp82mv","prime","5d4ad488dfd8230018fd0b45","5f60e3c0a3b16e07647b2ff9","5f646b5dcef0791fd99042d0","false","null","<div style=""align-items: center; display: flex; color: darkorange; font-size: 90px""><b>ø</b></div>","null","","","","forget_cue","","","","","","","","","","","","","","","",""
"html-keyboard-response","232","955983","0.0-4.0-1.0-0.34","zn15zgtx7vp82mv","prime","5d4ad488dfd8230018fd0b45","5f60e3c0a3b16e07647b2ff9","5f646b5dcef0791fd99042d0","false","null","<span style=""color: black; font-size: 48px"">N + M</span>","null","","","","resp_prompt","","","","","","","","","","","","","","","",""
"categorize-image","233","956577","0.0-4.0-1.0-1.34","zn15zgtx7vp82mv","prime","5d4ad488dfd8230018fd0b45","5f60e3c0a3b16e07647b2ff9","5f646b5dcef0791fd99042d0","true","590.9150000079535","./Stimuli/SelectedImages/SM/SM184.bmp","76","","","","test","true","N + M","76","switch","SM","SM184.bmp","forget","","83","3","prime1","right","","","",""
"html-keyboard-response","234","958579","0.0-4.0-1.0-3.34","zn15zgtx7vp82mv","prime","5d4ad488dfd8230018fd0b45","5f60e3c0a3b16e07647b2ff9","5f646b5dcef0791fd99042d0","false","null","<div style=""align-items: center; display: flex; color: darkorange; font-size: 90px""><b>ø</b></div>","null","","","","forget_cue","","","","","","","","","","","","","","","",""
"html-keyboard-response","235","959280","0.0-4.0-1.0-0.35","zn15zgtx7vp82mv","prime","5d4ad488dfd8230018fd0b45","5f60e3c0a3b16e07647b2ff9","5f646b5dcef0791fd99042d0","false","null","<span style=""color: black; font-size: 48px"">M + N</span>","null","","","","resp_prompt","","","","","","","","","","","","","","","",""
"categorize-image","236","959864","0.0-4.0-1.0-1.35","zn15zgtx7vp82mv","prime","5d4ad488dfd8230018fd0b45","5f60e3c0a3b16e07647b2ff9","5f646b5dcef0791fd99042d0","true","581.5250000159722","./Stimuli/SelectedImages/SN/SN140.bmp","76","","","","test","true","M + N","76","repetition","SN","SN140.bmp","forget","","84","3","prime1","right","","","",""
"html-keyboard-response","237","961866","0.0-4.0-1.0-3.35","zn15zgtx7vp82mv","prime","5d4ad488dfd8230018fd0b45","5f60e3c0a3b16e07647b2ff9","5f646b5dcef0791fd99042d0","false","null","<div style=""align-items: center; display: flex; color: darkorange; font-size: 90px""><b>ø</b></div>","null","","","","forget_cue","","","","","","","","","","","","","","","",""
"html-keyboard-response","238","962568","0.0-4.0-1.0-0.36","zn15zgtx7vp82mv","prime","5d4ad488dfd8230018fd0b45","5f60e3c0a3b16e07647b2ff9","5f646b5dcef0791fd99042d0","false","null","<span style=""color: black; font-size: 48px"">M + N</span>","null","","","","resp_prompt","","","","","","","","","","","","","","","",""
"categorize-image","239","963505","0.0-4.0-1.0-1.36","zn15zgtx7vp82mv","prime","5d4ad488dfd8230018fd0b45","5f60e3c0a3b16e07647b2ff9","5f646b5dcef0791fd99042d0","true","934.5749999920372","./Stimuli/SelectedImages/SM/SM128.bmp","76","","","","test","false","M + N","83","switch","SM","SM128.bmp","forget","","85","3","prime1","right","","","",""
"html-keyboard-response","240","964007","0.0-4.0-1.0-2.36-0.36","zn15zgtx7vp82mv","prime","5d4ad488dfd8230018fd0b45","5f60e3c0a3b16e07647b2ff9","5f646b5dcef0791fd99042d0","false","null","<span style=""color: red; font-size: 48px"">Error!</span>","null","","","","feedback","","","","","","","","","","","","","","","",""
"html-keyboard-response","241","966009","0.0-4.0-1.0-3.36","zn15zgtx7vp82mv","prime","5d4ad488dfd8230018fd0b45","5f60e3c0a3b16e07647b2ff9","5f646b5dcef0791fd99042d0","false","null","<div style=""align-items: center; display: flex; color: darkorange; font-size: 90px""><b>ø</b></div>","null","","","","forget_cue","","","","","","","","","","","","","","","",""
"html-keyboard-response","242","966710","0.0-4.0-1.0-0.37","zn15zgtx7vp82mv","prime","5d4ad488dfd8230018fd0b45","5f60e3c0a3b16e07647b2ff9","5f646b5dcef0791fd99042d0","false","null","<span style=""color: black; font-size: 48px"">M + N</span>","null","","","","resp_prompt","","","","","","","","","","","","","","","",""
"categorize-image","243","967233","0.0-4.0-1.0-1.37","zn15zgtx7vp82mv","prime","5d4ad488dfd8230018fd0b45","5f60e3c0a3b16e07647b2ff9","5f646b5dcef0791fd99042d0","true","519.7749999933876","./Stimuli/SelectedImages/LN/LN149.bmp","76","","","","test","true","M + N","76","switch","LN","LN149.bmp","remember","","86","3","prime1","right","","","",""
"html-keyboard-response","244","969234","0.0-4.0-1.0-3.37","zn15zgtx7vp82mv","prime","5d4ad488dfd8230018fd0b45","5f60e3c0a3b16e07647b2ff9","5f646b5dcef0791fd99042d0","false","null","<div style=""align-items: center; display: flex; color: dodgerblue; font-size: 90px""><b>o</b></div>","null","","","","forget_cue","","","","","","","","","","","","","","","",""
"html-keyboard-response","245","969935","0.0-4.0-1.0-0.38","zn15zgtx7vp82mv","prime","5d4ad488dfd8230018fd0b45","5f60e3c0a3b16e07647b2ff9","5f646b5dcef0791fd99042d0","false","null","<span style=""color: black; font-size: 48px"">N + M</span>","null","","","","resp_prompt","","","","","","","","","","","","","","","",""
"categorize-image","246","970736","0.0-4.0-1.0-1.38","zn15zgtx7vp82mv","prime","5d4ad488dfd8230018fd0b45","5f60e3c0a3b16e07647b2ff9","5f646b5dcef0791fd99042d0","true","798.9449999877252","./Stimuli/SelectedImages/SN/SN18.bmp","83","","","","test","true","N + M","83","repetition","SN","SN18.bmp","forget","","87","3","prime1","left","","","",""
"html-keyboard-response","247","972738","0.0-4.0-1.0-3.38","zn15zgtx7vp82mv","prime","5d4ad488dfd8230018fd0b45","5f60e3c0a3b16e07647b2ff9","5f646b5dcef0791fd99042d0","false","null","<div style=""align-items: center; display: flex; color: darkorange; font-size: 90px""><b>ø</b></div>","null","","","","forget_cue","","","","","","","","","","","","","","","",""
"html-keyboard-response","248","973439","0.0-4.0-1.0-0.39","zn15zgtx7vp82mv","prime","5d4ad488dfd8230018fd0b45","5f60e3c0a3b16e07647b2ff9","5f646b5dcef0791fd99042d0","false","null","<span style=""color: black; font-size: 48px"">M + N</span>","null","","","","resp_prompt","","","","","","","","","","","","","","","",""
"categorize-image","249","974832","0.0-4.0-1.0-1.39","zn15zgtx7vp82mv","prime","5d4ad488dfd8230018fd0b45","5f60e3c0a3b16e07647b2ff9","5f646b5dcef0791fd99042d0","true","1390.9649999986868","./Stimuli/SelectedImages/LM/LM57.bmp","76","","","","test","false","M + N","83","switch","LM","LM57.bmp","remember","","88","3","prime1","right","","","",""
"html-keyboard-response","250","975334","0.0-4.0-1.0-2.39-0.39","zn15zgtx7vp82mv","prime","5d4ad488dfd8230018fd0b45","5f60e3c0a3b16e07647b2ff9","5f646b5dcef0791fd99042d0","false","null","<span style=""color: red; font-size: 48px"">Error!</span>","null","","","","feedback","","","","","","","","","","","","","","","",""
"html-keyboard-response","251","977336","0.0-4.0-1.0-3.39","zn15zgtx7vp82mv","prime","5d4ad488dfd8230018fd0b45","5f60e3c0a3b16e07647b2ff9","5f646b5dcef0791fd99042d0","false","null","<div style=""align-items: center; display: flex; color: dodgerblue; font-size: 90px""><b>o</b></div>","null","","","","forget_cue","","","","","","","","","","","","","","","",""
"html-keyboard-response","252","978037","0.0-4.0-1.0-0.40","zn15zgtx7vp82mv","prime","5d4ad488dfd8230018fd0b45","5f60e3c0a3b16e07647b2ff9","5f646b5dcef0791fd99042d0","false","null","<span style=""color: black; font-size: 48px"">M + N</span>","null","","","","resp_prompt","","","","","","","","","","","","","","","",""
"categorize-image","253","978784","0.0-4.0-1.0-1.40","zn15zgtx7vp82mv","prime","5d4ad488dfd8230018fd0b45","5f60e3c0a3b16e07647b2ff9","5f646b5dcef0791fd99042d0","true","744.7749999992084","./Stimuli/SelectedImages/SN/SN64.bmp","76","","","","test","true","M + N","76","switch","SN","SN64.bmp","forget","","89","3","prime1","right","","","",""
