"trial_type","trial_index","time_elapsed","internal_node_id","subject","exp_part","prolific_PID","study_ID","session_ID","use","rt","stimulus","key_press","button_pressed","responses","question_order","trial_part","correct","resp_map","correct_resp","probe_condition","category","image","forget_condition","list","trial_num","block_num","block","response","test_part","n_span","sequence","num_spaces"
"pavlovia","0","4","0.0-0.0","c2q3fxtqp6dj1so","","5f08990527d4280ce6bb63be","5f60e3c0a3b16e07647b2ff9","5f60ecb68c8743015d98b9af","false","","","","","","","","","","","","","","","","","","","","","","",""
"html-keyboard-response","1","18348","0.0-1.0-0.0-0.0","c2q3fxtqp6dj1so","welcome","5f08990527d4280ce6bb63be","5f60e3c0a3b16e07647b2ff9","5f60ecb68c8743015d98b9af","false","18343","<div align=left>Dear participant, <br> thank you for participating in an online study of the Cognition, Action, and Sustainability Unit of the University of Freiburg! <br> <br>The aim of this study is to examine our ability to remember previously learned information. <br>Our goal is to find out, whether our memory improves, when we only remember information that is relevant to us. <br>The experiment will take about 35 minutes to complete. <br> <br>Please, note that you can only participate in this study if you are using a device with a keyboard (PC, Laptop etc.) <br>and not if you are using a mobile device such as a tablet or smartphone.<br> <br>Press 'SPACE' to proceed to the experiment. </div>","32","","","","","","","","","","","","","","","","","","","",""
"html-keyboard-response","2","19609","0.0-1.0-0.0-1.0","c2q3fxtqp6dj1so","welcome","5f08990527d4280ce6bb63be","5f60e3c0a3b16e07647b2ff9","5f60ecb68c8743015d98b9af","false","1261","<div align=left><strong> Time Course of this experiment: </strong> <br><br> <strong> 1.</strong>  First, please fill in some information regarding your demographic data. <br><br> <strong> 2.</strong>  Next, your task will be to classify everyday objects. <br>In addition, you will be asked to remember certain objects and recall them later. <br>Working on these tasks requires your undivided attention and concentration.<br>It is therefore essential that you eliminate any sources of distraction in your  <br>environment and ensure that you will not be disturbed. <br><br><strong> 3.</strong>  At the end of the experiment, you will be asked to answer a few additional questions. <br> <br><strong> Important:</strong> After finishing the experiment, only close the browser window <br> by clicking on the 'end the experiment'-button when you are asked to do so. <br>Closing the browser window prematurely will make the allocation of your participation credit impossible. <br><br> Press 'SPACE' to start the experiment. </div>","32","","","","","","","","","","","","","","","","","","","",""
"html-button-response","3","21159","0.0-1.0-0.0-2.0","c2q3fxtqp6dj1so","welcome","5f08990527d4280ce6bb63be","5f60e3c0a3b16e07647b2ff9","5f60ecb68c8743015d98b9af","true","1547","<div align=left><strong> Informed consent </strong>  <br>The aim of our research is to better understand human behavior and mental processes. <br>In the following study your behavior (e.g. choices, reaction times) will be studied. <br> <br><strong> Voluntariness and Anonymity </strong> <br>Your participation in this study is  <strong> voluntary</strong>.<br>You may withdraw your consent to participate at any time without providing a reason for doing so and without fear of prejudice. <br><br>As no personal data will be collected, <strong>your data and your person cannot be connected after data collection</strong> – the data-set is anonymous. <br>Respectively, deletion of your data will not be possible after data collection has been completed, as we cannot retrace your data-set.<br>The results and anonymized data collected in this study will be published as a scientific publication. <br>This will happen in an <strong>anonymized format</strong>, so that no data can be traced back to a specific person. <br> <br>The anonymized data of this study will be made available to other researchers and/or in a data archive on the Internet as a means of transparency and to enable subsequent re-use. By doing so, this study follows the recommendations of the Deutsche Forschungsgemeinschaft (DFG, German Research Foundation) and Deutsche Gesellschaft für Psychologie (DGPS, German Psychological Society) regarding quality assurance in research.<br>If you have any questions now or after the experiment, please contact our team (experiments@cs.uni-freiburg.de).<br><br><br>I hereby declare, that I understand the above described conditions of participation and I agree to participate under these conditions. <br><br> </div>","","0","","","","","","","","","","","","","","","","","","",""
"html-keyboard-response","4","37866","0.0-1.0-0.0-3.0","c2q3fxtqp6dj1so","welcome","5f08990527d4280ce6bb63be","5f60e3c0a3b16e07647b2ff9","5f60ecb68c8743015d98b9af","false","16706","<div align=left><strong> General information concerning the experiment </strong>  <br> <br>Please follow the instructions:<ol> <li><strong> Do not leave this tab (your browser window) during the experiment and do not reload this tab! </strong>  <br>If you do switch tabs/windows during the experiment (to check your mail or visit another website, for example), <br>the experiment will end automatically and you will <strong>not receive credit</strong> for your participation. <br>Repeated participation or resumption of the experiment is impossible.</li> <br><li>Please close all other programs for the duration of your participation. </li> <br><li>Please mute or turn off your phone and put it out of your reach. </li> <br><li>Please also take off any disturbing accessories (such as wristwatches, bracelets, etc.). </li> <br><li>If you have music playing in the background, please turn it off now. </li> <br></ol>Thank you! <br>Press 'SPACE' to continue. </div>","32","","","","","","","","","","","","","","","","","","","",""
"survey-text","5","41852","0.0-1.0-1.0-0.0","c2q3fxtqp6dj1so","demographics","5f08990527d4280ce6bb63be","5f60e3c0a3b16e07647b2ff9","5f60ecb68c8743015d98b9af","true","3860","","","","{""age"":""32""}","","","","","","","","","","","","","","","","","",""
"survey-multi-choice","6","55037","0.0-1.0-1.0-1.0","c2q3fxtqp6dj1so","demographics","5f08990527d4280ce6bb63be","5f60e3c0a3b16e07647b2ff9","5f60ecb68c8743015d98b9af","true","13183","","","","{""gender"":""male"",""school"":""others"",""education"":""High school graduate, diploma or equivalent""}","[0,1,2]","","","","","","","","","","","","","","","","",""
"html-keyboard-response","7","57600","0.0-1.0-2.0","c2q3fxtqp6dj1so","instructions","5f08990527d4280ce6bb63be","5f60e3c0a3b16e07647b2ff9","5f60ecb68c8743015d98b9af","false","2562","<div align=left> The experiment is now about to start: <br> <br>In the following part, you will be presented pictures of everyday objects. <br>Your first task is to <strong>classify these objects. </strong> <br> <br> You will classify them either as mechanical or non-mechanical objects. <br> <br>Objects that include any kind of technical mechanism (for example, wheels, switches, levers, <br> electronic components) fall under the category of <strong>mechanical</strong> objects. <br>Only objects without any kind of technical mechanism should be classified as <strong>non-mechanical</strong>. <br><br>Press 'SPACE' to continue. </div>","32","","","","","","","","","","","","","","","","","","","",""
"html-keyboard-response","8","103672","0.0-2.0-0.0","c2q3fxtqp6dj1so","instructions","5f08990527d4280ce6bb63be","5f60e3c0a3b16e07647b2ff9","5f60ecb68c8743015d98b9af","false","46070","<div align=justify>You will classify the objects using the <strong>'S'</strong> and the <strong>'L'</strong> keys on your keyboard.<br>For doing so, please place your <strong>left index finger</strong> on the <strong>'S'</strong> key and place your <strong>right index finger</strong> on the <strong>'L'</strong> key. <br><br> Each trial starts with an instruction, indicating which key ('S'/'L') you need to press to classify <br>the object as mechanical (letter M) or non-mechanical (letter N).<br>The instruction <strong>M + N</strong> indicates that, in the current trial, by pressing the left key ('S') you classify the displayed object as mechanical (M) <br> and by pressing the right key ('L') you classify the object as non-mechanical (N). <br>The instruction <strong>N + M</strong> on the other hand indicates that by pressing the left key ('S') you classify the displayed object as non-mechanical (N) <br> and by pressing the right key ('L') you classify the object as mechanical (M). <br><br>Please press the key corresponding to the correct classification as fast as possible as soon as the object is displayed and try to avoid making mistakes.<br>If you do not respond within a 2 second window, a corresponding feedback will be displayed and the next trial will start.<br> The experiment is divided into multiple blocks to give you the opportunity to take a break after each block. <br>First, you can now practice this task. <br><br>Please place your <strong>LEFT INDEX FINGER</strong> on the 'S' key and your <strong>RIGHT INDEX FINGER</strong> on the 'L' key now. <br><br>Press SPACE to continue.</div>","32","","","","","","","","","","","","","","","","","","","",""
"html-keyboard-response","9","106529","0.0-2.0-1.0","c2q3fxtqp6dj1so","instructions","5f08990527d4280ce6bb63be","5f60e3c0a3b16e07647b2ff9","5f60ecb68c8743015d98b9af","false","2855.9999999999854","<div align=left> You will now have time to practice this task.<br><br>Remember: <br> <br><li>Please place your index fingers on the <strong>'S'</strong> and <strong>'L'</strong> keys <br>to respond as fast and accurately as possible.</li><li>Every picture can be classified as either mechanical or non-mechanical.</li><li>If you do not respond in time or commit an error, you will receive a corresponding feedback. </li><li> Please try to respond as <strong> fast </strong> and as <strong> accurately as possible </strong> .<br><li>To ensure optimal results, please minimize distractions and stay focused. </li><br><br>Press SPACE to continue.</div>","32","","","","","","","","","","","","","","","","","","","",""
"html-keyboard-response","10","107231","0.0-2.0-2.0-0.0","c2q3fxtqp6dj1so","practice_no_cue","5f08990527d4280ce6bb63be","5f60e3c0a3b16e07647b2ff9","5f60ecb68c8743015d98b9af","false","null","<span style=""color: black; font-size: 48px"">N + M</span>","null","","","","resp_prompt","","","","","","","","","","","","","","","",""
"categorize-image","11","109734","0.0-2.0-2.0-1.0","c2q3fxtqp6dj1so","practice_no_cue","5f08990527d4280ce6bb63be","5f60e3c0a3b16e07647b2ff9","5f60ecb68c8743015d98b9af","true","null","./Stimuli/ImagesPractice/SM61.jpg","null","","","","test","false","N + M","76","","SM","SM61.jpg","remember","old","1","1","start","too_slow","","","",""
"html-keyboard-response","12","110436","0.0-2.0-2.0-0.1","c2q3fxtqp6dj1so","practice_no_cue","5f08990527d4280ce6bb63be","5f60e3c0a3b16e07647b2ff9","5f60ecb68c8743015d98b9af","false","null","<span style=""color: black; font-size: 48px"">N + M</span>","null","","","","resp_prompt","","","","","","","","","","","","","","","",""
"categorize-image","13","112565","0.0-2.0-2.0-1.1","c2q3fxtqp6dj1so","practice_no_cue","5f08990527d4280ce6bb63be","5f60e3c0a3b16e07647b2ff9","5f60ecb68c8743015d98b9af","true","1626.9999999999854","./Stimuli/ImagesPractice/LN2.jpg","83","","","","test","true","N + M","83","","LN","LN2.jpg","forget","old","2","1","start","left","","","",""
"html-keyboard-response","14","113267","0.0-2.0-2.0-0.2","c2q3fxtqp6dj1so","practice_no_cue","5f08990527d4280ce6bb63be","5f60e3c0a3b16e07647b2ff9","5f60ecb68c8743015d98b9af","false","null","<span style=""color: black; font-size: 48px"">N + M</span>","null","","","","resp_prompt","","","","","","","","","","","","","","","",""
"categorize-image","15","113792","0.0-2.0-2.0-1.2","c2q3fxtqp6dj1so","practice_no_cue","5f08990527d4280ce6bb63be","5f60e3c0a3b16e07647b2ff9","5f60ecb68c8743015d98b9af","true","23","./Stimuli/ImagesPractice/LM224.jpg","32","","","","test","false","N + M","76","","LM","LM224.jpg","remember","old","3","1","start","too_slow","","","",""
"html-keyboard-response","16","114494","0.0-2.0-2.0-0.3","c2q3fxtqp6dj1so","practice_no_cue","5f08990527d4280ce6bb63be","5f60e3c0a3b16e07647b2ff9","5f60ecb68c8743015d98b9af","false","null","<span style=""color: black; font-size: 48px"">M + N</span>","null","","","","resp_prompt","","","","","","","","","","","","","","","",""
"categorize-image","17","116221","0.0-2.0-2.0-1.3","c2q3fxtqp6dj1so","practice_no_cue","5f08990527d4280ce6bb63be","5f60e3c0a3b16e07647b2ff9","5f60ecb68c8743015d98b9af","true","1226","./Stimuli/ImagesPractice/SM35.jpg","76","","","","test","false","M + N","83","","SM","SM35.jpg","forget","old","4","1","start","right","","","",""
"html-keyboard-response","18","116923","0.0-2.0-2.0-0.4","c2q3fxtqp6dj1so","practice_no_cue","5f08990527d4280ce6bb63be","5f60e3c0a3b16e07647b2ff9","5f60ecb68c8743015d98b9af","false","null","<span style=""color: black; font-size: 48px"">N + M</span>","null","","","","resp_prompt","","","","","","","","","","","","","","","",""
"categorize-image","19","118416","0.0-2.0-2.0-1.4","c2q3fxtqp6dj1so","practice_no_cue","5f08990527d4280ce6bb63be","5f60e3c0a3b16e07647b2ff9","5f60ecb68c8743015d98b9af","true","991","./Stimuli/ImagesPractice/LN17.jpg","76","","","","test","false","N + M","83","","LN","LN17.jpg","forget","old","5","1","start","right","","","",""
"html-keyboard-response","20","119118","0.0-2.0-2.0-0.5","c2q3fxtqp6dj1so","practice_no_cue","5f08990527d4280ce6bb63be","5f60e3c0a3b16e07647b2ff9","5f60ecb68c8743015d98b9af","false","null","<span style=""color: black; font-size: 48px"">M + N</span>","null","","","","resp_prompt","","","","","","","","","","","","","","","",""
"categorize-image","21","121498","0.0-2.0-2.0-1.5","c2q3fxtqp6dj1so","practice_no_cue","5f08990527d4280ce6bb63be","5f60e3c0a3b16e07647b2ff9","5f60ecb68c8743015d98b9af","true","1879","./Stimuli/ImagesPractice/SN205.jpg","76","","","","test","true","M + N","76","","SN","SN205.jpg","remember","old","6","1","start","right","","","",""
"html-keyboard-response","22","122202","0.0-2.0-2.0-0.6","c2q3fxtqp6dj1so","practice_no_cue","5f08990527d4280ce6bb63be","5f60e3c0a3b16e07647b2ff9","5f60ecb68c8743015d98b9af","false","null","<span style=""color: black; font-size: 48px"">M + N</span>","null","","","","resp_prompt","","","","","","","","","","","","","","","",""
"categorize-image","23","123670","0.0-2.0-2.0-1.6","c2q3fxtqp6dj1so","practice_no_cue","5f08990527d4280ce6bb63be","5f60e3c0a3b16e07647b2ff9","5f60ecb68c8743015d98b9af","true","964.9999999999854","./Stimuli/ImagesPractice/LN109.jpg","76","","","","test","true","M + N","76","","LN","LN109.jpg","remember","old","7","1","start","right","","","",""
"html-keyboard-response","24","124371","0.0-2.0-2.0-0.7","c2q3fxtqp6dj1so","practice_no_cue","5f08990527d4280ce6bb63be","5f60e3c0a3b16e07647b2ff9","5f60ecb68c8743015d98b9af","false","null","<span style=""color: black; font-size: 48px"">M + N</span>","null","","","","resp_prompt","","","","","","","","","","","","","","","",""
"categorize-image","25","125852","0.0-2.0-2.0-1.7","c2q3fxtqp6dj1so","practice_no_cue","5f08990527d4280ce6bb63be","5f60e3c0a3b16e07647b2ff9","5f60ecb68c8743015d98b9af","true","979","./Stimuli/ImagesPractice/LM230.jpg","83","","","","test","true","M + N","83","","LM","LM230.jpg","forget","old","8","1","start","left","","","",""
"html-keyboard-response","26","126553","0.0-2.0-2.0-0.8","c2q3fxtqp6dj1so","practice_no_cue","5f08990527d4280ce6bb63be","5f60e3c0a3b16e07647b2ff9","5f60ecb68c8743015d98b9af","false","null","<span style=""color: black; font-size: 48px"">N + M</span>","null","","","","resp_prompt","","","","","","","","","","","","","","","",""
"categorize-image","27","127855","0.0-2.0-2.0-1.8","c2q3fxtqp6dj1so","practice_no_cue","5f08990527d4280ce6bb63be","5f60e3c0a3b16e07647b2ff9","5f60ecb68c8743015d98b9af","true","800","./Stimuli/ImagesPractice/LN72.jpg","83","","","","test","true","N + M","83","","LN","LN72.jpg","forget","old","9","1","start","left","","","",""
"html-keyboard-response","28","128557","0.0-2.0-2.0-0.9","c2q3fxtqp6dj1so","practice_no_cue","5f08990527d4280ce6bb63be","5f60e3c0a3b16e07647b2ff9","5f60ecb68c8743015d98b9af","false","null","<span style=""color: black; font-size: 48px"">M + N</span>","null","","","","resp_prompt","","","","","","","","","","","","","","","",""
"categorize-image","29","130623","0.0-2.0-2.0-1.9","c2q3fxtqp6dj1so","practice_no_cue","5f08990527d4280ce6bb63be","5f60e3c0a3b16e07647b2ff9","5f60ecb68c8743015d98b9af","true","1562.9999999999854","./Stimuli/ImagesPractice/SM98.jpg","83","","","","test","true","M + N","83","","SM","SM98.jpg","remember","old","10","1","start","left","","","",""
"html-keyboard-response","30","131325","0.0-2.0-2.0-0.10","c2q3fxtqp6dj1so","practice_no_cue","5f08990527d4280ce6bb63be","5f60e3c0a3b16e07647b2ff9","5f60ecb68c8743015d98b9af","false","null","<span style=""color: black; font-size: 48px"">N + M</span>","null","","","","resp_prompt","","","","","","","","","","","","","","","",""
"categorize-image","31","132591","0.0-2.0-2.0-1.10","c2q3fxtqp6dj1so","practice_no_cue","5f08990527d4280ce6bb63be","5f60e3c0a3b16e07647b2ff9","5f60ecb68c8743015d98b9af","true","765","./Stimuli/ImagesPractice/SN222.jpg","83","","","","test","true","N + M","83","","SN","SN222.jpg","forget","old","11","1","start","left","","","",""
"html-keyboard-response","32","133293","0.0-2.0-2.0-0.11","c2q3fxtqp6dj1so","practice_no_cue","5f08990527d4280ce6bb63be","5f60e3c0a3b16e07647b2ff9","5f60ecb68c8743015d98b9af","false","null","<span style=""color: black; font-size: 48px"">M + N</span>","null","","","","resp_prompt","","","","","","","","","","","","","","","",""
"categorize-image","33","134684","0.0-2.0-2.0-1.11","c2q3fxtqp6dj1so","practice_no_cue","5f08990527d4280ce6bb63be","5f60e3c0a3b16e07647b2ff9","5f60ecb68c8743015d98b9af","true","889","./Stimuli/ImagesPractice/SN75.jpg","76","","","","test","true","M + N","76","","SN","SN75.jpg","forget","old","12","1","start","right","","","",""
"html-keyboard-response","34","135386","0.0-2.0-2.0-0.12","c2q3fxtqp6dj1so","practice_no_cue","5f08990527d4280ce6bb63be","5f60e3c0a3b16e07647b2ff9","5f60ecb68c8743015d98b9af","false","null","<span style=""color: black; font-size: 48px"">M + N</span>","null","","","","resp_prompt","","","","","","","","","","","","","","","",""
"categorize-image","35","136597","0.0-2.0-2.0-1.12","c2q3fxtqp6dj1so","practice_no_cue","5f08990527d4280ce6bb63be","5f60e3c0a3b16e07647b2ff9","5f60ecb68c8743015d98b9af","true","708.9999999999709","./Stimuli/ImagesPractice/SN221.jpg","76","","","","test","true","M + N","76","","SN","SN221.jpg","remember","old","13","1","start","right","","","",""
"html-keyboard-response","36","137298","0.0-2.0-2.0-0.13","c2q3fxtqp6dj1so","practice_no_cue","5f08990527d4280ce6bb63be","5f60e3c0a3b16e07647b2ff9","5f60ecb68c8743015d98b9af","false","null","<span style=""color: black; font-size: 48px"">N + M</span>","null","","","","resp_prompt","","","","","","","","","","","","","","","",""
"categorize-image","37","138565","0.0-2.0-2.0-1.13","c2q3fxtqp6dj1so","practice_no_cue","5f08990527d4280ce6bb63be","5f60e3c0a3b16e07647b2ff9","5f60ecb68c8743015d98b9af","true","765","./Stimuli/ImagesPractice/SM62.jpg","83","","","","test","false","N + M","76","","SM","SM62.jpg","remember","old","14","1","start","left","","","",""
"html-keyboard-response","38","139267","0.0-2.0-2.0-0.14","c2q3fxtqp6dj1so","practice_no_cue","5f08990527d4280ce6bb63be","5f60e3c0a3b16e07647b2ff9","5f60ecb68c8743015d98b9af","false","null","<span style=""color: black; font-size: 48px"">N + M</span>","null","","","","resp_prompt","","","","","","","","","","","","","","","",""
"categorize-image","39","140680","0.0-2.0-2.0-1.14","c2q3fxtqp6dj1so","practice_no_cue","5f08990527d4280ce6bb63be","5f60e3c0a3b16e07647b2ff9","5f60ecb68c8743015d98b9af","true","911.9999999999709","./Stimuli/ImagesPractice/SM37.jpg","83","","","","test","false","N + M","76","","SM","SM37.jpg","remember","old","15","1","start","left","","","",""
"html-keyboard-response","40","141382","0.0-2.0-2.0-0.15","c2q3fxtqp6dj1so","practice_no_cue","5f08990527d4280ce6bb63be","5f60e3c0a3b16e07647b2ff9","5f60ecb68c8743015d98b9af","false","null","<span style=""color: black; font-size: 48px"">M + N</span>","null","","","","resp_prompt","","","","","","","","","","","","","","","",""
"categorize-image","41","142424","0.0-2.0-2.0-1.15","c2q3fxtqp6dj1so","practice_no_cue","5f08990527d4280ce6bb63be","5f60e3c0a3b16e07647b2ff9","5f60ecb68c8743015d98b9af","true","541","./Stimuli/ImagesPractice/SN76.jpg","76","","","","test","true","M + N","76","","SN","SN76.jpg","forget","old","16","1","start","right","","","",""
"html-keyboard-response","42","145242","0.0-2.0-3.0","c2q3fxtqp6dj1so","break","5f08990527d4280ce6bb63be","5f60e3c0a3b16e07647b2ff9","5f60ecb68c8743015d98b9af","false","2816","<p style='font-size: 32px;'>Break</><br><br><br><br><br><p style='font-size: 24px;'>In the last block, you committed 4 errors and did not respond in time on 1 trials.
</p><p style='font-size: 24px;'>Try to respond as fast and accurately as possible in the next block as well! </p><p style='font-size: 24px;'>Press SPACE to continue.</p>","32","","","","","","","","","","","","","","","","","","","",""
"html-keyboard-response","43","148179","0.0-2.0-4.0","c2q3fxtqp6dj1so","instructions","5f08990527d4280ce6bb63be","5f60e3c0a3b16e07647b2ff9","5f60ecb68c8743015d98b9af","false","2936","<div align=left> Great!<br><br>Are you ready to continue?<br><br>If you want to reread the instructions and redo the practice trials, <br>please press „Z“. <br><br>Press SPACE to CONTINUE with the experiment when you are ready. </div>","32","","","","","","","","","","","","","","","","","","","",""
"html-keyboard-response","44","149900","0.0-3.0-0.0","c2q3fxtqp6dj1so","instructions","5f08990527d4280ce6bb63be","5f60e3c0a3b16e07647b2ff9","5f60ecb68c8743015d98b9af","false","1720","<div align=left>Great!<br> <strong>Attention</strong>! You will now receive a second, additional task! <br><br>To this point it was you <strong>first task</strong> to correctly <strong>classify objects</strong>. <br><br>As mentioned in the beginning, we aim to examine how well humans can remember previously learned information.<br>We would like to find out whether our memory improves if we only remember information that is relevant to us. <br><br>Therefore, your <strong>second task</strong> will be to <strong>remember</strong> the pictures you are to categorize. <br> After the learning phase, there will be a memory test phase, in which you will be asked to indicate whether you have seen a picture before or not. <br>Some, but not all pictures shown in the learning phase will appear in the memory test phase.<br>After classifying a picture, you will be told whether you should remember it for the memory test phase or not. <br>Thus, some pictures can be forgotten, whereas others have to be remembered. <br><br>Note: From now on, feedback will only be displayed if you responded incorrectly or not in time.<br><br>Press SPACE to continue.</div>","32","","","","","","","","","","","","","","","","","","","",""
"html-keyboard-response","45","162039","0.0-3.0-1.0","c2q3fxtqp6dj1so","instructions","5f08990527d4280ce6bb63be","5f60e3c0a3b16e07647b2ff9","5f60ecb68c8743015d98b9af","false","12138","<div align=left>In the following part, you will thus have to remember only some pictures. <br>Immediately after seeing and classifying the picture, a symbol will be displayed, indicating whether you should remember or forget the previous picture. <br><br>A <span style='color: dodgerblue; font-size: 28px'>O</span> indicates REMEMBER. That means, you have to remember this picture, because it will be tested later. <br><br>A <span style='color: darkorange; font-size:28px'>Ø</span> indicates FORGET. You do not have to remember this picture. <br><br> As you will have to remember a lot of pictures, it will be hard for you to remember all of them. <br>It will put you at an advantage if you instantly forget the pictures you are not asked to remember. <br> This will make it easier for you to remember the pictures that will be tested afterwards. <br><br>Press SPACE to continue.</div>","32","","","","","","","","","","","","","","","","","","","",""
"html-keyboard-response","46","169690","0.0-3.0-2.0","c2q3fxtqp6dj1so","instructions","5f08990527d4280ce6bb63be","5f60e3c0a3b16e07647b2ff9","5f60ecb68c8743015d98b9af","false","7649","<div align=left> Now you have the chance to practice both tasks together.<br><br>Remember: <br> <br><li>Please place your index fingers on the <strong>'S'</strong> and <strong>'L'</strong> keys <br>to respond as fast and accurately as possible.</li><li>Every picture can be classified as either mechanical or non-mechanical.</li><li>If you do not respond in time or commit an error, you will receive a corresponding feedback. <br>Please try to respond as <strong> fast </strong> and as <strong> accurately as possible </strong>.</li><li> Please remember only the to-be-remembered <span style='color: dodgerblue; font-size: 28px'>O</span> pictures. <br></li><li> Please minimize distractions and stay focused. </li><br><br>Press SPACE to START</div>","32","","","","","","","","","","","","","","","","","","","",""
"html-keyboard-response","47","170391","0.0-3.0-3.0-0.0","c2q3fxtqp6dj1so","practice_cue","5f08990527d4280ce6bb63be","5f60e3c0a3b16e07647b2ff9","5f60ecb68c8743015d98b9af","false","null","<span style=""color: black; font-size: 48px"">M + N</span>","null","","","","resp_prompt","","","","","","","","","","","","","","","",""
"categorize-image","48","171131","0.0-3.0-3.0-1.0","c2q3fxtqp6dj1so","practice_cue","5f08990527d4280ce6bb63be","5f60e3c0a3b16e07647b2ff9","5f60ecb68c8743015d98b9af","true","738","./Stimuli/ImagesPractice/SN221.jpg","76","","","","test","true","M + N","76","","SN","SN221.jpg","remember","old","17","2","practice_forget","right","","","",""
"html-keyboard-response","49","173132","0.0-3.0-3.0-3.0","c2q3fxtqp6dj1so","practice_cue","5f08990527d4280ce6bb63be","5f60e3c0a3b16e07647b2ff9","5f60ecb68c8743015d98b9af","false","null","<div style=""align-items: center; display: flex; color: dodgerblue; font-size: 90px""><b>o</b></div>","null","","","","forget_cue","","","","","","","","","","","","","","","",""
"html-keyboard-response","50","173834","0.0-3.0-3.0-0.1","c2q3fxtqp6dj1so","practice_cue","5f08990527d4280ce6bb63be","5f60e3c0a3b16e07647b2ff9","5f60ecb68c8743015d98b9af","false","null","<span style=""color: black; font-size: 48px"">N + M</span>","null","","","","resp_prompt","","","","","","","","","","","","","","","",""
"categorize-image","51","175204","0.0-3.0-3.0-1.1","c2q3fxtqp6dj1so","practice_cue","5f08990527d4280ce6bb63be","5f60e3c0a3b16e07647b2ff9","5f60ecb68c8743015d98b9af","true","1368","./Stimuli/ImagesPractice/SN222.jpg","83","","","","test","true","N + M","83","","SN","SN222.jpg","forget","old","18","2","practice_forget","left","","","",""
"html-keyboard-response","52","177204","0.0-3.0-3.0-3.1","c2q3fxtqp6dj1so","practice_cue","5f08990527d4280ce6bb63be","5f60e3c0a3b16e07647b2ff9","5f60ecb68c8743015d98b9af","false","null","<div style=""align-items: center; display: flex; color: darkorange; font-size: 90px""><b>ø</b></div>","null","","","","forget_cue","","","","","","","","","","","","","","","",""
"html-keyboard-response","53","177906","0.0-3.0-3.0-0.2","c2q3fxtqp6dj1so","practice_cue","5f08990527d4280ce6bb63be","5f60e3c0a3b16e07647b2ff9","5f60ecb68c8743015d98b9af","false","null","<span style=""color: black; font-size: 48px"">M + N</span>","null","","","","resp_prompt","","","","","","","","","","","","","","","",""
"categorize-image","54","178556","0.0-3.0-3.0-1.2","c2q3fxtqp6dj1so","practice_cue","5f08990527d4280ce6bb63be","5f60e3c0a3b16e07647b2ff9","5f60ecb68c8743015d98b9af","true","648.0000000000291","./Stimuli/ImagesPractice/LM230.jpg","83","","","","test","true","M + N","83","","LM","LM230.jpg","forget","old","19","2","practice_forget","left","","","",""
"html-keyboard-response","55","180557","0.0-3.0-3.0-3.2","c2q3fxtqp6dj1so","practice_cue","5f08990527d4280ce6bb63be","5f60e3c0a3b16e07647b2ff9","5f60ecb68c8743015d98b9af","false","null","<div style=""align-items: center; display: flex; color: darkorange; font-size: 90px""><b>ø</b></div>","null","","","","forget_cue","","","","","","","","","","","","","","","",""
"html-keyboard-response","56","181259","0.0-3.0-3.0-0.3","c2q3fxtqp6dj1so","practice_cue","5f08990527d4280ce6bb63be","5f60e3c0a3b16e07647b2ff9","5f60ecb68c8743015d98b9af","false","null","<span style=""color: black; font-size: 48px"">N + M</span>","null","","","","resp_prompt","","","","","","","","","","","","","","","",""
"categorize-image","57","182292","0.0-3.0-3.0-1.3","c2q3fxtqp6dj1so","practice_cue","5f08990527d4280ce6bb63be","5f60e3c0a3b16e07647b2ff9","5f60ecb68c8743015d98b9af","true","1031","./Stimuli/ImagesPractice/SM37.jpg","83","","","","test","false","N + M","76","","SM","SM37.jpg","remember","old","20","2","practice_forget","left","","","",""
"html-keyboard-response","58","182793","0.0-3.0-3.0-2.3-0.3","c2q3fxtqp6dj1so","practice_cue","5f08990527d4280ce6bb63be","5f60e3c0a3b16e07647b2ff9","5f60ecb68c8743015d98b9af","false","null","<span style=""color: red; font-size: 48px"">Error!</span>","null","","","","feedback","","","","","","","","","","","","","","","",""
"html-keyboard-response","59","184794","0.0-3.0-3.0-3.3","c2q3fxtqp6dj1so","practice_cue","5f08990527d4280ce6bb63be","5f60e3c0a3b16e07647b2ff9","5f60ecb68c8743015d98b9af","false","null","<div style=""align-items: center; display: flex; color: dodgerblue; font-size: 90px""><b>o</b></div>","null","","","","forget_cue","","","","","","","","","","","","","","","",""
"html-keyboard-response","60","185496","0.0-3.0-3.0-0.4","c2q3fxtqp6dj1so","practice_cue","5f08990527d4280ce6bb63be","5f60e3c0a3b16e07647b2ff9","5f60ecb68c8743015d98b9af","false","null","<span style=""color: black; font-size: 48px"">M + N</span>","null","","","","resp_prompt","","","","","","","","","","","","","","","",""
"categorize-image","61","186331","0.0-3.0-3.0-1.4","c2q3fxtqp6dj1so","practice_cue","5f08990527d4280ce6bb63be","5f60e3c0a3b16e07647b2ff9","5f60ecb68c8743015d98b9af","true","833","./Stimuli/ImagesPractice/SN205.jpg","76","","","","test","true","M + N","76","","SN","SN205.jpg","remember","old","21","2","practice_forget","right","","","",""
"html-keyboard-response","62","188332","0.0-3.0-3.0-3.4","c2q3fxtqp6dj1so","practice_cue","5f08990527d4280ce6bb63be","5f60e3c0a3b16e07647b2ff9","5f60ecb68c8743015d98b9af","false","null","<div style=""align-items: center; display: flex; color: dodgerblue; font-size: 90px""><b>o</b></div>","null","","","","forget_cue","","","","","","","","","","","","","","","",""
"html-keyboard-response","63","189034","0.0-3.0-3.0-0.5","c2q3fxtqp6dj1so","practice_cue","5f08990527d4280ce6bb63be","5f60e3c0a3b16e07647b2ff9","5f60ecb68c8743015d98b9af","false","null","<span style=""color: black; font-size: 48px"">M + N</span>","null","","","","resp_prompt","","","","","","","","","","","","","","","",""
"categorize-image","64","189830","0.0-3.0-3.0-1.5","c2q3fxtqp6dj1so","practice_cue","5f08990527d4280ce6bb63be","5f60e3c0a3b16e07647b2ff9","5f60ecb68c8743015d98b9af","true","793","./Stimuli/ImagesPractice/SM35.jpg","83","","","","test","true","M + N","83","","SM","SM35.jpg","forget","old","22","2","practice_forget","left","","","",""
"html-keyboard-response","65","191831","0.0-3.0-3.0-3.5","c2q3fxtqp6dj1so","practice_cue","5f08990527d4280ce6bb63be","5f60e3c0a3b16e07647b2ff9","5f60ecb68c8743015d98b9af","false","null","<div style=""align-items: center; display: flex; color: darkorange; font-size: 90px""><b>ø</b></div>","null","","","","forget_cue","","","","","","","","","","","","","","","",""
"html-keyboard-response","66","192533","0.0-3.0-3.0-0.6","c2q3fxtqp6dj1so","practice_cue","5f08990527d4280ce6bb63be","5f60e3c0a3b16e07647b2ff9","5f60ecb68c8743015d98b9af","false","null","<span style=""color: black; font-size: 48px"">N + M</span>","null","","","","resp_prompt","","","","","","","","","","","","","","","",""
"categorize-image","67","193396","0.0-3.0-3.0-1.6","c2q3fxtqp6dj1so","practice_cue","5f08990527d4280ce6bb63be","5f60e3c0a3b16e07647b2ff9","5f60ecb68c8743015d98b9af","true","861","./Stimuli/ImagesPractice/SM61.jpg","76","","","","test","true","N + M","76","","SM","SM61.jpg","remember","old","23","2","practice_forget","right","","","",""
"html-keyboard-response","68","195398","0.0-3.0-3.0-3.6","c2q3fxtqp6dj1so","practice_cue","5f08990527d4280ce6bb63be","5f60e3c0a3b16e07647b2ff9","5f60ecb68c8743015d98b9af","false","null","<div style=""align-items: center; display: flex; color: dodgerblue; font-size: 90px""><b>o</b></div>","null","","","","forget_cue","","","","","","","","","","","","","","","",""
"html-keyboard-response","69","196099","0.0-3.0-3.0-0.7","c2q3fxtqp6dj1so","practice_cue","5f08990527d4280ce6bb63be","5f60e3c0a3b16e07647b2ff9","5f60ecb68c8743015d98b9af","false","null","<span style=""color: black; font-size: 48px"">N + M</span>","null","","","","resp_prompt","","","","","","","","","","","","","","","",""
"categorize-image","70","196996","0.0-3.0-3.0-1.7","c2q3fxtqp6dj1so","practice_cue","5f08990527d4280ce6bb63be","5f60e3c0a3b16e07647b2ff9","5f60ecb68c8743015d98b9af","true","896.0000000000291","./Stimuli/ImagesPractice/LN17.jpg","83","","","","test","true","N + M","83","","LN","LN17.jpg","forget","old","24","2","practice_forget","left","","","",""
"html-keyboard-response","71","198998","0.0-3.0-3.0-3.7","c2q3fxtqp6dj1so","practice_cue","5f08990527d4280ce6bb63be","5f60e3c0a3b16e07647b2ff9","5f60ecb68c8743015d98b9af","false","null","<div style=""align-items: center; display: flex; color: darkorange; font-size: 90px""><b>ø</b></div>","null","","","","forget_cue","","","","","","","","","","","","","","","",""
"html-keyboard-response","72","199699","0.0-3.0-3.0-0.8","c2q3fxtqp6dj1so","practice_cue","5f08990527d4280ce6bb63be","5f60e3c0a3b16e07647b2ff9","5f60ecb68c8743015d98b9af","false","null","<span style=""color: black; font-size: 48px"">M + N</span>","null","","","","resp_prompt","","","","","","","","","","","","","","","",""
"categorize-image","73","200631","0.0-3.0-3.0-1.8","c2q3fxtqp6dj1so","practice_cue","5f08990527d4280ce6bb63be","5f60e3c0a3b16e07647b2ff9","5f60ecb68c8743015d98b9af","true","930","./Stimuli/ImagesPractice/SN76.jpg","76","","","","test","true","M + N","76","","SN","SN76.jpg","forget","old","25","2","practice_forget","right","","","",""
"html-keyboard-response","74","202633","0.0-3.0-3.0-3.8","c2q3fxtqp6dj1so","practice_cue","5f08990527d4280ce6bb63be","5f60e3c0a3b16e07647b2ff9","5f60ecb68c8743015d98b9af","false","null","<div style=""align-items: center; display: flex; color: darkorange; font-size: 90px""><b>ø</b></div>","null","","","","forget_cue","","","","","","","","","","","","","","","",""
"html-keyboard-response","75","203334","0.0-3.0-3.0-0.9","c2q3fxtqp6dj1so","practice_cue","5f08990527d4280ce6bb63be","5f60e3c0a3b16e07647b2ff9","5f60ecb68c8743015d98b9af","false","null","<span style=""color: black; font-size: 48px"">N + M</span>","null","","","","resp_prompt","","","","","","","","","","","","","","","",""
"categorize-image","76","204321","0.0-3.0-3.0-1.9","c2q3fxtqp6dj1so","practice_cue","5f08990527d4280ce6bb63be","5f60e3c0a3b16e07647b2ff9","5f60ecb68c8743015d98b9af","true","985","./Stimuli/ImagesPractice/SM62.jpg","76","","","","test","true","N + M","76","","SM","SM62.jpg","remember","old","26","2","practice_forget","right","","","",""
"html-keyboard-response","77","206322","0.0-3.0-3.0-3.9","c2q3fxtqp6dj1so","practice_cue","5f08990527d4280ce6bb63be","5f60e3c0a3b16e07647b2ff9","5f60ecb68c8743015d98b9af","false","null","<div style=""align-items: center; display: flex; color: dodgerblue; font-size: 90px""><b>o</b></div>","null","","","","forget_cue","","","","","","","","","","","","","","","",""
"html-keyboard-response","78","207024","0.0-3.0-3.0-0.10","c2q3fxtqp6dj1so","practice_cue","5f08990527d4280ce6bb63be","5f60e3c0a3b16e07647b2ff9","5f60ecb68c8743015d98b9af","false","null","<span style=""color: black; font-size: 48px"">N + M</span>","null","","","","resp_prompt","","","","","","","","","","","","","","","",""
"categorize-image","79","207842","0.0-3.0-3.0-1.10","c2q3fxtqp6dj1so","practice_cue","5f08990527d4280ce6bb63be","5f60e3c0a3b16e07647b2ff9","5f60ecb68c8743015d98b9af","true","816","./Stimuli/ImagesPractice/LN72.jpg","83","","","","test","true","N + M","83","","LN","LN72.jpg","forget","old","27","2","practice_forget","left","","","",""
"html-keyboard-response","80","209843","0.0-3.0-3.0-3.10","c2q3fxtqp6dj1so","practice_cue","5f08990527d4280ce6bb63be","5f60e3c0a3b16e07647b2ff9","5f60ecb68c8743015d98b9af","false","null","<div style=""align-items: center; display: flex; color: darkorange; font-size: 90px""><b>ø</b></div>","null","","","","forget_cue","","","","","","","","","","","","","","","",""
"html-keyboard-response","81","210544","0.0-3.0-3.0-0.11","c2q3fxtqp6dj1so","practice_cue","5f08990527d4280ce6bb63be","5f60e3c0a3b16e07647b2ff9","5f60ecb68c8743015d98b9af","false","null","<span style=""color: black; font-size: 48px"">M + N</span>","null","","","","resp_prompt","","","","","","","","","","","","","","","",""
"categorize-image","82","211510","0.0-3.0-3.0-1.11","c2q3fxtqp6dj1so","practice_cue","5f08990527d4280ce6bb63be","5f60e3c0a3b16e07647b2ff9","5f60ecb68c8743015d98b9af","true","964","./Stimuli/ImagesPractice/LN109.jpg","83","","","","test","false","M + N","76","","LN","LN109.jpg","remember","old","28","2","practice_forget","left","","","",""
"html-keyboard-response","83","212011","0.0-3.0-3.0-2.11-0.11","c2q3fxtqp6dj1so","practice_cue","5f08990527d4280ce6bb63be","5f60e3c0a3b16e07647b2ff9","5f60ecb68c8743015d98b9af","false","null","<span style=""color: red; font-size: 48px"">Error!</span>","null","","","","feedback","","","","","","","","","","","","","","","",""
"html-keyboard-response","84","214013","0.0-3.0-3.0-3.11","c2q3fxtqp6dj1so","practice_cue","5f08990527d4280ce6bb63be","5f60e3c0a3b16e07647b2ff9","5f60ecb68c8743015d98b9af","false","null","<div style=""align-items: center; display: flex; color: dodgerblue; font-size: 90px""><b>o</b></div>","null","","","","forget_cue","","","","","","","","","","","","","","","",""
"html-keyboard-response","85","214715","0.0-3.0-3.0-0.12","c2q3fxtqp6dj1so","practice_cue","5f08990527d4280ce6bb63be","5f60e3c0a3b16e07647b2ff9","5f60ecb68c8743015d98b9af","false","null","<span style=""color: black; font-size: 48px"">M + N</span>","null","","","","resp_prompt","","","","","","","","","","","","","","","",""
"categorize-image","86","215504","0.0-3.0-3.0-1.12","c2q3fxtqp6dj1so","practice_cue","5f08990527d4280ce6bb63be","5f60e3c0a3b16e07647b2ff9","5f60ecb68c8743015d98b9af","true","787.0000000000291","./Stimuli/ImagesPractice/SN75.jpg","76","","","","test","true","M + N","76","","SN","SN75.jpg","forget","old","29","2","practice_forget","right","","","",""
"html-keyboard-response","87","217505","0.0-3.0-3.0-3.12","c2q3fxtqp6dj1so","practice_cue","5f08990527d4280ce6bb63be","5f60e3c0a3b16e07647b2ff9","5f60ecb68c8743015d98b9af","false","null","<div style=""align-items: center; display: flex; color: darkorange; font-size: 90px""><b>ø</b></div>","null","","","","forget_cue","","","","","","","","","","","","","","","",""
"html-keyboard-response","88","218206","0.0-3.0-3.0-0.13","c2q3fxtqp6dj1so","practice_cue","5f08990527d4280ce6bb63be","5f60e3c0a3b16e07647b2ff9","5f60ecb68c8743015d98b9af","false","null","<span style=""color: black; font-size: 48px"">M + N</span>","null","","","","resp_prompt","","","","","","","","","","","","","","","",""
"categorize-image","89","218744","0.0-3.0-3.0-1.13","c2q3fxtqp6dj1so","practice_cue","5f08990527d4280ce6bb63be","5f60e3c0a3b16e07647b2ff9","5f60ecb68c8743015d98b9af","true","536","./Stimuli/ImagesPractice/SM98.jpg","83","","","","test","true","M + N","83","","SM","SM98.jpg","remember","old","30","2","practice_forget","left","","","",""
"html-keyboard-response","90","220746","0.0-3.0-3.0-3.13","c2q3fxtqp6dj1so","practice_cue","5f08990527d4280ce6bb63be","5f60e3c0a3b16e07647b2ff9","5f60ecb68c8743015d98b9af","false","null","<div style=""align-items: center; display: flex; color: dodgerblue; font-size: 90px""><b>o</b></div>","null","","","","forget_cue","","","","","","","","","","","","","","","",""
"html-keyboard-response","91","221447","0.0-3.0-3.0-0.14","c2q3fxtqp6dj1so","practice_cue","5f08990527d4280ce6bb63be","5f60e3c0a3b16e07647b2ff9","5f60ecb68c8743015d98b9af","false","null","<span style=""color: black; font-size: 48px"">N + M</span>","null","","","","resp_prompt","","","","","","","","","","","","","","","",""
"categorize-image","92","222648","0.0-3.0-3.0-1.14","c2q3fxtqp6dj1so","practice_cue","5f08990527d4280ce6bb63be","5f60e3c0a3b16e07647b2ff9","5f60ecb68c8743015d98b9af","true","1198","./Stimuli/ImagesPractice/LN2.jpg","83","","","","test","true","N + M","83","","LN","LN2.jpg","forget","old","31","2","practice_forget","left","","","",""
"html-keyboard-response","93","224649","0.0-3.0-3.0-3.14","c2q3fxtqp6dj1so","practice_cue","5f08990527d4280ce6bb63be","5f60e3c0a3b16e07647b2ff9","5f60ecb68c8743015d98b9af","false","null","<div style=""align-items: center; display: flex; color: darkorange; font-size: 90px""><b>ø</b></div>","null","","","","forget_cue","","","","","","","","","","","","","","","",""
"html-keyboard-response","94","225350","0.0-3.0-3.0-0.15","c2q3fxtqp6dj1so","practice_cue","5f08990527d4280ce6bb63be","5f60e3c0a3b16e07647b2ff9","5f60ecb68c8743015d98b9af","false","null","<span style=""color: black; font-size: 48px"">N + M</span>","null","","","","resp_prompt","","","","","","","","","","","","","","","",""
"categorize-image","95","225955","0.0-3.0-3.0-1.15","c2q3fxtqp6dj1so","practice_cue","5f08990527d4280ce6bb63be","5f60e3c0a3b16e07647b2ff9","5f60ecb68c8743015d98b9af","true","604","./Stimuli/ImagesPractice/LM224.jpg","76","","","","test","true","N + M","76","","LM","LM224.jpg","remember","old","32","2","practice_forget","right","","","",""
"html-keyboard-response","96","227956","0.0-3.0-3.0-3.15","c2q3fxtqp6dj1so","practice_cue","5f08990527d4280ce6bb63be","5f60e3c0a3b16e07647b2ff9","5f60ecb68c8743015d98b9af","false","null","<div style=""align-items: center; display: flex; color: dodgerblue; font-size: 90px""><b>o</b></div>","null","","","","forget_cue","","","","","","","","","","","","","","","",""
"html-keyboard-response","97","230465","0.0-3.0-4.0","c2q3fxtqp6dj1so","break","5f08990527d4280ce6bb63be","5f60e3c0a3b16e07647b2ff9","5f60ecb68c8743015d98b9af","false","2508","<p style='font-size: 32px;'>Break</><br><br><br><br><br><p style='font-size: 24px;'>In the last block, you committed 2 errors and did not respond in time on 0 trials.
</p><p style='font-size: 24px;'>Try to respond as fast and accurately as possible in the next block as well! </p><p style='font-size: 24px;'>Press SPACE to continue.</p>","32","","","","","","","","","","","","","","","","","","","",""
"html-keyboard-response","98","239196","0.0-3.0-5.0","c2q3fxtqp6dj1so","instructions","5f08990527d4280ce6bb63be","5f60e3c0a3b16e07647b2ff9","5f60ecb68c8743015d98b9af","false","8730","<div align=left> Now, to practice, we kindly ask you to remember as many of the to-be-remembered pictures<br>of the previous learning phase as possible.<br><br>The pictures you were instructed to remember were the pictures followed by a <span style='color: dodgerblue; font-size: 28px'>O</span>.<br><br>In this memory test phase, you will also see some new pictures.<br>It is your task to remember whether you were presented with this specific picture in this study so far or not.<br>If you recognize an object (you have already seen it in this study), it is an OLD object. <br>If you do not recognize an object (you have NOT seen it in this study), it is a NEW object. <br><strong> Attention</strong>: As already mentioned, <span style='color: darkorange; font-size:28px'>Ø</span>-pictures will <strong>never</strong> appear in this memory test (neither as new objects). <br><br>Press SPACE to continue. </div>","32","","","","","","","","","","","","","","","","","","","",""
"html-keyboard-response","99","257692","0.0-3.0-6.0","c2q3fxtqp6dj1so","instructions","5f08990527d4280ce6bb63be","5f60e3c0a3b16e07647b2ff9","5f60ecb68c8743015d98b9af","false","18493.99999999997","<div align=left> M and N no longer will appear on the left/right of the fixation cross. <br>Instead there will be a note at the bottom of the left or right side  <br>indicating which key you should press for an old or new object:  <br> <br>Press the <strong>right</strong> key to classify an object as <strong>old</strong> and press the <strong>left</strong>, to classify an object as <strong>new</strong>.<br>Please classify the objects as new/old by again placing your index finger on the 'S' and 'L' keys <br>and press them accordingly.<br><br><strong>Old:</strong> This object has been presented before. <br><strong>New:</strong> This object has <strong>not</strong> been presented.<br><br>Now please put your right and left index fingers on the 'S' and 'L' keys of your keyboard. <br>Please respond as fast and as accurately as possible!<br><br>Press SPACE to continue. </div>","32","","","","","","","","","","","","","","","","","","","",""
"categorize-image","100","259364","0.0-3.0-7.0-0.0","c2q3fxtqp6dj1so","practice_recog","5f08990527d4280ce6bb63be","5f60e3c0a3b16e07647b2ff9","5f60ecb68c8743015d98b9af","true","1169","./Stimuli/ImagesPractice/LN4.jpg","76","","","","test","false","","83","","LN","LN4.jpg","","new","33","3","practice_recog","right","","","",""
"categorize-image","101","261186","0.0-3.0-7.0-0.1","c2q3fxtqp6dj1so","practice_recog","5f08990527d4280ce6bb63be","5f60e3c0a3b16e07647b2ff9","5f60ecb68c8743015d98b9af","true","1320","./Stimuli/ImagesPractice/LM143.jpg","83","","","","test","true","","83","","LM","LM143.jpg","","new","34","3","practice_recog","left","","","",""
"categorize-image","102","262502","0.0-3.0-7.0-0.2","c2q3fxtqp6dj1so","practice_recog","5f08990527d4280ce6bb63be","5f60e3c0a3b16e07647b2ff9","5f60ecb68c8743015d98b9af","true","815","./Stimuli/ImagesPractice/SN220.jpg","83","","","","test","true","","83","","SN","SN220.jpg","","new","35","3","practice_recog","left","","","",""
"categorize-image","103","263762","0.0-3.0-7.0-0.3","c2q3fxtqp6dj1so","practice_recog","5f08990527d4280ce6bb63be","5f60e3c0a3b16e07647b2ff9","5f60ecb68c8743015d98b9af","true","758","./Stimuli/ImagesPractice/SN221.jpg","76","","","","test","true","","76","","SN","SN221.jpg","","old","36","3","practice_recog","right","","","",""
"categorize-image","104","264943","0.0-3.0-7.0-0.4","c2q3fxtqp6dj1so","practice_recog","5f08990527d4280ce6bb63be","5f60e3c0a3b16e07647b2ff9","5f60ecb68c8743015d98b9af","true","679","./Stimuli/ImagesPractice/SM37.jpg","76","","","","test","true","","76","","SM","SM37.jpg","","old","37","3","practice_recog","right","","","",""
"categorize-image","105","266079","0.0-3.0-7.0-0.5","c2q3fxtqp6dj1so","practice_recog","5f08990527d4280ce6bb63be","5f60e3c0a3b16e07647b2ff9","5f60ecb68c8743015d98b9af","true","634","./Stimuli/ImagesPractice/SM61.jpg","76","","","","test","true","","76","","SM","SM61.jpg","","old","38","3","practice_recog","right","","","",""
"categorize-image","106","267318","0.0-3.0-7.0-0.6","c2q3fxtqp6dj1so","practice_recog","5f08990527d4280ce6bb63be","5f60e3c0a3b16e07647b2ff9","5f60ecb68c8743015d98b9af","true","736","./Stimuli/ImagesPractice/LN15.jpg","83","","","","test","true","","83","","LN","LN15.jpg","","new","39","3","practice_recog","left","","","",""
"categorize-image","107","268498","0.0-3.0-7.0-0.7","c2q3fxtqp6dj1so","practice_recog","5f08990527d4280ce6bb63be","5f60e3c0a3b16e07647b2ff9","5f60ecb68c8743015d98b9af","true","679","./Stimuli/ImagesPractice/LM224.jpg","76","","","","test","true","","76","","LM","LM224.jpg","","old","40","3","practice_recog","right","","","",""
"categorize-image","108","269635","0.0-3.0-7.0-0.8","c2q3fxtqp6dj1so","practice_recog","5f08990527d4280ce6bb63be","5f60e3c0a3b16e07647b2ff9","5f60ecb68c8743015d98b9af","true","635","./Stimuli/ImagesPractice/SN205.jpg","76","","","","test","true","","76","","SN","SN205.jpg","","old","41","3","practice_recog","right","","","",""
"categorize-image","109","270895","0.0-3.0-7.0-0.9","c2q3fxtqp6dj1so","practice_recog","5f08990527d4280ce6bb63be","5f60e3c0a3b16e07647b2ff9","5f60ecb68c8743015d98b9af","true","759","./Stimuli/ImagesPractice/SM98.jpg","76","","","","test","true","","76","","SM","SM98.jpg","","old","42","3","practice_recog","right","","","",""
"categorize-image","110","272053","0.0-3.0-7.0-0.10","c2q3fxtqp6dj1so","practice_recog","5f08990527d4280ce6bb63be","5f60e3c0a3b16e07647b2ff9","5f60ecb68c8743015d98b9af","true","657","./Stimuli/ImagesPractice/LM239.jpg","83","","","","test","true","","83","","LM","LM239.jpg","","new","43","3","practice_recog","left","","","",""
"categorize-image","111","273247","0.0-3.0-7.0-0.11","c2q3fxtqp6dj1so","practice_recog","5f08990527d4280ce6bb63be","5f60e3c0a3b16e07647b2ff9","5f60ecb68c8743015d98b9af","true","692.0000000000582","./Stimuli/ImagesPractice/SM97.jpg","76","","","","test","false","","83","","SM","SM97.jpg","","new","44","3","practice_recog","right","","","",""
"categorize-image","112","274663","0.0-3.0-7.0-0.12","c2q3fxtqp6dj1so","practice_recog","5f08990527d4280ce6bb63be","5f60e3c0a3b16e07647b2ff9","5f60ecb68c8743015d98b9af","true","915","./Stimuli/ImagesPractice/LN109.jpg","76","","","","test","true","","76","","LN","LN109.jpg","","old","45","3","practice_recog","right","","","",""
"categorize-image","113","275845","0.0-3.0-7.0-0.13","c2q3fxtqp6dj1so","practice_recog","5f08990527d4280ce6bb63be","5f60e3c0a3b16e07647b2ff9","5f60ecb68c8743015d98b9af","true","680","./Stimuli/ImagesPractice/LM55.jpg","83","","","","test","true","","83","","LM","LM55.jpg","","new","46","3","practice_recog","left","","","",""
"categorize-image","114","277038","0.0-3.0-7.0-0.14","c2q3fxtqp6dj1so","practice_recog","5f08990527d4280ce6bb63be","5f60e3c0a3b16e07647b2ff9","5f60ecb68c8743015d98b9af","true","691.0000000000582","./Stimuli/ImagesPractice/SM62.jpg","76","","","","test","true","","76","","SM","SM62.jpg","","old","47","3","practice_recog","right","","","",""
"categorize-image","115","278287","0.0-3.0-7.0-0.15","c2q3fxtqp6dj1so","practice_recog","5f08990527d4280ce6bb63be","5f60e3c0a3b16e07647b2ff9","5f60ecb68c8743015d98b9af","true","747","./Stimuli/ImagesPractice/LM147.jpg","83","","","","test","true","","83","","LM","LM147.jpg","","new","48","3","practice_recog","left","","","",""
"html-keyboard-response","116","281723","0.0-3.0-8.0","c2q3fxtqp6dj1so","instructions","5f08990527d4280ce6bb63be","5f60e3c0a3b16e07647b2ff9","5f60ecb68c8743015d98b9af","false","3435","<div align=left> Great!<br><br>Are you ready to continue?<br>If you want to reread the instructions and redo the practice trials, please <br>press „Z“.<br><br>You can proceed when you are ready.<br><br>After the presentation of each object, you will receive an instruction whether to <br>remember or to forget the object.<br>We will test your memory of the following pictures only at the very end of <br>the experiment after all learning blocks are completed. <br><br>Press SPACE to CONTINUE when you are ready. </div>","32","","","","","","","","","","","","","","","","","","","",""
"html-keyboard-response","117","289655","0.0-4.0-0.0","c2q3fxtqp6dj1so","instructions","5f08990527d4280ce6bb63be","5f60e3c0a3b16e07647b2ff9","5f60ecb68c8743015d98b9af","false","7931","<div align=left> The actual experiment is about to start.<br>The practice trials are over!<br><br>Please always respond both fast and accurately!<br><br>Remember: <br> <br><li> Please place your index fingers on the <strong>'S'</strong> and <strong>'L'</strong> keys <br>to respond as fast and accurately as possible.</li><li> Every picture can be classified as either mechanical or non-mechanical.</li><li> If you do not respond in time or commit an error, you will receive a corresponding feedback.<br> Please try to respond as <strong> fast </strong> and as <strong> accurately as possible </strong>.</li><li> Remember the <span style='color: dodgerblue; font-size: 28px'>O</span> pictures. <br></li><li> Please minimize distractions and stay focused. </li><br><br>Press SPACE to START.</div>","32","","","","","","","","","","","","","","","","","","","",""
"html-keyboard-response","118","290356","0.0-4.0-1.0-0.0","c2q3fxtqp6dj1so","prime","5f08990527d4280ce6bb63be","5f60e3c0a3b16e07647b2ff9","5f60ecb68c8743015d98b9af","false","null","<span style=""color: black; font-size: 48px"">M + N</span>","null","","","","resp_prompt","","","","","","","","","","","","","","","",""
"categorize-image","119","291051","0.0-4.0-1.0-1.0","c2q3fxtqp6dj1so","prime","5f08990527d4280ce6bb63be","5f60e3c0a3b16e07647b2ff9","5f60ecb68c8743015d98b9af","true","693","./Stimuli/SelectedImages/LN/LN149.bmp","76","","","","test","true","M + N","76","switch","LN","LN149.bmp","remember","","49","3","prime1","right","","","",""
"html-keyboard-response","120","293052","0.0-4.0-1.0-3.0","c2q3fxtqp6dj1so","prime","5f08990527d4280ce6bb63be","5f60e3c0a3b16e07647b2ff9","5f60ecb68c8743015d98b9af","false","null","<div style=""align-items: center; display: flex; color: dodgerblue; font-size: 90px""><b>o</b></div>","null","","","","forget_cue","","","","","","","","","","","","","","","",""
"html-keyboard-response","121","293753","0.0-4.0-1.0-0.1","c2q3fxtqp6dj1so","prime","5f08990527d4280ce6bb63be","5f60e3c0a3b16e07647b2ff9","5f60ecb68c8743015d98b9af","false","null","<span style=""color: black; font-size: 48px"">N + M</span>","null","","","","resp_prompt","","","","","","","","","","","","","","","",""
"categorize-image","122","294809","0.0-4.0-1.0-1.1","c2q3fxtqp6dj1so","prime","5f08990527d4280ce6bb63be","5f60e3c0a3b16e07647b2ff9","5f60ecb68c8743015d98b9af","true","1055","./Stimuli/SelectedImages/LN/LN177.bmp","83","","","","test","true","N + M","83","repetition","LN","LN177.bmp","remember","","50","3","prime1","left","","","",""
"html-keyboard-response","123","296810","0.0-4.0-1.0-3.1","c2q3fxtqp6dj1so","prime","5f08990527d4280ce6bb63be","5f60e3c0a3b16e07647b2ff9","5f60ecb68c8743015d98b9af","false","null","<div style=""align-items: center; display: flex; color: dodgerblue; font-size: 90px""><b>o</b></div>","null","","","","forget_cue","","","","","","","","","","","","","","","",""
"html-keyboard-response","124","297512","0.0-4.0-1.0-0.2","c2q3fxtqp6dj1so","prime","5f08990527d4280ce6bb63be","5f60e3c0a3b16e07647b2ff9","5f60ecb68c8743015d98b9af","false","null","<span style=""color: black; font-size: 48px"">M + N</span>","null","","","","resp_prompt","","","","","","","","","","","","","","","",""
"categorize-image","125","298375","0.0-4.0-1.0-1.2","c2q3fxtqp6dj1so","prime","5f08990527d4280ce6bb63be","5f60e3c0a3b16e07647b2ff9","5f60ecb68c8743015d98b9af","true","862","./Stimuli/SelectedImages/SN/SN60.bmp","76","","","","test","true","M + N","76","switch","SN","SN60.bmp","remember","","51","3","prime1","right","","","",""
"html-keyboard-response","126","300377","0.0-4.0-1.0-3.2","c2q3fxtqp6dj1so","prime","5f08990527d4280ce6bb63be","5f60e3c0a3b16e07647b2ff9","5f60ecb68c8743015d98b9af","false","null","<div style=""align-items: center; display: flex; color: dodgerblue; font-size: 90px""><b>o</b></div>","null","","","","forget_cue","","","","","","","","","","","","","","","",""
"html-keyboard-response","127","301079","0.0-4.0-1.0-0.3","c2q3fxtqp6dj1so","prime","5f08990527d4280ce6bb63be","5f60e3c0a3b16e07647b2ff9","5f60ecb68c8743015d98b9af","false","null","<span style=""color: black; font-size: 48px"">N + M</span>","null","","","","resp_prompt","","","","","","","","","","","","","","","",""
"categorize-image","128","302279","0.0-4.0-1.0-1.3","c2q3fxtqp6dj1so","prime","5f08990527d4280ce6bb63be","5f60e3c0a3b16e07647b2ff9","5f60ecb68c8743015d98b9af","true","1199","./Stimuli/SelectedImages/SM/SM74.bmp","76","","","","test","true","N + M","76","switch","SM","SM74.bmp","forget","","52","3","prime1","right","","","",""
"html-keyboard-response","129","304280","0.0-4.0-1.0-3.3","c2q3fxtqp6dj1so","prime","5f08990527d4280ce6bb63be","5f60e3c0a3b16e07647b2ff9","5f60ecb68c8743015d98b9af","false","null","<div style=""align-items: center; display: flex; color: darkorange; font-size: 90px""><b>ø</b></div>","null","","","","forget_cue","","","","","","","","","","","","","","","",""
"html-keyboard-response","130","304982","0.0-4.0-1.0-0.4","c2q3fxtqp6dj1so","prime","5f08990527d4280ce6bb63be","5f60e3c0a3b16e07647b2ff9","5f60ecb68c8743015d98b9af","false","null","<span style=""color: black; font-size: 48px"">M + N</span>","null","","","","resp_prompt","","","","","","","","","","","","","","","",""
"categorize-image","131","305846","0.0-4.0-1.0-1.4","c2q3fxtqp6dj1so","prime","5f08990527d4280ce6bb63be","5f60e3c0a3b16e07647b2ff9","5f60ecb68c8743015d98b9af","true","862","./Stimuli/SelectedImages/SN/SN140.bmp","76","","","","test","true","M + N","76","switch","SN","SN140.bmp","remember","","53","3","prime1","right","","","",""
"html-keyboard-response","132","307848","0.0-4.0-1.0-3.4","c2q3fxtqp6dj1so","prime","5f08990527d4280ce6bb63be","5f60e3c0a3b16e07647b2ff9","5f60ecb68c8743015d98b9af","false","null","<div style=""align-items: center; display: flex; color: dodgerblue; font-size: 90px""><b>o</b></div>","null","","","","forget_cue","","","","","","","","","","","","","","","",""
"html-keyboard-response","133","308549","0.0-4.0-1.0-0.5","c2q3fxtqp6dj1so","prime","5f08990527d4280ce6bb63be","5f60e3c0a3b16e07647b2ff9","5f60ecb68c8743015d98b9af","false","null","<span style=""color: black; font-size: 48px"">N + M</span>","null","","","","resp_prompt","","","","","","","","","","","","","","","",""
"categorize-image","134","309525","0.0-4.0-1.0-1.5","c2q3fxtqp6dj1so","prime","5f08990527d4280ce6bb63be","5f60e3c0a3b16e07647b2ff9","5f60ecb68c8743015d98b9af","true","973.9999999999418","./Stimuli/SelectedImages/SN/SN182.bmp","83","","","","test","true","N + M","83","switch","SN","SN182.bmp","forget","","54","3","prime1","left","","","",""
"html-keyboard-response","135","311526","0.0-4.0-1.0-3.5","c2q3fxtqp6dj1so","prime","5f08990527d4280ce6bb63be","5f60e3c0a3b16e07647b2ff9","5f60ecb68c8743015d98b9af","false","null","<div style=""align-items: center; display: flex; color: darkorange; font-size: 90px""><b>ø</b></div>","null","","","","forget_cue","","","","","","","","","","","","","","","",""
"html-keyboard-response","136","312228","0.0-4.0-1.0-0.6","c2q3fxtqp6dj1so","prime","5f08990527d4280ce6bb63be","5f60e3c0a3b16e07647b2ff9","5f60ecb68c8743015d98b9af","false","null","<span style=""color: black; font-size: 48px"">M + N</span>","null","","","","resp_prompt","","","","","","","","","","","","","","","",""
"categorize-image","137","313058","0.0-4.0-1.0-1.6","c2q3fxtqp6dj1so","prime","5f08990527d4280ce6bb63be","5f60e3c0a3b16e07647b2ff9","5f60ecb68c8743015d98b9af","true","828","./Stimuli/SelectedImages/LN/LN28.bmp","76","","","","test","true","M + N","76","switch","LN","LN28.bmp","forget","","55","3","prime1","right","","","",""
"html-keyboard-response","138","315059","0.0-4.0-1.0-3.6","c2q3fxtqp6dj1so","prime","5f08990527d4280ce6bb63be","5f60e3c0a3b16e07647b2ff9","5f60ecb68c8743015d98b9af","false","null","<div style=""align-items: center; display: flex; color: darkorange; font-size: 90px""><b>ø</b></div>","null","","","","forget_cue","","","","","","","","","","","","","","","",""
"html-keyboard-response","139","315761","0.0-4.0-1.0-0.7","c2q3fxtqp6dj1so","prime","5f08990527d4280ce6bb63be","5f60e3c0a3b16e07647b2ff9","5f60ecb68c8743015d98b9af","false","null","<span style=""color: black; font-size: 48px"">M + N</span>","null","","","","resp_prompt","","","","","","","","","","","","","","","",""
"categorize-image","140","316646","0.0-4.0-1.0-1.7","c2q3fxtqp6dj1so","prime","5f08990527d4280ce6bb63be","5f60e3c0a3b16e07647b2ff9","5f60ecb68c8743015d98b9af","true","883","./Stimuli/SelectedImages/LM/LM58.bmp","83","","","","test","true","M + N","83","repetition","LM","LM58.bmp","forget","","56","3","prime1","left","","","",""
"html-keyboard-response","141","318648","0.0-4.0-1.0-3.7","c2q3fxtqp6dj1so","prime","5f08990527d4280ce6bb63be","5f60e3c0a3b16e07647b2ff9","5f60ecb68c8743015d98b9af","false","null","<div style=""align-items: center; display: flex; color: darkorange; font-size: 90px""><b>ø</b></div>","null","","","","forget_cue","","","","","","","","","","","","","","","",""
"html-keyboard-response","142","319349","0.0-4.0-1.0-0.8","c2q3fxtqp6dj1so","prime","5f08990527d4280ce6bb63be","5f60e3c0a3b16e07647b2ff9","5f60ecb68c8743015d98b9af","false","null","<span style=""color: black; font-size: 48px"">N + M</span>","null","","","","resp_prompt","","","","","","","","","","","","","","","",""
"categorize-image","143","320033","0.0-4.0-1.0-1.8","c2q3fxtqp6dj1so","prime","5f08990527d4280ce6bb63be","5f60e3c0a3b16e07647b2ff9","5f60ecb68c8743015d98b9af","true","682","./Stimuli/SelectedImages/LM/LM209.bmp","76","","","","test","true","N + M","76","switch","LM","LM209.bmp","forget","","57","3","prime1","right","","","",""
"html-keyboard-response","144","322035","0.0-4.0-1.0-3.8","c2q3fxtqp6dj1so","prime","5f08990527d4280ce6bb63be","5f60e3c0a3b16e07647b2ff9","5f60ecb68c8743015d98b9af","false","null","<div style=""align-items: center; display: flex; color: darkorange; font-size: 90px""><b>ø</b></div>","null","","","","forget_cue","","","","","","","","","","","","","","","",""
"html-keyboard-response","145","322736","0.0-4.0-1.0-0.9","c2q3fxtqp6dj1so","prime","5f08990527d4280ce6bb63be","5f60e3c0a3b16e07647b2ff9","5f60ecb68c8743015d98b9af","false","null","<span style=""color: black; font-size: 48px"">N + M</span>","null","","","","resp_prompt","","","","","","","","","","","","","","","",""
"categorize-image","146","323341","0.0-4.0-1.0-1.9","c2q3fxtqp6dj1so","prime","5f08990527d4280ce6bb63be","5f60e3c0a3b16e07647b2ff9","5f60ecb68c8743015d98b9af","true","603","./Stimuli/SelectedImages/LN/LN128.bmp","83","","","","test","true","N + M","83","switch","LN","LN128.bmp","remember","","58","3","prime1","left","","","",""
"html-keyboard-response","147","325343","0.0-4.0-1.0-3.9","c2q3fxtqp6dj1so","prime","5f08990527d4280ce6bb63be","5f60e3c0a3b16e07647b2ff9","5f60ecb68c8743015d98b9af","false","null","<div style=""align-items: center; display: flex; color: dodgerblue; font-size: 90px""><b>o</b></div>","null","","","","forget_cue","","","","","","","","","","","","","","","",""
"html-keyboard-response","148","326043","0.0-4.0-1.0-0.10","c2q3fxtqp6dj1so","prime","5f08990527d4280ce6bb63be","5f60e3c0a3b16e07647b2ff9","5f60ecb68c8743015d98b9af","false","null","<span style=""color: black; font-size: 48px"">N + M</span>","null","","","","resp_prompt","","","","","","","","","","","","","","","",""
"categorize-image","149","326896","0.0-4.0-1.0-1.10","c2q3fxtqp6dj1so","prime","5f08990527d4280ce6bb63be","5f60e3c0a3b16e07647b2ff9","5f60ecb68c8743015d98b9af","true","850","./Stimuli/SelectedImages/LM/LM235.bmp","76","","","","test","true","N + M","76","repetition","LM","LM235.bmp","forget","","59","3","prime1","right","","","",""
"html-keyboard-response","150","328897","0.0-4.0-1.0-3.10","c2q3fxtqp6dj1so","prime","5f08990527d4280ce6bb63be","5f60e3c0a3b16e07647b2ff9","5f60ecb68c8743015d98b9af","false","null","<div style=""align-items: center; display: flex; color: darkorange; font-size: 90px""><b>ø</b></div>","null","","","","forget_cue","","","","","","","","","","","","","","","",""
"html-keyboard-response","151","329598","0.0-4.0-1.0-0.11","c2q3fxtqp6dj1so","prime","5f08990527d4280ce6bb63be","5f60e3c0a3b16e07647b2ff9","5f60ecb68c8743015d98b9af","false","null","<span style=""color: black; font-size: 48px"">N + M</span>","null","","","","resp_prompt","","","","","","","","","","","","","","","",""
"categorize-image","152","330620","0.0-4.0-1.0-1.11","c2q3fxtqp6dj1so","prime","5f08990527d4280ce6bb63be","5f60e3c0a3b16e07647b2ff9","5f60ecb68c8743015d98b9af","true","1019","./Stimuli/SelectedImages/SN/SN181.bmp","83","","","","test","true","N + M","83","repetition","SN","SN181.bmp","forget","","60","3","prime1","left","","","",""
"html-keyboard-response","153","332621","0.0-4.0-1.0-3.11","c2q3fxtqp6dj1so","prime","5f08990527d4280ce6bb63be","5f60e3c0a3b16e07647b2ff9","5f60ecb68c8743015d98b9af","false","null","<div style=""align-items: center; display: flex; color: darkorange; font-size: 90px""><b>ø</b></div>","null","","","","forget_cue","","","","","","","","","","","","","","","",""
"html-keyboard-response","154","333321","0.0-4.0-1.0-0.12","c2q3fxtqp6dj1so","prime","5f08990527d4280ce6bb63be","5f60e3c0a3b16e07647b2ff9","5f60ecb68c8743015d98b9af","false","null","<span style=""color: black; font-size: 48px"">N + M</span>","null","","","","resp_prompt","","","","","","","","","","","","","","","",""
"categorize-image","155","334029","0.0-4.0-1.0-1.12","c2q3fxtqp6dj1so","prime","5f08990527d4280ce6bb63be","5f60e3c0a3b16e07647b2ff9","5f60ecb68c8743015d98b9af","true","705","./Stimuli/SelectedImages/LN/LN13.bmp","83","","","","test","true","N + M","83","switch","LN","LN13.bmp","remember","","61","3","prime1","left","","","",""
"html-keyboard-response","156","336030","0.0-4.0-1.0-3.12","c2q3fxtqp6dj1so","prime","5f08990527d4280ce6bb63be","5f60e3c0a3b16e07647b2ff9","5f60ecb68c8743015d98b9af","false","null","<div style=""align-items: center; display: flex; color: dodgerblue; font-size: 90px""><b>o</b></div>","null","","","","forget_cue","","","","","","","","","","","","","","","",""
"html-keyboard-response","157","336731","0.0-4.0-1.0-0.13","c2q3fxtqp6dj1so","prime","5f08990527d4280ce6bb63be","5f60e3c0a3b16e07647b2ff9","5f60ecb68c8743015d98b9af","false","null","<span style=""color: black; font-size: 48px"">M + N</span>","null","","","","resp_prompt","","","","","","","","","","","","","","","",""
"categorize-image","158","337651","0.0-4.0-1.0-1.13","c2q3fxtqp6dj1so","prime","5f08990527d4280ce6bb63be","5f60e3c0a3b16e07647b2ff9","5f60ecb68c8743015d98b9af","true","919","./Stimuli/SelectedImages/LM/LM157.bmp","83","","","","test","true","M + N","83","switch","LM","LM157.bmp","forget","","62","3","prime1","left","","","",""
"html-keyboard-response","159","339652","0.0-4.0-1.0-3.13","c2q3fxtqp6dj1so","prime","5f08990527d4280ce6bb63be","5f60e3c0a3b16e07647b2ff9","5f60ecb68c8743015d98b9af","false","null","<div style=""align-items: center; display: flex; color: darkorange; font-size: 90px""><b>ø</b></div>","null","","","","forget_cue","","","","","","","","","","","","","","","",""
"html-keyboard-response","160","340353","0.0-4.0-1.0-0.14","c2q3fxtqp6dj1so","prime","5f08990527d4280ce6bb63be","5f60e3c0a3b16e07647b2ff9","5f60ecb68c8743015d98b9af","false","null","<span style=""color: black; font-size: 48px"">M + N</span>","null","","","","resp_prompt","","","","","","","","","","","","","","","",""
"categorize-image","161","341049","0.0-4.0-1.0-1.14","c2q3fxtqp6dj1so","prime","5f08990527d4280ce6bb63be","5f60e3c0a3b16e07647b2ff9","5f60ecb68c8743015d98b9af","true","694","./Stimuli/SelectedImages/LN/LN92.bmp","76","","","","test","true","M + N","76","repetition","LN","LN92.bmp","remember","","63","3","prime1","right","","","",""
"html-keyboard-response","162","343051","0.0-4.0-1.0-3.14","c2q3fxtqp6dj1so","prime","5f08990527d4280ce6bb63be","5f60e3c0a3b16e07647b2ff9","5f60ecb68c8743015d98b9af","false","null","<div style=""align-items: center; display: flex; color: dodgerblue; font-size: 90px""><b>o</b></div>","null","","","","forget_cue","","","","","","","","","","","","","","","",""
"html-keyboard-response","163","343752","0.0-4.0-1.0-0.15","c2q3fxtqp6dj1so","prime","5f08990527d4280ce6bb63be","5f60e3c0a3b16e07647b2ff9","5f60ecb68c8743015d98b9af","false","null","<span style=""color: black; font-size: 48px"">N + M</span>","null","","","","resp_prompt","","","","","","","","","","","","","","","",""
"categorize-image","164","344627","0.0-4.0-1.0-1.15","c2q3fxtqp6dj1so","prime","5f08990527d4280ce6bb63be","5f60e3c0a3b16e07647b2ff9","5f60ecb68c8743015d98b9af","true","872.9999999999418","./Stimuli/SelectedImages/SM/SM205.bmp","83","","","","test","false","N + M","76","repetition","SM","SM205.bmp","remember","","64","3","prime1","left","","","",""
"html-keyboard-response","165","345128","0.0-4.0-1.0-2.15-0.15","c2q3fxtqp6dj1so","prime","5f08990527d4280ce6bb63be","5f60e3c0a3b16e07647b2ff9","5f60ecb68c8743015d98b9af","false","null","<span style=""color: red; font-size: 48px"">Error!</span>","null","","","","feedback","","","","","","","","","","","","","","","",""
"html-keyboard-response","166","347129","0.0-4.0-1.0-3.15","c2q3fxtqp6dj1so","prime","5f08990527d4280ce6bb63be","5f60e3c0a3b16e07647b2ff9","5f60ecb68c8743015d98b9af","false","null","<div style=""align-items: center; display: flex; color: dodgerblue; font-size: 90px""><b>o</b></div>","null","","","","forget_cue","","","","","","","","","","","","","","","",""
"html-keyboard-response","167","347830","0.0-4.0-1.0-0.16","c2q3fxtqp6dj1so","prime","5f08990527d4280ce6bb63be","5f60e3c0a3b16e07647b2ff9","5f60ecb68c8743015d98b9af","false","null","<span style=""color: black; font-size: 48px"">M + N</span>","null","","","","resp_prompt","","","","","","","","","","","","","","","",""
"categorize-image","168","348452","0.0-4.0-1.0-1.16","c2q3fxtqp6dj1so","prime","5f08990527d4280ce6bb63be","5f60e3c0a3b16e07647b2ff9","5f60ecb68c8743015d98b9af","true","620","./Stimuli/SelectedImages/LN/LN12.bmp","76","","","","test","true","M + N","76","repetition","LN","LN12.bmp","forget","","65","3","prime1","right","","","",""
"html-keyboard-response","169","350454","0.0-4.0-1.0-3.16","c2q3fxtqp6dj1so","prime","5f08990527d4280ce6bb63be","5f60e3c0a3b16e07647b2ff9","5f60ecb68c8743015d98b9af","false","null","<div style=""align-items: center; display: flex; color: darkorange; font-size: 90px""><b>ø</b></div>","null","","","","forget_cue","","","","","","","","","","","","","","","",""
"html-keyboard-response","170","351154","0.0-4.0-1.0-0.17","c2q3fxtqp6dj1so","prime","5f08990527d4280ce6bb63be","5f60e3c0a3b16e07647b2ff9","5f60ecb68c8743015d98b9af","false","null","<span style=""color: black; font-size: 48px"">M + N</span>","null","","","","resp_prompt","","","","","","","","","","","","","","","",""
"categorize-image","171","351793","0.0-4.0-1.0-1.17","c2q3fxtqp6dj1so","prime","5f08990527d4280ce6bb63be","5f60e3c0a3b16e07647b2ff9","5f60ecb68c8743015d98b9af","true","637","./Stimuli/SelectedImages/SM/SM128.bmp","83","","","","test","true","M + N","83","switch","SM","SM128.bmp","remember","","66","3","prime1","left","","","",""
"html-keyboard-response","172","353794","0.0-4.0-1.0-3.17","c2q3fxtqp6dj1so","prime","5f08990527d4280ce6bb63be","5f60e3c0a3b16e07647b2ff9","5f60ecb68c8743015d98b9af","false","null","<div style=""align-items: center; display: flex; color: dodgerblue; font-size: 90px""><b>o</b></div>","null","","","","forget_cue","","","","","","","","","","","","","","","",""
"html-keyboard-response","173","354495","0.0-4.0-1.0-0.18","c2q3fxtqp6dj1so","prime","5f08990527d4280ce6bb63be","5f60e3c0a3b16e07647b2ff9","5f60ecb68c8743015d98b9af","false","null","<span style=""color: black; font-size: 48px"">N + M</span>","null","","","","resp_prompt","","","","","","","","","","","","","","","",""
"categorize-image","174","355292","0.0-4.0-1.0-1.18","c2q3fxtqp6dj1so","prime","5f08990527d4280ce6bb63be","5f60e3c0a3b16e07647b2ff9","5f60ecb68c8743015d98b9af","true","795","./Stimuli/SelectedImages/SM/SM76.bmp","76","","","","test","true","N + M","76","switch","SM","SM76.bmp","forget","","67","3","prime1","right","","","",""
"html-keyboard-response","175","357294","0.0-4.0-1.0-3.18","c2q3fxtqp6dj1so","prime","5f08990527d4280ce6bb63be","5f60e3c0a3b16e07647b2ff9","5f60ecb68c8743015d98b9af","false","null","<div style=""align-items: center; display: flex; color: darkorange; font-size: 90px""><b>ø</b></div>","null","","","","forget_cue","","","","","","","","","","","","","","","",""
"html-keyboard-response","176","357996","0.0-4.0-1.0-0.19","c2q3fxtqp6dj1so","prime","5f08990527d4280ce6bb63be","5f60e3c0a3b16e07647b2ff9","5f60ecb68c8743015d98b9af","false","null","<span style=""color: black; font-size: 48px"">M + N</span>","null","","","","resp_prompt","","","","","","","","","","","","","","","",""
"categorize-image","177","358758","0.0-4.0-1.0-1.19","c2q3fxtqp6dj1so","prime","5f08990527d4280ce6bb63be","5f60e3c0a3b16e07647b2ff9","5f60ecb68c8743015d98b9af","true","760","./Stimuli/SelectedImages/SN/SN240.bmp","76","","","","test","true","M + N","76","repetition","SN","SN240.bmp","forget","","68","3","prime1","right","","","",""
"html-keyboard-response","178","360759","0.0-4.0-1.0-3.19","c2q3fxtqp6dj1so","prime","5f08990527d4280ce6bb63be","5f60e3c0a3b16e07647b2ff9","5f60ecb68c8743015d98b9af","false","null","<div style=""align-items: center; display: flex; color: darkorange; font-size: 90px""><b>ø</b></div>","null","","","","forget_cue","","","","","","","","","","","","","","","",""
"html-keyboard-response","179","361461","0.0-4.0-1.0-0.20","c2q3fxtqp6dj1so","prime","5f08990527d4280ce6bb63be","5f60e3c0a3b16e07647b2ff9","5f60ecb68c8743015d98b9af","false","null","<span style=""color: black; font-size: 48px"">M + N</span>","null","","","","resp_prompt","","","","","","","","","","","","","","","",""
"categorize-image","180","362144","0.0-4.0-1.0-1.20","c2q3fxtqp6dj1so","prime","5f08990527d4280ce6bb63be","5f60e3c0a3b16e07647b2ff9","5f60ecb68c8743015d98b9af","true","682","./Stimuli/SelectedImages/LN/LN9.bmp","76","","","","test","true","M + N","76","switch","LN","LN9.bmp","forget","","69","3","prime1","right","","","",""
"html-keyboard-response","181","364145","0.0-4.0-1.0-3.20","c2q3fxtqp6dj1so","prime","5f08990527d4280ce6bb63be","5f60e3c0a3b16e07647b2ff9","5f60ecb68c8743015d98b9af","false","null","<div style=""align-items: center; display: flex; color: darkorange; font-size: 90px""><b>ø</b></div>","null","","","","forget_cue","","","","","","","","","","","","","","","",""
"html-keyboard-response","182","364847","0.0-4.0-1.0-0.21","c2q3fxtqp6dj1so","prime","5f08990527d4280ce6bb63be","5f60e3c0a3b16e07647b2ff9","5f60ecb68c8743015d98b9af","false","null","<span style=""color: black; font-size: 48px"">N + M</span>","null","","","","resp_prompt","","","","","","","","","","","","","","","",""
"categorize-image","183","365598","0.0-4.0-1.0-1.21","c2q3fxtqp6dj1so","prime","5f08990527d4280ce6bb63be","5f60e3c0a3b16e07647b2ff9","5f60ecb68c8743015d98b9af","true","749","./Stimuli/SelectedImages/SM/SM17.bmp","76","","","","test","true","N + M","76","repetition","SM","SM17.bmp","forget","","70","3","prime1","right","","","",""
"html-keyboard-response","184","367599","0.0-4.0-1.0-3.21","c2q3fxtqp6dj1so","prime","5f08990527d4280ce6bb63be","5f60e3c0a3b16e07647b2ff9","5f60ecb68c8743015d98b9af","false","null","<div style=""align-items: center; display: flex; color: darkorange; font-size: 90px""><b>ø</b></div>","null","","","","forget_cue","","","","","","","","","","","","","","","",""
"html-keyboard-response","185","368301","0.0-4.0-1.0-0.22","c2q3fxtqp6dj1so","prime","5f08990527d4280ce6bb63be","5f60e3c0a3b16e07647b2ff9","5f60ecb68c8743015d98b9af","false","null","<span style=""color: black; font-size: 48px"">N + M</span>","null","","","","resp_prompt","","","","","","","","","","","","","","","",""
"categorize-image","186","369040","0.0-4.0-1.0-1.22","c2q3fxtqp6dj1so","prime","5f08990527d4280ce6bb63be","5f60e3c0a3b16e07647b2ff9","5f60ecb68c8743015d98b9af","true","738","./Stimuli/SelectedImages/SM/SM24.bmp","76","","","","test","true","N + M","76","switch","SM","SM24.bmp","remember","","71","3","prime1","right","","","",""
"html-keyboard-response","187","371042","0.0-4.0-1.0-3.22","c2q3fxtqp6dj1so","prime","5f08990527d4280ce6bb63be","5f60e3c0a3b16e07647b2ff9","5f60ecb68c8743015d98b9af","false","null","<div style=""align-items: center; display: flex; color: dodgerblue; font-size: 90px""><b>o</b></div>","null","","","","forget_cue","","","","","","","","","","","","","","","",""
"html-keyboard-response","188","371743","0.0-4.0-1.0-0.23","c2q3fxtqp6dj1so","prime","5f08990527d4280ce6bb63be","5f60e3c0a3b16e07647b2ff9","5f60ecb68c8743015d98b9af","false","null","<span style=""color: black; font-size: 48px"">N + M</span>","null","","","","resp_prompt","","","","","","","","","","","","","","","",""
"categorize-image","189","372393","0.0-4.0-1.0-1.23","c2q3fxtqp6dj1so","prime","5f08990527d4280ce6bb63be","5f60e3c0a3b16e07647b2ff9","5f60ecb68c8743015d98b9af","true","648","./Stimuli/SelectedImages/LN/LN166.bmp","83","","","","test","true","N + M","83","repetition","LN","LN166.bmp","remember","","72","3","prime1","left","","","",""
"html-keyboard-response","190","374394","0.0-4.0-1.0-3.23","c2q3fxtqp6dj1so","prime","5f08990527d4280ce6bb63be","5f60e3c0a3b16e07647b2ff9","5f60ecb68c8743015d98b9af","false","null","<div style=""align-items: center; display: flex; color: dodgerblue; font-size: 90px""><b>o</b></div>","null","","","","forget_cue","","","","","","","","","","","","","","","",""
"html-keyboard-response","191","375095","0.0-4.0-1.0-0.24","c2q3fxtqp6dj1so","prime","5f08990527d4280ce6bb63be","5f60e3c0a3b16e07647b2ff9","5f60ecb68c8743015d98b9af","false","null","<span style=""color: black; font-size: 48px"">M + N</span>","null","","","","resp_prompt","","","","","","","","","","","","","","","",""
"categorize-image","192","375813","0.0-4.0-1.0-1.24","c2q3fxtqp6dj1so","prime","5f08990527d4280ce6bb63be","5f60e3c0a3b16e07647b2ff9","5f60ecb68c8743015d98b9af","true","716","./Stimuli/SelectedImages/LM/LM51.bmp","83","","","","test","true","M + N","83","repetition","LM","LM51.bmp","remember","","73","3","prime1","left","","","",""
"html-keyboard-response","193","377815","0.0-4.0-1.0-3.24","c2q3fxtqp6dj1so","prime","5f08990527d4280ce6bb63be","5f60e3c0a3b16e07647b2ff9","5f60ecb68c8743015d98b9af","false","null","<div style=""align-items: center; display: flex; color: dodgerblue; font-size: 90px""><b>o</b></div>","null","","","","forget_cue","","","","","","","","","","","","","","","",""
"html-keyboard-response","194","378516","0.0-4.0-1.0-0.25","c2q3fxtqp6dj1so","prime","5f08990527d4280ce6bb63be","5f60e3c0a3b16e07647b2ff9","5f60ecb68c8743015d98b9af","false","null","<span style=""color: black; font-size: 48px"">M + N</span>","null","","","","resp_prompt","","","","","","","","","","","","","","","",""
"categorize-image","195","379267","0.0-4.0-1.0-1.25","c2q3fxtqp6dj1so","prime","5f08990527d4280ce6bb63be","5f60e3c0a3b16e07647b2ff9","5f60ecb68c8743015d98b9af","true","749.0000000000582","./Stimuli/SelectedImages/SM/SM200.bmp","83","","","","test","true","M + N","83","repetition","SM","SM200.bmp","forget","","74","3","prime1","left","","","",""
"html-keyboard-response","196","381269","0.0-4.0-1.0-3.25","c2q3fxtqp6dj1so","prime","5f08990527d4280ce6bb63be","5f60e3c0a3b16e07647b2ff9","5f60ecb68c8743015d98b9af","false","null","<div style=""align-items: center; display: flex; color: darkorange; font-size: 90px""><b>ø</b></div>","null","","","","forget_cue","","","","","","","","","","","","","","","",""
"html-keyboard-response","197","381970","0.0-4.0-1.0-0.26","c2q3fxtqp6dj1so","prime","5f08990527d4280ce6bb63be","5f60e3c0a3b16e07647b2ff9","5f60ecb68c8743015d98b9af","false","null","<span style=""color: black; font-size: 48px"">M + N</span>","null","","","","resp_prompt","","","","","","","","","","","","","","","",""
"categorize-image","198","382665","0.0-4.0-1.0-1.26","c2q3fxtqp6dj1so","prime","5f08990527d4280ce6bb63be","5f60e3c0a3b16e07647b2ff9","5f60ecb68c8743015d98b9af","true","693","./Stimuli/SelectedImages/SN/SN52.bmp","76","","","","test","true","M + N","76","repetition","SN","SN52.bmp","forget","","75","3","prime1","right","","","",""
"html-keyboard-response","199","384667","0.0-4.0-1.0-3.26","c2q3fxtqp6dj1so","prime","5f08990527d4280ce6bb63be","5f60e3c0a3b16e07647b2ff9","5f60ecb68c8743015d98b9af","false","null","<div style=""align-items: center; display: flex; color: darkorange; font-size: 90px""><b>ø</b></div>","null","","","","forget_cue","","","","","","","","","","","","","","","",""
"html-keyboard-response","200","385368","0.0-4.0-1.0-0.27","c2q3fxtqp6dj1so","prime","5f08990527d4280ce6bb63be","5f60e3c0a3b16e07647b2ff9","5f60ecb68c8743015d98b9af","false","null","<span style=""color: black; font-size: 48px"">N + M</span>","null","","","","resp_prompt","","","","","","","","","","","","","","","",""
"categorize-image","201","386153","0.0-4.0-1.0-1.27","c2q3fxtqp6dj1so","prime","5f08990527d4280ce6bb63be","5f60e3c0a3b16e07647b2ff9","5f60ecb68c8743015d98b9af","true","783","./Stimuli/SelectedImages/LM/LM48.bmp","76","","","","test","true","N + M","76","repetition","LM","LM48.bmp","remember","","76","3","prime1","right","","","",""
"html-keyboard-response","202","388154","0.0-4.0-1.0-3.27","c2q3fxtqp6dj1so","prime","5f08990527d4280ce6bb63be","5f60e3c0a3b16e07647b2ff9","5f60ecb68c8743015d98b9af","false","null","<div style=""align-items: center; display: flex; color: dodgerblue; font-size: 90px""><b>o</b></div>","null","","","","forget_cue","","","","","","","","","","","","","","","",""
"html-keyboard-response","203","388855","0.0-4.0-1.0-0.28","c2q3fxtqp6dj1so","prime","5f08990527d4280ce6bb63be","5f60e3c0a3b16e07647b2ff9","5f60ecb68c8743015d98b9af","false","null","<span style=""color: black; font-size: 48px"">M + N</span>","null","","","","resp_prompt","","","","","","","","","","","","","","","",""
"categorize-image","204","389752","0.0-4.0-1.0-1.28","c2q3fxtqp6dj1so","prime","5f08990527d4280ce6bb63be","5f60e3c0a3b16e07647b2ff9","5f60ecb68c8743015d98b9af","true","895","./Stimuli/SelectedImages/SM/SM184.bmp","83","","","","test","true","M + N","83","switch","SM","SM184.bmp","remember","","77","3","prime1","left","","","",""
"html-keyboard-response","205","391754","0.0-4.0-1.0-3.28","c2q3fxtqp6dj1so","prime","5f08990527d4280ce6bb63be","5f60e3c0a3b16e07647b2ff9","5f60ecb68c8743015d98b9af","false","null","<div style=""align-items: center; display: flex; color: dodgerblue; font-size: 90px""><b>o</b></div>","null","","","","forget_cue","","","","","","","","","","","","","","","",""
"html-keyboard-response","206","392454","0.0-4.0-1.0-0.29","c2q3fxtqp6dj1so","prime","5f08990527d4280ce6bb63be","5f60e3c0a3b16e07647b2ff9","5f60ecb68c8743015d98b9af","false","null","<span style=""color: black; font-size: 48px"">M + N</span>","null","","","","resp_prompt","","","","","","","","","","","","","","","",""
"categorize-image","207","393083","0.0-4.0-1.0-1.29","c2q3fxtqp6dj1so","prime","5f08990527d4280ce6bb63be","5f60e3c0a3b16e07647b2ff9","5f60ecb68c8743015d98b9af","true","627","./Stimuli/SelectedImages/SN/SN187.bmp","76","","","","test","true","M + N","76","repetition","SN","SN187.bmp","remember","","78","3","prime1","right","","","",""
"html-keyboard-response","208","395085","0.0-4.0-1.0-3.29","c2q3fxtqp6dj1so","prime","5f08990527d4280ce6bb63be","5f60e3c0a3b16e07647b2ff9","5f60ecb68c8743015d98b9af","false","null","<div style=""align-items: center; display: flex; color: dodgerblue; font-size: 90px""><b>o</b></div>","null","","","","forget_cue","","","","","","","","","","","","","","","",""
"html-keyboard-response","209","395786","0.0-4.0-1.0-0.30","c2q3fxtqp6dj1so","prime","5f08990527d4280ce6bb63be","5f60e3c0a3b16e07647b2ff9","5f60ecb68c8743015d98b9af","false","null","<span style=""color: black; font-size: 48px"">M + N</span>","null","","","","resp_prompt","","","","","","","","","","","","","","","",""
"categorize-image","210","396751","0.0-4.0-1.0-1.30","c2q3fxtqp6dj1so","prime","5f08990527d4280ce6bb63be","5f60e3c0a3b16e07647b2ff9","5f60ecb68c8743015d98b9af","true","963.0000000000582","./Stimuli/SelectedImages/LM/LM100.bmp","83","","","","test","true","M + N","83","switch","LM","LM100.bmp","forget","","79","3","prime1","left","","","",""
"html-keyboard-response","211","398752","0.0-4.0-1.0-3.30","c2q3fxtqp6dj1so","prime","5f08990527d4280ce6bb63be","5f60e3c0a3b16e07647b2ff9","5f60ecb68c8743015d98b9af","false","null","<div style=""align-items: center; display: flex; color: darkorange; font-size: 90px""><b>ø</b></div>","null","","","","forget_cue","","","","","","","","","","","","","","","",""
"html-keyboard-response","212","399453","0.0-4.0-1.0-0.31","c2q3fxtqp6dj1so","prime","5f08990527d4280ce6bb63be","5f60e3c0a3b16e07647b2ff9","5f60ecb68c8743015d98b9af","false","null","<span style=""color: black; font-size: 48px"">N + M</span>","null","","","","resp_prompt","","","","","","","","","","","","","","","",""
"categorize-image","213","400182","0.0-4.0-1.0-1.31","c2q3fxtqp6dj1so","prime","5f08990527d4280ce6bb63be","5f60e3c0a3b16e07647b2ff9","5f60ecb68c8743015d98b9af","true","728","./Stimuli/SelectedImages/LN/LN42.bmp","83","","","","test","true","N + M","83","repetition","LN","LN42.bmp","forget","","80","3","prime1","left","","","",""
"html-keyboard-response","214","402183","0.0-4.0-1.0-3.31","c2q3fxtqp6dj1so","prime","5f08990527d4280ce6bb63be","5f60e3c0a3b16e07647b2ff9","5f60ecb68c8743015d98b9af","false","null","<div style=""align-items: center; display: flex; color: darkorange; font-size: 90px""><b>ø</b></div>","null","","","","forget_cue","","","","","","","","","","","","","","","",""
"html-keyboard-response","215","402885","0.0-4.0-1.0-0.32","c2q3fxtqp6dj1so","prime","5f08990527d4280ce6bb63be","5f60e3c0a3b16e07647b2ff9","5f60ecb68c8743015d98b9af","false","null","<span style=""color: black; font-size: 48px"">M + N</span>","null","","","","resp_prompt","","","","","","","","","","","","","","","",""
"categorize-image","216","403681","0.0-4.0-1.0-1.32","c2q3fxtqp6dj1so","prime","5f08990527d4280ce6bb63be","5f60e3c0a3b16e07647b2ff9","5f60ecb68c8743015d98b9af","true","795","./Stimuli/SelectedImages/SN/SN64.bmp","76","","","","test","true","M + N","76","switch","SN","SN64.bmp","forget","","81","3","prime1","right","","","",""
"html-keyboard-response","217","405683","0.0-4.0-1.0-3.32","c2q3fxtqp6dj1so","prime","5f08990527d4280ce6bb63be","5f60e3c0a3b16e07647b2ff9","5f60ecb68c8743015d98b9af","false","null","<div style=""align-items: center; display: flex; color: darkorange; font-size: 90px""><b>ø</b></div>","null","","","","forget_cue","","","","","","","","","","","","","","","",""
"html-keyboard-response","218","406384","0.0-4.0-1.0-0.33","c2q3fxtqp6dj1so","prime","5f08990527d4280ce6bb63be","5f60e3c0a3b16e07647b2ff9","5f60ecb68c8743015d98b9af","false","null","<span style=""color: black; font-size: 48px"">M + N</span>","null","","","","resp_prompt","","","","","","","","","","","","","","","",""
"categorize-image","219","407057","0.0-4.0-1.0-1.33","c2q3fxtqp6dj1so","prime","5f08990527d4280ce6bb63be","5f60e3c0a3b16e07647b2ff9","5f60ecb68c8743015d98b9af","true","671","./Stimuli/SelectedImages/LN/LN150.bmp","76","","","","test","true","M + N","76","repetition","LN","LN150.bmp","remember","","82","3","prime1","right","","","",""
"html-keyboard-response","220","409057","0.0-4.0-1.0-3.33","c2q3fxtqp6dj1so","prime","5f08990527d4280ce6bb63be","5f60e3c0a3b16e07647b2ff9","5f60ecb68c8743015d98b9af","false","null","<div style=""align-items: center; display: flex; color: dodgerblue; font-size: 90px""><b>o</b></div>","null","","","","forget_cue","","","","","","","","","","","","","","","",""
"html-keyboard-response","221","409758","0.0-4.0-1.0-0.34","c2q3fxtqp6dj1so","prime","5f08990527d4280ce6bb63be","5f60e3c0a3b16e07647b2ff9","5f60ecb68c8743015d98b9af","false","null","<span style=""color: black; font-size: 48px"">M + N</span>","null","","","","resp_prompt","","","","","","","","","","","","","","","",""
"categorize-image","222","410510","0.0-4.0-1.0-1.34","c2q3fxtqp6dj1so","prime","5f08990527d4280ce6bb63be","5f60e3c0a3b16e07647b2ff9","5f60ecb68c8743015d98b9af","true","751","./Stimuli/SelectedImages/LM/LM150.bmp","83","","","","test","true","M + N","83","repetition","LM","LM150.bmp","forget","","83","3","prime1","left","","","",""
"html-keyboard-response","223","412512","0.0-4.0-1.0-3.34","c2q3fxtqp6dj1so","prime","5f08990527d4280ce6bb63be","5f60e3c0a3b16e07647b2ff9","5f60ecb68c8743015d98b9af","false","null","<div style=""align-items: center; display: flex; color: darkorange; font-size: 90px""><b>ø</b></div>","null","","","","forget_cue","","","","","","","","","","","","","","","",""
"html-keyboard-response","224","413214","0.0-4.0-1.0-0.35","c2q3fxtqp6dj1so","prime","5f08990527d4280ce6bb63be","5f60e3c0a3b16e07647b2ff9","5f60ecb68c8743015d98b9af","false","null","<span style=""color: black; font-size: 48px"">N + M</span>","null","","","","resp_prompt","","","","","","","","","","","","","","","",""
"categorize-image","225","413886","0.0-4.0-1.0-1.35","c2q3fxtqp6dj1so","prime","5f08990527d4280ce6bb63be","5f60e3c0a3b16e07647b2ff9","5f60ecb68c8743015d98b9af","true","670","./Stimuli/SelectedImages/SM/SM195.bmp","83","","","","test","false","N + M","76","switch","SM","SM195.bmp","remember","","84","3","prime1","left","","","",""
"html-keyboard-response","226","414387","0.0-4.0-1.0-2.35-0.35","c2q3fxtqp6dj1so","prime","5f08990527d4280ce6bb63be","5f60e3c0a3b16e07647b2ff9","5f60ecb68c8743015d98b9af","false","null","<span style=""color: red; font-size: 48px"">Error!</span>","null","","","","feedback","","","","","","","","","","","","","","","",""
"html-keyboard-response","227","416389","0.0-4.0-1.0-3.35","c2q3fxtqp6dj1so","prime","5f08990527d4280ce6bb63be","5f60e3c0a3b16e07647b2ff9","5f60ecb68c8743015d98b9af","false","null","<div style=""align-items: center; display: flex; color: dodgerblue; font-size: 90px""><b>o</b></div>","null","","","","forget_cue","","","","","","","","","","","","","","","",""
"html-keyboard-response","228","417091","0.0-4.0-1.0-0.36","c2q3fxtqp6dj1so","prime","5f08990527d4280ce6bb63be","5f60e3c0a3b16e07647b2ff9","5f60ecb68c8743015d98b9af","false","null","<span style=""color: black; font-size: 48px"">N + M</span>","null","","","","resp_prompt","","","","","","","","","","","","","","","",""
"categorize-image","229","417632","0.0-4.0-1.0-1.36","c2q3fxtqp6dj1so","prime","5f08990527d4280ce6bb63be","5f60e3c0a3b16e07647b2ff9","5f60ecb68c8743015d98b9af","true","540","./Stimuli/SelectedImages/SN/SN27.bmp","83","","","","test","true","N + M","83","repetition","SN","SN27.bmp","remember","","85","3","prime1","left","","","",""
"html-keyboard-response","230","419634","0.0-4.0-1.0-3.36","c2q3fxtqp6dj1so","prime","5f08990527d4280ce6bb63be","5f60e3c0a3b16e07647b2ff9","5f60ecb68c8743015d98b9af","false","null","<div style=""align-items: center; display: flex; color: dodgerblue; font-size: 90px""><b>o</b></div>","null","","","","forget_cue","","","","","","","","","","","","","","","",""
"html-keyboard-response","231","420335","0.0-4.0-1.0-0.37","c2q3fxtqp6dj1so","prime","5f08990527d4280ce6bb63be","5f60e3c0a3b16e07647b2ff9","5f60ecb68c8743015d98b9af","false","null","<span style=""color: black; font-size: 48px"">N + M</span>","null","","","","resp_prompt","","","","","","","","","","","","","","","",""
"categorize-image","232","421086","0.0-4.0-1.0-1.37","c2q3fxtqp6dj1so","prime","5f08990527d4280ce6bb63be","5f60e3c0a3b16e07647b2ff9","5f60ecb68c8743015d98b9af","true","749","./Stimuli/SelectedImages/LM/LM59.bmp","76","","","","test","true","N + M","76","switch","LM","LM59.bmp","remember","","86","3","prime1","right","","","",""
"html-keyboard-response","233","423087","0.0-4.0-1.0-3.37","c2q3fxtqp6dj1so","prime","5f08990527d4280ce6bb63be","5f60e3c0a3b16e07647b2ff9","5f60ecb68c8743015d98b9af","false","null","<div style=""align-items: center; display: flex; color: dodgerblue; font-size: 90px""><b>o</b></div>","null","","","","forget_cue","","","","","","","","","","","","","","","",""
"html-keyboard-response","234","423789","0.0-4.0-1.0-0.38","c2q3fxtqp6dj1so","prime","5f08990527d4280ce6bb63be","5f60e3c0a3b16e07647b2ff9","5f60ecb68c8743015d98b9af","false","null","<span style=""color: black; font-size: 48px"">N + M</span>","null","","","","resp_prompt","","","","","","","","","","","","","","","",""
"categorize-image","235","424428","0.0-4.0-1.0-1.38","c2q3fxtqp6dj1so","prime","5f08990527d4280ce6bb63be","5f60e3c0a3b16e07647b2ff9","5f60ecb68c8743015d98b9af","true","636","./Stimuli/SelectedImages/LM/LM216.bmp","76","","","","test","true","N + M","76","repetition","LM","LM216.bmp","remember","","87","3","prime1","right","","","",""
"html-keyboard-response","236","426429","0.0-4.0-1.0-3.38","c2q3fxtqp6dj1so","prime","5f08990527d4280ce6bb63be","5f60e3c0a3b16e07647b2ff9","5f60ecb68c8743015d98b9af","false","null","<div style=""align-items: center; display: flex; color: dodgerblue; font-size: 90px""><b>o</b></div>","null","","","","forget_cue","","","","","","","","","","","","","","","",""
"html-keyboard-response","237","427129","0.0-4.0-1.0-0.39","c2q3fxtqp6dj1so","prime","5f08990527d4280ce6bb63be","5f60e3c0a3b16e07647b2ff9","5f60ecb68c8743015d98b9af","false","null","<span style=""color: black; font-size: 48px"">N + M</span>","null","","","","resp_prompt","","","","","","","","","","","","","","","",""
"categorize-image","238","427893","0.0-4.0-1.0-1.39","c2q3fxtqp6dj1so","prime","5f08990527d4280ce6bb63be","5f60e3c0a3b16e07647b2ff9","5f60ecb68c8743015d98b9af","true","760.9999999999418","./Stimuli/SelectedImages/SN/SN179.bmp","83","","","","test","true","N + M","83","switch","SN","SN179.bmp","remember","","88","3","prime1","left","","","",""
"html-keyboard-response","239","429895","0.0-4.0-1.0-3.39","c2q3fxtqp6dj1so","prime","5f08990527d4280ce6bb63be","5f60e3c0a3b16e07647b2ff9","5f60ecb68c8743015d98b9af","false","null","<div style=""align-items: center; display: flex; color: dodgerblue; font-size: 90px""><b>o</b></div>","null","","","","forget_cue","","","","","","","","","","","","","","","",""
"html-keyboard-response","240","430595","0.0-4.0-1.0-0.40","c2q3fxtqp6dj1so","prime","5f08990527d4280ce6bb63be","5f60e3c0a3b16e07647b2ff9","5f60ecb68c8743015d98b9af","false","null","<span style=""color: black; font-size: 48px"">M + N</span>","null","","","","resp_prompt","","","","","","","","","","","","","","","",""
"categorize-image","241","431516","0.0-4.0-1.0-1.40","c2q3fxtqp6dj1so","prime","5f08990527d4280ce6bb63be","5f60e3c0a3b16e07647b2ff9","5f60ecb68c8743015d98b9af","true","918","./Stimuli/SelectedImages/SM/SM108.bmp","83","","","","test","true","M + N","83","repetition","SM","SM108.bmp","remember","","89","3","prime1","left","","","",""
"html-keyboard-response","242","433516","0.0-4.0-1.0-3.40","c2q3fxtqp6dj1so","prime","5f08990527d4280ce6bb63be","5f60e3c0a3b16e07647b2ff9","5f60ecb68c8743015d98b9af","false","null","<div style=""align-items: center; display: flex; color: dodgerblue; font-size: 90px""><b>o</b></div>","null","","","","forget_cue","","","","","","","","","","","","","","","",""
"html-keyboard-response","243","434218","0.0-4.0-1.0-0.41","c2q3fxtqp6dj1so","prime","5f08990527d4280ce6bb63be","5f60e3c0a3b16e07647b2ff9","5f60ecb68c8743015d98b9af","false","null","<span style=""color: black; font-size: 48px"">M + N</span>","null","","","","resp_prompt","","","","","","","","","","","","","","","",""
"categorize-image","244","434902","0.0-4.0-1.0-1.41","c2q3fxtqp6dj1so","prime","5f08990527d4280ce6bb63be","5f60e3c0a3b16e07647b2ff9","5f60ecb68c8743015d98b9af","true","682","./Stimuli/SelectedImages/LM/LM129.bmp","83","","","","test","true","M + N","83","repetition","LM","LM129.bmp","remember","","90","3","prime1","left","","","",""
"html-keyboard-response","245","436903","0.0-4.0-1.0-3.41","c2q3fxtqp6dj1so","prime","5f08990527d4280ce6bb63be","5f60e3c0a3b16e07647b2ff9","5f60ecb68c8743015d98b9af","false","null","<div style=""align-items: center; display: flex; color: dodgerblue; font-size: 90px""><b>o</b></div>","null","","","","forget_cue","","","","","","","","","","","","","","","",""
"html-keyboard-response","246","437604","0.0-4.0-1.0-0.42","c2q3fxtqp6dj1so","prime","5f08990527d4280ce6bb63be","5f60e3c0a3b16e07647b2ff9","5f60ecb68c8743015d98b9af","false","null","<span style=""color: black; font-size: 48px"">N + M</span>","null","","","","resp_prompt","","","","","","","","","","","","","","","",""
"categorize-image","247","438322","0.0-4.0-1.0-1.42","c2q3fxtqp6dj1so","prime","5f08990527d4280ce6bb63be","5f60e3c0a3b16e07647b2ff9","5f60ecb68c8743015d98b9af","true","716","./Stimuli/SelectedImages/SN/SN18.bmp","83","","","","test","true","N + M","83","repetition","SN","SN18.bmp","remember","","91","3","prime1","left","","","",""
"html-keyboard-response","248","440323","0.0-4.0-1.0-3.42","c2q3fxtqp6dj1so","prime","5f08990527d4280ce6bb63be","5f60e3c0a3b16e07647b2ff9","5f60ecb68c8743015d98b9af","false","null","<div style=""align-items: center; display: flex; color: dodgerblue; font-size: 90px""><b>o</b></div>","null","","","","forget_cue","","","","","","","","","","","","","","","",""
"html-keyboard-response","249","441024","0.0-4.0-1.0-0.43","c2q3fxtqp6dj1so","prime","5f08990527d4280ce6bb63be","5f60e3c0a3b16e07647b2ff9","5f60ecb68c8743015d98b9af","false","null","<span style=""color: black; font-size: 48px"">N + M</span>","null","","","","resp_prompt","","","","","","","","","","","","","","","",""
"categorize-image","250","442046","0.0-4.0-1.0-1.43","c2q3fxtqp6dj1so","prime","5f08990527d4280ce6bb63be","5f60e3c0a3b16e07647b2ff9","5f60ecb68c8743015d98b9af","true","1019","./Stimuli/SelectedImages/LM/LM167.bmp","76","","","","test","true","N + M","76","switch","LM","LM167.bmp","remember","","92","3","prime1","right","","","",""
"html-keyboard-response","251","444047","0.0-4.0-1.0-3.43","c2q3fxtqp6dj1so","prime","5f08990527d4280ce6bb63be","5f60e3c0a3b16e07647b2ff9","5f60ecb68c8743015d98b9af","false","null","<div style=""align-items: center; display: flex; color: dodgerblue; font-size: 90px""><b>o</b></div>","null","","","","forget_cue","","","","","","","","","","","","","","","",""
"html-keyboard-response","252","444748","0.0-4.0-1.0-0.44","c2q3fxtqp6dj1so","prime","5f08990527d4280ce6bb63be","5f60e3c0a3b16e07647b2ff9","5f60ecb68c8743015d98b9af","false","null","<span style=""color: black; font-size: 48px"">N + M</span>","null","","","","resp_prompt","","","","","","","","","","","","","","","",""
"categorize-image","253","445410","0.0-4.0-1.0-1.44","c2q3fxtqp6dj1so","prime","5f08990527d4280ce6bb63be","5f60e3c0a3b16e07647b2ff9","5f60ecb68c8743015d98b9af","true","660","./Stimuli/SelectedImages/LN/LN131.bmp","83","","","","test","true","N + M","83","repetition","LN","LN131.bmp","forget","","93","3","prime1","left","","","",""
"html-keyboard-response","254","447412","0.0-4.0-1.0-3.44","c2q3fxtqp6dj1so","prime","5f08990527d4280ce6bb63be","5f60e3c0a3b16e07647b2ff9","5f60ecb68c8743015d98b9af","false","null","<div style=""align-items: center; display: flex; color: darkorange; font-size: 90px""><b>ø</b></div>","null","","","","forget_cue","","","","","","","","","","","","","","","",""
"html-keyboard-response","255","448113","0.0-4.0-1.0-0.45","c2q3fxtqp6dj1so","prime","5f08990527d4280ce6bb63be","5f60e3c0a3b16e07647b2ff9","5f60ecb68c8743015d98b9af","false","null","<span style=""color: black; font-size: 48px"">N + M</span>","null","","","","resp_prompt","","","","","","","","","","","","","","","",""
"categorize-image","256","448785","0.0-4.0-1.0-1.45","c2q3fxtqp6dj1so","prime","5f08990527d4280ce6bb63be","5f60e3c0a3b16e07647b2ff9","5f60ecb68c8743015d98b9af","true","669.9999999999418","./Stimuli/SelectedImages/SN/SN49.bmp","83","","","","test","true","N + M","83","switch","SN","SN49.bmp","forget","","94","3","prime1","left","","","",""
