"trial_type","trial_index","time_elapsed","internal_node_id","subject","exp_part","prolific_PID","study_ID","session_ID","use","rt","stimulus","key_press","button_pressed","responses","question_order","trial_part","correct","resp_map","correct_resp","probe_condition","category","image","forget_condition","list","trial_num","block_num","block","response","test_part","n_span","sequence","num_spaces"
"pavlovia","0","9","0.0-0.0","nfppzq1ja422kwo","","5f323237a6342a17e390a7c8","5f60e3c0a3b16e07647b2ff9","5f646aa6a2509e026213cbeb","false","","","","","","","","","","","","","","","","","","","","","","",""
"html-keyboard-response","1","3542","0.0-1.0-0.0-0.0","nfppzq1ja422kwo","welcome","5f323237a6342a17e390a7c8","5f60e3c0a3b16e07647b2ff9","5f646aa6a2509e026213cbeb","false","3529.9849999137223","<div align=left>Dear participant, <br> thank you for participating in an online study of the Cognition, Action, and Sustainability Unit of the University of Freiburg! <br> <br>The aim of this study is to examine our ability to remember previously learned information. <br>Our goal is to find out, whether our memory improves, when we only remember information that is relevant to us. <br>The experiment will take about 35 minutes to complete. <br> <br>Please, note that you can only participate in this study if you are using a device with a keyboard (PC, Laptop etc.) <br>and not if you are using a mobile device such as a tablet or smartphone.<br> <br>Press 'SPACE' to proceed to the experiment. </div>","32","","","","","","","","","","","","","","","","","","","",""
"html-keyboard-response","2","21573","0.0-1.0-0.0-1.0","nfppzq1ja422kwo","welcome","5f323237a6342a17e390a7c8","5f60e3c0a3b16e07647b2ff9","5f646aa6a2509e026213cbeb","false","18029.52500001993","<div align=left><strong> Time Course of this experiment: </strong> <br><br> <strong> 1.</strong>  First, please fill in some information regarding your demographic data. <br><br> <strong> 2.</strong>  Next, your task will be to classify everyday objects. <br>In addition, you will be asked to remember certain objects and recall them later. <br>Working on these tasks requires your undivided attention and concentration.<br>It is therefore essential that you eliminate any sources of distraction in your  <br>environment and ensure that you will not be disturbed. <br><br><strong> 3.</strong>  At the end of the experiment, you will be asked to answer a few additional questions. <br> <br><strong> Important:</strong> After finishing the experiment, only close the browser window <br> by clicking on the 'end the experiment'-button when you are asked to do so. <br>Closing the browser window prematurely will make the allocation of your participation credit impossible. <br><br> Press 'SPACE' to start the experiment. </div>","32","","","","","","","","","","","","","","","","","","","",""
"html-button-response","3","24792","0.0-1.0-0.0-2.0","nfppzq1ja422kwo","welcome","5f323237a6342a17e390a7c8","5f60e3c0a3b16e07647b2ff9","5f646aa6a2509e026213cbeb","true","3215.124999987893","<div align=left><strong> Informed consent </strong>  <br>The aim of our research is to better understand human behavior and mental processes. <br>In the following study your behavior (e.g. choices, reaction times) will be studied. <br> <br><strong> Voluntariness and Anonymity </strong> <br>Your participation in this study is  <strong> voluntary</strong>.<br>You may withdraw your consent to participate at any time without providing a reason for doing so and without fear of prejudice. <br><br>As no personal data will be collected, <strong>your data and your person cannot be connected after data collection</strong> – the data-set is anonymous. <br>Respectively, deletion of your data will not be possible after data collection has been completed, as we cannot retrace your data-set.<br>The results and anonymized data collected in this study will be published as a scientific publication. <br>This will happen in an <strong>anonymized format</strong>, so that no data can be traced back to a specific person. <br> <br>The anonymized data of this study will be made available to other researchers and/or in a data archive on the Internet as a means of transparency and to enable subsequent re-use. By doing so, this study follows the recommendations of the Deutsche Forschungsgemeinschaft (DFG, German Research Foundation) and Deutsche Gesellschaft für Psychologie (DGPS, German Psychological Society) regarding quality assurance in research.<br>If you have any questions now or after the experiment, please contact our team (experiments@cs.uni-freiburg.de).<br><br><br>I hereby declare, that I understand the above described conditions of participation and I agree to participate under these conditions. <br><br> </div>","","0","","","","","","","","","","","","","","","","","","",""
"html-keyboard-response","4","26947","0.0-1.0-0.0-3.0","nfppzq1ja422kwo","welcome","5f323237a6342a17e390a7c8","5f60e3c0a3b16e07647b2ff9","5f646aa6a2509e026213cbeb","false","2151.6249999403954","<div align=left><strong> General information concerning the experiment </strong>  <br> <br>Please follow the instructions:<ol> <li><strong> Do not leave this tab (your browser window) during the experiment and do not reload this tab! </strong>  <br>If you do switch tabs/windows during the experiment (to check your mail or visit another website, for example), <br>the experiment will end automatically and you will <strong>not receive credit</strong> for your participation. <br>Repeated participation or resumption of the experiment is impossible.</li> <br><li>Please close all other programs for the duration of your participation. </li> <br><li>Please mute or turn off your phone and put it out of your reach. </li> <br><li>Please also take off any disturbing accessories (such as wristwatches, bracelets, etc.). </li> <br><li>If you have music playing in the background, please turn it off now. </li> <br></ol>Thank you! <br>Press 'SPACE' to continue. </div>","32","","","","","","","","","","","","","","","","","","","",""
"survey-text","5","31037","0.0-1.0-1.0-0.0","nfppzq1ja422kwo","demographics","5f323237a6342a17e390a7c8","5f60e3c0a3b16e07647b2ff9","5f646aa6a2509e026213cbeb","true","4082.0199999725446","","","","{""age"":""29""}","","","","","","","","","","","","","","","","","",""
"survey-multi-choice","6","46063","0.0-1.0-1.0-1.0","nfppzq1ja422kwo","demographics","5f323237a6342a17e390a7c8","5f60e3c0a3b16e07647b2ff9","5f646aa6a2509e026213cbeb","true","15017.935000010766","","","","{""gender"":""female"",""school"":""high school"",""education"":""High school graduate, diploma or equivalent""}","[0,1,2]","","","","","","","","","","","","","","","","",""
"html-keyboard-response","7","47966","0.0-1.0-2.0","nfppzq1ja422kwo","instructions","5f323237a6342a17e390a7c8","5f60e3c0a3b16e07647b2ff9","5f646aa6a2509e026213cbeb","false","1899.7600000584498","<div align=left> The experiment is now about to start: <br> <br>In the following part, you will be presented pictures of everyday objects. <br>Your first task is to <strong>classify these objects. </strong> <br> <br> You will classify them either as mechanical or non-mechanical objects. <br> <br>Objects that include any kind of technical mechanism (for example, wheels, switches, levers, <br> electronic components) fall under the category of <strong>mechanical</strong> objects. <br>Only objects without any kind of technical mechanism should be classified as <strong>non-mechanical</strong>. <br><br>Press 'SPACE' to continue. </div>","32","","","","","","","","","","","","","","","","","","","",""
"html-keyboard-response","8","74882","0.0-2.0-0.0","nfppzq1ja422kwo","instructions","5f323237a6342a17e390a7c8","5f60e3c0a3b16e07647b2ff9","5f646aa6a2509e026213cbeb","false","26914.214999997057","<div align=justify>You will classify the objects using the <strong>'S'</strong> and the <strong>'L'</strong> keys on your keyboard.<br>For doing so, please place your <strong>left index finger</strong> on the <strong>'S'</strong> key and place your <strong>right index finger</strong> on the <strong>'L'</strong> key. <br><br> Each trial starts with an instruction, indicating which key ('S'/'L') you need to press to classify <br>the object as mechanical (letter M) or non-mechanical (letter N).<br>The instruction <strong>M + N</strong> indicates that, in the current trial, by pressing the left key ('S') you classify the displayed object as mechanical (M) <br> and by pressing the right key ('L') you classify the object as non-mechanical (N). <br>The instruction <strong>N + M</strong> on the other hand indicates that by pressing the left key ('S') you classify the displayed object as non-mechanical (N) <br> and by pressing the right key ('L') you classify the object as mechanical (M). <br><br>Please press the key corresponding to the correct classification as fast as possible as soon as the object is displayed and try to avoid making mistakes.<br>If you do not respond within a 2 second window, a corresponding feedback will be displayed and the next trial will start.<br> The experiment is divided into multiple blocks to give you the opportunity to take a break after each block. <br>First, you can now practice this task. <br><br>Please place your <strong>LEFT INDEX FINGER</strong> on the 'S' key and your <strong>RIGHT INDEX FINGER</strong> on the 'L' key now. <br><br>Press SPACE to continue.</div>","32","","","","","","","","","","","","","","","","","","","",""
"html-keyboard-response","9","83757","0.0-2.0-1.0","nfppzq1ja422kwo","instructions","5f323237a6342a17e390a7c8","5f60e3c0a3b16e07647b2ff9","5f646aa6a2509e026213cbeb","false","8872.709999908693","<div align=left> You will now have time to practice this task.<br><br>Remember: <br> <br><li>Please place your index fingers on the <strong>'S'</strong> and <strong>'L'</strong> keys <br>to respond as fast and accurately as possible.</li><li>Every picture can be classified as either mechanical or non-mechanical.</li><li>If you do not respond in time or commit an error, you will receive a corresponding feedback. </li><li> Please try to respond as <strong> fast </strong> and as <strong> accurately as possible </strong> .<br><li>To ensure optimal results, please minimize distractions and stay focused. </li><br><br>Press SPACE to continue.</div>","32","","","","","","","","","","","","","","","","","","","",""
"html-keyboard-response","10","84462","0.0-2.0-2.0-0.0","nfppzq1ja422kwo","practice_no_cue","5f323237a6342a17e390a7c8","5f60e3c0a3b16e07647b2ff9","5f646aa6a2509e026213cbeb","false","null","<span style=""color: black; font-size: 48px"">N + M</span>","null","","","","resp_prompt","","","","","","","","","","","","","","","",""
"categorize-image","11","86813","0.0-2.0-2.0-1.0","nfppzq1ja422kwo","practice_no_cue","5f323237a6342a17e390a7c8","5f60e3c0a3b16e07647b2ff9","5f646aa6a2509e026213cbeb","true","1833.5449999431148","./Stimuli/ImagesPractice/SN221.jpg","83","","","","test","true","N + M","83","","SN","SN221.jpg","remember","old","1","1","start","left","","","",""
"html-keyboard-response","12","87543","0.0-2.0-2.0-0.1","nfppzq1ja422kwo","practice_no_cue","5f323237a6342a17e390a7c8","5f60e3c0a3b16e07647b2ff9","5f646aa6a2509e026213cbeb","false","null","<span style=""color: black; font-size: 48px"">M + N</span>","null","","","","resp_prompt","","","","","","","","","","","","","","","",""
"categorize-image","13","88713","0.0-2.0-2.0-1.1","nfppzq1ja422kwo","practice_no_cue","5f323237a6342a17e390a7c8","5f60e3c0a3b16e07647b2ff9","5f646aa6a2509e026213cbeb","true","653.8050000090152","./Stimuli/ImagesPractice/LM230.jpg","76","","","","test","false","M + N","83","","LM","LM230.jpg","forget","old","2","1","start","right","","","",""
"html-keyboard-response","14","89420","0.0-2.0-2.0-0.2","nfppzq1ja422kwo","practice_no_cue","5f323237a6342a17e390a7c8","5f60e3c0a3b16e07647b2ff9","5f646aa6a2509e026213cbeb","false","null","<span style=""color: black; font-size: 48px"">M + N</span>","null","","","","resp_prompt","","","","","","","","","","","","","","","",""
"categorize-image","15","90482","0.0-2.0-2.0-1.2","nfppzq1ja422kwo","practice_no_cue","5f323237a6342a17e390a7c8","5f60e3c0a3b16e07647b2ff9","5f646aa6a2509e026213cbeb","true","553.819999913685","./Stimuli/ImagesPractice/LN2.jpg","76","","","","test","true","M + N","76","","LN","LN2.jpg","remember","old","3","1","start","right","","","",""
"html-keyboard-response","16","91191","0.0-2.0-2.0-0.3","nfppzq1ja422kwo","practice_no_cue","5f323237a6342a17e390a7c8","5f60e3c0a3b16e07647b2ff9","5f646aa6a2509e026213cbeb","false","null","<span style=""color: black; font-size: 48px"">N + M</span>","null","","","","resp_prompt","","","","","","","","","","","","","","","",""
"categorize-image","17","92273","0.0-2.0-2.0-1.3","nfppzq1ja422kwo","practice_no_cue","5f323237a6342a17e390a7c8","5f60e3c0a3b16e07647b2ff9","5f646aa6a2509e026213cbeb","true","567.5700000720099","./Stimuli/ImagesPractice/SM37.jpg","83","","","","test","false","N + M","76","","SM","SM37.jpg","forget","old","4","1","start","left","","","",""
"html-keyboard-response","18","92982","0.0-2.0-2.0-0.4","nfppzq1ja422kwo","practice_no_cue","5f323237a6342a17e390a7c8","5f60e3c0a3b16e07647b2ff9","5f646aa6a2509e026213cbeb","false","null","<span style=""color: black; font-size: 48px"">N + M</span>","null","","","","resp_prompt","","","","","","","","","","","","","","","",""
"categorize-image","19","94451","0.0-2.0-2.0-1.4","nfppzq1ja422kwo","practice_no_cue","5f323237a6342a17e390a7c8","5f60e3c0a3b16e07647b2ff9","5f646aa6a2509e026213cbeb","true","951.7150000901893","./Stimuli/ImagesPractice/SN75.jpg","76","","","","test","false","N + M","83","","SN","SN75.jpg","forget","old","5","1","start","right","","","",""
"html-keyboard-response","20","95166","0.0-2.0-2.0-0.5","nfppzq1ja422kwo","practice_no_cue","5f323237a6342a17e390a7c8","5f60e3c0a3b16e07647b2ff9","5f646aa6a2509e026213cbeb","false","null","<span style=""color: black; font-size: 48px"">M + N</span>","null","","","","resp_prompt","","","","","","","","","","","","","","","",""
"categorize-image","21","96262","0.0-2.0-2.0-1.5","nfppzq1ja422kwo","practice_no_cue","5f323237a6342a17e390a7c8","5f60e3c0a3b16e07647b2ff9","5f646aa6a2509e026213cbeb","true","582.2450000559911","./Stimuli/ImagesPractice/SM97.jpg","76","","","","test","false","M + N","83","","SM","SM97.jpg","forget","old","6","1","start","right","","","",""
"html-keyboard-response","22","96993","0.0-2.0-2.0-0.6","nfppzq1ja422kwo","practice_no_cue","5f323237a6342a17e390a7c8","5f60e3c0a3b16e07647b2ff9","5f646aa6a2509e026213cbeb","false","null","<span style=""color: black; font-size: 48px"">M + N</span>","null","","","","resp_prompt","","","","","","","","","","","","","","","",""
"categorize-image","23","98597","0.0-2.0-2.0-1.6","nfppzq1ja422kwo","practice_no_cue","5f323237a6342a17e390a7c8","5f60e3c0a3b16e07647b2ff9","5f646aa6a2509e026213cbeb","true","1093.2700000703335","./Stimuli/ImagesPractice/LN72.jpg","76","","","","test","true","M + N","76","","LN","LN72.jpg","remember","old","7","1","start","right","","","",""
"html-keyboard-response","24","99310","0.0-2.0-2.0-0.7","nfppzq1ja422kwo","practice_no_cue","5f323237a6342a17e390a7c8","5f60e3c0a3b16e07647b2ff9","5f646aa6a2509e026213cbeb","false","null","<span style=""color: black; font-size: 48px"">M + N</span>","null","","","","resp_prompt","","","","","","","","","","","","","","","",""
"categorize-image","25","100622","0.0-2.0-2.0-1.7","nfppzq1ja422kwo","practice_no_cue","5f323237a6342a17e390a7c8","5f60e3c0a3b16e07647b2ff9","5f646aa6a2509e026213cbeb","true","796.3049999671057","./Stimuli/ImagesPractice/LN17.jpg","83","","","","test","false","M + N","76","","LN","LN17.jpg","forget","old","8","1","start","left","","","",""
"html-keyboard-response","26","101335","0.0-2.0-2.0-0.8","nfppzq1ja422kwo","practice_no_cue","5f323237a6342a17e390a7c8","5f60e3c0a3b16e07647b2ff9","5f646aa6a2509e026213cbeb","false","null","<span style=""color: black; font-size: 48px"">N + M</span>","null","","","","resp_prompt","","","","","","","","","","","","","","","",""
"categorize-image","27","102542","0.0-2.0-2.0-1.8","nfppzq1ja422kwo","practice_no_cue","5f323237a6342a17e390a7c8","5f60e3c0a3b16e07647b2ff9","5f646aa6a2509e026213cbeb","true","686.284999945201","./Stimuli/ImagesPractice/LM224.jpg","83","","","","test","false","N + M","76","","LM","LM224.jpg","remember","old","9","1","start","left","","","",""
"html-keyboard-response","28","103255","0.0-2.0-2.0-0.9","nfppzq1ja422kwo","practice_no_cue","5f323237a6342a17e390a7c8","5f60e3c0a3b16e07647b2ff9","5f646aa6a2509e026213cbeb","false","null","<span style=""color: black; font-size: 48px"">M + N</span>","null","","","","resp_prompt","","","","","","","","","","","","","","","",""
"categorize-image","29","105275","0.0-2.0-2.0-1.9","nfppzq1ja422kwo","practice_no_cue","5f323237a6342a17e390a7c8","5f60e3c0a3b16e07647b2ff9","5f646aa6a2509e026213cbeb","true","1506.6100000403821","./Stimuli/ImagesPractice/LN4.jpg","83","","","","test","false","M + N","76","","LN","LN4.jpg","forget","old","10","1","start","left","","","",""
"html-keyboard-response","30","105983","0.0-2.0-2.0-0.10","nfppzq1ja422kwo","practice_no_cue","5f323237a6342a17e390a7c8","5f60e3c0a3b16e07647b2ff9","5f646aa6a2509e026213cbeb","false","null","<span style=""color: black; font-size: 48px"">N + M</span>","null","","","","resp_prompt","","","","","","","","","","","","","","","",""
"categorize-image","31","107870","0.0-2.0-2.0-1.10","nfppzq1ja422kwo","practice_no_cue","5f323237a6342a17e390a7c8","5f60e3c0a3b16e07647b2ff9","5f646aa6a2509e026213cbeb","true","1370.134999975562","./Stimuli/ImagesPractice/LM143.jpg","83","","","","test","false","N + M","76","","LM","LM143.jpg","remember","old","11","1","start","left","","","",""
"html-keyboard-response","32","108575","0.0-2.0-2.0-0.11","nfppzq1ja422kwo","practice_no_cue","5f323237a6342a17e390a7c8","5f60e3c0a3b16e07647b2ff9","5f646aa6a2509e026213cbeb","false","null","<span style=""color: black; font-size: 48px"">M + N</span>","null","","","","resp_prompt","","","","","","","","","","","","","","","",""
"categorize-image","33","111090","0.0-2.0-2.0-1.11","nfppzq1ja422kwo","practice_no_cue","5f323237a6342a17e390a7c8","5f60e3c0a3b16e07647b2ff9","5f646aa6a2509e026213cbeb","true","null","./Stimuli/ImagesPractice/LM55.jpg","null","","","","test","false","M + N","83","","LM","LM55.jpg","remember","old","12","1","start","too_slow","","","",""
"html-keyboard-response","34","111800","0.0-2.0-2.0-0.12","nfppzq1ja422kwo","practice_no_cue","5f323237a6342a17e390a7c8","5f60e3c0a3b16e07647b2ff9","5f646aa6a2509e026213cbeb","false","null","<span style=""color: black; font-size: 48px"">N + M</span>","null","","","","resp_prompt","","","","","","","","","","","","","","","",""
"categorize-image","35","112607","0.0-2.0-2.0-1.12","nfppzq1ja422kwo","practice_no_cue","5f323237a6342a17e390a7c8","5f60e3c0a3b16e07647b2ff9","5f646aa6a2509e026213cbeb","true","290.64999998081475","./Stimuli/ImagesPractice/SN205.jpg","76","","","","test","false","N + M","83","","SN","SN205.jpg","forget","old","13","1","start","right","","","",""
"html-keyboard-response","36","113321","0.0-2.0-2.0-0.13","nfppzq1ja422kwo","practice_no_cue","5f323237a6342a17e390a7c8","5f60e3c0a3b16e07647b2ff9","5f646aa6a2509e026213cbeb","false","null","<span style=""color: black; font-size: 48px"">N + M</span>","null","","","","resp_prompt","","","","","","","","","","","","","","","",""
"categorize-image","37","114083","0.0-2.0-2.0-1.13","nfppzq1ja422kwo","practice_no_cue","5f323237a6342a17e390a7c8","5f60e3c0a3b16e07647b2ff9","5f646aa6a2509e026213cbeb","true","245.91500009410083","./Stimuli/ImagesPractice/SN76.jpg","76","","","","test","false","N + M","83","","SN","SN76.jpg","remember","old","14","1","start","right","","","",""
"html-keyboard-response","38","114792","0.0-2.0-2.0-0.14","nfppzq1ja422kwo","practice_no_cue","5f323237a6342a17e390a7c8","5f60e3c0a3b16e07647b2ff9","5f646aa6a2509e026213cbeb","false","null","<span style=""color: black; font-size: 48px"">M + N</span>","null","","","","resp_prompt","","","","","","","","","","","","","","","",""
"categorize-image","39","115928","0.0-2.0-2.0-1.14","nfppzq1ja422kwo","practice_no_cue","5f323237a6342a17e390a7c8","5f60e3c0a3b16e07647b2ff9","5f646aa6a2509e026213cbeb","true","630.1499999826774","./Stimuli/ImagesPractice/SM35.jpg","76","","","","test","false","M + N","83","","SM","SM35.jpg","remember","old","15","1","start","right","","","",""
"html-keyboard-response","40","116641","0.0-2.0-2.0-0.15","nfppzq1ja422kwo","practice_no_cue","5f323237a6342a17e390a7c8","5f60e3c0a3b16e07647b2ff9","5f646aa6a2509e026213cbeb","false","null","<span style=""color: black; font-size: 48px"">N + M</span>","null","","","","resp_prompt","","","","","","","","","","","","","","","",""
"categorize-image","41","117435","0.0-2.0-2.0-1.15","nfppzq1ja422kwo","practice_no_cue","5f323237a6342a17e390a7c8","5f60e3c0a3b16e07647b2ff9","5f646aa6a2509e026213cbeb","true","277.59499999228865","./Stimuli/ImagesPractice/LN15.jpg","76","","","","test","false","N + M","83","","LN","LN15.jpg","forget","old","16","1","start","right","","","",""
"html-keyboard-response","42","122753","0.0-2.0-3.0","nfppzq1ja422kwo","break","5f323237a6342a17e390a7c8","5f60e3c0a3b16e07647b2ff9","5f646aa6a2509e026213cbeb","false","5314.6900000283495","<p style='font-size: 32px;'>Break</><br><br><br><br><br><p style='font-size: 24px;'>In the last block, you committed 12 errors and did not respond in time on 1 trials.
</p><p style='font-size: 24px;'>Try to respond as fast and accurately as possible in the next block as well! </p><p style='font-size: 24px;'>Press SPACE to continue.</p>","32","","","","","","","","","","","","","","","","","","","",""
"html-keyboard-response","43","126592","0.0-2.0-4.0","nfppzq1ja422kwo","instructions","5f323237a6342a17e390a7c8","5f60e3c0a3b16e07647b2ff9","5f646aa6a2509e026213cbeb","false","3836.3550000358373","<div align=left> Great!<br><br>Are you ready to continue?<br><br>If you want to reread the instructions and redo the practice trials, <br>please press „Z“. <br><br>Press SPACE to CONTINUE with the experiment when you are ready. </div>","32","","","","","","","","","","","","","","","","","","","",""
"html-keyboard-response","44","132686","0.0-3.0-0.0","nfppzq1ja422kwo","instructions","5f323237a6342a17e390a7c8","5f60e3c0a3b16e07647b2ff9","5f646aa6a2509e026213cbeb","false","6091.099999961443","<div align=left>Great!<br> <strong>Attention</strong>! You will now receive a second, additional task! <br><br>To this point it was you <strong>first task</strong> to correctly <strong>classify objects</strong>. <br><br>As mentioned in the beginning, we aim to examine how well humans can remember previously learned information.<br>We would like to find out whether our memory improves if we only remember information that is relevant to us. <br><br>Therefore, your <strong>second task</strong> will be to <strong>remember</strong> the pictures you are to categorize. <br> After the learning phase, there will be a memory test phase, in which you will be asked to indicate whether you have seen a picture before or not. <br>Some, but not all pictures shown in the learning phase will appear in the memory test phase.<br>After classifying a picture, you will be told whether you should remember it for the memory test phase or not. <br>Thus, some pictures can be forgotten, whereas others have to be remembered. <br><br>Note: From now on, feedback will only be displayed if you responded incorrectly or not in time.<br><br>Press SPACE to continue.</div>","32","","","","","","","","","","","","","","","","","","","",""
"html-keyboard-response","45","138466","0.0-3.0-1.0","nfppzq1ja422kwo","instructions","5f323237a6342a17e390a7c8","5f60e3c0a3b16e07647b2ff9","5f646aa6a2509e026213cbeb","false","5777.969999937341","<div align=left>In the following part, you will thus have to remember only some pictures. <br>Immediately after seeing and classifying the picture, a symbol will be displayed, indicating whether you should remember or forget the previous picture. <br><br>A <span style='color: dodgerblue; font-size: 28px'>O</span> indicates REMEMBER. That means, you have to remember this picture, because it will be tested later. <br><br>A <span style='color: darkorange; font-size:28px'>Ø</span> indicates FORGET. You do not have to remember this picture. <br><br> As you will have to remember a lot of pictures, it will be hard for you to remember all of them. <br>It will put you at an advantage if you instantly forget the pictures you are not asked to remember. <br> This will make it easier for you to remember the pictures that will be tested afterwards. <br><br>Press SPACE to continue.</div>","32","","","","","","","","","","","","","","","","","","","",""
"html-keyboard-response","46","140665","0.0-3.0-2.0","nfppzq1ja422kwo","instructions","5f323237a6342a17e390a7c8","5f60e3c0a3b16e07647b2ff9","5f646aa6a2509e026213cbeb","false","2196.760000078939","<div align=left> Now you have the chance to practice both tasks together.<br><br>Remember: <br> <br><li>Please place your index fingers on the <strong>'S'</strong> and <strong>'L'</strong> keys <br>to respond as fast and accurately as possible.</li><li>Every picture can be classified as either mechanical or non-mechanical.</li><li>If you do not respond in time or commit an error, you will receive a corresponding feedback. <br>Please try to respond as <strong> fast </strong> and as <strong> accurately as possible </strong>.</li><li> Please remember only the to-be-remembered <span style='color: dodgerblue; font-size: 28px'>O</span> pictures. <br></li><li> Please minimize distractions and stay focused. </li><br><br>Press SPACE to START</div>","32","","","","","","","","","","","","","","","","","","","",""
"html-keyboard-response","47","141372","0.0-3.0-3.0-0.0","nfppzq1ja422kwo","practice_cue","5f323237a6342a17e390a7c8","5f60e3c0a3b16e07647b2ff9","5f646aa6a2509e026213cbeb","false","null","<span style=""color: black; font-size: 48px"">M + N</span>","null","","","","resp_prompt","","","","","","","","","","","","","","","",""
"categorize-image","48","141869","0.0-3.0-3.0-1.0","nfppzq1ja422kwo","practice_cue","5f323237a6342a17e390a7c8","5f60e3c0a3b16e07647b2ff9","5f646aa6a2509e026213cbeb","true","491.9849999714643","./Stimuli/ImagesPractice/LM230.jpg","83","","","","test","true","M + N","83","","LM","LM230.jpg","forget","old","17","2","practice_forget","left","","","",""
"html-keyboard-response","49","143881","0.0-3.0-3.0-3.0","nfppzq1ja422kwo","practice_cue","5f323237a6342a17e390a7c8","5f60e3c0a3b16e07647b2ff9","5f646aa6a2509e026213cbeb","false","null","<div style=""align-items: center; display: flex; color: darkorange; font-size: 90px""><b>ø</b></div>","null","","","","forget_cue","","","","","","","","","","","","","","","",""
"html-keyboard-response","50","144596","0.0-3.0-3.0-0.1","nfppzq1ja422kwo","practice_cue","5f323237a6342a17e390a7c8","5f60e3c0a3b16e07647b2ff9","5f646aa6a2509e026213cbeb","false","null","<span style=""color: black; font-size: 48px"">N + M</span>","null","","","","resp_prompt","","","","","","","","","","","","","","","",""
"categorize-image","51","145377","0.0-3.0-3.0-1.1","nfppzq1ja422kwo","practice_cue","5f323237a6342a17e390a7c8","5f60e3c0a3b16e07647b2ff9","5f646aa6a2509e026213cbeb","true","775.7500000298023","./Stimuli/ImagesPractice/LN15.jpg","76","","","","test","false","N + M","83","","LN","LN15.jpg","forget","old","18","2","practice_forget","right","","","",""
"html-keyboard-response","52","145881","0.0-3.0-3.0-2.1-0.1","nfppzq1ja422kwo","practice_cue","5f323237a6342a17e390a7c8","5f60e3c0a3b16e07647b2ff9","5f646aa6a2509e026213cbeb","false","null","<span style=""color: red; font-size: 48px"">Error!</span>","null","","","","feedback","","","","","","","","","","","","","","","",""
"html-keyboard-response","53","147893","0.0-3.0-3.0-3.1","nfppzq1ja422kwo","practice_cue","5f323237a6342a17e390a7c8","5f60e3c0a3b16e07647b2ff9","5f646aa6a2509e026213cbeb","false","null","<div style=""align-items: center; display: flex; color: darkorange; font-size: 90px""><b>ø</b></div>","null","","","","forget_cue","","","","","","","","","","","","","","","",""
"html-keyboard-response","54","148606","0.0-3.0-3.0-0.2","nfppzq1ja422kwo","practice_cue","5f323237a6342a17e390a7c8","5f60e3c0a3b16e07647b2ff9","5f646aa6a2509e026213cbeb","false","null","<span style=""color: black; font-size: 48px"">N + M</span>","null","","","","resp_prompt","","","","","","","","","","","","","","","",""
"categorize-image","55","149513","0.0-3.0-3.0-1.2","nfppzq1ja422kwo","practice_cue","5f323237a6342a17e390a7c8","5f60e3c0a3b16e07647b2ff9","5f646aa6a2509e026213cbeb","true","899.8349999310449","./Stimuli/ImagesPractice/SN75.jpg","83","","","","test","true","N + M","83","","SN","SN75.jpg","forget","old","19","2","practice_forget","left","","","",""
"html-keyboard-response","56","151523","0.0-3.0-3.0-3.2","nfppzq1ja422kwo","practice_cue","5f323237a6342a17e390a7c8","5f60e3c0a3b16e07647b2ff9","5f646aa6a2509e026213cbeb","false","null","<div style=""align-items: center; display: flex; color: darkorange; font-size: 90px""><b>ø</b></div>","null","","","","forget_cue","","","","","","","","","","","","","","","",""
"html-keyboard-response","57","152241","0.0-3.0-3.0-0.3","nfppzq1ja422kwo","practice_cue","5f323237a6342a17e390a7c8","5f60e3c0a3b16e07647b2ff9","5f646aa6a2509e026213cbeb","false","null","<span style=""color: black; font-size: 48px"">M + N</span>","null","","","","resp_prompt","","","","","","","","","","","","","","","",""
"categorize-image","58","153186","0.0-3.0-3.0-1.3","nfppzq1ja422kwo","practice_cue","5f323237a6342a17e390a7c8","5f60e3c0a3b16e07647b2ff9","5f646aa6a2509e026213cbeb","true","933.4800000069663","./Stimuli/ImagesPractice/LN4.jpg","83","","","","test","false","M + N","76","","LN","LN4.jpg","forget","old","20","2","practice_forget","left","","","",""
"html-keyboard-response","59","153693","0.0-3.0-3.0-2.3-0.3","nfppzq1ja422kwo","practice_cue","5f323237a6342a17e390a7c8","5f60e3c0a3b16e07647b2ff9","5f646aa6a2509e026213cbeb","false","null","<span style=""color: red; font-size: 48px"">Error!</span>","null","","","","feedback","","","","","","","","","","","","","","","",""
"html-keyboard-response","60","155698","0.0-3.0-3.0-3.3","nfppzq1ja422kwo","practice_cue","5f323237a6342a17e390a7c8","5f60e3c0a3b16e07647b2ff9","5f646aa6a2509e026213cbeb","false","null","<div style=""align-items: center; display: flex; color: darkorange; font-size: 90px""><b>ø</b></div>","null","","","","forget_cue","","","","","","","","","","","","","","","",""
"html-keyboard-response","61","156411","0.0-3.0-3.0-0.4","nfppzq1ja422kwo","practice_cue","5f323237a6342a17e390a7c8","5f60e3c0a3b16e07647b2ff9","5f646aa6a2509e026213cbeb","false","null","<span style=""color: black; font-size: 48px"">M + N</span>","null","","","","resp_prompt","","","","","","","","","","","","","","","",""
"categorize-image","62","157339","0.0-3.0-3.0-1.4","nfppzq1ja422kwo","practice_cue","5f323237a6342a17e390a7c8","5f60e3c0a3b16e07647b2ff9","5f646aa6a2509e026213cbeb","true","923.3450000174344","./Stimuli/ImagesPractice/LM55.jpg","76","","","","test","false","M + N","83","","LM","LM55.jpg","remember","old","21","2","practice_forget","right","","","",""
"html-keyboard-response","63","157846","0.0-3.0-3.0-2.4-0.4","nfppzq1ja422kwo","practice_cue","5f323237a6342a17e390a7c8","5f60e3c0a3b16e07647b2ff9","5f646aa6a2509e026213cbeb","false","null","<span style=""color: red; font-size: 48px"">Error!</span>","null","","","","feedback","","","","","","","","","","","","","","","",""
"html-keyboard-response","64","159861","0.0-3.0-3.0-3.4","nfppzq1ja422kwo","practice_cue","5f323237a6342a17e390a7c8","5f60e3c0a3b16e07647b2ff9","5f646aa6a2509e026213cbeb","false","null","<div style=""align-items: center; display: flex; color: dodgerblue; font-size: 90px""><b>o</b></div>","null","","","","forget_cue","","","","","","","","","","","","","","","",""
"html-keyboard-response","65","160578","0.0-3.0-3.0-0.5","nfppzq1ja422kwo","practice_cue","5f323237a6342a17e390a7c8","5f60e3c0a3b16e07647b2ff9","5f646aa6a2509e026213cbeb","false","null","<span style=""color: black; font-size: 48px"">M + N</span>","null","","","","resp_prompt","","","","","","","","","","","","","","","",""
"categorize-image","66","161491","0.0-3.0-3.0-1.5","nfppzq1ja422kwo","practice_cue","5f323237a6342a17e390a7c8","5f60e3c0a3b16e07647b2ff9","5f646aa6a2509e026213cbeb","true","906.5900000277907","./Stimuli/ImagesPractice/LN2.jpg","83","","","","test","false","M + N","76","","LN","LN2.jpg","remember","old","22","2","practice_forget","left","","","",""
"html-keyboard-response","67","162006","0.0-3.0-3.0-2.5-0.5","nfppzq1ja422kwo","practice_cue","5f323237a6342a17e390a7c8","5f60e3c0a3b16e07647b2ff9","5f646aa6a2509e026213cbeb","false","null","<span style=""color: red; font-size: 48px"">Error!</span>","null","","","","feedback","","","","","","","","","","","","","","","",""
"html-keyboard-response","68","164010","0.0-3.0-3.0-3.5","nfppzq1ja422kwo","practice_cue","5f323237a6342a17e390a7c8","5f60e3c0a3b16e07647b2ff9","5f646aa6a2509e026213cbeb","false","null","<div style=""align-items: center; display: flex; color: dodgerblue; font-size: 90px""><b>o</b></div>","null","","","","forget_cue","","","","","","","","","","","","","","","",""
"html-keyboard-response","69","164716","0.0-3.0-3.0-0.6","nfppzq1ja422kwo","practice_cue","5f323237a6342a17e390a7c8","5f60e3c0a3b16e07647b2ff9","5f646aa6a2509e026213cbeb","false","null","<span style=""color: black; font-size: 48px"">N + M</span>","null","","","","resp_prompt","","","","","","","","","","","","","","","",""
"categorize-image","70","165552","0.0-3.0-3.0-1.6","nfppzq1ja422kwo","practice_cue","5f323237a6342a17e390a7c8","5f60e3c0a3b16e07647b2ff9","5f646aa6a2509e026213cbeb","true","831.1000000685453","./Stimuli/ImagesPractice/LM143.jpg","83","","","","test","false","N + M","76","","LM","LM143.jpg","remember","old","23","2","practice_forget","left","","","",""
"html-keyboard-response","71","166063","0.0-3.0-3.0-2.6-0.6","nfppzq1ja422kwo","practice_cue","5f323237a6342a17e390a7c8","5f60e3c0a3b16e07647b2ff9","5f646aa6a2509e026213cbeb","false","null","<span style=""color: red; font-size: 48px"">Error!</span>","null","","","","feedback","","","","","","","","","","","","","","","",""
"html-keyboard-response","72","168075","0.0-3.0-3.0-3.6","nfppzq1ja422kwo","practice_cue","5f323237a6342a17e390a7c8","5f60e3c0a3b16e07647b2ff9","5f646aa6a2509e026213cbeb","false","null","<div style=""align-items: center; display: flex; color: dodgerblue; font-size: 90px""><b>o</b></div>","null","","","","forget_cue","","","","","","","","","","","","","","","",""
"html-keyboard-response","73","168785","0.0-3.0-3.0-0.7","nfppzq1ja422kwo","practice_cue","5f323237a6342a17e390a7c8","5f60e3c0a3b16e07647b2ff9","5f646aa6a2509e026213cbeb","false","null","<span style=""color: black; font-size: 48px"">M + N</span>","null","","","","resp_prompt","","","","","","","","","","","","","","","",""
"categorize-image","74","169675","0.0-3.0-3.0-1.7","nfppzq1ja422kwo","practice_cue","5f323237a6342a17e390a7c8","5f60e3c0a3b16e07647b2ff9","5f646aa6a2509e026213cbeb","true","884.349999949336","./Stimuli/ImagesPractice/SM35.jpg","76","","","","test","false","M + N","83","","SM","SM35.jpg","remember","old","24","2","practice_forget","right","","","",""
"html-keyboard-response","75","170189","0.0-3.0-3.0-2.7-0.7","nfppzq1ja422kwo","practice_cue","5f323237a6342a17e390a7c8","5f60e3c0a3b16e07647b2ff9","5f646aa6a2509e026213cbeb","false","null","<span style=""color: red; font-size: 48px"">Error!</span>","null","","","","feedback","","","","","","","","","","","","","","","",""
"html-keyboard-response","76","172194","0.0-3.0-3.0-3.7","nfppzq1ja422kwo","practice_cue","5f323237a6342a17e390a7c8","5f60e3c0a3b16e07647b2ff9","5f646aa6a2509e026213cbeb","false","null","<div style=""align-items: center; display: flex; color: dodgerblue; font-size: 90px""><b>o</b></div>","null","","","","forget_cue","","","","","","","","","","","","","","","",""
"html-keyboard-response","77","172909","0.0-3.0-3.0-0.8","nfppzq1ja422kwo","practice_cue","5f323237a6342a17e390a7c8","5f60e3c0a3b16e07647b2ff9","5f646aa6a2509e026213cbeb","false","null","<span style=""color: black; font-size: 48px"">N + M</span>","null","","","","resp_prompt","","","","","","","","","","","","","","","",""
"categorize-image","78","173641","0.0-3.0-3.0-1.8","nfppzq1ja422kwo","practice_cue","5f323237a6342a17e390a7c8","5f60e3c0a3b16e07647b2ff9","5f646aa6a2509e026213cbeb","true","723.2200000435114","./Stimuli/ImagesPractice/SN76.jpg","83","","","","test","true","N + M","83","","SN","SN76.jpg","remember","old","25","2","practice_forget","left","","","",""
"html-keyboard-response","79","175651","0.0-3.0-3.0-3.8","nfppzq1ja422kwo","practice_cue","5f323237a6342a17e390a7c8","5f60e3c0a3b16e07647b2ff9","5f646aa6a2509e026213cbeb","false","null","<div style=""align-items: center; display: flex; color: dodgerblue; font-size: 90px""><b>o</b></div>","null","","","","forget_cue","","","","","","","","","","","","","","","",""
"html-keyboard-response","80","176354","0.0-3.0-3.0-0.9","nfppzq1ja422kwo","practice_cue","5f323237a6342a17e390a7c8","5f60e3c0a3b16e07647b2ff9","5f646aa6a2509e026213cbeb","false","null","<span style=""color: black; font-size: 48px"">N + M</span>","null","","","","resp_prompt","","","","","","","","","","","","","","","",""
"categorize-image","81","177119","0.0-3.0-3.0-1.9","nfppzq1ja422kwo","practice_cue","5f323237a6342a17e390a7c8","5f60e3c0a3b16e07647b2ff9","5f646aa6a2509e026213cbeb","true","756.8149999715388","./Stimuli/ImagesPractice/LM224.jpg","83","","","","test","false","N + M","76","","LM","LM224.jpg","remember","old","26","2","practice_forget","left","","","",""
"html-keyboard-response","82","177630","0.0-3.0-3.0-2.9-0.9","nfppzq1ja422kwo","practice_cue","5f323237a6342a17e390a7c8","5f60e3c0a3b16e07647b2ff9","5f646aa6a2509e026213cbeb","false","null","<span style=""color: red; font-size: 48px"">Error!</span>","null","","","","feedback","","","","","","","","","","","","","","","",""
"html-keyboard-response","83","179644","0.0-3.0-3.0-3.9","nfppzq1ja422kwo","practice_cue","5f323237a6342a17e390a7c8","5f60e3c0a3b16e07647b2ff9","5f646aa6a2509e026213cbeb","false","null","<div style=""align-items: center; display: flex; color: dodgerblue; font-size: 90px""><b>o</b></div>","null","","","","forget_cue","","","","","","","","","","","","","","","",""
"html-keyboard-response","84","180357","0.0-3.0-3.0-0.10","nfppzq1ja422kwo","practice_cue","5f323237a6342a17e390a7c8","5f60e3c0a3b16e07647b2ff9","5f646aa6a2509e026213cbeb","false","null","<span style=""color: black; font-size: 48px"">M + N</span>","null","","","","resp_prompt","","","","","","","","","","","","","","","",""
"categorize-image","85","181284","0.0-3.0-3.0-1.10","nfppzq1ja422kwo","practice_cue","5f323237a6342a17e390a7c8","5f60e3c0a3b16e07647b2ff9","5f646aa6a2509e026213cbeb","true","920.990000013262","./Stimuli/ImagesPractice/LN17.jpg","76","","","","test","true","M + N","76","","LN","LN17.jpg","forget","old","27","2","practice_forget","right","","","",""
"html-keyboard-response","86","183286","0.0-3.0-3.0-3.10","nfppzq1ja422kwo","practice_cue","5f323237a6342a17e390a7c8","5f60e3c0a3b16e07647b2ff9","5f646aa6a2509e026213cbeb","false","null","<div style=""align-items: center; display: flex; color: darkorange; font-size: 90px""><b>ø</b></div>","null","","","","forget_cue","","","","","","","","","","","","","","","",""
"html-keyboard-response","87","183992","0.0-3.0-3.0-0.11","nfppzq1ja422kwo","practice_cue","5f323237a6342a17e390a7c8","5f60e3c0a3b16e07647b2ff9","5f646aa6a2509e026213cbeb","false","null","<span style=""color: black; font-size: 48px"">N + M</span>","null","","","","resp_prompt","","","","","","","","","","","","","","","",""
"categorize-image","88","184827","0.0-3.0-3.0-1.11","nfppzq1ja422kwo","practice_cue","5f323237a6342a17e390a7c8","5f60e3c0a3b16e07647b2ff9","5f646aa6a2509e026213cbeb","true","829.0300000226125","./Stimuli/ImagesPractice/SN221.jpg","76","","","","test","false","N + M","83","","SN","SN221.jpg","remember","old","28","2","practice_forget","right","","","",""
"html-keyboard-response","89","185330","0.0-3.0-3.0-2.11-0.11","nfppzq1ja422kwo","practice_cue","5f323237a6342a17e390a7c8","5f60e3c0a3b16e07647b2ff9","5f646aa6a2509e026213cbeb","false","null","<span style=""color: red; font-size: 48px"">Error!</span>","null","","","","feedback","","","","","","","","","","","","","","","",""
"html-keyboard-response","90","187334","0.0-3.0-3.0-3.11","nfppzq1ja422kwo","practice_cue","5f323237a6342a17e390a7c8","5f60e3c0a3b16e07647b2ff9","5f646aa6a2509e026213cbeb","false","null","<div style=""align-items: center; display: flex; color: dodgerblue; font-size: 90px""><b>o</b></div>","null","","","","forget_cue","","","","","","","","","","","","","","","",""
"html-keyboard-response","91","188041","0.0-3.0-3.0-0.12","nfppzq1ja422kwo","practice_cue","5f323237a6342a17e390a7c8","5f60e3c0a3b16e07647b2ff9","5f646aa6a2509e026213cbeb","false","null","<span style=""color: black; font-size: 48px"">M + N</span>","null","","","","resp_prompt","","","","","","","","","","","","","","","",""
"categorize-image","92","188935","0.0-3.0-3.0-1.12","nfppzq1ja422kwo","practice_cue","5f323237a6342a17e390a7c8","5f60e3c0a3b16e07647b2ff9","5f646aa6a2509e026213cbeb","true","887.00499990955","./Stimuli/ImagesPractice/LN72.jpg","76","","","","test","true","M + N","76","","LN","LN72.jpg","remember","old","29","2","practice_forget","right","","","",""
"html-keyboard-response","93","190941","0.0-3.0-3.0-3.12","nfppzq1ja422kwo","practice_cue","5f323237a6342a17e390a7c8","5f60e3c0a3b16e07647b2ff9","5f646aa6a2509e026213cbeb","false","null","<div style=""align-items: center; display: flex; color: dodgerblue; font-size: 90px""><b>o</b></div>","null","","","","forget_cue","","","","","","","","","","","","","","","",""
"html-keyboard-response","94","191649","0.0-3.0-3.0-0.13","nfppzq1ja422kwo","practice_cue","5f323237a6342a17e390a7c8","5f60e3c0a3b16e07647b2ff9","5f646aa6a2509e026213cbeb","false","null","<span style=""color: black; font-size: 48px"">M + N</span>","null","","","","resp_prompt","","","","","","","","","","","","","","","",""
"categorize-image","95","192555","0.0-3.0-3.0-1.13","nfppzq1ja422kwo","practice_cue","5f323237a6342a17e390a7c8","5f60e3c0a3b16e07647b2ff9","5f646aa6a2509e026213cbeb","true","901.0749999433756","./Stimuli/ImagesPractice/SM97.jpg","83","","","","test","true","M + N","83","","SM","SM97.jpg","forget","old","30","2","practice_forget","left","","","",""
"html-keyboard-response","96","194572","0.0-3.0-3.0-3.13","nfppzq1ja422kwo","practice_cue","5f323237a6342a17e390a7c8","5f60e3c0a3b16e07647b2ff9","5f646aa6a2509e026213cbeb","false","null","<div style=""align-items: center; display: flex; color: darkorange; font-size: 90px""><b>ø</b></div>","null","","","","forget_cue","","","","","","","","","","","","","","","",""
"html-keyboard-response","97","195280","0.0-3.0-3.0-0.14","nfppzq1ja422kwo","practice_cue","5f323237a6342a17e390a7c8","5f60e3c0a3b16e07647b2ff9","5f646aa6a2509e026213cbeb","false","null","<span style=""color: black; font-size: 48px"">N + M</span>","null","","","","resp_prompt","","","","","","","","","","","","","","","",""
"categorize-image","98","196052","0.0-3.0-3.0-1.14","nfppzq1ja422kwo","practice_cue","5f323237a6342a17e390a7c8","5f60e3c0a3b16e07647b2ff9","5f646aa6a2509e026213cbeb","true","766.3099999772385","./Stimuli/ImagesPractice/SM37.jpg","83","","","","test","false","N + M","76","","SM","SM37.jpg","forget","old","31","2","practice_forget","left","","","",""
"html-keyboard-response","99","196564","0.0-3.0-3.0-2.14-0.14","nfppzq1ja422kwo","practice_cue","5f323237a6342a17e390a7c8","5f60e3c0a3b16e07647b2ff9","5f646aa6a2509e026213cbeb","false","null","<span style=""color: red; font-size: 48px"">Error!</span>","null","","","","feedback","","","","","","","","","","","","","","","",""
"html-keyboard-response","100","198577","0.0-3.0-3.0-3.14","nfppzq1ja422kwo","practice_cue","5f323237a6342a17e390a7c8","5f60e3c0a3b16e07647b2ff9","5f646aa6a2509e026213cbeb","false","null","<div style=""align-items: center; display: flex; color: darkorange; font-size: 90px""><b>ø</b></div>","null","","","","forget_cue","","","","","","","","","","","","","","","",""
"html-keyboard-response","101","199286","0.0-3.0-3.0-0.15","nfppzq1ja422kwo","practice_cue","5f323237a6342a17e390a7c8","5f60e3c0a3b16e07647b2ff9","5f646aa6a2509e026213cbeb","false","null","<span style=""color: black; font-size: 48px"">N + M</span>","null","","","","resp_prompt","","","","","","","","","","","","","","","",""
"categorize-image","102","200113","0.0-3.0-3.0-1.15","nfppzq1ja422kwo","practice_cue","5f323237a6342a17e390a7c8","5f60e3c0a3b16e07647b2ff9","5f646aa6a2509e026213cbeb","true","811.4150000037625","./Stimuli/ImagesPractice/SN205.jpg","83","","","","test","true","N + M","83","","SN","SN205.jpg","forget","old","32","2","practice_forget","left","","","",""
"html-keyboard-response","103","202118","0.0-3.0-3.0-3.15","nfppzq1ja422kwo","practice_cue","5f323237a6342a17e390a7c8","5f60e3c0a3b16e07647b2ff9","5f646aa6a2509e026213cbeb","false","null","<div style=""align-items: center; display: flex; color: darkorange; font-size: 90px""><b>ø</b></div>","null","","","","forget_cue","","","","","","","","","","","","","","","",""
"html-keyboard-response","104","215070","0.0-3.0-4.0","nfppzq1ja422kwo","break","5f323237a6342a17e390a7c8","5f60e3c0a3b16e07647b2ff9","5f646aa6a2509e026213cbeb","false","12957.444999949075","<p style='font-size: 32px;'>Break</><br><br><br><br><br><p style='font-size: 24px;'>In the last block, you committed 9 errors and did not respond in time on 0 trials.
</p><p style='font-size: 24px;'>Try to respond as fast and accurately as possible in the next block as well! </p><p style='font-size: 24px;'>Press SPACE to continue.</p>","32","","","","","","","","","","","","","","","","","","","",""
"html-keyboard-response","105","217363","0.0-3.0-5.0","nfppzq1ja422kwo","instructions","5f323237a6342a17e390a7c8","5f60e3c0a3b16e07647b2ff9","5f646aa6a2509e026213cbeb","false","2291.2049998994917","<div align=left> Now, to practice, we kindly ask you to remember as many of the to-be-remembered pictures<br>of the previous learning phase as possible.<br><br>The pictures you were instructed to remember were the pictures followed by a <span style='color: dodgerblue; font-size: 28px'>O</span>.<br><br>In this memory test phase, you will also see some new pictures.<br>It is your task to remember whether you were presented with this specific picture in this study so far or not.<br>If you recognize an object (you have already seen it in this study), it is an OLD object. <br>If you do not recognize an object (you have NOT seen it in this study), it is a NEW object. <br><strong> Attention</strong>: As already mentioned, <span style='color: darkorange; font-size:28px'>Ø</span>-pictures will <strong>never</strong> appear in this memory test (neither as new objects). <br><br>Press SPACE to continue. </div>","32","","","","","","","","","","","","","","","","","","","",""
"html-keyboard-response","106","218094","0.0-3.0-6.0","nfppzq1ja422kwo","instructions","5f323237a6342a17e390a7c8","5f60e3c0a3b16e07647b2ff9","5f646aa6a2509e026213cbeb","false","727.8149999910966","<div align=left> M and N no longer will appear on the left/right of the fixation cross. <br>Instead there will be a note at the bottom of the left or right side  <br>indicating which key you should press for an old or new object:  <br> <br>Press the <strong>right</strong> key to classify an object as <strong>old</strong> and press the <strong>left</strong>, to classify an object as <strong>new</strong>.<br>Please classify the objects as new/old by again placing your index finger on the 'S' and 'L' keys <br>and press them accordingly.<br><br><strong>Old:</strong> This object has been presented before. <br><strong>New:</strong> This object has <strong>not</strong> been presented.<br><br>Now please put your right and left index fingers on the 'S' and 'L' keys of your keyboard. <br>Please respond as fast and as accurately as possible!<br><br>Press SPACE to continue. </div>","32","","","","","","","","","","","","","","","","","","","",""
"categorize-image","107","219722","0.0-3.0-7.0-0.0","nfppzq1ja422kwo","practice_recog","5f323237a6342a17e390a7c8","5f60e3c0a3b16e07647b2ff9","5f646aa6a2509e026213cbeb","true","1110.385000007227","./Stimuli/ImagesPractice/SM62.jpg","83","","","","test","false","","76","","SM","SM62.jpg","","new","33","3","practice_recog","left","","","",""
"categorize-image","108","221404","0.0-3.0-7.0-0.1","nfppzq1ja422kwo","practice_recog","5f323237a6342a17e390a7c8","5f60e3c0a3b16e07647b2ff9","5f646aa6a2509e026213cbeb","true","1168.3550000889227","./Stimuli/ImagesPractice/SN220.jpg","76","","","","test","true","","76","","SN","SN220.jpg","","new","34","3","practice_recog","right","","","",""
"categorize-image","109","222532","0.0-3.0-7.0-0.2","nfppzq1ja422kwo","practice_recog","5f323237a6342a17e390a7c8","5f60e3c0a3b16e07647b2ff9","5f646aa6a2509e026213cbeb","true","616.0600000293925","./Stimuli/ImagesPractice/SN76.jpg","76","","","","test","false","","83","","SN","SN76.jpg","","old","35","3","practice_recog","right","","","",""
"categorize-image","110","224616","0.0-3.0-7.0-0.3","nfppzq1ja422kwo","practice_recog","5f323237a6342a17e390a7c8","5f60e3c0a3b16e07647b2ff9","5f646aa6a2509e026213cbeb","true","1565.4799999902025","./Stimuli/ImagesPractice/LM239.jpg","76","","","","test","true","","76","","LM","LM239.jpg","","new","36","3","practice_recog","right","","","",""
"categorize-image","111","225903","0.0-3.0-7.0-0.4","nfppzq1ja422kwo","practice_recog","5f323237a6342a17e390a7c8","5f60e3c0a3b16e07647b2ff9","5f646aa6a2509e026213cbeb","true","771.6800000052899","./Stimuli/ImagesPractice/LM55.jpg","83","","","","test","true","","83","","LM","LM55.jpg","","old","37","3","practice_recog","left","","","",""
"categorize-image","112","227229","0.0-3.0-7.0-0.5","nfppzq1ja422kwo","practice_recog","5f323237a6342a17e390a7c8","5f60e3c0a3b16e07647b2ff9","5f646aa6a2509e026213cbeb","true","812.4250000109896","./Stimuli/ImagesPractice/SM98.jpg","83","","","","test","false","","76","","SM","SM98.jpg","","new","38","3","practice_recog","left","","","",""
"categorize-image","113","228509","0.0-3.0-7.0-0.6","nfppzq1ja422kwo","practice_recog","5f323237a6342a17e390a7c8","5f60e3c0a3b16e07647b2ff9","5f646aa6a2509e026213cbeb","true","768.4600000502542","./Stimuli/ImagesPractice/LM224.jpg","76","","","","test","false","","83","","LM","LM224.jpg","","old","39","3","practice_recog","right","","","",""
"categorize-image","114","231031","0.0-3.0-7.0-0.7","nfppzq1ja422kwo","practice_recog","5f323237a6342a17e390a7c8","5f60e3c0a3b16e07647b2ff9","5f646aa6a2509e026213cbeb","true","2017.1349999727681","./Stimuli/ImagesPractice/SN222.jpg","76","","","","test","true","","76","","SN","SN222.jpg","","new","40","3","practice_recog","right","","","",""
"categorize-image","115","232206","0.0-3.0-7.0-0.8","nfppzq1ja422kwo","practice_recog","5f323237a6342a17e390a7c8","5f60e3c0a3b16e07647b2ff9","5f646aa6a2509e026213cbeb","true","666.9649999821559","./Stimuli/ImagesPractice/LN72.jpg","83","","","","test","true","","83","","LN","LN72.jpg","","old","41","3","practice_recog","left","","","",""
"categorize-image","116","233867","0.0-3.0-7.0-0.9","nfppzq1ja422kwo","practice_recog","5f323237a6342a17e390a7c8","5f60e3c0a3b16e07647b2ff9","5f646aa6a2509e026213cbeb","true","1154.190000030212","./Stimuli/ImagesPractice/SN221.jpg","76","","","","test","false","","83","","SN","SN221.jpg","","old","42","3","practice_recog","right","","","",""
"categorize-image","117","235152","0.0-3.0-7.0-0.10","nfppzq1ja422kwo","practice_recog","5f323237a6342a17e390a7c8","5f60e3c0a3b16e07647b2ff9","5f646aa6a2509e026213cbeb","true","770.2200000640005","./Stimuli/ImagesPractice/LM147.jpg","83","","","","test","false","","76","","LM","LM147.jpg","","new","43","3","practice_recog","left","","","",""
"categorize-image","118","237337","0.0-3.0-7.0-0.11","nfppzq1ja422kwo","practice_recog","5f323237a6342a17e390a7c8","5f60e3c0a3b16e07647b2ff9","5f646aa6a2509e026213cbeb","true","1680.6449999567121","./Stimuli/ImagesPractice/LN2.jpg","83","","","","test","true","","83","","LN","LN2.jpg","","old","44","3","practice_recog","left","","","",""
"categorize-image","119","239102","0.0-3.0-7.0-0.12","nfppzq1ja422kwo","practice_recog","5f323237a6342a17e390a7c8","5f60e3c0a3b16e07647b2ff9","5f646aa6a2509e026213cbeb","true","1250.184999895282","./Stimuli/ImagesPractice/LM143.jpg","83","","","","test","true","","83","","LM","LM143.jpg","","old","45","3","practice_recog","left","","","",""
"categorize-image","120","240937","0.0-3.0-7.0-0.13","nfppzq1ja422kwo","practice_recog","5f323237a6342a17e390a7c8","5f60e3c0a3b16e07647b2ff9","5f646aa6a2509e026213cbeb","true","1325.1750000054017","./Stimuli/ImagesPractice/SM61.jpg","83","","","","test","false","","76","","SM","SM61.jpg","","new","46","3","practice_recog","left","","","",""
"categorize-image","121","243209","0.0-3.0-7.0-0.14","nfppzq1ja422kwo","practice_recog","5f323237a6342a17e390a7c8","5f60e3c0a3b16e07647b2ff9","5f646aa6a2509e026213cbeb","true","1757.134999963455","./Stimuli/ImagesPractice/LN109.jpg","76","","","","test","true","","76","","LN","LN109.jpg","","new","47","3","practice_recog","right","","","",""
"categorize-image","122","244597","0.0-3.0-7.0-0.15","nfppzq1ja422kwo","practice_recog","5f323237a6342a17e390a7c8","5f60e3c0a3b16e07647b2ff9","5f646aa6a2509e026213cbeb","true","869.925000006333","./Stimuli/ImagesPractice/SM35.jpg","76","","","","test","false","","83","","SM","SM35.jpg","","old","48","3","practice_recog","right","","","",""
"html-keyboard-response","123","245577","0.0-3.0-8.0","nfppzq1ja422kwo","instructions","5f323237a6342a17e390a7c8","5f60e3c0a3b16e07647b2ff9","5f646aa6a2509e026213cbeb","false","978.7000000942498","<div align=left> Great!<br><br>Are you ready to continue?<br>If you want to reread the instructions and redo the practice trials, please <br>press „Z“.<br><br>You can proceed when you are ready.<br><br>After the presentation of each object, you will receive an instruction whether to <br>remember or to forget the object.<br>We will test your memory of the following pictures only at the very end of <br>the experiment after all learning blocks are completed. <br><br>Press SPACE to CONTINUE when you are ready. </div>","32","","","","","","","","","","","","","","","","","","","",""
"html-keyboard-response","124","246669","0.0-4.0-0.0","nfppzq1ja422kwo","instructions","5f323237a6342a17e390a7c8","5f60e3c0a3b16e07647b2ff9","5f646aa6a2509e026213cbeb","false","1088.8650000561029","<div align=left> The actual experiment is about to start.<br>The practice trials are over!<br><br>Please always respond both fast and accurately!<br><br>Remember: <br> <br><li> Please place your index fingers on the <strong>'S'</strong> and <strong>'L'</strong> keys <br>to respond as fast and accurately as possible.</li><li> Every picture can be classified as either mechanical or non-mechanical.</li><li> If you do not respond in time or commit an error, you will receive a corresponding feedback.<br> Please try to respond as <strong> fast </strong> and as <strong> accurately as possible </strong>.</li><li> Remember the <span style='color: dodgerblue; font-size: 28px'>O</span> pictures. <br></li><li> Please minimize distractions and stay focused. </li><br><br>Press SPACE to START.</div>","32","","","","","","","","","","","","","","","","","","","",""
"html-keyboard-response","125","247373","0.0-4.0-1.0-0.0","nfppzq1ja422kwo","prime","5f323237a6342a17e390a7c8","5f60e3c0a3b16e07647b2ff9","5f646aa6a2509e026213cbeb","false","null","<span style=""color: black; font-size: 48px"">M + N</span>","null","","","","resp_prompt","","","","","","","","","","","","","","","",""
"categorize-image","126","247681","0.0-4.0-1.0-1.0","nfppzq1ja422kwo","prime","5f323237a6342a17e390a7c8","5f60e3c0a3b16e07647b2ff9","5f646aa6a2509e026213cbeb","true","302.74000007193536","./Stimuli/SelectedImages/LM/LM103.bmp","83","","","","test","true","M + N","83","switch","LM","LM103.bmp","forget","","49","3","prime1","left","","","",""
"html-keyboard-response","127","249700","0.0-4.0-1.0-3.0","nfppzq1ja422kwo","prime","5f323237a6342a17e390a7c8","5f60e3c0a3b16e07647b2ff9","5f646aa6a2509e026213cbeb","false","null","<div style=""align-items: center; display: flex; color: darkorange; font-size: 90px""><b>ø</b></div>","null","","","","forget_cue","","","","","","","","","","","","","","","",""
"html-keyboard-response","128","250416","0.0-4.0-1.0-0.1","nfppzq1ja422kwo","prime","5f323237a6342a17e390a7c8","5f60e3c0a3b16e07647b2ff9","5f646aa6a2509e026213cbeb","false","null","<span style=""color: black; font-size: 48px"">N + M</span>","null","","","","resp_prompt","","","","","","","","","","","","","","","",""
"categorize-image","129","251504","0.0-4.0-1.0-1.1","nfppzq1ja422kwo","prime","5f323237a6342a17e390a7c8","5f60e3c0a3b16e07647b2ff9","5f646aa6a2509e026213cbeb","true","1082.4600000632927","./Stimuli/SelectedImages/SM/SM73.bmp","83","","","","test","false","N + M","76","repetition","SM","SM73.bmp","remember","","50","3","prime1","left","","","",""
"html-keyboard-response","130","252013","0.0-4.0-1.0-2.1-0.1","nfppzq1ja422kwo","prime","5f323237a6342a17e390a7c8","5f60e3c0a3b16e07647b2ff9","5f646aa6a2509e026213cbeb","false","null","<span style=""color: red; font-size: 48px"">Error!</span>","null","","","","feedback","","","","","","","","","","","","","","","",""
"html-keyboard-response","131","254017","0.0-4.0-1.0-3.1","nfppzq1ja422kwo","prime","5f323237a6342a17e390a7c8","5f60e3c0a3b16e07647b2ff9","5f646aa6a2509e026213cbeb","false","null","<div style=""align-items: center; display: flex; color: dodgerblue; font-size: 90px""><b>o</b></div>","null","","","","forget_cue","","","","","","","","","","","","","","","",""
"html-keyboard-response","132","254725","0.0-4.0-1.0-0.2","nfppzq1ja422kwo","prime","5f323237a6342a17e390a7c8","5f60e3c0a3b16e07647b2ff9","5f646aa6a2509e026213cbeb","false","null","<span style=""color: black; font-size: 48px"">N + M</span>","null","","","","resp_prompt","","","","","","","","","","","","","","","",""
"categorize-image","133","255214","0.0-4.0-1.0-1.2","nfppzq1ja422kwo","prime","5f323237a6342a17e390a7c8","5f60e3c0a3b16e07647b2ff9","5f646aa6a2509e026213cbeb","true","483.5800000000745","./Stimuli/SelectedImages/SN/SN111.bmp","76","","","","test","false","N + M","83","switch","SN","SN111.bmp","remember","","51","3","prime1","right","","","",""
"html-keyboard-response","134","255727","0.0-4.0-1.0-2.2-0.2","nfppzq1ja422kwo","prime","5f323237a6342a17e390a7c8","5f60e3c0a3b16e07647b2ff9","5f646aa6a2509e026213cbeb","false","null","<span style=""color: red; font-size: 48px"">Error!</span>","null","","","","feedback","","","","","","","","","","","","","","","",""
"html-keyboard-response","135","257745","0.0-4.0-1.0-3.2","nfppzq1ja422kwo","prime","5f323237a6342a17e390a7c8","5f60e3c0a3b16e07647b2ff9","5f646aa6a2509e026213cbeb","false","null","<div style=""align-items: center; display: flex; color: dodgerblue; font-size: 90px""><b>o</b></div>","null","","","","forget_cue","","","","","","","","","","","","","","","",""
"html-keyboard-response","136","258455","0.0-4.0-1.0-0.3","nfppzq1ja422kwo","prime","5f323237a6342a17e390a7c8","5f60e3c0a3b16e07647b2ff9","5f646aa6a2509e026213cbeb","false","null","<span style=""color: black; font-size: 48px"">M + N</span>","null","","","","resp_prompt","","","","","","","","","","","","","","","",""
"categorize-image","137","258734","0.0-4.0-1.0-1.3","nfppzq1ja422kwo","prime","5f323237a6342a17e390a7c8","5f60e3c0a3b16e07647b2ff9","5f646aa6a2509e026213cbeb","true","273.42500002123415","./Stimuli/SelectedImages/LM/LM216.bmp","76","","","","test","false","M + N","83","repetition","LM","LM216.bmp","remember","","52","3","prime1","right","","","",""
"html-keyboard-response","138","259246","0.0-4.0-1.0-2.3-0.3","nfppzq1ja422kwo","prime","5f323237a6342a17e390a7c8","5f60e3c0a3b16e07647b2ff9","5f646aa6a2509e026213cbeb","false","null","<span style=""color: red; font-size: 48px"">Error!</span>","null","","","","feedback","","","","","","","","","","","","","","","",""
"html-keyboard-response","139","261249","0.0-4.0-1.0-3.3","nfppzq1ja422kwo","prime","5f323237a6342a17e390a7c8","5f60e3c0a3b16e07647b2ff9","5f646aa6a2509e026213cbeb","false","null","<div style=""align-items: center; display: flex; color: dodgerblue; font-size: 90px""><b>o</b></div>","null","","","","forget_cue","","","","","","","","","","","","","","","",""
"html-keyboard-response","140","261959","0.0-4.0-1.0-0.4","nfppzq1ja422kwo","prime","5f323237a6342a17e390a7c8","5f60e3c0a3b16e07647b2ff9","5f646aa6a2509e026213cbeb","false","null","<span style=""color: black; font-size: 48px"">M + N</span>","null","","","","resp_prompt","","","","","","","","","","","","","","","",""
"categorize-image","141","262292","0.0-4.0-1.0-1.4","nfppzq1ja422kwo","prime","5f323237a6342a17e390a7c8","5f60e3c0a3b16e07647b2ff9","5f646aa6a2509e026213cbeb","true","325.3949999343604","./Stimuli/SelectedImages/LM/LM157.bmp","83","","","","test","true","M + N","83","switch","LM","LM157.bmp","forget","","53","3","prime1","left","","","",""
"html-keyboard-response","142","264295","0.0-4.0-1.0-3.4","nfppzq1ja422kwo","prime","5f323237a6342a17e390a7c8","5f60e3c0a3b16e07647b2ff9","5f646aa6a2509e026213cbeb","false","null","<div style=""align-items: center; display: flex; color: darkorange; font-size: 90px""><b>ø</b></div>","null","","","","forget_cue","","","","","","","","","","","","","","","",""
"html-keyboard-response","143","265003","0.0-4.0-1.0-0.5","nfppzq1ja422kwo","prime","5f323237a6342a17e390a7c8","5f60e3c0a3b16e07647b2ff9","5f646aa6a2509e026213cbeb","false","null","<span style=""color: black; font-size: 48px"">N + M</span>","null","","","","resp_prompt","","","","","","","","","","","","","","","",""
"categorize-image","144","265603","0.0-4.0-1.0-1.5","nfppzq1ja422kwo","prime","5f323237a6342a17e390a7c8","5f60e3c0a3b16e07647b2ff9","5f646aa6a2509e026213cbeb","true","594.524999964051","./Stimuli/SelectedImages/LM/LM58.bmp","83","","","","test","false","N + M","76","repetition","LM","LM58.bmp","forget","","54","3","prime1","left","","","",""
"html-keyboard-response","145","266108","0.0-4.0-1.0-2.5-0.5","nfppzq1ja422kwo","prime","5f323237a6342a17e390a7c8","5f60e3c0a3b16e07647b2ff9","5f646aa6a2509e026213cbeb","false","null","<span style=""color: red; font-size: 48px"">Error!</span>","null","","","","feedback","","","","","","","","","","","","","","","",""
"html-keyboard-response","146","268115","0.0-4.0-1.0-3.5","nfppzq1ja422kwo","prime","5f323237a6342a17e390a7c8","5f60e3c0a3b16e07647b2ff9","5f646aa6a2509e026213cbeb","false","null","<div style=""align-items: center; display: flex; color: darkorange; font-size: 90px""><b>ø</b></div>","null","","","","forget_cue","","","","","","","","","","","","","","","",""
"html-keyboard-response","147","268831","0.0-4.0-1.0-0.6","nfppzq1ja422kwo","prime","5f323237a6342a17e390a7c8","5f60e3c0a3b16e07647b2ff9","5f646aa6a2509e026213cbeb","false","null","<span style=""color: black; font-size: 48px"">N + M</span>","null","","","","resp_prompt","","","","","","","","","","","","","","","",""
"categorize-image","148","269545","0.0-4.0-1.0-1.6","nfppzq1ja422kwo","prime","5f323237a6342a17e390a7c8","5f60e3c0a3b16e07647b2ff9","5f646aa6a2509e026213cbeb","true","700.6200000178069","./Stimuli/SelectedImages/LN/LN131.bmp","76","","","","test","false","N + M","83","switch","LN","LN131.bmp","forget","","55","3","prime1","right","","","",""
"html-keyboard-response","149","270057","0.0-4.0-1.0-2.6-0.6","nfppzq1ja422kwo","prime","5f323237a6342a17e390a7c8","5f60e3c0a3b16e07647b2ff9","5f646aa6a2509e026213cbeb","false","null","<span style=""color: red; font-size: 48px"">Error!</span>","null","","","","feedback","","","","","","","","","","","","","","","",""
"html-keyboard-response","150","272064","0.0-4.0-1.0-3.6","nfppzq1ja422kwo","prime","5f323237a6342a17e390a7c8","5f60e3c0a3b16e07647b2ff9","5f646aa6a2509e026213cbeb","false","null","<div style=""align-items: center; display: flex; color: darkorange; font-size: 90px""><b>ø</b></div>","null","","","","forget_cue","","","","","","","","","","","","","","","",""
"html-keyboard-response","151","272771","0.0-4.0-1.0-0.7","nfppzq1ja422kwo","prime","5f323237a6342a17e390a7c8","5f60e3c0a3b16e07647b2ff9","5f646aa6a2509e026213cbeb","false","null","<span style=""color: black; font-size: 48px"">N + M</span>","null","","","","resp_prompt","","","","","","","","","","","","","","","",""
"categorize-image","152","273196","0.0-4.0-1.0-1.7","nfppzq1ja422kwo","prime","5f323237a6342a17e390a7c8","5f60e3c0a3b16e07647b2ff9","5f646aa6a2509e026213cbeb","true","420.23500008508563","./Stimuli/SelectedImages/LM/LM209.bmp","83","","","","test","false","N + M","76","switch","LM","LM209.bmp","remember","","56","3","prime1","left","","","",""
"html-keyboard-response","153","273711","0.0-4.0-1.0-2.7-0.7","nfppzq1ja422kwo","prime","5f323237a6342a17e390a7c8","5f60e3c0a3b16e07647b2ff9","5f646aa6a2509e026213cbeb","false","null","<span style=""color: red; font-size: 48px"">Error!</span>","null","","","","feedback","","","","","","","","","","","","","","","",""
"html-keyboard-response","154","275731","0.0-4.0-1.0-3.7","nfppzq1ja422kwo","prime","5f323237a6342a17e390a7c8","5f60e3c0a3b16e07647b2ff9","5f646aa6a2509e026213cbeb","false","null","<div style=""align-items: center; display: flex; color: dodgerblue; font-size: 90px""><b>o</b></div>","null","","","","forget_cue","","","","","","","","","","","","","","","",""
"html-keyboard-response","155","276441","0.0-4.0-1.0-0.8","nfppzq1ja422kwo","prime","5f323237a6342a17e390a7c8","5f60e3c0a3b16e07647b2ff9","5f646aa6a2509e026213cbeb","false","null","<span style=""color: black; font-size: 48px"">M + N</span>","null","","","","resp_prompt","","","","","","","","","","","","","","","",""
"categorize-image","156","276656","0.0-4.0-1.0-1.8","nfppzq1ja422kwo","prime","5f323237a6342a17e390a7c8","5f60e3c0a3b16e07647b2ff9","5f646aa6a2509e026213cbeb","true","209.705000044778","./Stimuli/SelectedImages/LM/LM59.bmp","83","","","","test","true","M + N","83","switch","LM","LM59.bmp","remember","","57","3","prime1","left","","","",""
"html-keyboard-response","157","278662","0.0-4.0-1.0-3.8","nfppzq1ja422kwo","prime","5f323237a6342a17e390a7c8","5f60e3c0a3b16e07647b2ff9","5f646aa6a2509e026213cbeb","false","null","<div style=""align-items: center; display: flex; color: dodgerblue; font-size: 90px""><b>o</b></div>","null","","","","forget_cue","","","","","","","","","","","","","","","",""
"html-keyboard-response","158","279372","0.0-4.0-1.0-0.9","nfppzq1ja422kwo","prime","5f323237a6342a17e390a7c8","5f60e3c0a3b16e07647b2ff9","5f646aa6a2509e026213cbeb","false","null","<span style=""color: black; font-size: 48px"">M + N</span>","null","","","","resp_prompt","","","","","","","","","","","","","","","",""
"categorize-image","159","280043","0.0-4.0-1.0-1.9","nfppzq1ja422kwo","prime","5f323237a6342a17e390a7c8","5f60e3c0a3b16e07647b2ff9","5f646aa6a2509e026213cbeb","true","665.379999903962","./Stimuli/SelectedImages/LN/LN150.bmp","76","","","","test","true","M + N","76","repetition","LN","LN150.bmp","forget","","58","3","prime1","right","","","",""
"html-keyboard-response","160","282047","0.0-4.0-1.0-3.9","nfppzq1ja422kwo","prime","5f323237a6342a17e390a7c8","5f60e3c0a3b16e07647b2ff9","5f646aa6a2509e026213cbeb","false","null","<div style=""align-items: center; display: flex; color: darkorange; font-size: 90px""><b>ø</b></div>","null","","","","forget_cue","","","","","","","","","","","","","","","",""
"html-keyboard-response","161","282761","0.0-4.0-1.0-0.10","nfppzq1ja422kwo","prime","5f323237a6342a17e390a7c8","5f60e3c0a3b16e07647b2ff9","5f646aa6a2509e026213cbeb","false","null","<span style=""color: black; font-size: 48px"">M + N</span>","null","","","","resp_prompt","","","","","","","","","","","","","","","",""
"categorize-image","162","283410","0.0-4.0-1.0-1.10","nfppzq1ja422kwo","prime","5f323237a6342a17e390a7c8","5f60e3c0a3b16e07647b2ff9","5f646aa6a2509e026213cbeb","true","644.109999993816","./Stimuli/SelectedImages/SM/SM200.bmp","76","","","","test","false","M + N","83","repetition","SM","SM200.bmp","forget","","59","3","prime1","right","","","",""
"html-keyboard-response","163","283927","0.0-4.0-1.0-2.10-0.10","nfppzq1ja422kwo","prime","5f323237a6342a17e390a7c8","5f60e3c0a3b16e07647b2ff9","5f646aa6a2509e026213cbeb","false","null","<span style=""color: red; font-size: 48px"">Error!</span>","null","","","","feedback","","","","","","","","","","","","","","","",""
"html-keyboard-response","164","285931","0.0-4.0-1.0-3.10","nfppzq1ja422kwo","prime","5f323237a6342a17e390a7c8","5f60e3c0a3b16e07647b2ff9","5f646aa6a2509e026213cbeb","false","null","<div style=""align-items: center; display: flex; color: darkorange; font-size: 90px""><b>ø</b></div>","null","","","","forget_cue","","","","","","","","","","","","","","","",""
"html-keyboard-response","165","286640","0.0-4.0-1.0-0.11","nfppzq1ja422kwo","prime","5f323237a6342a17e390a7c8","5f60e3c0a3b16e07647b2ff9","5f646aa6a2509e026213cbeb","false","null","<span style=""color: black; font-size: 48px"">N + M</span>","null","","","","resp_prompt","","","","","","","","","","","","","","","",""
"categorize-image","166","286716","0.0-4.0-1.0-1.11","nfppzq1ja422kwo","prime","5f323237a6342a17e390a7c8","5f60e3c0a3b16e07647b2ff9","5f646aa6a2509e026213cbeb","true","71.52499991934747","./Stimuli/SelectedImages/SN/SN182.bmp","83","","","","test","true","N + M","83","repetition","SN","SN182.bmp","remember","","60","3","prime1","left","","","",""
"html-keyboard-response","167","288727","0.0-4.0-1.0-3.11","nfppzq1ja422kwo","prime","5f323237a6342a17e390a7c8","5f60e3c0a3b16e07647b2ff9","5f646aa6a2509e026213cbeb","false","null","<div style=""align-items: center; display: flex; color: dodgerblue; font-size: 90px""><b>o</b></div>","null","","","","forget_cue","","","","","","","","","","","","","","","",""
"html-keyboard-response","168","289442","0.0-4.0-1.0-0.12","nfppzq1ja422kwo","prime","5f323237a6342a17e390a7c8","5f60e3c0a3b16e07647b2ff9","5f646aa6a2509e026213cbeb","false","null","<span style=""color: black; font-size: 48px"">N + M</span>","null","","","","resp_prompt","","","","","","","","","","","","","","","",""
"categorize-image","169","290085","0.0-4.0-1.0-1.12","nfppzq1ja422kwo","prime","5f323237a6342a17e390a7c8","5f60e3c0a3b16e07647b2ff9","5f646aa6a2509e026213cbeb","true","636.4049999974668","./Stimuli/SelectedImages/SM/SM148.bmp","76","","","","test","true","N + M","76","repetition","SM","SM148.bmp","remember","","61","3","prime1","right","","","",""
"html-keyboard-response","170","292099","0.0-4.0-1.0-3.12","nfppzq1ja422kwo","prime","5f323237a6342a17e390a7c8","5f60e3c0a3b16e07647b2ff9","5f646aa6a2509e026213cbeb","false","null","<div style=""align-items: center; display: flex; color: dodgerblue; font-size: 90px""><b>o</b></div>","null","","","","forget_cue","","","","","","","","","","","","","","","",""
"html-keyboard-response","171","292809","0.0-4.0-1.0-0.13","nfppzq1ja422kwo","prime","5f323237a6342a17e390a7c8","5f60e3c0a3b16e07647b2ff9","5f646aa6a2509e026213cbeb","false","null","<span style=""color: black; font-size: 48px"">N + M</span>","null","","","","resp_prompt","","","","","","","","","","","","","","","",""
"categorize-image","172","293579","0.0-4.0-1.0-1.13","nfppzq1ja422kwo","prime","5f323237a6342a17e390a7c8","5f60e3c0a3b16e07647b2ff9","5f646aa6a2509e026213cbeb","true","764.7700000088662","./Stimuli/SelectedImages/SM/SM195.bmp","76","","","","test","true","N + M","76","switch","SM","SM195.bmp","remember","","62","3","prime1","right","","","",""
"html-keyboard-response","173","295584","0.0-4.0-1.0-3.13","nfppzq1ja422kwo","prime","5f323237a6342a17e390a7c8","5f60e3c0a3b16e07647b2ff9","5f646aa6a2509e026213cbeb","false","null","<div style=""align-items: center; display: flex; color: dodgerblue; font-size: 90px""><b>o</b></div>","null","","","","forget_cue","","","","","","","","","","","","","","","",""
"html-keyboard-response","174","296286","0.0-4.0-1.0-0.14","nfppzq1ja422kwo","prime","5f323237a6342a17e390a7c8","5f60e3c0a3b16e07647b2ff9","5f646aa6a2509e026213cbeb","false","null","<span style=""color: black; font-size: 48px"">M + N</span>","null","","","","resp_prompt","","","","","","","","","","","","","","","",""
"categorize-image","175","296682","0.0-4.0-1.0-1.14","nfppzq1ja422kwo","prime","5f323237a6342a17e390a7c8","5f60e3c0a3b16e07647b2ff9","5f646aa6a2509e026213cbeb","true","390.8100000116974","./Stimuli/SelectedImages/LM/LM179.bmp","83","","","","test","true","M + N","83","repetition","LM","LM179.bmp","forget","","63","3","prime1","left","","","",""
"html-keyboard-response","176","298696","0.0-4.0-1.0-3.14","nfppzq1ja422kwo","prime","5f323237a6342a17e390a7c8","5f60e3c0a3b16e07647b2ff9","5f646aa6a2509e026213cbeb","false","null","<div style=""align-items: center; display: flex; color: darkorange; font-size: 90px""><b>ø</b></div>","null","","","","forget_cue","","","","","","","","","","","","","","","",""
"html-keyboard-response","177","299407","0.0-4.0-1.0-0.15","nfppzq1ja422kwo","prime","5f323237a6342a17e390a7c8","5f60e3c0a3b16e07647b2ff9","5f646aa6a2509e026213cbeb","false","null","<span style=""color: black; font-size: 48px"">M + N</span>","null","","","","resp_prompt","","","","","","","","","","","","","","","",""
"categorize-image","178","299841","0.0-4.0-1.0-1.15","nfppzq1ja422kwo","prime","5f323237a6342a17e390a7c8","5f60e3c0a3b16e07647b2ff9","5f646aa6a2509e026213cbeb","true","429.35500002931803","./Stimuli/SelectedImages/LN/LN82.bmp","83","","","","test","false","M + N","76","switch","LN","LN82.bmp","forget","","64","3","prime1","left","","","",""
"html-keyboard-response","179","300353","0.0-4.0-1.0-2.15-0.15","nfppzq1ja422kwo","prime","5f323237a6342a17e390a7c8","5f60e3c0a3b16e07647b2ff9","5f646aa6a2509e026213cbeb","false","null","<span style=""color: red; font-size: 48px"">Error!</span>","null","","","","feedback","","","","","","","","","","","","","","","",""
"html-keyboard-response","180","302369","0.0-4.0-1.0-3.15","nfppzq1ja422kwo","prime","5f323237a6342a17e390a7c8","5f60e3c0a3b16e07647b2ff9","5f646aa6a2509e026213cbeb","false","null","<div style=""align-items: center; display: flex; color: darkorange; font-size: 90px""><b>ø</b></div>","null","","","","forget_cue","","","","","","","","","","","","","","","",""
"html-keyboard-response","181","303074","0.0-4.0-1.0-0.16","nfppzq1ja422kwo","prime","5f323237a6342a17e390a7c8","5f60e3c0a3b16e07647b2ff9","5f646aa6a2509e026213cbeb","false","null","<span style=""color: black; font-size: 48px"">M + N</span>","null","","","","resp_prompt","","","","","","","","","","","","","","","",""
"categorize-image","182","303383","0.0-4.0-1.0-1.16","nfppzq1ja422kwo","prime","5f323237a6342a17e390a7c8","5f60e3c0a3b16e07647b2ff9","5f646aa6a2509e026213cbeb","true","301.83999997098","./Stimuli/SelectedImages/SM/SM108.bmp","76","","","","test","false","M + N","83","repetition","SM","SM108.bmp","remember","","65","3","prime1","right","","","",""
"html-keyboard-response","183","303895","0.0-4.0-1.0-2.16-0.16","nfppzq1ja422kwo","prime","5f323237a6342a17e390a7c8","5f60e3c0a3b16e07647b2ff9","5f646aa6a2509e026213cbeb","false","null","<span style=""color: red; font-size: 48px"">Error!</span>","null","","","","feedback","","","","","","","","","","","","","","","",""
"html-keyboard-response","184","305904","0.0-4.0-1.0-3.16","nfppzq1ja422kwo","prime","5f323237a6342a17e390a7c8","5f60e3c0a3b16e07647b2ff9","5f646aa6a2509e026213cbeb","false","null","<div style=""align-items: center; display: flex; color: dodgerblue; font-size: 90px""><b>o</b></div>","null","","","","forget_cue","","","","","","","","","","","","","","","",""
"html-keyboard-response","185","306615","0.0-4.0-1.0-0.17","nfppzq1ja422kwo","prime","5f323237a6342a17e390a7c8","5f60e3c0a3b16e07647b2ff9","5f646aa6a2509e026213cbeb","false","null","<span style=""color: black; font-size: 48px"">N + M</span>","null","","","","resp_prompt","","","","","","","","","","","","","","","",""
"categorize-image","186","307052","0.0-4.0-1.0-1.17","nfppzq1ja422kwo","prime","5f323237a6342a17e390a7c8","5f60e3c0a3b16e07647b2ff9","5f646aa6a2509e026213cbeb","true","431.6899999976158","./Stimuli/SelectedImages/LN/LN9.bmp","76","","","","test","false","N + M","83","switch","LN","LN9.bmp","forget","","66","3","prime1","right","","","",""
"html-keyboard-response","187","307561","0.0-4.0-1.0-2.17-0.17","nfppzq1ja422kwo","prime","5f323237a6342a17e390a7c8","5f60e3c0a3b16e07647b2ff9","5f646aa6a2509e026213cbeb","false","null","<span style=""color: red; font-size: 48px"">Error!</span>","null","","","","feedback","","","","","","","","","","","","","","","",""
"html-keyboard-response","188","309570","0.0-4.0-1.0-3.17","nfppzq1ja422kwo","prime","5f323237a6342a17e390a7c8","5f60e3c0a3b16e07647b2ff9","5f646aa6a2509e026213cbeb","false","null","<div style=""align-items: center; display: flex; color: darkorange; font-size: 90px""><b>ø</b></div>","null","","","","forget_cue","","","","","","","","","","","","","","","",""
"html-keyboard-response","189","310282","0.0-4.0-1.0-0.18","nfppzq1ja422kwo","prime","5f323237a6342a17e390a7c8","5f60e3c0a3b16e07647b2ff9","5f646aa6a2509e026213cbeb","false","null","<span style=""color: black; font-size: 48px"">M + N</span>","null","","","","resp_prompt","","","","","","","","","","","","","","","",""
"categorize-image","190","310592","0.0-4.0-1.0-1.18","nfppzq1ja422kwo","prime","5f323237a6342a17e390a7c8","5f60e3c0a3b16e07647b2ff9","5f646aa6a2509e026213cbeb","true","304.1599999414757","./Stimuli/SelectedImages/SN/SN93.bmp","76","","","","test","true","M + N","76","switch","SN","SN93.bmp","remember","","67","3","prime1","right","","","",""
"html-keyboard-response","191","312604","0.0-4.0-1.0-3.18","nfppzq1ja422kwo","prime","5f323237a6342a17e390a7c8","5f60e3c0a3b16e07647b2ff9","5f646aa6a2509e026213cbeb","false","null","<div style=""align-items: center; display: flex; color: dodgerblue; font-size: 90px""><b>o</b></div>","null","","","","forget_cue","","","","","","","","","","","","","","","",""
"html-keyboard-response","192","313315","0.0-4.0-1.0-0.19","nfppzq1ja422kwo","prime","5f323237a6342a17e390a7c8","5f60e3c0a3b16e07647b2ff9","5f646aa6a2509e026213cbeb","false","null","<span style=""color: black; font-size: 48px"">N + M</span>","null","","","","resp_prompt","","","","","","","","","","","","","","","",""
"categorize-image","193","313606","0.0-4.0-1.0-1.19","nfppzq1ja422kwo","prime","5f323237a6342a17e390a7c8","5f60e3c0a3b16e07647b2ff9","5f646aa6a2509e026213cbeb","true","285.70999996736646","./Stimuli/SelectedImages/LN/LN149.bmp","83","","","","test","true","N + M","83","repetition","LN","LN149.bmp","forget","","68","3","prime1","left","","","",""
"html-keyboard-response","194","315614","0.0-4.0-1.0-3.19","nfppzq1ja422kwo","prime","5f323237a6342a17e390a7c8","5f60e3c0a3b16e07647b2ff9","5f646aa6a2509e026213cbeb","false","null","<div style=""align-items: center; display: flex; color: darkorange; font-size: 90px""><b>ø</b></div>","null","","","","forget_cue","","","","","","","","","","","","","","","",""
"html-keyboard-response","195","316316","0.0-4.0-1.0-0.20","nfppzq1ja422kwo","prime","5f323237a6342a17e390a7c8","5f60e3c0a3b16e07647b2ff9","5f646aa6a2509e026213cbeb","false","null","<span style=""color: black; font-size: 48px"">N + M</span>","null","","","","resp_prompt","","","","","","","","","","","","","","","",""
"categorize-image","196","316806","0.0-4.0-1.0-1.20","nfppzq1ja422kwo","prime","5f323237a6342a17e390a7c8","5f60e3c0a3b16e07647b2ff9","5f646aa6a2509e026213cbeb","true","484.2000000644475","./Stimuli/SelectedImages/SM/SM74.bmp","76","","","","test","true","N + M","76","repetition","SM","SM74.bmp","forget","","69","3","prime1","right","","","",""
"html-keyboard-response","197","318819","0.0-4.0-1.0-3.20","nfppzq1ja422kwo","prime","5f323237a6342a17e390a7c8","5f60e3c0a3b16e07647b2ff9","5f646aa6a2509e026213cbeb","false","null","<div style=""align-items: center; display: flex; color: darkorange; font-size: 90px""><b>ø</b></div>","null","","","","forget_cue","","","","","","","","","","","","","","","",""
"html-keyboard-response","198","319521","0.0-4.0-1.0-0.21","nfppzq1ja422kwo","prime","5f323237a6342a17e390a7c8","5f60e3c0a3b16e07647b2ff9","5f646aa6a2509e026213cbeb","false","null","<span style=""color: black; font-size: 48px"">N + M</span>","null","","","","resp_prompt","","","","","","","","","","","","","","","",""
"categorize-image","199","319789","0.0-4.0-1.0-1.21","nfppzq1ja422kwo","prime","5f323237a6342a17e390a7c8","5f60e3c0a3b16e07647b2ff9","5f646aa6a2509e026213cbeb","true","262.13500008452684","./Stimuli/SelectedImages/SN/SN240.bmp","83","","","","test","true","N + M","83","switch","SN","SN240.bmp","forget","","70","3","prime1","left","","","",""
"html-keyboard-response","200","321803","0.0-4.0-1.0-3.21","nfppzq1ja422kwo","prime","5f323237a6342a17e390a7c8","5f60e3c0a3b16e07647b2ff9","5f646aa6a2509e026213cbeb","false","null","<div style=""align-items: center; display: flex; color: darkorange; font-size: 90px""><b>ø</b></div>","null","","","","forget_cue","","","","","","","","","","","","","","","",""
"html-keyboard-response","201","322515","0.0-4.0-1.0-0.22","nfppzq1ja422kwo","prime","5f323237a6342a17e390a7c8","5f60e3c0a3b16e07647b2ff9","5f646aa6a2509e026213cbeb","false","null","<span style=""color: black; font-size: 48px"">N + M</span>","null","","","","resp_prompt","","","","","","","","","","","","","","","",""
"categorize-image","202","322929","0.0-4.0-1.0-1.22","nfppzq1ja422kwo","prime","5f323237a6342a17e390a7c8","5f60e3c0a3b16e07647b2ff9","5f646aa6a2509e026213cbeb","true","409.11999996751547","./Stimuli/SelectedImages/SM/SM78.bmp","76","","","","test","true","N + M","76","switch","SM","SM78.bmp","remember","","71","3","prime1","right","","","",""
"html-keyboard-response","203","324933","0.0-4.0-1.0-3.22","nfppzq1ja422kwo","prime","5f323237a6342a17e390a7c8","5f60e3c0a3b16e07647b2ff9","5f646aa6a2509e026213cbeb","false","null","<div style=""align-items: center; display: flex; color: dodgerblue; font-size: 90px""><b>o</b></div>","null","","","","forget_cue","","","","","","","","","","","","","","","",""
"html-keyboard-response","204","325638","0.0-4.0-1.0-0.23","nfppzq1ja422kwo","prime","5f323237a6342a17e390a7c8","5f60e3c0a3b16e07647b2ff9","5f646aa6a2509e026213cbeb","false","null","<span style=""color: black; font-size: 48px"">M + N</span>","null","","","","resp_prompt","","","","","","","","","","","","","","","",""
"categorize-image","205","325993","0.0-4.0-1.0-1.23","nfppzq1ja422kwo","prime","5f323237a6342a17e390a7c8","5f60e3c0a3b16e07647b2ff9","5f646aa6a2509e026213cbeb","true","348.8150000339374","./Stimuli/SelectedImages/SM/SM184.bmp","83","","","","test","true","M + N","83","switch","SM","SM184.bmp","remember","","72","3","prime1","left","","","",""
"html-keyboard-response","206","328003","0.0-4.0-1.0-3.23","nfppzq1ja422kwo","prime","5f323237a6342a17e390a7c8","5f60e3c0a3b16e07647b2ff9","5f646aa6a2509e026213cbeb","false","null","<div style=""align-items: center; display: flex; color: dodgerblue; font-size: 90px""><b>o</b></div>","null","","","","forget_cue","","","","","","","","","","","","","","","",""
"html-keyboard-response","207","328708","0.0-4.0-1.0-0.24","nfppzq1ja422kwo","prime","5f323237a6342a17e390a7c8","5f60e3c0a3b16e07647b2ff9","5f646aa6a2509e026213cbeb","false","null","<span style=""color: black; font-size: 48px"">M + N</span>","null","","","","resp_prompt","","","","","","","","","","","","","","","",""
"categorize-image","208","329353","0.0-4.0-1.0-1.24","nfppzq1ja422kwo","prime","5f323237a6342a17e390a7c8","5f60e3c0a3b16e07647b2ff9","5f646aa6a2509e026213cbeb","true","640.1749999495223","./Stimuli/SelectedImages/SN/SN60.bmp","76","","","","test","true","M + N","76","repetition","SN","SN60.bmp","remember","","73","3","prime1","right","","","",""
"html-keyboard-response","209","331366","0.0-4.0-1.0-3.24","nfppzq1ja422kwo","prime","5f323237a6342a17e390a7c8","5f60e3c0a3b16e07647b2ff9","5f646aa6a2509e026213cbeb","false","null","<div style=""align-items: center; display: flex; color: dodgerblue; font-size: 90px""><b>o</b></div>","null","","","","forget_cue","","","","","","","","","","","","","","","",""
"html-keyboard-response","210","332074","0.0-4.0-1.0-0.25","nfppzq1ja422kwo","prime","5f323237a6342a17e390a7c8","5f60e3c0a3b16e07647b2ff9","5f646aa6a2509e026213cbeb","false","null","<span style=""color: black; font-size: 48px"">M + N</span>","null","","","","resp_prompt","","","","","","","","","","","","","","","",""
"categorize-image","211","332322","0.0-4.0-1.0-1.25","nfppzq1ja422kwo","prime","5f323237a6342a17e390a7c8","5f60e3c0a3b16e07647b2ff9","5f646aa6a2509e026213cbeb","true","242.90000007022172","./Stimuli/SelectedImages/LN/LN128.bmp","76","","","","test","true","M + N","76","repetition","LN","LN128.bmp","remember","","74","3","prime1","right","","","",""
"html-keyboard-response","212","334331","0.0-4.0-1.0-3.25","nfppzq1ja422kwo","prime","5f323237a6342a17e390a7c8","5f60e3c0a3b16e07647b2ff9","5f646aa6a2509e026213cbeb","false","null","<div style=""align-items: center; display: flex; color: dodgerblue; font-size: 90px""><b>o</b></div>","null","","","","forget_cue","","","","","","","","","","","","","","","",""
"html-keyboard-response","213","335039","0.0-4.0-1.0-0.26","nfppzq1ja422kwo","prime","5f323237a6342a17e390a7c8","5f60e3c0a3b16e07647b2ff9","5f646aa6a2509e026213cbeb","false","null","<span style=""color: black; font-size: 48px"">M + N</span>","null","","","","resp_prompt","","","","","","","","","","","","","","","",""
"categorize-image","214","335246","0.0-4.0-1.0-1.26","nfppzq1ja422kwo","prime","5f323237a6342a17e390a7c8","5f60e3c0a3b16e07647b2ff9","5f646aa6a2509e026213cbeb","true","202.12500006891787","./Stimuli/SelectedImages/SN/SN181.bmp","83","","","","test","false","M + N","76","switch","SN","SN181.bmp","forget","","75","3","prime1","left","","","",""
"html-keyboard-response","215","335759","0.0-4.0-1.0-2.26-0.26","nfppzq1ja422kwo","prime","5f323237a6342a17e390a7c8","5f60e3c0a3b16e07647b2ff9","5f646aa6a2509e026213cbeb","false","null","<span style=""color: red; font-size: 48px"">Error!</span>","null","","","","feedback","","","","","","","","","","","","","","","",""
"html-keyboard-response","216","337768","0.0-4.0-1.0-3.26","nfppzq1ja422kwo","prime","5f323237a6342a17e390a7c8","5f60e3c0a3b16e07647b2ff9","5f646aa6a2509e026213cbeb","false","null","<div style=""align-items: center; display: flex; color: darkorange; font-size: 90px""><b>ø</b></div>","null","","","","forget_cue","","","","","","","","","","","","","","","",""
"html-keyboard-response","217","338481","0.0-4.0-1.0-0.27","nfppzq1ja422kwo","prime","5f323237a6342a17e390a7c8","5f60e3c0a3b16e07647b2ff9","5f646aa6a2509e026213cbeb","false","null","<span style=""color: black; font-size: 48px"">M + N</span>","null","","","","resp_prompt","","","","","","","","","","","","","","","",""
"categorize-image","218","338847","0.0-4.0-1.0-1.27","nfppzq1ja422kwo","prime","5f323237a6342a17e390a7c8","5f60e3c0a3b16e07647b2ff9","5f646aa6a2509e026213cbeb","true","359.3399999663234","./Stimuli/SelectedImages/SM/SM213.bmp","83","","","","test","true","M + N","83","switch","SM","SM213.bmp","forget","","76","3","prime1","left","","","",""
"html-keyboard-response","219","340858","0.0-4.0-1.0-3.27","nfppzq1ja422kwo","prime","5f323237a6342a17e390a7c8","5f60e3c0a3b16e07647b2ff9","5f646aa6a2509e026213cbeb","false","null","<div style=""align-items: center; display: flex; color: darkorange; font-size: 90px""><b>ø</b></div>","null","","","","forget_cue","","","","","","","","","","","","","","","",""
"html-keyboard-response","220","341565","0.0-4.0-1.0-0.28","nfppzq1ja422kwo","prime","5f323237a6342a17e390a7c8","5f60e3c0a3b16e07647b2ff9","5f646aa6a2509e026213cbeb","false","null","<span style=""color: black; font-size: 48px"">N + M</span>","null","","","","resp_prompt","","","","","","","","","","","","","","","",""
"categorize-image","221","342276","0.0-4.0-1.0-1.28","nfppzq1ja422kwo","prime","5f323237a6342a17e390a7c8","5f60e3c0a3b16e07647b2ff9","5f646aa6a2509e026213cbeb","true","707.5400000903755","./Stimuli/SelectedImages/SM/SM76.bmp","83","","","","test","false","N + M","76","switch","SM","SM76.bmp","forget","","77","3","prime1","left","","","",""
"html-keyboard-response","222","342785","0.0-4.0-1.0-2.28-0.28","nfppzq1ja422kwo","prime","5f323237a6342a17e390a7c8","5f60e3c0a3b16e07647b2ff9","5f646aa6a2509e026213cbeb","false","null","<span style=""color: red; font-size: 48px"">Error!</span>","null","","","","feedback","","","","","","","","","","","","","","","",""
"html-keyboard-response","223","344794","0.0-4.0-1.0-3.28","nfppzq1ja422kwo","prime","5f323237a6342a17e390a7c8","5f60e3c0a3b16e07647b2ff9","5f646aa6a2509e026213cbeb","false","null","<div style=""align-items: center; display: flex; color: darkorange; font-size: 90px""><b>ø</b></div>","null","","","","forget_cue","","","","","","","","","","","","","","","",""
"html-keyboard-response","224","345511","0.0-4.0-1.0-0.29","nfppzq1ja422kwo","prime","5f323237a6342a17e390a7c8","5f60e3c0a3b16e07647b2ff9","5f646aa6a2509e026213cbeb","false","null","<span style=""color: black; font-size: 48px"">N + M</span>","null","","","","resp_prompt","","","","","","","","","","","","","","","",""
"categorize-image","225","345803","0.0-4.0-1.0-1.29","nfppzq1ja422kwo","prime","5f323237a6342a17e390a7c8","5f60e3c0a3b16e07647b2ff9","5f646aa6a2509e026213cbeb","true","286.22000000905246","./Stimuli/SelectedImages/SN/SN49.bmp","76","","","","test","false","N + M","83","repetition","SN","SN49.bmp","forget","","78","3","prime1","right","","","",""
"html-keyboard-response","226","346312","0.0-4.0-1.0-2.29-0.29","nfppzq1ja422kwo","prime","5f323237a6342a17e390a7c8","5f60e3c0a3b16e07647b2ff9","5f646aa6a2509e026213cbeb","false","null","<span style=""color: red; font-size: 48px"">Error!</span>","null","","","","feedback","","","","","","","","","","","","","","","",""
"html-keyboard-response","227","348333","0.0-4.0-1.0-3.29","nfppzq1ja422kwo","prime","5f323237a6342a17e390a7c8","5f60e3c0a3b16e07647b2ff9","5f646aa6a2509e026213cbeb","false","null","<div style=""align-items: center; display: flex; color: darkorange; font-size: 90px""><b>ø</b></div>","null","","","","forget_cue","","","","","","","","","","","","","","","",""
"html-keyboard-response","228","349039","0.0-4.0-1.0-0.30","nfppzq1ja422kwo","prime","5f323237a6342a17e390a7c8","5f60e3c0a3b16e07647b2ff9","5f646aa6a2509e026213cbeb","false","null","<span style=""color: black; font-size: 48px"">N + M</span>","null","","","","resp_prompt","","","","","","","","","","","","","","","",""
"categorize-image","229","349508","0.0-4.0-1.0-1.30","nfppzq1ja422kwo","prime","5f323237a6342a17e390a7c8","5f60e3c0a3b16e07647b2ff9","5f646aa6a2509e026213cbeb","true","463.49500003270805","./Stimuli/SelectedImages/SM/SM128.bmp","76","","","","test","true","N + M","76","repetition","SM","SM128.bmp","forget","","79","3","prime1","right","","","",""
"html-keyboard-response","230","351512","0.0-4.0-1.0-3.30","nfppzq1ja422kwo","prime","5f323237a6342a17e390a7c8","5f60e3c0a3b16e07647b2ff9","5f646aa6a2509e026213cbeb","false","null","<div style=""align-items: center; display: flex; color: darkorange; font-size: 90px""><b>ø</b></div>","null","","","","forget_cue","","","","","","","","","","","","","","","",""
"html-keyboard-response","231","352242","0.0-4.0-1.0-0.31","nfppzq1ja422kwo","prime","5f323237a6342a17e390a7c8","5f60e3c0a3b16e07647b2ff9","5f646aa6a2509e026213cbeb","false","null","<span style=""color: black; font-size: 48px"">M + N</span>","null","","","","resp_prompt","","","","","","","","","","","","","","","",""
"categorize-image","232","352824","0.0-4.0-1.0-1.31","nfppzq1ja422kwo","prime","5f323237a6342a17e390a7c8","5f60e3c0a3b16e07647b2ff9","5f646aa6a2509e026213cbeb","true","574.6600000420585","./Stimuli/SelectedImages/SM/SM205.bmp","76","","","","test","false","M + N","83","repetition","SM","SM205.bmp","remember","","80","3","prime1","right","","","",""
"html-keyboard-response","233","353342","0.0-4.0-1.0-2.31-0.31","nfppzq1ja422kwo","prime","5f323237a6342a17e390a7c8","5f60e3c0a3b16e07647b2ff9","5f646aa6a2509e026213cbeb","false","null","<span style=""color: red; font-size: 48px"">Error!</span>","null","","","","feedback","","","","","","","","","","","","","","","",""
"html-keyboard-response","234","355367","0.0-4.0-1.0-3.31","nfppzq1ja422kwo","prime","5f323237a6342a17e390a7c8","5f60e3c0a3b16e07647b2ff9","5f646aa6a2509e026213cbeb","false","null","<div style=""align-items: center; display: flex; color: dodgerblue; font-size: 90px""><b>o</b></div>","null","","","","forget_cue","","","","","","","","","","","","","","","",""
"html-keyboard-response","235","356077","0.0-4.0-1.0-0.32","nfppzq1ja422kwo","prime","5f323237a6342a17e390a7c8","5f60e3c0a3b16e07647b2ff9","5f646aa6a2509e026213cbeb","false","null","<span style=""color: black; font-size: 48px"">M + N</span>","null","","","","resp_prompt","","","","","","","","","","","","","","","",""
"categorize-image","236","356280","0.0-4.0-1.0-1.32","nfppzq1ja422kwo","prime","5f323237a6342a17e390a7c8","5f60e3c0a3b16e07647b2ff9","5f646aa6a2509e026213cbeb","true","196.5599999530241","./Stimuli/SelectedImages/LM/LM150.bmp","76","","","","test","false","M + N","83","repetition","LM","LM150.bmp","remember","","81","3","prime1","right","","","",""
"html-keyboard-response","237","356793","0.0-4.0-1.0-2.32-0.32","nfppzq1ja422kwo","prime","5f323237a6342a17e390a7c8","5f60e3c0a3b16e07647b2ff9","5f646aa6a2509e026213cbeb","false","null","<span style=""color: red; font-size: 48px"">Error!</span>","null","","","","feedback","","","","","","","","","","","","","","","",""
"html-keyboard-response","238","358806","0.0-4.0-1.0-3.32","nfppzq1ja422kwo","prime","5f323237a6342a17e390a7c8","5f60e3c0a3b16e07647b2ff9","5f646aa6a2509e026213cbeb","false","null","<div style=""align-items: center; display: flex; color: dodgerblue; font-size: 90px""><b>o</b></div>","null","","","","forget_cue","","","","","","","","","","","","","","","",""
"html-keyboard-response","239","359521","0.0-4.0-1.0-0.33","nfppzq1ja422kwo","prime","5f323237a6342a17e390a7c8","5f60e3c0a3b16e07647b2ff9","5f646aa6a2509e026213cbeb","false","null","<span style=""color: black; font-size: 48px"">M + N</span>","null","","","","resp_prompt","","","","","","","","","","","","","","","",""
"categorize-image","240","359611","0.0-4.0-1.0-1.33","nfppzq1ja422kwo","prime","5f323237a6342a17e390a7c8","5f60e3c0a3b16e07647b2ff9","5f646aa6a2509e026213cbeb","true","84.9499999312684","./Stimuli/SelectedImages/LM/LM57.bmp","83","","","","test","true","M + N","83","switch","LM","LM57.bmp","remember","","82","3","prime1","left","","","",""
"html-keyboard-response","241","361614","0.0-4.0-1.0-3.33","nfppzq1ja422kwo","prime","5f323237a6342a17e390a7c8","5f60e3c0a3b16e07647b2ff9","5f646aa6a2509e026213cbeb","false","null","<div style=""align-items: center; display: flex; color: dodgerblue; font-size: 90px""><b>o</b></div>","null","","","","forget_cue","","","","","","","","","","","","","","","",""
"html-keyboard-response","242","362322","0.0-4.0-1.0-0.34","nfppzq1ja422kwo","prime","5f323237a6342a17e390a7c8","5f60e3c0a3b16e07647b2ff9","5f646aa6a2509e026213cbeb","false","null","<span style=""color: black; font-size: 48px"">N + M</span>","null","","","","resp_prompt","","","","","","","","","","","","","","","",""
"categorize-image","243","362999","0.0-4.0-1.0-1.34","nfppzq1ja422kwo","prime","5f323237a6342a17e390a7c8","5f60e3c0a3b16e07647b2ff9","5f646aa6a2509e026213cbeb","true","669.9350000126287","./Stimuli/SelectedImages/LM/LM235.bmp","76","","","","test","true","N + M","76","switch","LM","LM235.bmp","forget","","83","3","prime1","right","","","",""
"html-keyboard-response","244","365001","0.0-4.0-1.0-3.34","nfppzq1ja422kwo","prime","5f323237a6342a17e390a7c8","5f60e3c0a3b16e07647b2ff9","5f646aa6a2509e026213cbeb","false","null","<div style=""align-items: center; display: flex; color: darkorange; font-size: 90px""><b>ø</b></div>","null","","","","forget_cue","","","","","","","","","","","","","","","",""
"html-keyboard-response","245","365711","0.0-4.0-1.0-0.35","nfppzq1ja422kwo","prime","5f323237a6342a17e390a7c8","5f60e3c0a3b16e07647b2ff9","5f646aa6a2509e026213cbeb","false","null","<span style=""color: black; font-size: 48px"">N + M</span>","null","","","","resp_prompt","","","","","","","","","","","","","","","",""
"categorize-image","246","366278","0.0-4.0-1.0-1.35","nfppzq1ja422kwo","prime","5f323237a6342a17e390a7c8","5f60e3c0a3b16e07647b2ff9","5f646aa6a2509e026213cbeb","true","562.7800000365824","./Stimuli/SelectedImages/LM/LM75.bmp","83","","","","test","false","N + M","76","switch","LM","LM75.bmp","remember","","84","3","prime1","left","","","",""
"html-keyboard-response","247","366788","0.0-4.0-1.0-2.35-0.35","nfppzq1ja422kwo","prime","5f323237a6342a17e390a7c8","5f60e3c0a3b16e07647b2ff9","5f646aa6a2509e026213cbeb","false","null","<span style=""color: red; font-size: 48px"">Error!</span>","null","","","","feedback","","","","","","","","","","","","","","","",""
"html-keyboard-response","248","368806","0.0-4.0-1.0-3.35","nfppzq1ja422kwo","prime","5f323237a6342a17e390a7c8","5f60e3c0a3b16e07647b2ff9","5f646aa6a2509e026213cbeb","false","null","<div style=""align-items: center; display: flex; color: dodgerblue; font-size: 90px""><b>o</b></div>","null","","","","forget_cue","","","","","","","","","","","","","","","",""
"html-keyboard-response","249","369523","0.0-4.0-1.0-0.36","nfppzq1ja422kwo","prime","5f323237a6342a17e390a7c8","5f60e3c0a3b16e07647b2ff9","5f646aa6a2509e026213cbeb","false","null","<span style=""color: black; font-size: 48px"">M + N</span>","null","","","","resp_prompt","","","","","","","","","","","","","","","",""
"categorize-image","250","369775","0.0-4.0-1.0-1.36","nfppzq1ja422kwo","prime","5f323237a6342a17e390a7c8","5f60e3c0a3b16e07647b2ff9","5f646aa6a2509e026213cbeb","true","247.46500002220273","./Stimuli/SelectedImages/LN/LN13.bmp","76","","","","test","true","M + N","76","switch","LN","LN13.bmp","remember","","85","3","prime1","right","","","",""
"html-keyboard-response","251","371788","0.0-4.0-1.0-3.36","nfppzq1ja422kwo","prime","5f323237a6342a17e390a7c8","5f60e3c0a3b16e07647b2ff9","5f646aa6a2509e026213cbeb","false","null","<div style=""align-items: center; display: flex; color: dodgerblue; font-size: 90px""><b>o</b></div>","null","","","","forget_cue","","","","","","","","","","","","","","","",""
"html-keyboard-response","252","372492","0.0-4.0-1.0-0.37","nfppzq1ja422kwo","prime","5f323237a6342a17e390a7c8","5f60e3c0a3b16e07647b2ff9","5f646aa6a2509e026213cbeb","false","null","<span style=""color: black; font-size: 48px"">M + N</span>","null","","","","resp_prompt","","","","","","","","","","","","","","","",""
"categorize-image","253","372989","0.0-4.0-1.0-1.37","nfppzq1ja422kwo","prime","5f323237a6342a17e390a7c8","5f60e3c0a3b16e07647b2ff9","5f646aa6a2509e026213cbeb","true","491.27999995835125","./Stimuli/SelectedImages/SM/SM207.bmp","83","","","","test","true","M + N","83","repetition","SM","SM207.bmp","forget","","86","3","prime1","left","","","",""
