"trial_type","trial_index","time_elapsed","internal_node_id","subject","exp_part","prolific_PID","study_ID","session_ID","use","rt","stimulus","key_press","button_pressed","responses","question_order","trial_part","correct","resp_map","correct_resp","probe_condition","category","image","forget_condition","list","trial_num","block_num","block","response","test_part","n_span","sequence","num_spaces"
"pavlovia","0","10","0.0-0.0","o9ovycd47qx7076","","5ebb0f6aff8da30d1f29dc29","5f60e3c0a3b16e07647b2ff9","5f60ef2ada80430172c9fd33","false","","","","","","","","","","","","","","","","","","","","","","",""
"html-keyboard-response","1","15177","0.0-1.0-0.0-0.0","o9ovycd47qx7076","welcome","5ebb0f6aff8da30d1f29dc29","5f60e3c0a3b16e07647b2ff9","5f60ef2ada80430172c9fd33","false","15162.159999832511","<div align=left>Dear participant, <br> thank you for participating in an online study of the Cognition, Action, and Sustainability Unit of the University of Freiburg! <br> <br>The aim of this study is to examine our ability to remember previously learned information. <br>Our goal is to find out, whether our memory improves, when we only remember information that is relevant to us. <br>The experiment will take about 35 minutes to complete. <br> <br>Please, note that you can only participate in this study if you are using a device with a keyboard (PC, Laptop etc.) <br>and not if you are using a mobile device such as a tablet or smartphone.<br> <br>Press 'SPACE' to proceed to the experiment. </div>","32","","","","","","","","","","","","","","","","","","","",""
"html-keyboard-response","2","38236","0.0-1.0-0.0-1.0","o9ovycd47qx7076","welcome","5ebb0f6aff8da30d1f29dc29","5f60e3c0a3b16e07647b2ff9","5f60ef2ada80430172c9fd33","false","23055.68500002846","<div align=left><strong> Time Course of this experiment: </strong> <br><br> <strong> 1.</strong>  First, please fill in some information regarding your demographic data. <br><br> <strong> 2.</strong>  Next, your task will be to classify everyday objects. <br>In addition, you will be asked to remember certain objects and recall them later. <br>Working on these tasks requires your undivided attention and concentration.<br>It is therefore essential that you eliminate any sources of distraction in your  <br>environment and ensure that you will not be disturbed. <br><br><strong> 3.</strong>  At the end of the experiment, you will be asked to answer a few additional questions. <br> <br><strong> Important:</strong> After finishing the experiment, only close the browser window <br> by clicking on the 'end the experiment'-button when you are asked to do so. <br>Closing the browser window prematurely will make the allocation of your participation credit impossible. <br><br> Press 'SPACE' to start the experiment. </div>","32","","","","","","","","","","","","","","","","","","","",""
"html-button-response","3","121492","0.0-1.0-0.0-2.0","o9ovycd47qx7076","welcome","5ebb0f6aff8da30d1f29dc29","5f60e3c0a3b16e07647b2ff9","5f60ef2ada80430172c9fd33","true","83246.51000020094","<div align=left><strong> Informed consent </strong>  <br>The aim of our research is to better understand human behavior and mental processes. <br>In the following study your behavior (e.g. choices, reaction times) will be studied. <br> <br><strong> Voluntariness and Anonymity </strong> <br>Your participation in this study is  <strong> voluntary</strong>.<br>You may withdraw your consent to participate at any time without providing a reason for doing so and without fear of prejudice. <br><br>As no personal data will be collected, <strong>your data and your person cannot be connected after data collection</strong> – the data-set is anonymous. <br>Respectively, deletion of your data will not be possible after data collection has been completed, as we cannot retrace your data-set.<br>The results and anonymized data collected in this study will be published as a scientific publication. <br>This will happen in an <strong>anonymized format</strong>, so that no data can be traced back to a specific person. <br> <br>The anonymized data of this study will be made available to other researchers and/or in a data archive on the Internet as a means of transparency and to enable subsequent re-use. By doing so, this study follows the recommendations of the Deutsche Forschungsgemeinschaft (DFG, German Research Foundation) and Deutsche Gesellschaft für Psychologie (DGPS, German Psychological Society) regarding quality assurance in research.<br>If you have any questions now or after the experiment, please contact our team (experiments@cs.uni-freiburg.de).<br><br><br>I hereby declare, that I understand the above described conditions of participation and I agree to participate under these conditions. <br><br> </div>","","0","","","","","","","","","","","","","","","","","","",""
"html-keyboard-response","4","148766","0.0-1.0-0.0-3.0","o9ovycd47qx7076","welcome","5ebb0f6aff8da30d1f29dc29","5f60e3c0a3b16e07647b2ff9","5f60ef2ada80430172c9fd33","false","27264.12499998696","<div align=left><strong> General information concerning the experiment </strong>  <br> <br>Please follow the instructions:<ol> <li><strong> Do not leave this tab (your browser window) during the experiment and do not reload this tab! </strong>  <br>If you do switch tabs/windows during the experiment (to check your mail or visit another website, for example), <br>the experiment will end automatically and you will <strong>not receive credit</strong> for your participation. <br>Repeated participation or resumption of the experiment is impossible.</li> <br><li>Please close all other programs for the duration of your participation. </li> <br><li>Please mute or turn off your phone and put it out of your reach. </li> <br><li>Please also take off any disturbing accessories (such as wristwatches, bracelets, etc.). </li> <br><li>If you have music playing in the background, please turn it off now. </li> <br></ol>Thank you! <br>Press 'SPACE' to continue. </div>","32","","","","","","","","","","","","","","","","","","","",""
"survey-text","5","153396","0.0-1.0-1.0-0.0","o9ovycd47qx7076","demographics","5ebb0f6aff8da30d1f29dc29","5f60e3c0a3b16e07647b2ff9","5f60ef2ada80430172c9fd33","true","4608.71999990195","","","","{""age"":""20""}","","","","","","","","","","","","","","","","","",""
"survey-multi-choice","6","170513","0.0-1.0-1.0-1.0","o9ovycd47qx7076","demographics","5ebb0f6aff8da30d1f29dc29","5f60e3c0a3b16e07647b2ff9","5f60ef2ada80430172c9fd33","true","17104.445000179112","","","","{""gender"":""male"",""school"":""high school"",""education"":""Still in training/ university""}","[0,1,2]","","","","","","","","","","","","","","","","",""
"survey-text","7","190857","0.0-1.0-1.0-2.0-0.0","o9ovycd47qx7076","demographics","5ebb0f6aff8da30d1f29dc29","5f60e3c0a3b16e07647b2ff9","5f60ef2ada80430172c9fd33","true","20275.949999922886","","","","{""education_text"":""Bachelor of Arts ""}","","","","","","","","","","","","","","","","","",""
"html-keyboard-response","8","206190","0.0-1.0-2.0","o9ovycd47qx7076","instructions","5ebb0f6aff8da30d1f29dc29","5f60e3c0a3b16e07647b2ff9","5f60ef2ada80430172c9fd33","false","15325.20499988459","<div align=left> The experiment is now about to start: <br> <br>In the following part, you will be presented pictures of everyday objects. <br>Your first task is to <strong>classify these objects. </strong> <br> <br> You will classify them either as mechanical or non-mechanical objects. <br> <br>Objects that include any kind of technical mechanism (for example, wheels, switches, levers, <br> electronic components) fall under the category of <strong>mechanical</strong> objects. <br>Only objects without any kind of technical mechanism should be classified as <strong>non-mechanical</strong>. <br><br>Press 'SPACE' to continue. </div>","32","","","","","","","","","","","","","","","","","","","",""
"html-keyboard-response","9","275340","0.0-2.0-0.0","o9ovycd47qx7076","instructions","5ebb0f6aff8da30d1f29dc29","5f60e3c0a3b16e07647b2ff9","5f60ef2ada80430172c9fd33","false","69146.17999992333","<div align=justify>You will classify the objects using the <strong>'S'</strong> and the <strong>'L'</strong> keys on your keyboard.<br>For doing so, please place your <strong>left index finger</strong> on the <strong>'S'</strong> key and place your <strong>right index finger</strong> on the <strong>'L'</strong> key. <br><br> Each trial starts with an instruction, indicating which key ('S'/'L') you need to press to classify <br>the object as mechanical (letter M) or non-mechanical (letter N).<br>The instruction <strong>M + N</strong> indicates that, in the current trial, by pressing the left key ('S') you classify the displayed object as mechanical (M) <br> and by pressing the right key ('L') you classify the object as non-mechanical (N). <br>The instruction <strong>N + M</strong> on the other hand indicates that by pressing the left key ('S') you classify the displayed object as non-mechanical (N) <br> and by pressing the right key ('L') you classify the object as mechanical (M). <br><br>Please press the key corresponding to the correct classification as fast as possible as soon as the object is displayed and try to avoid making mistakes.<br>If you do not respond within a 2 second window, a corresponding feedback will be displayed and the next trial will start.<br> The experiment is divided into multiple blocks to give you the opportunity to take a break after each block. <br>First, you can now practice this task. <br><br>Please place your <strong>LEFT INDEX FINGER</strong> on the 'S' key and your <strong>RIGHT INDEX FINGER</strong> on the 'L' key now. <br><br>Press SPACE to continue.</div>","32","","","","","","","","","","","","","","","","","","","",""
"html-keyboard-response","10","284529","0.0-2.0-1.0","o9ovycd47qx7076","instructions","5ebb0f6aff8da30d1f29dc29","5f60e3c0a3b16e07647b2ff9","5f60ef2ada80430172c9fd33","false","9184.210000094026","<div align=left> You will now have time to practice this task.<br><br>Remember: <br> <br><li>Please place your index fingers on the <strong>'S'</strong> and <strong>'L'</strong> keys <br>to respond as fast and accurately as possible.</li><li>Every picture can be classified as either mechanical or non-mechanical.</li><li>If you do not respond in time or commit an error, you will receive a corresponding feedback. </li><li> Please try to respond as <strong> fast </strong> and as <strong> accurately as possible </strong> .<br><li>To ensure optimal results, please minimize distractions and stay focused. </li><br><br>Press SPACE to continue.</div>","32","","","","","","","","","","","","","","","","","","","",""
"html-keyboard-response","11","285239","0.0-2.0-2.0-0.0","o9ovycd47qx7076","practice_no_cue","5ebb0f6aff8da30d1f29dc29","5f60e3c0a3b16e07647b2ff9","5f60ef2ada80430172c9fd33","false","null","<span style=""color: black; font-size: 48px"">M + N</span>","null","","","","resp_prompt","","","","","","","","","","","","","","","",""
"categorize-image","12","287419","0.0-2.0-2.0-1.0","o9ovycd47qx7076","practice_no_cue","5ebb0f6aff8da30d1f29dc29","5f60e3c0a3b16e07647b2ff9","5f60ef2ada80430172c9fd33","true","1658.6450000759214","./Stimuli/ImagesPractice/SM62.jpg","76","","","","test","false","M + N","83","","SM","SM62.jpg","forget","old","1","1","start","right","","","",""
"html-keyboard-response","13","288131","0.0-2.0-2.0-0.1","o9ovycd47qx7076","practice_no_cue","5ebb0f6aff8da30d1f29dc29","5f60e3c0a3b16e07647b2ff9","5f60ef2ada80430172c9fd33","false","null","<span style=""color: black; font-size: 48px"">M + N</span>","null","","","","resp_prompt","","","","","","","","","","","","","","","",""
"categorize-image","14","289668","0.0-2.0-2.0-1.1","o9ovycd47qx7076","practice_no_cue","5ebb0f6aff8da30d1f29dc29","5f60e3c0a3b16e07647b2ff9","5f60ef2ada80430172c9fd33","true","1021.0700000170618","./Stimuli/ImagesPractice/LN72.jpg","83","","","","test","false","M + N","76","","LN","LN72.jpg","remember","old","2","1","start","left","","","",""
"html-keyboard-response","15","290371","0.0-2.0-2.0-0.2","o9ovycd47qx7076","practice_no_cue","5ebb0f6aff8da30d1f29dc29","5f60e3c0a3b16e07647b2ff9","5f60ef2ada80430172c9fd33","false","null","<span style=""color: black; font-size: 48px"">N + M</span>","null","","","","resp_prompt","","","","","","","","","","","","","","","",""
"categorize-image","16","291704","0.0-2.0-2.0-1.2","o9ovycd47qx7076","practice_no_cue","5ebb0f6aff8da30d1f29dc29","5f60e3c0a3b16e07647b2ff9","5f60ef2ada80430172c9fd33","true","819.480000063777","./Stimuli/ImagesPractice/LM147.jpg","83","","","","test","false","N + M","76","","LM","LM147.jpg","remember","old","3","1","start","left","","","",""
"html-keyboard-response","17","292411","0.0-2.0-2.0-0.3","o9ovycd47qx7076","practice_no_cue","5ebb0f6aff8da30d1f29dc29","5f60e3c0a3b16e07647b2ff9","5f60ef2ada80430172c9fd33","false","null","<span style=""color: black; font-size: 48px"">M + N</span>","null","","","","resp_prompt","","","","","","","","","","","","","","","",""
"categorize-image","18","293463","0.0-2.0-2.0-1.3","o9ovycd47qx7076","practice_no_cue","5ebb0f6aff8da30d1f29dc29","5f60e3c0a3b16e07647b2ff9","5f60ef2ada80430172c9fd33","true","537.1900000609457","./Stimuli/ImagesPractice/LM143.jpg","76","","","","test","false","M + N","83","","LM","LM143.jpg","forget","old","4","1","start","right","","","",""
"html-keyboard-response","19","294179","0.0-2.0-2.0-0.4","o9ovycd47qx7076","practice_no_cue","5ebb0f6aff8da30d1f29dc29","5f60e3c0a3b16e07647b2ff9","5f60ef2ada80430172c9fd33","false","null","<span style=""color: black; font-size: 48px"">N + M</span>","null","","","","resp_prompt","","","","","","","","","","","","","","","",""
"categorize-image","20","295179","0.0-2.0-2.0-1.4","o9ovycd47qx7076","practice_no_cue","5ebb0f6aff8da30d1f29dc29","5f60e3c0a3b16e07647b2ff9","5f60ef2ada80430172c9fd33","true","493.57499997131526","./Stimuli/ImagesPractice/LN2.jpg","83","","","","test","true","N + M","83","","LN","LN2.jpg","remember","old","5","1","start","left","","","",""
"html-keyboard-response","21","295891","0.0-2.0-2.0-0.5","o9ovycd47qx7076","practice_no_cue","5ebb0f6aff8da30d1f29dc29","5f60e3c0a3b16e07647b2ff9","5f60ef2ada80430172c9fd33","false","null","<span style=""color: black; font-size: 48px"">M + N</span>","null","","","","resp_prompt","","","","","","","","","","","","","","","",""
"categorize-image","22","297116","0.0-2.0-2.0-1.5","o9ovycd47qx7076","practice_no_cue","5ebb0f6aff8da30d1f29dc29","5f60e3c0a3b16e07647b2ff9","5f60ef2ada80430172c9fd33","true","709.840000141412","./Stimuli/ImagesPractice/LN17.jpg","76","","","","test","true","M + N","76","","LN","LN17.jpg","forget","old","6","1","start","right","","","",""
"html-keyboard-response","23","297824","0.0-2.0-2.0-0.6","o9ovycd47qx7076","practice_no_cue","5ebb0f6aff8da30d1f29dc29","5f60e3c0a3b16e07647b2ff9","5f60ef2ada80430172c9fd33","false","null","<span style=""color: black; font-size: 48px"">N + M</span>","null","","","","resp_prompt","","","","","","","","","","","","","","","",""
"categorize-image","24","298971","0.0-2.0-2.0-1.6","o9ovycd47qx7076","practice_no_cue","5ebb0f6aff8da30d1f29dc29","5f60e3c0a3b16e07647b2ff9","5f60ef2ada80430172c9fd33","true","634.8999999463558","./Stimuli/ImagesPractice/LM239.jpg","83","","","","test","false","N + M","76","","LM","LM239.jpg","forget","old","7","1","start","left","","","",""
"html-keyboard-response","25","299685","0.0-2.0-2.0-0.7","o9ovycd47qx7076","practice_no_cue","5ebb0f6aff8da30d1f29dc29","5f60e3c0a3b16e07647b2ff9","5f60ef2ada80430172c9fd33","false","null","<span style=""color: black; font-size: 48px"">N + M</span>","null","","","","resp_prompt","","","","","","","","","","","","","","","",""
"categorize-image","26","301376","0.0-2.0-2.0-1.7","o9ovycd47qx7076","practice_no_cue","5ebb0f6aff8da30d1f29dc29","5f60e3c0a3b16e07647b2ff9","5f60ef2ada80430172c9fd33","true","1174.1749998182058","./Stimuli/ImagesPractice/SN75.jpg","83","","","","test","true","N + M","83","","SN","SN75.jpg","forget","old","8","1","start","left","","","",""
"html-keyboard-response","27","302094","0.0-2.0-2.0-0.8","o9ovycd47qx7076","practice_no_cue","5ebb0f6aff8da30d1f29dc29","5f60e3c0a3b16e07647b2ff9","5f60ef2ada80430172c9fd33","false","null","<span style=""color: black; font-size: 48px"">N + M</span>","null","","","","resp_prompt","","","","","","","","","","","","","","","",""
"categorize-image","28","303460","0.0-2.0-2.0-1.8","o9ovycd47qx7076","practice_no_cue","5ebb0f6aff8da30d1f29dc29","5f60e3c0a3b16e07647b2ff9","5f60ef2ada80430172c9fd33","true","850.3950000740588","./Stimuli/ImagesPractice/SM35.jpg","76","","","","test","true","N + M","76","","SM","SM35.jpg","remember","old","9","1","start","right","","","",""
"html-keyboard-response","29","304164","0.0-2.0-2.0-0.9","o9ovycd47qx7076","practice_no_cue","5ebb0f6aff8da30d1f29dc29","5f60e3c0a3b16e07647b2ff9","5f60ef2ada80430172c9fd33","false","null","<span style=""color: black; font-size: 48px"">M + N</span>","null","","","","resp_prompt","","","","","","","","","","","","","","","",""
"categorize-image","30","305614","0.0-2.0-2.0-1.9","o9ovycd47qx7076","practice_no_cue","5ebb0f6aff8da30d1f29dc29","5f60e3c0a3b16e07647b2ff9","5f60ef2ada80430172c9fd33","true","941.1949999630451","./Stimuli/ImagesPractice/LM224.jpg","83","","","","test","true","M + N","83","","LM","LM224.jpg","remember","old","10","1","start","left","","","",""
"html-keyboard-response","31","306331","0.0-2.0-2.0-0.10","o9ovycd47qx7076","practice_no_cue","5ebb0f6aff8da30d1f29dc29","5f60e3c0a3b16e07647b2ff9","5f60ef2ada80430172c9fd33","false","null","<span style=""color: black; font-size: 48px"">N + M</span>","null","","","","resp_prompt","","","","","","","","","","","","","","","",""
"categorize-image","32","307726","0.0-2.0-2.0-1.10","o9ovycd47qx7076","practice_no_cue","5ebb0f6aff8da30d1f29dc29","5f60e3c0a3b16e07647b2ff9","5f60ef2ada80430172c9fd33","true","880.9799998998642","./Stimuli/ImagesPractice/LM55.jpg","83","","","","test","false","N + M","76","","LM","LM55.jpg","remember","old","11","1","start","left","","","",""
"html-keyboard-response","33","308443","0.0-2.0-2.0-0.11","o9ovycd47qx7076","practice_no_cue","5ebb0f6aff8da30d1f29dc29","5f60e3c0a3b16e07647b2ff9","5f60ef2ada80430172c9fd33","false","null","<span style=""color: black; font-size: 48px"">N + M</span>","null","","","","resp_prompt","","","","","","","","","","","","","","","",""
"categorize-image","34","309854","0.0-2.0-2.0-1.11","o9ovycd47qx7076","practice_no_cue","5ebb0f6aff8da30d1f29dc29","5f60e3c0a3b16e07647b2ff9","5f60ef2ada80430172c9fd33","true","901.2999997939914","./Stimuli/ImagesPractice/LN109.jpg","83","","","","test","true","N + M","83","","LN","LN109.jpg","forget","old","12","1","start","left","","","",""
"html-keyboard-response","35","310558","0.0-2.0-2.0-0.12","o9ovycd47qx7076","practice_no_cue","5ebb0f6aff8da30d1f29dc29","5f60e3c0a3b16e07647b2ff9","5f60ef2ada80430172c9fd33","false","null","<span style=""color: black; font-size: 48px"">M + N</span>","null","","","","resp_prompt","","","","","","","","","","","","","","","",""
"categorize-image","36","312099","0.0-2.0-2.0-1.12","o9ovycd47qx7076","practice_no_cue","5ebb0f6aff8da30d1f29dc29","5f60e3c0a3b16e07647b2ff9","5f60ef2ada80430172c9fd33","true","1024.6400001924485","./Stimuli/ImagesPractice/LN4.jpg","83","","","","test","false","M + N","76","","LN","LN4.jpg","forget","old","13","1","start","left","","","",""
"html-keyboard-response","37","312812","0.0-2.0-2.0-0.13","o9ovycd47qx7076","practice_no_cue","5ebb0f6aff8da30d1f29dc29","5f60e3c0a3b16e07647b2ff9","5f60ef2ada80430172c9fd33","false","null","<span style=""color: black; font-size: 48px"">N + M</span>","null","","","","resp_prompt","","","","","","","","","","","","","","","",""
"categorize-image","38","314544","0.0-2.0-2.0-1.13","o9ovycd47qx7076","practice_no_cue","5ebb0f6aff8da30d1f29dc29","5f60e3c0a3b16e07647b2ff9","5f60ef2ada80430172c9fd33","true","1214.820000110194","./Stimuli/ImagesPractice/SN205.jpg","83","","","","test","true","N + M","83","","SN","SN205.jpg","forget","old","14","1","start","left","","","",""
"html-keyboard-response","39","315257","0.0-2.0-2.0-0.14","o9ovycd47qx7076","practice_no_cue","5ebb0f6aff8da30d1f29dc29","5f60e3c0a3b16e07647b2ff9","5f60ef2ada80430172c9fd33","false","null","<span style=""color: black; font-size: 48px"">M + N</span>","null","","","","resp_prompt","","","","","","","","","","","","","","","",""
"categorize-image","40","316494","0.0-2.0-2.0-1.14","o9ovycd47qx7076","practice_no_cue","5ebb0f6aff8da30d1f29dc29","5f60e3c0a3b16e07647b2ff9","5f60ef2ada80430172c9fd33","true","719.8749999515712","./Stimuli/ImagesPractice/SM37.jpg","83","","","","test","true","M + N","83","","SM","SM37.jpg","remember","old","15","1","start","left","","","",""
"html-keyboard-response","41","317202","0.0-2.0-2.0-0.15","o9ovycd47qx7076","practice_no_cue","5ebb0f6aff8da30d1f29dc29","5f60e3c0a3b16e07647b2ff9","5f60ef2ada80430172c9fd33","false","null","<span style=""color: black; font-size: 48px"">M + N</span>","null","","","","resp_prompt","","","","","","","","","","","","","","","",""
"categorize-image","42","318361","0.0-2.0-2.0-1.15","o9ovycd47qx7076","practice_no_cue","5ebb0f6aff8da30d1f29dc29","5f60e3c0a3b16e07647b2ff9","5f60ef2ada80430172c9fd33","true","643.2199999690056","./Stimuli/ImagesPractice/SN220.jpg","76","","","","test","true","M + N","76","","SN","SN220.jpg","remember","old","16","1","start","right","","","",""
"html-keyboard-response","43","324424","0.0-2.0-3.0","o9ovycd47qx7076","break","5ebb0f6aff8da30d1f29dc29","5f60e3c0a3b16e07647b2ff9","5f60ef2ada80430172c9fd33","false","6055.565000046045","<p style='font-size: 32px;'>Break</><br><br><br><br><br><p style='font-size: 24px;'>In the last block, you committed 7 errors and did not respond in time on 0 trials.
</p><p style='font-size: 24px;'>Try to respond as fast and accurately as possible in the next block as well! </p><p style='font-size: 24px;'>Press SPACE to continue.</p>","32","","","","","","","","","","","","","","","","","","","",""
"html-keyboard-response","44","327643","0.0-2.0-4.0","o9ovycd47qx7076","instructions","5ebb0f6aff8da30d1f29dc29","5f60e3c0a3b16e07647b2ff9","5f60ef2ada80430172c9fd33","false","3214.8500001057982","<div align=left> Great!<br><br>Are you ready to continue?<br><br>If you want to reread the instructions and redo the practice trials, <br>please press „Z“. <br><br>Press SPACE to CONTINUE with the experiment when you are ready. </div>","32","","","","","","","","","","","","","","","","","","","",""
"html-keyboard-response","45","365409","0.0-3.0-0.0","o9ovycd47qx7076","instructions","5ebb0f6aff8da30d1f29dc29","5f60e3c0a3b16e07647b2ff9","5f60ef2ada80430172c9fd33","false","37760.03499981016","<div align=left>Great!<br> <strong>Attention</strong>! You will now receive a second, additional task! <br><br>To this point it was you <strong>first task</strong> to correctly <strong>classify objects</strong>. <br><br>As mentioned in the beginning, we aim to examine how well humans can remember previously learned information.<br>We would like to find out whether our memory improves if we only remember information that is relevant to us. <br><br>Therefore, your <strong>second task</strong> will be to <strong>remember</strong> the pictures you are to categorize. <br> After the learning phase, there will be a memory test phase, in which you will be asked to indicate whether you have seen a picture before or not. <br>Some, but not all pictures shown in the learning phase will appear in the memory test phase.<br>After classifying a picture, you will be told whether you should remember it for the memory test phase or not. <br>Thus, some pictures can be forgotten, whereas others have to be remembered. <br><br>Note: From now on, feedback will only be displayed if you responded incorrectly or not in time.<br><br>Press SPACE to continue.</div>","32","","","","","","","","","","","","","","","","","","","",""
"html-keyboard-response","46","382810","0.0-3.0-1.0","o9ovycd47qx7076","instructions","5ebb0f6aff8da30d1f29dc29","5f60e3c0a3b16e07647b2ff9","5f60ef2ada80430172c9fd33","false","17397.3550000228","<div align=left>In the following part, you will thus have to remember only some pictures. <br>Immediately after seeing and classifying the picture, a symbol will be displayed, indicating whether you should remember or forget the previous picture. <br><br>A <span style='color: dodgerblue; font-size: 28px'>O</span> indicates REMEMBER. That means, you have to remember this picture, because it will be tested later. <br><br>A <span style='color: darkorange; font-size:28px'>Ø</span> indicates FORGET. You do not have to remember this picture. <br><br> As you will have to remember a lot of pictures, it will be hard for you to remember all of them. <br>It will put you at an advantage if you instantly forget the pictures you are not asked to remember. <br> This will make it easier for you to remember the pictures that will be tested afterwards. <br><br>Press SPACE to continue.</div>","32","","","","","","","","","","","","","","","","","","","",""
"html-keyboard-response","47","395146","0.0-3.0-2.0","o9ovycd47qx7076","instructions","5ebb0f6aff8da30d1f29dc29","5f60e3c0a3b16e07647b2ff9","5f60ef2ada80430172c9fd33","false","12331.950000021607","<div align=left> Now you have the chance to practice both tasks together.<br><br>Remember: <br> <br><li>Please place your index fingers on the <strong>'S'</strong> and <strong>'L'</strong> keys <br>to respond as fast and accurately as possible.</li><li>Every picture can be classified as either mechanical or non-mechanical.</li><li>If you do not respond in time or commit an error, you will receive a corresponding feedback. <br>Please try to respond as <strong> fast </strong> and as <strong> accurately as possible </strong>.</li><li> Please remember only the to-be-remembered <span style='color: dodgerblue; font-size: 28px'>O</span> pictures. <br></li><li> Please minimize distractions and stay focused. </li><br><br>Press SPACE to START</div>","32","","","","","","","","","","","","","","","","","","","",""
"html-keyboard-response","48","395864","0.0-3.0-3.0-0.0","o9ovycd47qx7076","practice_cue","5ebb0f6aff8da30d1f29dc29","5f60e3c0a3b16e07647b2ff9","5f60ef2ada80430172c9fd33","false","null","<span style=""color: black; font-size: 48px"">N + M</span>","null","","","","resp_prompt","","","","","","","","","","","","","","","",""
"categorize-image","49","396893","0.0-3.0-3.0-1.0","o9ovycd47qx7076","practice_cue","5ebb0f6aff8da30d1f29dc29","5f60e3c0a3b16e07647b2ff9","5f60ef2ada80430172c9fd33","true","1015.2549999766052","./Stimuli/ImagesPractice/SM35.jpg","83","","","","test","false","N + M","76","","SM","SM35.jpg","remember","old","17","2","practice_forget","left","","","",""
"html-keyboard-response","50","397406","0.0-3.0-3.0-2.0-0.0","o9ovycd47qx7076","practice_cue","5ebb0f6aff8da30d1f29dc29","5f60e3c0a3b16e07647b2ff9","5f60ef2ada80430172c9fd33","false","null","<span style=""color: red; font-size: 48px"">Error!</span>","null","","","","feedback","","","","","","","","","","","","","","","",""
"html-keyboard-response","51","399413","0.0-3.0-3.0-3.0","o9ovycd47qx7076","practice_cue","5ebb0f6aff8da30d1f29dc29","5f60e3c0a3b16e07647b2ff9","5f60ef2ada80430172c9fd33","false","null","<div style=""align-items: center; display: flex; color: dodgerblue; font-size: 90px""><b>o</b></div>","null","","","","forget_cue","","","","","","","","","","","","","","","",""
"html-keyboard-response","52","400126","0.0-3.0-3.0-0.1","o9ovycd47qx7076","practice_cue","5ebb0f6aff8da30d1f29dc29","5f60e3c0a3b16e07647b2ff9","5f60ef2ada80430172c9fd33","false","null","<span style=""color: black; font-size: 48px"">N + M</span>","null","","","","resp_prompt","","","","","","","","","","","","","","","",""
"categorize-image","53","401218","0.0-3.0-3.0-1.1","o9ovycd47qx7076","practice_cue","5ebb0f6aff8da30d1f29dc29","5f60e3c0a3b16e07647b2ff9","5f60ef2ada80430172c9fd33","true","1079.4349999632686","./Stimuli/ImagesPractice/LN109.jpg","76","","","","test","false","N + M","83","","LN","LN109.jpg","forget","old","18","2","practice_forget","right","","","",""
"html-keyboard-response","54","401725","0.0-3.0-3.0-2.1-0.1","o9ovycd47qx7076","practice_cue","5ebb0f6aff8da30d1f29dc29","5f60e3c0a3b16e07647b2ff9","5f60ef2ada80430172c9fd33","false","null","<span style=""color: red; font-size: 48px"">Error!</span>","null","","","","feedback","","","","","","","","","","","","","","","",""
"html-keyboard-response","55","403740","0.0-3.0-3.0-3.1","o9ovycd47qx7076","practice_cue","5ebb0f6aff8da30d1f29dc29","5f60e3c0a3b16e07647b2ff9","5f60ef2ada80430172c9fd33","false","null","<div style=""align-items: center; display: flex; color: darkorange; font-size: 90px""><b>ø</b></div>","null","","","","forget_cue","","","","","","","","","","","","","","","",""
"html-keyboard-response","56","404453","0.0-3.0-3.0-0.2","o9ovycd47qx7076","practice_cue","5ebb0f6aff8da30d1f29dc29","5f60e3c0a3b16e07647b2ff9","5f60ef2ada80430172c9fd33","false","null","<span style=""color: black; font-size: 48px"">M + N</span>","null","","","","resp_prompt","","","","","","","","","","","","","","","",""
"categorize-image","57","405432","0.0-3.0-3.0-1.2","o9ovycd47qx7076","practice_cue","5ebb0f6aff8da30d1f29dc29","5f60e3c0a3b16e07647b2ff9","5f60ef2ada80430172c9fd33","true","966.3350000046194","./Stimuli/ImagesPractice/LN17.jpg","76","","","","test","true","M + N","76","","LN","LN17.jpg","forget","old","19","2","practice_forget","right","","","",""
"html-keyboard-response","58","407446","0.0-3.0-3.0-3.2","o9ovycd47qx7076","practice_cue","5ebb0f6aff8da30d1f29dc29","5f60e3c0a3b16e07647b2ff9","5f60ef2ada80430172c9fd33","false","null","<div style=""align-items: center; display: flex; color: darkorange; font-size: 90px""><b>ø</b></div>","null","","","","forget_cue","","","","","","","","","","","","","","","",""
"html-keyboard-response","59","408151","0.0-3.0-3.0-0.3","o9ovycd47qx7076","practice_cue","5ebb0f6aff8da30d1f29dc29","5f60e3c0a3b16e07647b2ff9","5f60ef2ada80430172c9fd33","false","null","<span style=""color: black; font-size: 48px"">M + N</span>","null","","","","resp_prompt","","","","","","","","","","","","","","","",""
"categorize-image","60","408726","0.0-3.0-3.0-1.3","o9ovycd47qx7076","practice_cue","5ebb0f6aff8da30d1f29dc29","5f60e3c0a3b16e07647b2ff9","5f60ef2ada80430172c9fd33","true","562.0800000615418","./Stimuli/ImagesPractice/SN220.jpg","76","","","","test","true","M + N","76","","SN","SN220.jpg","remember","old","20","2","practice_forget","right","","","",""
"html-keyboard-response","61","410742","0.0-3.0-3.0-3.3","o9ovycd47qx7076","practice_cue","5ebb0f6aff8da30d1f29dc29","5f60e3c0a3b16e07647b2ff9","5f60ef2ada80430172c9fd33","false","null","<div style=""align-items: center; display: flex; color: dodgerblue; font-size: 90px""><b>o</b></div>","null","","","","forget_cue","","","","","","","","","","","","","","","",""
"html-keyboard-response","62","411444","0.0-3.0-3.0-0.4","o9ovycd47qx7076","practice_cue","5ebb0f6aff8da30d1f29dc29","5f60e3c0a3b16e07647b2ff9","5f60ef2ada80430172c9fd33","false","null","<span style=""color: black; font-size: 48px"">M + N</span>","null","","","","resp_prompt","","","","","","","","","","","","","","","",""
"categorize-image","63","412031","0.0-3.0-3.0-1.4","o9ovycd47qx7076","practice_cue","5ebb0f6aff8da30d1f29dc29","5f60e3c0a3b16e07647b2ff9","5f60ef2ada80430172c9fd33","true","573.450000025332","./Stimuli/ImagesPractice/SM37.jpg","83","","","","test","true","M + N","83","","SM","SM37.jpg","remember","old","21","2","practice_forget","left","","","",""
"html-keyboard-response","64","414049","0.0-3.0-3.0-3.4","o9ovycd47qx7076","practice_cue","5ebb0f6aff8da30d1f29dc29","5f60e3c0a3b16e07647b2ff9","5f60ef2ada80430172c9fd33","false","null","<div style=""align-items: center; display: flex; color: dodgerblue; font-size: 90px""><b>o</b></div>","null","","","","forget_cue","","","","","","","","","","","","","","","",""
"html-keyboard-response","65","414765","0.0-3.0-3.0-0.5","o9ovycd47qx7076","practice_cue","5ebb0f6aff8da30d1f29dc29","5f60e3c0a3b16e07647b2ff9","5f60ef2ada80430172c9fd33","false","null","<span style=""color: black; font-size: 48px"">M + N</span>","null","","","","resp_prompt","","","","","","","","","","","","","","","",""
"categorize-image","66","415983","0.0-3.0-3.0-1.5","o9ovycd47qx7076","practice_cue","5ebb0f6aff8da30d1f29dc29","5f60e3c0a3b16e07647b2ff9","5f60ef2ada80430172c9fd33","true","1202.629999956116","./Stimuli/ImagesPractice/LM143.jpg","83","","","","test","true","M + N","83","","LM","LM143.jpg","forget","old","22","2","practice_forget","left","","","",""
"html-keyboard-response","67","417997","0.0-3.0-3.0-3.5","o9ovycd47qx7076","practice_cue","5ebb0f6aff8da30d1f29dc29","5f60e3c0a3b16e07647b2ff9","5f60ef2ada80430172c9fd33","false","null","<div style=""align-items: center; display: flex; color: darkorange; font-size: 90px""><b>ø</b></div>","null","","","","forget_cue","","","","","","","","","","","","","","","",""
"html-keyboard-response","68","418705","0.0-3.0-3.0-0.6","o9ovycd47qx7076","practice_cue","5ebb0f6aff8da30d1f29dc29","5f60e3c0a3b16e07647b2ff9","5f60ef2ada80430172c9fd33","false","null","<span style=""color: black; font-size: 48px"">N + M</span>","null","","","","resp_prompt","","","","","","","","","","","","","","","",""
"categorize-image","69","419510","0.0-3.0-3.0-1.6","o9ovycd47qx7076","practice_cue","5ebb0f6aff8da30d1f29dc29","5f60e3c0a3b16e07647b2ff9","5f60ef2ada80430172c9fd33","true","793.5099999886006","./Stimuli/ImagesPractice/LN2.jpg","76","","","","test","false","N + M","83","","LN","LN2.jpg","remember","old","23","2","practice_forget","right","","","",""
"html-keyboard-response","70","420023","0.0-3.0-3.0-2.6-0.6","o9ovycd47qx7076","practice_cue","5ebb0f6aff8da30d1f29dc29","5f60e3c0a3b16e07647b2ff9","5f60ef2ada80430172c9fd33","false","null","<span style=""color: red; font-size: 48px"">Error!</span>","null","","","","feedback","","","","","","","","","","","","","","","",""
"html-keyboard-response","71","422030","0.0-3.0-3.0-3.6","o9ovycd47qx7076","practice_cue","5ebb0f6aff8da30d1f29dc29","5f60e3c0a3b16e07647b2ff9","5f60ef2ada80430172c9fd33","false","null","<div style=""align-items: center; display: flex; color: dodgerblue; font-size: 90px""><b>o</b></div>","null","","","","forget_cue","","","","","","","","","","","","","","","",""
"html-keyboard-response","72","422743","0.0-3.0-3.0-0.7","o9ovycd47qx7076","practice_cue","5ebb0f6aff8da30d1f29dc29","5f60e3c0a3b16e07647b2ff9","5f60ef2ada80430172c9fd33","false","null","<span style=""color: black; font-size: 48px"">N + M</span>","null","","","","resp_prompt","","","","","","","","","","","","","","","",""
"categorize-image","73","424003","0.0-3.0-3.0-1.7","o9ovycd47qx7076","practice_cue","5ebb0f6aff8da30d1f29dc29","5f60e3c0a3b16e07647b2ff9","5f60ef2ada80430172c9fd33","true","1247.4700000602752","./Stimuli/ImagesPractice/SN205.jpg","83","","","","test","true","N + M","83","","SN","SN205.jpg","forget","old","24","2","practice_forget","left","","","",""
"html-keyboard-response","74","426013","0.0-3.0-3.0-3.7","o9ovycd47qx7076","practice_cue","5ebb0f6aff8da30d1f29dc29","5f60e3c0a3b16e07647b2ff9","5f60ef2ada80430172c9fd33","false","null","<div style=""align-items: center; display: flex; color: darkorange; font-size: 90px""><b>ø</b></div>","null","","","","forget_cue","","","","","","","","","","","","","","","",""
"html-keyboard-response","75","426717","0.0-3.0-3.0-0.8","o9ovycd47qx7076","practice_cue","5ebb0f6aff8da30d1f29dc29","5f60e3c0a3b16e07647b2ff9","5f60ef2ada80430172c9fd33","false","null","<span style=""color: black; font-size: 48px"">N + M</span>","null","","","","resp_prompt","","","","","","","","","","","","","","","",""
"categorize-image","76","428061","0.0-3.0-3.0-1.8","o9ovycd47qx7076","practice_cue","5ebb0f6aff8da30d1f29dc29","5f60e3c0a3b16e07647b2ff9","5f60ef2ada80430172c9fd33","true","1331.2249998562038","./Stimuli/ImagesPractice/SN75.jpg","76","","","","test","false","N + M","83","","SN","SN75.jpg","forget","old","25","2","practice_forget","right","","","",""
"html-keyboard-response","77","428565","0.0-3.0-3.0-2.8-0.8","o9ovycd47qx7076","practice_cue","5ebb0f6aff8da30d1f29dc29","5f60e3c0a3b16e07647b2ff9","5f60ef2ada80430172c9fd33","false","null","<span style=""color: red; font-size: 48px"">Error!</span>","null","","","","feedback","","","","","","","","","","","","","","","",""
"html-keyboard-response","78","430582","0.0-3.0-3.0-3.8","o9ovycd47qx7076","practice_cue","5ebb0f6aff8da30d1f29dc29","5f60e3c0a3b16e07647b2ff9","5f60ef2ada80430172c9fd33","false","null","<div style=""align-items: center; display: flex; color: darkorange; font-size: 90px""><b>ø</b></div>","null","","","","forget_cue","","","","","","","","","","","","","","","",""
"html-keyboard-response","79","431295","0.0-3.0-3.0-0.9","o9ovycd47qx7076","practice_cue","5ebb0f6aff8da30d1f29dc29","5f60e3c0a3b16e07647b2ff9","5f60ef2ada80430172c9fd33","false","null","<span style=""color: black; font-size: 48px"">N + M</span>","null","","","","resp_prompt","","","","","","","","","","","","","","","",""
"categorize-image","80","432951","0.0-3.0-3.0-1.9","o9ovycd47qx7076","practice_cue","5ebb0f6aff8da30d1f29dc29","5f60e3c0a3b16e07647b2ff9","5f60ef2ada80430172c9fd33","true","1640.8600001595914","./Stimuli/ImagesPractice/LM55.jpg","83","","","","test","false","N + M","76","","LM","LM55.jpg","remember","old","26","2","practice_forget","left","","","",""
"html-keyboard-response","81","433468","0.0-3.0-3.0-2.9-0.9","o9ovycd47qx7076","practice_cue","5ebb0f6aff8da30d1f29dc29","5f60e3c0a3b16e07647b2ff9","5f60ef2ada80430172c9fd33","false","null","<span style=""color: red; font-size: 48px"">Error!</span>","null","","","","feedback","","","","","","","","","","","","","","","",""
"html-keyboard-response","82","435484","0.0-3.0-3.0-3.9","o9ovycd47qx7076","practice_cue","5ebb0f6aff8da30d1f29dc29","5f60e3c0a3b16e07647b2ff9","5f60ef2ada80430172c9fd33","false","null","<div style=""align-items: center; display: flex; color: dodgerblue; font-size: 90px""><b>o</b></div>","null","","","","forget_cue","","","","","","","","","","","","","","","",""
"html-keyboard-response","83","436187","0.0-3.0-3.0-0.10","o9ovycd47qx7076","practice_cue","5ebb0f6aff8da30d1f29dc29","5f60e3c0a3b16e07647b2ff9","5f60ef2ada80430172c9fd33","false","null","<span style=""color: black; font-size: 48px"">M + N</span>","null","","","","resp_prompt","","","","","","","","","","","","","","","",""
"categorize-image","84","436869","0.0-3.0-3.0-1.10","o9ovycd47qx7076","practice_cue","5ebb0f6aff8da30d1f29dc29","5f60e3c0a3b16e07647b2ff9","5f60ef2ada80430172c9fd33","true","669.1349998582155","./Stimuli/ImagesPractice/LM224.jpg","83","","","","test","true","M + N","83","","LM","LM224.jpg","remember","old","27","2","practice_forget","left","","","",""
"html-keyboard-response","85","438876","0.0-3.0-3.0-3.10","o9ovycd47qx7076","practice_cue","5ebb0f6aff8da30d1f29dc29","5f60e3c0a3b16e07647b2ff9","5f60ef2ada80430172c9fd33","false","null","<div style=""align-items: center; display: flex; color: dodgerblue; font-size: 90px""><b>o</b></div>","null","","","","forget_cue","","","","","","","","","","","","","","","",""
"html-keyboard-response","86","439592","0.0-3.0-3.0-0.11","o9ovycd47qx7076","practice_cue","5ebb0f6aff8da30d1f29dc29","5f60e3c0a3b16e07647b2ff9","5f60ef2ada80430172c9fd33","false","null","<span style=""color: black; font-size: 48px"">M + N</span>","null","","","","resp_prompt","","","","","","","","","","","","","","","",""
"categorize-image","87","440737","0.0-3.0-3.0-1.11","o9ovycd47qx7076","practice_cue","5ebb0f6aff8da30d1f29dc29","5f60e3c0a3b16e07647b2ff9","5f60ef2ada80430172c9fd33","true","1131.9850001018494","./Stimuli/ImagesPractice/LN4.jpg","83","","","","test","false","M + N","76","","LN","LN4.jpg","forget","old","28","2","practice_forget","left","","","",""
"html-keyboard-response","88","441250","0.0-3.0-3.0-2.11-0.11","o9ovycd47qx7076","practice_cue","5ebb0f6aff8da30d1f29dc29","5f60e3c0a3b16e07647b2ff9","5f60ef2ada80430172c9fd33","false","null","<span style=""color: red; font-size: 48px"">Error!</span>","null","","","","feedback","","","","","","","","","","","","","","","",""
"html-keyboard-response","89","443266","0.0-3.0-3.0-3.11","o9ovycd47qx7076","practice_cue","5ebb0f6aff8da30d1f29dc29","5f60e3c0a3b16e07647b2ff9","5f60ef2ada80430172c9fd33","false","null","<div style=""align-items: center; display: flex; color: darkorange; font-size: 90px""><b>ø</b></div>","null","","","","forget_cue","","","","","","","","","","","","","","","",""
"html-keyboard-response","90","443981","0.0-3.0-3.0-0.12","o9ovycd47qx7076","practice_cue","5ebb0f6aff8da30d1f29dc29","5f60e3c0a3b16e07647b2ff9","5f60ef2ada80430172c9fd33","false","null","<span style=""color: black; font-size: 48px"">N + M</span>","null","","","","resp_prompt","","","","","","","","","","","","","","","",""
"categorize-image","91","444831","0.0-3.0-3.0-1.12","o9ovycd47qx7076","practice_cue","5ebb0f6aff8da30d1f29dc29","5f60e3c0a3b16e07647b2ff9","5f60ef2ada80430172c9fd33","true","837.9450000356883","./Stimuli/ImagesPractice/LM147.jpg","83","","","","test","false","N + M","76","","LM","LM147.jpg","remember","old","29","2","practice_forget","left","","","",""
"html-keyboard-response","92","445347","0.0-3.0-3.0-2.12-0.12","o9ovycd47qx7076","practice_cue","5ebb0f6aff8da30d1f29dc29","5f60e3c0a3b16e07647b2ff9","5f60ef2ada80430172c9fd33","false","null","<span style=""color: red; font-size: 48px"">Error!</span>","null","","","","feedback","","","","","","","","","","","","","","","",""
"html-keyboard-response","93","447353","0.0-3.0-3.0-3.12","o9ovycd47qx7076","practice_cue","5ebb0f6aff8da30d1f29dc29","5f60e3c0a3b16e07647b2ff9","5f60ef2ada80430172c9fd33","false","null","<div style=""align-items: center; display: flex; color: dodgerblue; font-size: 90px""><b>o</b></div>","null","","","","forget_cue","","","","","","","","","","","","","","","",""
"html-keyboard-response","94","448066","0.0-3.0-3.0-0.13","o9ovycd47qx7076","practice_cue","5ebb0f6aff8da30d1f29dc29","5f60e3c0a3b16e07647b2ff9","5f60ef2ada80430172c9fd33","false","null","<span style=""color: black; font-size: 48px"">M + N</span>","null","","","","resp_prompt","","","","","","","","","","","","","","","",""
"categorize-image","95","448791","0.0-3.0-3.0-1.13","o9ovycd47qx7076","practice_cue","5ebb0f6aff8da30d1f29dc29","5f60e3c0a3b16e07647b2ff9","5f60ef2ada80430172c9fd33","true","713.105000089854","./Stimuli/ImagesPractice/SM62.jpg","83","","","","test","true","M + N","83","","SM","SM62.jpg","forget","old","30","2","practice_forget","left","","","",""
"html-keyboard-response","96","450797","0.0-3.0-3.0-3.13","o9ovycd47qx7076","practice_cue","5ebb0f6aff8da30d1f29dc29","5f60e3c0a3b16e07647b2ff9","5f60ef2ada80430172c9fd33","false","null","<div style=""align-items: center; display: flex; color: darkorange; font-size: 90px""><b>ø</b></div>","null","","","","forget_cue","","","","","","","","","","","","","","","",""
"html-keyboard-response","97","451502","0.0-3.0-3.0-0.14","o9ovycd47qx7076","practice_cue","5ebb0f6aff8da30d1f29dc29","5f60e3c0a3b16e07647b2ff9","5f60ef2ada80430172c9fd33","false","null","<span style=""color: black; font-size: 48px"">M + N</span>","null","","","","resp_prompt","","","","","","","","","","","","","","","",""
"categorize-image","98","452266","0.0-3.0-3.0-1.14","o9ovycd47qx7076","practice_cue","5ebb0f6aff8da30d1f29dc29","5f60e3c0a3b16e07647b2ff9","5f60ef2ada80430172c9fd33","true","752.0800000056624","./Stimuli/ImagesPractice/LN72.jpg","76","","","","test","true","M + N","76","","LN","LN72.jpg","remember","old","31","2","practice_forget","right","","","",""
"html-keyboard-response","99","454277","0.0-3.0-3.0-3.14","o9ovycd47qx7076","practice_cue","5ebb0f6aff8da30d1f29dc29","5f60e3c0a3b16e07647b2ff9","5f60ef2ada80430172c9fd33","false","null","<div style=""align-items: center; display: flex; color: dodgerblue; font-size: 90px""><b>o</b></div>","null","","","","forget_cue","","","","","","","","","","","","","","","",""
"html-keyboard-response","100","454988","0.0-3.0-3.0-0.15","o9ovycd47qx7076","practice_cue","5ebb0f6aff8da30d1f29dc29","5f60e3c0a3b16e07647b2ff9","5f60ef2ada80430172c9fd33","false","null","<span style=""color: black; font-size: 48px"">N + M</span>","null","","","","resp_prompt","","","","","","","","","","","","","","","",""
"categorize-image","101","456557","0.0-3.0-3.0-1.15","o9ovycd47qx7076","practice_cue","5ebb0f6aff8da30d1f29dc29","5f60e3c0a3b16e07647b2ff9","5f60ef2ada80430172c9fd33","true","1557.550000026822","./Stimuli/ImagesPractice/LM239.jpg","83","","","","test","false","N + M","76","","LM","LM239.jpg","forget","old","32","2","practice_forget","left","","","",""
"html-keyboard-response","102","457067","0.0-3.0-3.0-2.15-0.15","o9ovycd47qx7076","practice_cue","5ebb0f6aff8da30d1f29dc29","5f60e3c0a3b16e07647b2ff9","5f60ef2ada80430172c9fd33","false","null","<span style=""color: red; font-size: 48px"">Error!</span>","null","","","","feedback","","","","","","","","","","","","","","","",""
"html-keyboard-response","103","459071","0.0-3.0-3.0-3.15","o9ovycd47qx7076","practice_cue","5ebb0f6aff8da30d1f29dc29","5f60e3c0a3b16e07647b2ff9","5f60ef2ada80430172c9fd33","false","null","<div style=""align-items: center; display: flex; color: darkorange; font-size: 90px""><b>ø</b></div>","null","","","","forget_cue","","","","","","","","","","","","","","","",""
"html-keyboard-response","104","463306","0.0-3.0-4.0","o9ovycd47qx7076","break","5ebb0f6aff8da30d1f29dc29","5f60e3c0a3b16e07647b2ff9","5f60ef2ada80430172c9fd33","false","4233.609999995679","<p style='font-size: 32px;'>Break</><br><br><br><br><br><p style='font-size: 24px;'>In the last block, you committed 8 errors and did not respond in time on 0 trials.
</p><p style='font-size: 24px;'>Try to respond as fast and accurately as possible in the next block as well! </p><p style='font-size: 24px;'>Press SPACE to continue.</p>","32","","","","","","","","","","","","","","","","","","","",""
"html-keyboard-response","105","475311","0.0-3.0-5.0","o9ovycd47qx7076","instructions","5ebb0f6aff8da30d1f29dc29","5f60e3c0a3b16e07647b2ff9","5f60ef2ada80430172c9fd33","false","12000.280000036582","<div align=left> Now, to practice, we kindly ask you to remember as many of the to-be-remembered pictures<br>of the previous learning phase as possible.<br><br>The pictures you were instructed to remember were the pictures followed by a <span style='color: dodgerblue; font-size: 28px'>O</span>.<br><br>In this memory test phase, you will also see some new pictures.<br>It is your task to remember whether you were presented with this specific picture in this study so far or not.<br>If you recognize an object (you have already seen it in this study), it is an OLD object. <br>If you do not recognize an object (you have NOT seen it in this study), it is a NEW object. <br><strong> Attention</strong>: As already mentioned, <span style='color: darkorange; font-size:28px'>Ø</span>-pictures will <strong>never</strong> appear in this memory test (neither as new objects). <br><br>Press SPACE to continue. </div>","32","","","","","","","","","","","","","","","","","","","",""
"html-keyboard-response","106","495006","0.0-3.0-6.0","o9ovycd47qx7076","instructions","5ebb0f6aff8da30d1f29dc29","5f60e3c0a3b16e07647b2ff9","5f60ef2ada80430172c9fd33","false","19690.320000052452","<div align=left> M and N no longer will appear on the left/right of the fixation cross. <br>Instead there will be a note at the bottom of the left or right side  <br>indicating which key you should press for an old or new object:  <br> <br>Press the <strong>right</strong> key to classify an object as <strong>old</strong> and press the <strong>left</strong>, to classify an object as <strong>new</strong>.<br>Please classify the objects as new/old by again placing your index finger on the 'S' and 'L' keys <br>and press them accordingly.<br><br><strong>Old:</strong> This object has been presented before. <br><strong>New:</strong> This object has <strong>not</strong> been presented.<br><br>Now please put your right and left index fingers on the 'S' and 'L' keys of your keyboard. <br>Please respond as fast and as accurately as possible!<br><br>Press SPACE to continue. </div>","32","","","","","","","","","","","","","","","","","","","",""
"categorize-image","107","497601","0.0-3.0-7.0-0.0","o9ovycd47qx7076","practice_recog","5ebb0f6aff8da30d1f29dc29","5f60e3c0a3b16e07647b2ff9","5f60ef2ada80430172c9fd33","true","2077.3499999195337","./Stimuli/ImagesPractice/SM98.jpg","76","","","","test","false","","83","","SM","SM98.jpg","","new","33","3","practice_recog","right","","","",""
"categorize-image","108","501524","0.0-3.0-7.0-0.1","o9ovycd47qx7076","practice_recog","5ebb0f6aff8da30d1f29dc29","5f60e3c0a3b16e07647b2ff9","5f60ef2ada80430172c9fd33","true","3405.1599998492748","./Stimuli/ImagesPractice/SN221.jpg","83","","","","test","true","","83","","SN","SN221.jpg","","new","34","3","practice_recog","left","","","",""
"categorize-image","109","502978","0.0-3.0-7.0-0.2","o9ovycd47qx7076","practice_recog","5ebb0f6aff8da30d1f29dc29","5f60e3c0a3b16e07647b2ff9","5f60ef2ada80430172c9fd33","true","933.5400001145899","./Stimuli/ImagesPractice/SM61.jpg","83","","","","test","true","","83","","SM","SM61.jpg","","new","35","3","practice_recog","left","","","",""
"categorize-image","110","504162","0.0-3.0-7.0-0.3","o9ovycd47qx7076","practice_recog","5ebb0f6aff8da30d1f29dc29","5f60e3c0a3b16e07647b2ff9","5f60ef2ada80430172c9fd33","true","672.7849999442697","./Stimuli/ImagesPractice/SN76.jpg","83","","","","test","true","","83","","SN","SN76.jpg","","new","36","3","practice_recog","left","","","",""
"categorize-image","111","505765","0.0-3.0-7.0-0.4","o9ovycd47qx7076","practice_recog","5ebb0f6aff8da30d1f29dc29","5f60e3c0a3b16e07647b2ff9","5f60ef2ada80430172c9fd33","true","1087.810000171885","./Stimuli/ImagesPractice/LM147.jpg","76","","","","test","true","","76","","LM","LM147.jpg","","old","37","3","practice_recog","right","","","",""
"categorize-image","112","507040","0.0-3.0-7.0-0.5","o9ovycd47qx7076","practice_recog","5ebb0f6aff8da30d1f29dc29","5f60e3c0a3b16e07647b2ff9","5f60ef2ada80430172c9fd33","true","753.495000069961","./Stimuli/ImagesPractice/LN15.jpg","76","","","","test","false","","83","","LN","LN15.jpg","","new","38","3","practice_recog","right","","","",""
"categorize-image","113","509094","0.0-3.0-7.0-0.6","o9ovycd47qx7076","practice_recog","5ebb0f6aff8da30d1f29dc29","5f60e3c0a3b16e07647b2ff9","5f60ef2ada80430172c9fd33","true","1534.2800000216812","./Stimuli/ImagesPractice/SM37.jpg","83","","","","test","false","","76","","SM","SM37.jpg","","old","39","3","practice_recog","left","","","",""
"categorize-image","114","510626","0.0-3.0-7.0-0.7","o9ovycd47qx7076","practice_recog","5ebb0f6aff8da30d1f29dc29","5f60e3c0a3b16e07647b2ff9","5f60ef2ada80430172c9fd33","true","1009.2400000430644","./Stimuli/ImagesPractice/SN222.jpg","76","","","","test","false","","83","","SN","SN222.jpg","","new","40","3","practice_recog","right","","","",""
"categorize-image","115","512475","0.0-3.0-7.0-0.8","o9ovycd47qx7076","practice_recog","5ebb0f6aff8da30d1f29dc29","5f60e3c0a3b16e07647b2ff9","5f60ef2ada80430172c9fd33","true","1332.3249998502433","./Stimuli/ImagesPractice/LN72.jpg","83","","","","test","false","","76","","LN","LN72.jpg","","old","41","3","practice_recog","left","","","",""
"categorize-image","116","516221","0.0-3.0-7.0-0.9","o9ovycd47qx7076","practice_recog","5ebb0f6aff8da30d1f29dc29","5f60e3c0a3b16e07647b2ff9","5f60ef2ada80430172c9fd33","true","3225.9499998763204","./Stimuli/ImagesPractice/SM35.jpg","76","","","","test","true","","76","","SM","SM35.jpg","","old","42","3","practice_recog","right","","","",""
"categorize-image","117","517770","0.0-3.0-7.0-0.10","o9ovycd47qx7076","practice_recog","5ebb0f6aff8da30d1f29dc29","5f60e3c0a3b16e07647b2ff9","5f60ef2ada80430172c9fd33","true","1028.4049999900162","./Stimuli/ImagesPractice/LM224.jpg","76","","","","test","true","","76","","LM","LM224.jpg","","old","43","3","practice_recog","right","","","",""
"categorize-image","118","519586","0.0-3.0-7.0-0.11","o9ovycd47qx7076","practice_recog","5ebb0f6aff8da30d1f29dc29","5f60e3c0a3b16e07647b2ff9","5f60ef2ada80430172c9fd33","true","1296.610000077635","./Stimuli/ImagesPractice/LN2.jpg","83","","","","test","false","","76","","LN","LN2.jpg","","old","44","3","practice_recog","left","","","",""
"categorize-image","119","522148","0.0-3.0-7.0-0.12","o9ovycd47qx7076","practice_recog","5ebb0f6aff8da30d1f29dc29","5f60e3c0a3b16e07647b2ff9","5f60ef2ada80430172c9fd33","true","2051.119999960065","./Stimuli/ImagesPractice/LM230.jpg","76","","","","test","false","","83","","LM","LM230.jpg","","new","45","3","practice_recog","right","","","",""
"categorize-image","120","525010","0.0-3.0-7.0-0.13","o9ovycd47qx7076","practice_recog","5ebb0f6aff8da30d1f29dc29","5f60e3c0a3b16e07647b2ff9","5f60ef2ada80430172c9fd33","true","2349.5899999979883","./Stimuli/ImagesPractice/SN220.jpg","76","","","","test","true","","76","","SN","SN220.jpg","","old","46","3","practice_recog","right","","","",""
"categorize-image","121","526740","0.0-3.0-7.0-0.14","o9ovycd47qx7076","practice_recog","5ebb0f6aff8da30d1f29dc29","5f60e3c0a3b16e07647b2ff9","5f60ef2ada80430172c9fd33","true","1215.3849999886006","./Stimuli/ImagesPractice/LM55.jpg","76","","","","test","true","","76","","LM","LM55.jpg","","old","47","3","practice_recog","right","","","",""
"categorize-image","122","528509","0.0-3.0-7.0-0.15","o9ovycd47qx7076","practice_recog","5ebb0f6aff8da30d1f29dc29","5f60e3c0a3b16e07647b2ff9","5f60ef2ada80430172c9fd33","true","1250.3149998374283","./Stimuli/ImagesPractice/SM97.jpg","83","","","","test","true","","83","","SM","SM97.jpg","","new","48","3","practice_recog","left","","","",""
"html-keyboard-response","123","533493","0.0-3.0-8.0","o9ovycd47qx7076","instructions","5ebb0f6aff8da30d1f29dc29","5f60e3c0a3b16e07647b2ff9","5f60ef2ada80430172c9fd33","false","4979.975000023842","<div align=left> Great!<br><br>Are you ready to continue?<br>If you want to reread the instructions and redo the practice trials, please <br>press „Z“.<br><br>You can proceed when you are ready.<br><br>After the presentation of each object, you will receive an instruction whether to <br>remember or to forget the object.<br>We will test your memory of the following pictures only at the very end of <br>the experiment after all learning blocks are completed. <br><br>Press SPACE to CONTINUE when you are ready. </div>","32","","","","","","","","","","","","","","","","","","","",""
"html-keyboard-response","124","534748","0.0-4.0-0.0","o9ovycd47qx7076","instructions","5ebb0f6aff8da30d1f29dc29","5f60e3c0a3b16e07647b2ff9","5f60ef2ada80430172c9fd33","false","1250.2800000365824","<div align=left> The actual experiment is about to start.<br>The practice trials are over!<br><br>Please always respond both fast and accurately!<br><br>Remember: <br> <br><li> Please place your index fingers on the <strong>'S'</strong> and <strong>'L'</strong> keys <br>to respond as fast and accurately as possible.</li><li> Every picture can be classified as either mechanical or non-mechanical.</li><li> If you do not respond in time or commit an error, you will receive a corresponding feedback.<br> Please try to respond as <strong> fast </strong> and as <strong> accurately as possible </strong>.</li><li> Remember the <span style='color: dodgerblue; font-size: 28px'>O</span> pictures. <br></li><li> Please minimize distractions and stay focused. </li><br><br>Press SPACE to START.</div>","32","","","","","","","","","","","","","","","","","","","",""
"html-keyboard-response","125","535466","0.0-4.0-1.0-0.0","o9ovycd47qx7076","prime","5ebb0f6aff8da30d1f29dc29","5f60e3c0a3b16e07647b2ff9","5f60ef2ada80430172c9fd33","false","null","<span style=""color: black; font-size: 48px"">M + N</span>","null","","","","resp_prompt","","","","","","","","","","","","","","","",""
"categorize-image","126","536700","0.0-4.0-1.0-1.0","o9ovycd47qx7076","prime","5ebb0f6aff8da30d1f29dc29","5f60e3c0a3b16e07647b2ff9","5f60ef2ada80430172c9fd33","true","1221.004999941215","./Stimuli/SelectedImages/LN/LN82.bmp","76","","","","test","true","M + N","76","repetition","LN","LN82.bmp","forget","","49","3","prime1","right","","","",""
"html-keyboard-response","127","538719","0.0-4.0-1.0-3.0","o9ovycd47qx7076","prime","5ebb0f6aff8da30d1f29dc29","5f60e3c0a3b16e07647b2ff9","5f60ef2ada80430172c9fd33","false","null","<div style=""align-items: center; display: flex; color: darkorange; font-size: 90px""><b>ø</b></div>","null","","","","forget_cue","","","","","","","","","","","","","","","",""
"html-keyboard-response","128","539431","0.0-4.0-1.0-0.1","o9ovycd47qx7076","prime","5ebb0f6aff8da30d1f29dc29","5f60e3c0a3b16e07647b2ff9","5f60ef2ada80430172c9fd33","false","null","<span style=""color: black; font-size: 48px"">M + N</span>","null","","","","resp_prompt","","","","","","","","","","","","","","","",""
"categorize-image","129","540613","0.0-4.0-1.0-1.1","o9ovycd47qx7076","prime","5ebb0f6aff8da30d1f29dc29","5f60e3c0a3b16e07647b2ff9","5f60ef2ada80430172c9fd33","true","1169.1550000105053","./Stimuli/SelectedImages/LM/LM179.bmp","83","","","","test","true","M + N","83","switch","LM","LM179.bmp","forget","","50","3","prime1","left","","","",""
"html-keyboard-response","130","542627","0.0-4.0-1.0-3.1","o9ovycd47qx7076","prime","5ebb0f6aff8da30d1f29dc29","5f60e3c0a3b16e07647b2ff9","5f60ef2ada80430172c9fd33","false","null","<div style=""align-items: center; display: flex; color: darkorange; font-size: 90px""><b>ø</b></div>","null","","","","forget_cue","","","","","","","","","","","","","","","",""
"html-keyboard-response","131","543332","0.0-4.0-1.0-0.2","o9ovycd47qx7076","prime","5ebb0f6aff8da30d1f29dc29","5f60e3c0a3b16e07647b2ff9","5f60ef2ada80430172c9fd33","false","null","<span style=""color: black; font-size: 48px"">M + N</span>","null","","","","resp_prompt","","","","","","","","","","","","","","","",""
"categorize-image","132","544077","0.0-4.0-1.0-1.2","o9ovycd47qx7076","prime","5ebb0f6aff8da30d1f29dc29","5f60e3c0a3b16e07647b2ff9","5f60ef2ada80430172c9fd33","true","731.8249999079853","./Stimuli/SelectedImages/LM/LM129.bmp","83","","","","test","true","M + N","83","repetition","LM","LM129.bmp","forget","","51","3","prime1","left","","","",""
"html-keyboard-response","133","546082","0.0-4.0-1.0-3.2","o9ovycd47qx7076","prime","5ebb0f6aff8da30d1f29dc29","5f60e3c0a3b16e07647b2ff9","5f60ef2ada80430172c9fd33","false","null","<div style=""align-items: center; display: flex; color: darkorange; font-size: 90px""><b>ø</b></div>","null","","","","forget_cue","","","","","","","","","","","","","","","",""
"html-keyboard-response","134","546787","0.0-4.0-1.0-0.3","o9ovycd47qx7076","prime","5ebb0f6aff8da30d1f29dc29","5f60e3c0a3b16e07647b2ff9","5f60ef2ada80430172c9fd33","false","null","<span style=""color: black; font-size: 48px"">M + N</span>","null","","","","resp_prompt","","","","","","","","","","","","","","","",""
"categorize-image","135","547422","0.0-4.0-1.0-1.3","o9ovycd47qx7076","prime","5ebb0f6aff8da30d1f29dc29","5f60e3c0a3b16e07647b2ff9","5f60ef2ada80430172c9fd33","true","622.7750000543892","./Stimuli/SelectedImages/LM/LM216.bmp","83","","","","test","true","M + N","83","switch","LM","LM216.bmp","forget","","52","3","prime1","left","","","",""
"html-keyboard-response","136","549426","0.0-4.0-1.0-3.3","o9ovycd47qx7076","prime","5ebb0f6aff8da30d1f29dc29","5f60e3c0a3b16e07647b2ff9","5f60ef2ada80430172c9fd33","false","null","<div style=""align-items: center; display: flex; color: darkorange; font-size: 90px""><b>ø</b></div>","null","","","","forget_cue","","","","","","","","","","","","","","","",""
"html-keyboard-response","137","550129","0.0-4.0-1.0-0.4","o9ovycd47qx7076","prime","5ebb0f6aff8da30d1f29dc29","5f60e3c0a3b16e07647b2ff9","5f60ef2ada80430172c9fd33","false","null","<span style=""color: black; font-size: 48px"">N + M</span>","null","","","","resp_prompt","","","","","","","","","","","","","","","",""
"categorize-image","138","551380","0.0-4.0-1.0-1.4","o9ovycd47qx7076","prime","5ebb0f6aff8da30d1f29dc29","5f60e3c0a3b16e07647b2ff9","5f60ef2ada80430172c9fd33","true","1239.0049998648465","./Stimuli/SelectedImages/LN/LN12.bmp","83","","","","test","true","N + M","83","switch","LN","LN12.bmp","remember","","53","3","prime1","left","","","",""
"html-keyboard-response","139","553398","0.0-4.0-1.0-3.4","o9ovycd47qx7076","prime","5ebb0f6aff8da30d1f29dc29","5f60e3c0a3b16e07647b2ff9","5f60ef2ada80430172c9fd33","false","null","<div style=""align-items: center; display: flex; color: dodgerblue; font-size: 90px""><b>o</b></div>","null","","","","forget_cue","","","","","","","","","","","","","","","",""
"html-keyboard-response","140","554102","0.0-4.0-1.0-0.5","o9ovycd47qx7076","prime","5ebb0f6aff8da30d1f29dc29","5f60e3c0a3b16e07647b2ff9","5f60ef2ada80430172c9fd33","false","null","<span style=""color: black; font-size: 48px"">M + N</span>","null","","","","resp_prompt","","","","","","","","","","","","","","","",""
"categorize-image","141","555430","0.0-4.0-1.0-1.5","o9ovycd47qx7076","prime","5ebb0f6aff8da30d1f29dc29","5f60e3c0a3b16e07647b2ff9","5f60ef2ada80430172c9fd33","true","1313.994999974966","./Stimuli/SelectedImages/SN/SN111.bmp","76","","","","test","true","M + N","76","switch","SN","SN111.bmp","remember","","54","3","prime1","right","","","",""
"html-keyboard-response","142","557435","0.0-4.0-1.0-3.5","o9ovycd47qx7076","prime","5ebb0f6aff8da30d1f29dc29","5f60e3c0a3b16e07647b2ff9","5f60ef2ada80430172c9fd33","false","null","<div style=""align-items: center; display: flex; color: dodgerblue; font-size: 90px""><b>o</b></div>","null","","","","forget_cue","","","","","","","","","","","","","","","",""
"html-keyboard-response","143","558147","0.0-4.0-1.0-0.6","o9ovycd47qx7076","prime","5ebb0f6aff8da30d1f29dc29","5f60e3c0a3b16e07647b2ff9","5f60ef2ada80430172c9fd33","false","null","<span style=""color: black; font-size: 48px"">N + M</span>","null","","","","resp_prompt","","","","","","","","","","","","","","","",""
"categorize-image","144","559277","0.0-4.0-1.0-1.6","o9ovycd47qx7076","prime","5ebb0f6aff8da30d1f29dc29","5f60e3c0a3b16e07647b2ff9","5f60ef2ada80430172c9fd33","true","1117.3799999523908","./Stimuli/SelectedImages/LM/LM51.bmp","76","","","","test","true","N + M","76","repetition","LM","LM51.bmp","remember","","55","3","prime1","right","","","",""
"html-keyboard-response","145","561288","0.0-4.0-1.0-3.6","o9ovycd47qx7076","prime","5ebb0f6aff8da30d1f29dc29","5f60e3c0a3b16e07647b2ff9","5f60ef2ada80430172c9fd33","false","null","<div style=""align-items: center; display: flex; color: dodgerblue; font-size: 90px""><b>o</b></div>","null","","","","forget_cue","","","","","","","","","","","","","","","",""
"html-keyboard-response","146","561993","0.0-4.0-1.0-0.7","o9ovycd47qx7076","prime","5ebb0f6aff8da30d1f29dc29","5f60e3c0a3b16e07647b2ff9","5f60ef2ada80430172c9fd33","false","null","<span style=""color: black; font-size: 48px"">M + N</span>","null","","","","resp_prompt","","","","","","","","","","","","","","","",""
"categorize-image","147","562676","0.0-4.0-1.0-1.7","o9ovycd47qx7076","prime","5ebb0f6aff8da30d1f29dc29","5f60e3c0a3b16e07647b2ff9","5f60ef2ada80430172c9fd33","true","670.115000102669","./Stimuli/SelectedImages/SM/SM76.bmp","83","","","","test","true","M + N","83","repetition","SM","SM76.bmp","forget","","56","3","prime1","left","","","",""
"html-keyboard-response","148","564691","0.0-4.0-1.0-3.7","o9ovycd47qx7076","prime","5ebb0f6aff8da30d1f29dc29","5f60e3c0a3b16e07647b2ff9","5f60ef2ada80430172c9fd33","false","null","<div style=""align-items: center; display: flex; color: darkorange; font-size: 90px""><b>ø</b></div>","null","","","","forget_cue","","","","","","","","","","","","","","","",""
"html-keyboard-response","149","565408","0.0-4.0-1.0-0.8","o9ovycd47qx7076","prime","5ebb0f6aff8da30d1f29dc29","5f60e3c0a3b16e07647b2ff9","5f60ef2ada80430172c9fd33","false","null","<span style=""color: black; font-size: 48px"">N + M</span>","null","","","","resp_prompt","","","","","","","","","","","","","","","",""
"categorize-image","150","566954","0.0-4.0-1.0-1.8","o9ovycd47qx7076","prime","5ebb0f6aff8da30d1f29dc29","5f60e3c0a3b16e07647b2ff9","5f60ef2ada80430172c9fd33","true","1533.5999999660999","./Stimuli/SelectedImages/LN/LN101.bmp","83","","","","test","true","N + M","83","repetition","LN","LN101.bmp","forget","","57","3","prime1","left","","","",""
"html-keyboard-response","151","568965","0.0-4.0-1.0-3.8","o9ovycd47qx7076","prime","5ebb0f6aff8da30d1f29dc29","5f60e3c0a3b16e07647b2ff9","5f60ef2ada80430172c9fd33","false","null","<div style=""align-items: center; display: flex; color: darkorange; font-size: 90px""><b>ø</b></div>","null","","","","forget_cue","","","","","","","","","","","","","","","",""
"html-keyboard-response","152","569678","0.0-4.0-1.0-0.9","o9ovycd47qx7076","prime","5ebb0f6aff8da30d1f29dc29","5f60e3c0a3b16e07647b2ff9","5f60ef2ada80430172c9fd33","false","null","<span style=""color: black; font-size: 48px"">N + M</span>","null","","","","resp_prompt","","","","","","","","","","","","","","","",""
"categorize-image","153","570914","0.0-4.0-1.0-1.9","o9ovycd47qx7076","prime","5ebb0f6aff8da30d1f29dc29","5f60e3c0a3b16e07647b2ff9","5f60ef2ada80430172c9fd33","true","1223.4849999658763","./Stimuli/SelectedImages/LM/LM48.bmp","76","","","","test","true","N + M","76","switch","LM","LM48.bmp","remember","","58","3","prime1","right","","","",""
"html-keyboard-response","154","572930","0.0-4.0-1.0-3.9","o9ovycd47qx7076","prime","5ebb0f6aff8da30d1f29dc29","5f60e3c0a3b16e07647b2ff9","5f60ef2ada80430172c9fd33","false","null","<div style=""align-items: center; display: flex; color: dodgerblue; font-size: 90px""><b>o</b></div>","null","","","","forget_cue","","","","","","","","","","","","","","","",""
"html-keyboard-response","155","573638","0.0-4.0-1.0-0.10","o9ovycd47qx7076","prime","5ebb0f6aff8da30d1f29dc29","5f60e3c0a3b16e07647b2ff9","5f60ef2ada80430172c9fd33","false","null","<span style=""color: black; font-size: 48px"">N + M</span>","null","","","","resp_prompt","","","","","","","","","","","","","","","",""
"categorize-image","156","575567","0.0-4.0-1.0-1.10","o9ovycd47qx7076","prime","5ebb0f6aff8da30d1f29dc29","5f60e3c0a3b16e07647b2ff9","5f60ef2ada80430172c9fd33","true","1921.0999999195337","./Stimuli/SelectedImages/SN/SN64.bmp","76","","","","test","false","N + M","83","switch","SN","SN64.bmp","remember","","59","3","prime1","right","","","",""
"html-keyboard-response","157","576074","0.0-4.0-1.0-2.10-0.10","o9ovycd47qx7076","prime","5ebb0f6aff8da30d1f29dc29","5f60e3c0a3b16e07647b2ff9","5f60ef2ada80430172c9fd33","false","null","<span style=""color: red; font-size: 48px"">Error!</span>","null","","","","feedback","","","","","","","","","","","","","","","",""
"html-keyboard-response","158","578077","0.0-4.0-1.0-3.10","o9ovycd47qx7076","prime","5ebb0f6aff8da30d1f29dc29","5f60e3c0a3b16e07647b2ff9","5f60ef2ada80430172c9fd33","false","null","<div style=""align-items: center; display: flex; color: dodgerblue; font-size: 90px""><b>o</b></div>","null","","","","forget_cue","","","","","","","","","","","","","","","",""
"html-keyboard-response","159","578789","0.0-4.0-1.0-0.11","o9ovycd47qx7076","prime","5ebb0f6aff8da30d1f29dc29","5f60e3c0a3b16e07647b2ff9","5f60ef2ada80430172c9fd33","false","null","<span style=""color: black; font-size: 48px"">M + N</span>","null","","","","resp_prompt","","","","","","","","","","","","","","","",""
"categorize-image","160","579833","0.0-4.0-1.0-1.11","o9ovycd47qx7076","prime","5ebb0f6aff8da30d1f29dc29","5f60e3c0a3b16e07647b2ff9","5f60ef2ada80430172c9fd33","true","1031.0599999502301","./Stimuli/SelectedImages/SM/SM148.bmp","83","","","","test","true","M + N","83","switch","SM","SM148.bmp","remember","","60","3","prime1","left","","","",""
"html-keyboard-response","161","581837","0.0-4.0-1.0-3.11","o9ovycd47qx7076","prime","5ebb0f6aff8da30d1f29dc29","5f60e3c0a3b16e07647b2ff9","5f60ef2ada80430172c9fd33","false","null","<div style=""align-items: center; display: flex; color: dodgerblue; font-size: 90px""><b>o</b></div>","null","","","","forget_cue","","","","","","","","","","","","","","","",""
"html-keyboard-response","162","582543","0.0-4.0-1.0-0.12","o9ovycd47qx7076","prime","5ebb0f6aff8da30d1f29dc29","5f60e3c0a3b16e07647b2ff9","5f60ef2ada80430172c9fd33","false","null","<span style=""color: black; font-size: 48px"">M + N</span>","null","","","","resp_prompt","","","","","","","","","","","","","","","",""
"categorize-image","163","583359","0.0-4.0-1.0-1.12","o9ovycd47qx7076","prime","5ebb0f6aff8da30d1f29dc29","5f60e3c0a3b16e07647b2ff9","5f60ef2ada80430172c9fd33","true","803.0399999115616","./Stimuli/SelectedImages/LN/LN9.bmp","76","","","","test","true","M + N","76","switch","LN","LN9.bmp","forget","","61","3","prime1","right","","","",""
"html-keyboard-response","164","585379","0.0-4.0-1.0-3.12","o9ovycd47qx7076","prime","5ebb0f6aff8da30d1f29dc29","5f60e3c0a3b16e07647b2ff9","5f60ef2ada80430172c9fd33","false","null","<div style=""align-items: center; display: flex; color: darkorange; font-size: 90px""><b>ø</b></div>","null","","","","forget_cue","","","","","","","","","","","","","","","",""
"html-keyboard-response","165","586088","0.0-4.0-1.0-0.13","o9ovycd47qx7076","prime","5ebb0f6aff8da30d1f29dc29","5f60e3c0a3b16e07647b2ff9","5f60ef2ada80430172c9fd33","false","null","<span style=""color: black; font-size: 48px"">N + M</span>","null","","","","resp_prompt","","","","","","","","","","","","","","","",""
"categorize-image","166","587281","0.0-4.0-1.0-1.13","o9ovycd47qx7076","prime","5ebb0f6aff8da30d1f29dc29","5f60e3c0a3b16e07647b2ff9","5f60ef2ada80430172c9fd33","true","1180.9050000738353","./Stimuli/SelectedImages/SN/SN240.bmp","83","","","","test","true","N + M","83","switch","SN","SN240.bmp","forget","","62","3","prime1","left","","","",""
"html-keyboard-response","167","589296","0.0-4.0-1.0-3.13","o9ovycd47qx7076","prime","5ebb0f6aff8da30d1f29dc29","5f60e3c0a3b16e07647b2ff9","5f60ef2ada80430172c9fd33","false","null","<div style=""align-items: center; display: flex; color: darkorange; font-size: 90px""><b>ø</b></div>","null","","","","forget_cue","","","","","","","","","","","","","","","",""
"html-keyboard-response","168","590008","0.0-4.0-1.0-0.14","o9ovycd47qx7076","prime","5ebb0f6aff8da30d1f29dc29","5f60e3c0a3b16e07647b2ff9","5f60ef2ada80430172c9fd33","false","null","<span style=""color: black; font-size: 48px"">M + N</span>","null","","","","resp_prompt","","","","","","","","","","","","","","","",""
"categorize-image","169","590787","0.0-4.0-1.0-1.14","o9ovycd47qx7076","prime","5ebb0f6aff8da30d1f29dc29","5f60e3c0a3b16e07647b2ff9","5f60ef2ada80430172c9fd33","true","767.214999999851","./Stimuli/SelectedImages/SM/SM207.bmp","83","","","","test","true","M + N","83","repetition","SM","SM207.bmp","remember","","63","3","prime1","left","","","",""
"html-keyboard-response","170","592794","0.0-4.0-1.0-3.14","o9ovycd47qx7076","prime","5ebb0f6aff8da30d1f29dc29","5f60e3c0a3b16e07647b2ff9","5f60ef2ada80430172c9fd33","false","null","<div style=""align-items: center; display: flex; color: dodgerblue; font-size: 90px""><b>o</b></div>","null","","","","forget_cue","","","","","","","","","","","","","","","",""
"html-keyboard-response","171","593507","0.0-4.0-1.0-0.15","o9ovycd47qx7076","prime","5ebb0f6aff8da30d1f29dc29","5f60e3c0a3b16e07647b2ff9","5f60ef2ada80430172c9fd33","false","null","<span style=""color: black; font-size: 48px"">N + M</span>","null","","","","resp_prompt","","","","","","","","","","","","","","","",""
"categorize-image","172","594265","0.0-4.0-1.0-1.15","o9ovycd47qx7076","prime","5ebb0f6aff8da30d1f29dc29","5f60e3c0a3b16e07647b2ff9","5f60ef2ada80430172c9fd33","true","745.3749999403954","./Stimuli/SelectedImages/SM/SM195.bmp","83","","","","test","false","N + M","76","switch","SM","SM195.bmp","forget","","64","3","prime1","left","","","",""
"html-keyboard-response","173","594776","0.0-4.0-1.0-2.15-0.15","o9ovycd47qx7076","prime","5ebb0f6aff8da30d1f29dc29","5f60e3c0a3b16e07647b2ff9","5f60ef2ada80430172c9fd33","false","null","<span style=""color: red; font-size: 48px"">Error!</span>","null","","","","feedback","","","","","","","","","","","","","","","",""
"html-keyboard-response","174","596785","0.0-4.0-1.0-3.15","o9ovycd47qx7076","prime","5ebb0f6aff8da30d1f29dc29","5f60e3c0a3b16e07647b2ff9","5f60ef2ada80430172c9fd33","false","null","<div style=""align-items: center; display: flex; color: darkorange; font-size: 90px""><b>ø</b></div>","null","","","","forget_cue","","","","","","","","","","","","","","","",""
"html-keyboard-response","175","597497","0.0-4.0-1.0-0.16","o9ovycd47qx7076","prime","5ebb0f6aff8da30d1f29dc29","5f60e3c0a3b16e07647b2ff9","5f60ef2ada80430172c9fd33","false","null","<span style=""color: black; font-size: 48px"">M + N</span>","null","","","","resp_prompt","","","","","","","","","","","","","","","",""
"categorize-image","176","598360","0.0-4.0-1.0-1.16","o9ovycd47qx7076","prime","5ebb0f6aff8da30d1f29dc29","5f60e3c0a3b16e07647b2ff9","5f60ef2ada80430172c9fd33","true","848.0050000362098","./Stimuli/SelectedImages/SM/SM128.bmp","83","","","","test","true","M + N","83","switch","SM","SM128.bmp","forget","","65","3","prime1","left","","","",""
"html-keyboard-response","177","600367","0.0-4.0-1.0-3.16","o9ovycd47qx7076","prime","5ebb0f6aff8da30d1f29dc29","5f60e3c0a3b16e07647b2ff9","5f60ef2ada80430172c9fd33","false","null","<div style=""align-items: center; display: flex; color: darkorange; font-size: 90px""><b>ø</b></div>","null","","","","forget_cue","","","","","","","","","","","","","","","",""
"html-keyboard-response","178","601080","0.0-4.0-1.0-0.17","o9ovycd47qx7076","prime","5ebb0f6aff8da30d1f29dc29","5f60e3c0a3b16e07647b2ff9","5f60ef2ada80430172c9fd33","false","null","<span style=""color: black; font-size: 48px"">M + N</span>","null","","","","resp_prompt","","","","","","","","","","","","","","","",""
"categorize-image","179","601775","0.0-4.0-1.0-1.17","o9ovycd47qx7076","prime","5ebb0f6aff8da30d1f29dc29","5f60e3c0a3b16e07647b2ff9","5f60ef2ada80430172c9fd33","true","684.4249998684973","./Stimuli/SelectedImages/SM/SM74.bmp","83","","","","test","true","M + N","83","repetition","SM","SM74.bmp","remember","","66","3","prime1","left","","","",""
"html-keyboard-response","180","603787","0.0-4.0-1.0-3.17","o9ovycd47qx7076","prime","5ebb0f6aff8da30d1f29dc29","5f60e3c0a3b16e07647b2ff9","5f60ef2ada80430172c9fd33","false","null","<div style=""align-items: center; display: flex; color: dodgerblue; font-size: 90px""><b>o</b></div>","null","","","","forget_cue","","","","","","","","","","","","","","","",""
"html-keyboard-response","181","604490","0.0-4.0-1.0-0.18","o9ovycd47qx7076","prime","5ebb0f6aff8da30d1f29dc29","5f60e3c0a3b16e07647b2ff9","5f60ef2ada80430172c9fd33","false","null","<span style=""color: black; font-size: 48px"">M + N</span>","null","","","","resp_prompt","","","","","","","","","","","","","","","",""
"categorize-image","182","605499","0.0-4.0-1.0-1.18","o9ovycd47qx7076","prime","5ebb0f6aff8da30d1f29dc29","5f60e3c0a3b16e07647b2ff9","5f60ef2ada80430172c9fd33","true","996.6200001072139","./Stimuli/SelectedImages/SM/SM17.bmp","83","","","","test","true","M + N","83","switch","SM","SM17.bmp","remember","","67","3","prime1","left","","","",""
"html-keyboard-response","183","607503","0.0-4.0-1.0-3.18","o9ovycd47qx7076","prime","5ebb0f6aff8da30d1f29dc29","5f60e3c0a3b16e07647b2ff9","5f60ef2ada80430172c9fd33","false","null","<div style=""align-items: center; display: flex; color: dodgerblue; font-size: 90px""><b>o</b></div>","null","","","","forget_cue","","","","","","","","","","","","","","","",""
"html-keyboard-response","184","608206","0.0-4.0-1.0-0.19","o9ovycd47qx7076","prime","5ebb0f6aff8da30d1f29dc29","5f60e3c0a3b16e07647b2ff9","5f60ef2ada80430172c9fd33","false","null","<span style=""color: black; font-size: 48px"">N + M</span>","null","","","","resp_prompt","","","","","","","","","","","","","","","",""
"categorize-image","185","609664","0.0-4.0-1.0-1.19","o9ovycd47qx7076","prime","5ebb0f6aff8da30d1f29dc29","5f60e3c0a3b16e07647b2ff9","5f60ef2ada80430172c9fd33","true","1445.6150000914931","./Stimuli/SelectedImages/LM/LM157.bmp","76","","","","test","true","N + M","76","switch","LM","LM157.bmp","remember","","68","3","prime1","right","","","",""
"html-keyboard-response","186","611673","0.0-4.0-1.0-3.19","o9ovycd47qx7076","prime","5ebb0f6aff8da30d1f29dc29","5f60e3c0a3b16e07647b2ff9","5f60ef2ada80430172c9fd33","false","null","<div style=""align-items: center; display: flex; color: dodgerblue; font-size: 90px""><b>o</b></div>","null","","","","forget_cue","","","","","","","","","","","","","","","",""
"html-keyboard-response","187","612387","0.0-4.0-1.0-0.20","o9ovycd47qx7076","prime","5ebb0f6aff8da30d1f29dc29","5f60e3c0a3b16e07647b2ff9","5f60ef2ada80430172c9fd33","false","null","<span style=""color: black; font-size: 48px"">N + M</span>","null","","","","resp_prompt","","","","","","","","","","","","","","","",""
"categorize-image","188","613719","0.0-4.0-1.0-1.20","o9ovycd47qx7076","prime","5ebb0f6aff8da30d1f29dc29","5f60e3c0a3b16e07647b2ff9","5f60ef2ada80430172c9fd33","true","1319.0650001633912","./Stimuli/SelectedImages/SN/SN49.bmp","83","","","","test","true","N + M","83","repetition","SN","SN49.bmp","remember","","69","3","prime1","left","","","",""
"html-keyboard-response","189","615726","0.0-4.0-1.0-3.20","o9ovycd47qx7076","prime","5ebb0f6aff8da30d1f29dc29","5f60e3c0a3b16e07647b2ff9","5f60ef2ada80430172c9fd33","false","null","<div style=""align-items: center; display: flex; color: dodgerblue; font-size: 90px""><b>o</b></div>","null","","","","forget_cue","","","","","","","","","","","","","","","",""
"html-keyboard-response","190","616433","0.0-4.0-1.0-0.21","o9ovycd47qx7076","prime","5ebb0f6aff8da30d1f29dc29","5f60e3c0a3b16e07647b2ff9","5f60ef2ada80430172c9fd33","false","null","<span style=""color: black; font-size: 48px"">N + M</span>","null","","","","resp_prompt","","","","","","","","","","","","","","","",""
"categorize-image","191","617319","0.0-4.0-1.0-1.21","o9ovycd47qx7076","prime","5ebb0f6aff8da30d1f29dc29","5f60e3c0a3b16e07647b2ff9","5f60ef2ada80430172c9fd33","true","873.505000025034","./Stimuli/SelectedImages/SM/SM205.bmp","83","","","","test","false","N + M","76","switch","SM","SM205.bmp","remember","","70","3","prime1","left","","","",""
"html-keyboard-response","192","617831","0.0-4.0-1.0-2.21-0.21","o9ovycd47qx7076","prime","5ebb0f6aff8da30d1f29dc29","5f60e3c0a3b16e07647b2ff9","5f60ef2ada80430172c9fd33","false","null","<span style=""color: red; font-size: 48px"">Error!</span>","null","","","","feedback","","","","","","","","","","","","","","","",""
"html-keyboard-response","193","619849","0.0-4.0-1.0-3.21","o9ovycd47qx7076","prime","5ebb0f6aff8da30d1f29dc29","5f60e3c0a3b16e07647b2ff9","5f60ef2ada80430172c9fd33","false","null","<div style=""align-items: center; display: flex; color: dodgerblue; font-size: 90px""><b>o</b></div>","null","","","","forget_cue","","","","","","","","","","","","","","","",""
"html-keyboard-response","194","620553","0.0-4.0-1.0-0.22","o9ovycd47qx7076","prime","5ebb0f6aff8da30d1f29dc29","5f60e3c0a3b16e07647b2ff9","5f60ef2ada80430172c9fd33","false","null","<span style=""color: black; font-size: 48px"">N + M</span>","null","","","","resp_prompt","","","","","","","","","","","","","","","",""
"categorize-image","195","621694","0.0-4.0-1.0-1.22","o9ovycd47qx7076","prime","5ebb0f6aff8da30d1f29dc29","5f60e3c0a3b16e07647b2ff9","5f60ef2ada80430172c9fd33","true","1128.5550000611693","./Stimuli/SelectedImages/LN/LN111.bmp","83","","","","test","true","N + M","83","repetition","LN","LN111.bmp","remember","","71","3","prime1","left","","","",""
"html-keyboard-response","196","623699","0.0-4.0-1.0-3.22","o9ovycd47qx7076","prime","5ebb0f6aff8da30d1f29dc29","5f60e3c0a3b16e07647b2ff9","5f60ef2ada80430172c9fd33","false","null","<div style=""align-items: center; display: flex; color: dodgerblue; font-size: 90px""><b>o</b></div>","null","","","","forget_cue","","","","","","","","","","","","","","","",""
"html-keyboard-response","197","624407","0.0-4.0-1.0-0.23","o9ovycd47qx7076","prime","5ebb0f6aff8da30d1f29dc29","5f60e3c0a3b16e07647b2ff9","5f60ef2ada80430172c9fd33","false","null","<span style=""color: black; font-size: 48px"">M + N</span>","null","","","","resp_prompt","","","","","","","","","","","","","","","",""
"categorize-image","198","625148","0.0-4.0-1.0-1.23","o9ovycd47qx7076","prime","5ebb0f6aff8da30d1f29dc29","5f60e3c0a3b16e07647b2ff9","5f60ef2ada80430172c9fd33","true","732.4650001246482","./Stimuli/SelectedImages/SN/SN179.bmp","76","","","","test","true","M + N","76","switch","SN","SN179.bmp","forget","","72","3","prime1","right","","","",""
"html-keyboard-response","199","627156","0.0-4.0-1.0-3.23","o9ovycd47qx7076","prime","5ebb0f6aff8da30d1f29dc29","5f60e3c0a3b16e07647b2ff9","5f60ef2ada80430172c9fd33","false","null","<div style=""align-items: center; display: flex; color: darkorange; font-size: 90px""><b>ø</b></div>","null","","","","forget_cue","","","","","","","","","","","","","","","",""
"html-keyboard-response","200","627873","0.0-4.0-1.0-0.24","o9ovycd47qx7076","prime","5ebb0f6aff8da30d1f29dc29","5f60e3c0a3b16e07647b2ff9","5f60ef2ada80430172c9fd33","false","null","<span style=""color: black; font-size: 48px"">N + M</span>","null","","","","resp_prompt","","","","","","","","","","","","","","","",""
"categorize-image","201","628673","0.0-4.0-1.0-1.24","o9ovycd47qx7076","prime","5ebb0f6aff8da30d1f29dc29","5f60e3c0a3b16e07647b2ff9","5f60ef2ada80430172c9fd33","true","788.2149999495596","./Stimuli/SelectedImages/SN/SN18.bmp","76","","","","test","false","N + M","83","repetition","SN","SN18.bmp","forget","","73","3","prime1","right","","","",""
"html-keyboard-response","202","629189","0.0-4.0-1.0-2.24-0.24","o9ovycd47qx7076","prime","5ebb0f6aff8da30d1f29dc29","5f60e3c0a3b16e07647b2ff9","5f60ef2ada80430172c9fd33","false","null","<span style=""color: red; font-size: 48px"">Error!</span>","null","","","","feedback","","","","","","","","","","","","","","","",""
"html-keyboard-response","203","631197","0.0-4.0-1.0-3.24","o9ovycd47qx7076","prime","5ebb0f6aff8da30d1f29dc29","5f60e3c0a3b16e07647b2ff9","5f60ef2ada80430172c9fd33","false","null","<div style=""align-items: center; display: flex; color: darkorange; font-size: 90px""><b>ø</b></div>","null","","","","forget_cue","","","","","","","","","","","","","","","",""
"html-keyboard-response","204","631913","0.0-4.0-1.0-0.25","o9ovycd47qx7076","prime","5ebb0f6aff8da30d1f29dc29","5f60e3c0a3b16e07647b2ff9","5f60ef2ada80430172c9fd33","false","null","<span style=""color: black; font-size: 48px"">N + M</span>","null","","","","resp_prompt","","","","","","","","","","","","","","","",""
"categorize-image","205","633286","0.0-4.0-1.0-1.25","o9ovycd47qx7076","prime","5ebb0f6aff8da30d1f29dc29","5f60e3c0a3b16e07647b2ff9","5f60ef2ada80430172c9fd33","true","1360.3999998886138","./Stimuli/SelectedImages/LN/LN59.bmp","83","","","","test","true","N + M","83","switch","LN","LN59.bmp","forget","","74","3","prime1","left","","","",""
"html-keyboard-response","206","635300","0.0-4.0-1.0-3.25","o9ovycd47qx7076","prime","5ebb0f6aff8da30d1f29dc29","5f60e3c0a3b16e07647b2ff9","5f60ef2ada80430172c9fd33","false","null","<div style=""align-items: center; display: flex; color: darkorange; font-size: 90px""><b>ø</b></div>","null","","","","forget_cue","","","","","","","","","","","","","","","",""
"html-keyboard-response","207","636012","0.0-4.0-1.0-0.26","o9ovycd47qx7076","prime","5ebb0f6aff8da30d1f29dc29","5f60e3c0a3b16e07647b2ff9","5f60ef2ada80430172c9fd33","false","null","<span style=""color: black; font-size: 48px"">N + M</span>","null","","","","resp_prompt","","","","","","","","","","","","","","","",""
"categorize-image","208","636988","0.0-4.0-1.0-1.26","o9ovycd47qx7076","prime","5ebb0f6aff8da30d1f29dc29","5f60e3c0a3b16e07647b2ff9","5f60ef2ada80430172c9fd33","true","963.4000000078231","./Stimuli/SelectedImages/SM/SM184.bmp","76","","","","test","true","N + M","76","repetition","SM","SM184.bmp","remember","","75","3","prime1","right","","","",""
"html-keyboard-response","209","638995","0.0-4.0-1.0-3.26","o9ovycd47qx7076","prime","5ebb0f6aff8da30d1f29dc29","5f60e3c0a3b16e07647b2ff9","5f60ef2ada80430172c9fd33","false","null","<div style=""align-items: center; display: flex; color: dodgerblue; font-size: 90px""><b>o</b></div>","null","","","","forget_cue","","","","","","","","","","","","","","","",""
"html-keyboard-response","210","639710","0.0-4.0-1.0-0.27","o9ovycd47qx7076","prime","5ebb0f6aff8da30d1f29dc29","5f60e3c0a3b16e07647b2ff9","5f60ef2ada80430172c9fd33","false","null","<span style=""color: black; font-size: 48px"">M + N</span>","null","","","","resp_prompt","","","","","","","","","","","","","","","",""
"categorize-image","211","640537","0.0-4.0-1.0-1.27","o9ovycd47qx7076","prime","5ebb0f6aff8da30d1f29dc29","5f60e3c0a3b16e07647b2ff9","5f60ef2ada80430172c9fd33","true","814.9000001139939","./Stimuli/SelectedImages/LM/LM235.bmp","83","","","","test","true","M + N","83","switch","LM","LM235.bmp","remember","","76","3","prime1","left","","","",""
"html-keyboard-response","212","642548","0.0-4.0-1.0-3.27","o9ovycd47qx7076","prime","5ebb0f6aff8da30d1f29dc29","5f60e3c0a3b16e07647b2ff9","5f60ef2ada80430172c9fd33","false","null","<div style=""align-items: center; display: flex; color: dodgerblue; font-size: 90px""><b>o</b></div>","null","","","","forget_cue","","","","","","","","","","","","","","","",""
"html-keyboard-response","213","643252","0.0-4.0-1.0-0.28","o9ovycd47qx7076","prime","5ebb0f6aff8da30d1f29dc29","5f60e3c0a3b16e07647b2ff9","5f60ef2ada80430172c9fd33","false","null","<span style=""color: black; font-size: 48px"">N + M</span>","null","","","","resp_prompt","","","","","","","","","","","","","","","",""
"categorize-image","214","645075","0.0-4.0-1.0-1.28","o9ovycd47qx7076","prime","5ebb0f6aff8da30d1f29dc29","5f60e3c0a3b16e07647b2ff9","5f60ef2ada80430172c9fd33","true","1813.2700000423938","./Stimuli/SelectedImages/SM/SM24.bmp","76","","","","test","true","N + M","76","repetition","SM","SM24.bmp","remember","","77","3","prime1","right","","","",""
"html-keyboard-response","215","647088","0.0-4.0-1.0-3.28","o9ovycd47qx7076","prime","5ebb0f6aff8da30d1f29dc29","5f60e3c0a3b16e07647b2ff9","5f60ef2ada80430172c9fd33","false","null","<div style=""align-items: center; display: flex; color: dodgerblue; font-size: 90px""><b>o</b></div>","null","","","","forget_cue","","","","","","","","","","","","","","","",""
"html-keyboard-response","216","647793","0.0-4.0-1.0-0.29","o9ovycd47qx7076","prime","5ebb0f6aff8da30d1f29dc29","5f60e3c0a3b16e07647b2ff9","5f60ef2ada80430172c9fd33","false","null","<span style=""color: black; font-size: 48px"">M + N</span>","null","","","","resp_prompt","","","","","","","","","","","","","","","",""
"categorize-image","217","648448","0.0-4.0-1.0-1.29","o9ovycd47qx7076","prime","5ebb0f6aff8da30d1f29dc29","5f60e3c0a3b16e07647b2ff9","5f60ef2ada80430172c9fd33","true","642.1349998563528","./Stimuli/SelectedImages/LM/LM150.bmp","83","","","","test","true","M + N","83","switch","LM","LM150.bmp","remember","","78","3","prime1","left","","","",""
"html-keyboard-response","218","650455","0.0-4.0-1.0-3.29","o9ovycd47qx7076","prime","5ebb0f6aff8da30d1f29dc29","5f60e3c0a3b16e07647b2ff9","5f60ef2ada80430172c9fd33","false","null","<div style=""align-items: center; display: flex; color: dodgerblue; font-size: 90px""><b>o</b></div>","null","","","","forget_cue","","","","","","","","","","","","","","","",""
"html-keyboard-response","219","651162","0.0-4.0-1.0-0.30","o9ovycd47qx7076","prime","5ebb0f6aff8da30d1f29dc29","5f60e3c0a3b16e07647b2ff9","5f60ef2ada80430172c9fd33","false","null","<span style=""color: black; font-size: 48px"">N + M</span>","null","","","","resp_prompt","","","","","","","","","","","","","","","",""
"categorize-image","220","652725","0.0-4.0-1.0-1.30","o9ovycd47qx7076","prime","5ebb0f6aff8da30d1f29dc29","5f60e3c0a3b16e07647b2ff9","5f60ef2ada80430172c9fd33","true","1551.3850001152605","./Stimuli/SelectedImages/LM/LM167.bmp","83","","","","test","false","N + M","76","switch","LM","LM167.bmp","forget","","79","3","prime1","left","","","",""
"html-keyboard-response","221","653239","0.0-4.0-1.0-2.30-0.30","o9ovycd47qx7076","prime","5ebb0f6aff8da30d1f29dc29","5f60e3c0a3b16e07647b2ff9","5f60ef2ada80430172c9fd33","false","null","<span style=""color: red; font-size: 48px"">Error!</span>","null","","","","feedback","","","","","","","","","","","","","","","",""
"html-keyboard-response","222","655252","0.0-4.0-1.0-3.30","o9ovycd47qx7076","prime","5ebb0f6aff8da30d1f29dc29","5f60e3c0a3b16e07647b2ff9","5f60ef2ada80430172c9fd33","false","null","<div style=""align-items: center; display: flex; color: darkorange; font-size: 90px""><b>ø</b></div>","null","","","","forget_cue","","","","","","","","","","","","","","","",""
"html-keyboard-response","223","655969","0.0-4.0-1.0-0.31","o9ovycd47qx7076","prime","5ebb0f6aff8da30d1f29dc29","5f60e3c0a3b16e07647b2ff9","5f60ef2ada80430172c9fd33","false","null","<span style=""color: black; font-size: 48px"">N + M</span>","null","","","","resp_prompt","","","","","","","","","","","","","","","",""
"categorize-image","224","657098","0.0-4.0-1.0-1.31","o9ovycd47qx7076","prime","5ebb0f6aff8da30d1f29dc29","5f60e3c0a3b16e07647b2ff9","5f60ef2ada80430172c9fd33","true","1116.8150000739843","./Stimuli/SelectedImages/SM/SM78.bmp","76","","","","test","true","N + M","76","repetition","SM","SM78.bmp","forget","","80","3","prime1","right","","","",""
"html-keyboard-response","225","659109","0.0-4.0-1.0-3.31","o9ovycd47qx7076","prime","5ebb0f6aff8da30d1f29dc29","5f60e3c0a3b16e07647b2ff9","5f60ef2ada80430172c9fd33","false","null","<div style=""align-items: center; display: flex; color: darkorange; font-size: 90px""><b>ø</b></div>","null","","","","forget_cue","","","","","","","","","","","","","","","",""
"html-keyboard-response","226","659814","0.0-4.0-1.0-0.32","o9ovycd47qx7076","prime","5ebb0f6aff8da30d1f29dc29","5f60e3c0a3b16e07647b2ff9","5f60ef2ada80430172c9fd33","false","null","<span style=""color: black; font-size: 48px"">M + N</span>","null","","","","resp_prompt","","","","","","","","","","","","","","","",""
"categorize-image","227","660575","0.0-4.0-1.0-1.32","o9ovycd47qx7076","prime","5ebb0f6aff8da30d1f29dc29","5f60e3c0a3b16e07647b2ff9","5f60ef2ada80430172c9fd33","true","747.9000000748783","./Stimuli/SelectedImages/SM/SM108.bmp","83","","","","test","true","M + N","83","repetition","SM","SM108.bmp","forget","","81","3","prime1","left","","","",""
"html-keyboard-response","228","662589","0.0-4.0-1.0-3.32","o9ovycd47qx7076","prime","5ebb0f6aff8da30d1f29dc29","5f60e3c0a3b16e07647b2ff9","5f60ef2ada80430172c9fd33","false","null","<div style=""align-items: center; display: flex; color: darkorange; font-size: 90px""><b>ø</b></div>","null","","","","forget_cue","","","","","","","","","","","","","","","",""
"html-keyboard-response","229","663292","0.0-4.0-1.0-0.33","o9ovycd47qx7076","prime","5ebb0f6aff8da30d1f29dc29","5f60e3c0a3b16e07647b2ff9","5f60ef2ada80430172c9fd33","false","null","<span style=""color: black; font-size: 48px"">N + M</span>","null","","","","resp_prompt","","","","","","","","","","","","","","","",""
"categorize-image","230","664819","0.0-4.0-1.0-1.33","o9ovycd47qx7076","prime","5ebb0f6aff8da30d1f29dc29","5f60e3c0a3b16e07647b2ff9","5f60ef2ada80430172c9fd33","true","1513.679999858141","./Stimuli/SelectedImages/SN/SN52.bmp","83","","","","test","true","N + M","83","repetition","SN","SN52.bmp","forget","","82","3","prime1","left","","","",""
"html-keyboard-response","231","666829","0.0-4.0-1.0-3.33","o9ovycd47qx7076","prime","5ebb0f6aff8da30d1f29dc29","5f60e3c0a3b16e07647b2ff9","5f60ef2ada80430172c9fd33","false","null","<div style=""align-items: center; display: flex; color: darkorange; font-size: 90px""><b>ø</b></div>","null","","","","forget_cue","","","","","","","","","","","","","","","",""
"html-keyboard-response","232","667534","0.0-4.0-1.0-0.34","o9ovycd47qx7076","prime","5ebb0f6aff8da30d1f29dc29","5f60e3c0a3b16e07647b2ff9","5f60ef2ada80430172c9fd33","false","null","<span style=""color: black; font-size: 48px"">M + N</span>","null","","","","resp_prompt","","","","","","","","","","","","","","","",""
"categorize-image","233","668212","0.0-4.0-1.0-1.34","o9ovycd47qx7076","prime","5ebb0f6aff8da30d1f29dc29","5f60e3c0a3b16e07647b2ff9","5f60ef2ada80430172c9fd33","true","665.6800000928342","./Stimuli/SelectedImages/LM/LM209.bmp","83","","","","test","true","M + N","83","repetition","LM","LM209.bmp","forget","","83","3","prime1","left","","","",""
"html-keyboard-response","234","670223","0.0-4.0-1.0-3.34","o9ovycd47qx7076","prime","5ebb0f6aff8da30d1f29dc29","5f60e3c0a3b16e07647b2ff9","5f60ef2ada80430172c9fd33","false","null","<div style=""align-items: center; display: flex; color: darkorange; font-size: 90px""><b>ø</b></div>","null","","","","forget_cue","","","","","","","","","","","","","","","",""
"html-keyboard-response","235","670928","0.0-4.0-1.0-0.35","o9ovycd47qx7076","prime","5ebb0f6aff8da30d1f29dc29","5f60e3c0a3b16e07647b2ff9","5f60ef2ada80430172c9fd33","false","null","<span style=""color: black; font-size: 48px"">M + N</span>","null","","","","resp_prompt","","","","","","","","","","","","","","","",""
"categorize-image","236","672005","0.0-4.0-1.0-1.35","o9ovycd47qx7076","prime","5ebb0f6aff8da30d1f29dc29","5f60e3c0a3b16e07647b2ff9","5f60ef2ada80430172c9fd33","true","1064.29999996908","./Stimuli/SelectedImages/LN/LN177.bmp","76","","","","test","true","M + N","76","repetition","LN","LN177.bmp","forget","","84","3","prime1","right","","","",""
"html-keyboard-response","237","674016","0.0-4.0-1.0-3.35","o9ovycd47qx7076","prime","5ebb0f6aff8da30d1f29dc29","5f60e3c0a3b16e07647b2ff9","5f60ef2ada80430172c9fd33","false","null","<div style=""align-items: center; display: flex; color: darkorange; font-size: 90px""><b>ø</b></div>","null","","","","forget_cue","","","","","","","","","","","","","","","",""
"html-keyboard-response","238","674731","0.0-4.0-1.0-0.36","o9ovycd47qx7076","prime","5ebb0f6aff8da30d1f29dc29","5f60e3c0a3b16e07647b2ff9","5f60ef2ada80430172c9fd33","false","null","<span style=""color: black; font-size: 48px"">M + N</span>","null","","","","resp_prompt","","","","","","","","","","","","","","","",""
"categorize-image","239","675792","0.0-4.0-1.0-1.36","o9ovycd47qx7076","prime","5ebb0f6aff8da30d1f29dc29","5f60e3c0a3b16e07647b2ff9","5f60ef2ada80430172c9fd33","true","1048.0299999471754","./Stimuli/SelectedImages/LN/LN42.bmp","76","","","","test","true","M + N","76","switch","LN","LN42.bmp","remember","","85","3","prime1","right","","","",""
"html-keyboard-response","240","677796","0.0-4.0-1.0-3.36","o9ovycd47qx7076","prime","5ebb0f6aff8da30d1f29dc29","5f60e3c0a3b16e07647b2ff9","5f60ef2ada80430172c9fd33","false","null","<div style=""align-items: center; display: flex; color: dodgerblue; font-size: 90px""><b>o</b></div>","null","","","","forget_cue","","","","","","","","","","","","","","","",""
"html-keyboard-response","241","678505","0.0-4.0-1.0-0.37","o9ovycd47qx7076","prime","5ebb0f6aff8da30d1f29dc29","5f60e3c0a3b16e07647b2ff9","5f60ef2ada80430172c9fd33","false","null","<span style=""color: black; font-size: 48px"">M + N</span>","null","","","","resp_prompt","","","","","","","","","","","","","","","",""
"categorize-image","242","679259","0.0-4.0-1.0-1.37","o9ovycd47qx7076","prime","5ebb0f6aff8da30d1f29dc29","5f60e3c0a3b16e07647b2ff9","5f60ef2ada80430172c9fd33","true","742.0900000724941","./Stimuli/SelectedImages/LN/LN28.bmp","76","","","","test","true","M + N","76","repetition","LN","LN28.bmp","remember","","86","3","prime1","right","","","",""
"html-keyboard-response","243","681270","0.0-4.0-1.0-3.37","o9ovycd47qx7076","prime","5ebb0f6aff8da30d1f29dc29","5f60e3c0a3b16e07647b2ff9","5f60ef2ada80430172c9fd33","false","null","<div style=""align-items: center; display: flex; color: dodgerblue; font-size: 90px""><b>o</b></div>","null","","","","forget_cue","","","","","","","","","","","","","","","",""
"html-keyboard-response","244","681973","0.0-4.0-1.0-0.38","o9ovycd47qx7076","prime","5ebb0f6aff8da30d1f29dc29","5f60e3c0a3b16e07647b2ff9","5f60ef2ada80430172c9fd33","false","null","<span style=""color: black; font-size: 48px"">M + N</span>","null","","","","resp_prompt","","","","","","","","","","","","","","","",""
"categorize-image","245","682764","0.0-4.0-1.0-1.38","o9ovycd47qx7076","prime","5ebb0f6aff8da30d1f29dc29","5f60e3c0a3b16e07647b2ff9","5f60ef2ada80430172c9fd33","true","778.2500002067536","./Stimuli/SelectedImages/LN/LN13.bmp","76","","","","test","true","M + N","76","switch","LN","LN13.bmp","remember","","87","3","prime1","right","","","",""
"html-keyboard-response","246","684779","0.0-4.0-1.0-3.38","o9ovycd47qx7076","prime","5ebb0f6aff8da30d1f29dc29","5f60e3c0a3b16e07647b2ff9","5f60ef2ada80430172c9fd33","false","null","<div style=""align-items: center; display: flex; color: dodgerblue; font-size: 90px""><b>o</b></div>","null","","","","forget_cue","","","","","","","","","","","","","","","",""
"html-keyboard-response","247","685494","0.0-4.0-1.0-0.39","o9ovycd47qx7076","prime","5ebb0f6aff8da30d1f29dc29","5f60e3c0a3b16e07647b2ff9","5f60ef2ada80430172c9fd33","false","null","<span style=""color: black; font-size: 48px"">N + M</span>","null","","","","resp_prompt","","","","","","","","","","","","","","","",""
"categorize-image","248","686684","0.0-4.0-1.0-1.39","o9ovycd47qx7076","prime","5ebb0f6aff8da30d1f29dc29","5f60e3c0a3b16e07647b2ff9","5f60ef2ada80430172c9fd33","true","1177.8199998661876","./Stimuli/SelectedImages/SM/SM73.bmp","76","","","","test","true","N + M","76","switch","SM","SM73.bmp","remember","","88","3","prime1","right","","","",""
"html-keyboard-response","249","688698","0.0-4.0-1.0-3.39","o9ovycd47qx7076","prime","5ebb0f6aff8da30d1f29dc29","5f60e3c0a3b16e07647b2ff9","5f60ef2ada80430172c9fd33","false","null","<div style=""align-items: center; display: flex; color: dodgerblue; font-size: 90px""><b>o</b></div>","null","","","","forget_cue","","","","","","","","","","","","","","","",""
"html-keyboard-response","250","689414","0.0-4.0-1.0-0.40","o9ovycd47qx7076","prime","5ebb0f6aff8da30d1f29dc29","5f60e3c0a3b16e07647b2ff9","5f60ef2ada80430172c9fd33","false","null","<span style=""color: black; font-size: 48px"">N + M</span>","null","","","","resp_prompt","","","","","","","","","","","","","","","",""
"categorize-image","251","690085","0.0-4.0-1.0-1.40","o9ovycd47qx7076","prime","5ebb0f6aff8da30d1f29dc29","5f60e3c0a3b16e07647b2ff9","5f60ef2ada80430172c9fd33","true","658.2700000144541","./Stimuli/SelectedImages/SN/SN93.bmp","76","","","","test","false","N + M","83","repetition","SN","SN93.bmp","remember","","89","3","prime1","right","","","",""
"html-keyboard-response","252","690592","0.0-4.0-1.0-2.40-0.40","o9ovycd47qx7076","prime","5ebb0f6aff8da30d1f29dc29","5f60e3c0a3b16e07647b2ff9","5f60ef2ada80430172c9fd33","false","null","<span style=""color: red; font-size: 48px"">Error!</span>","null","","","","feedback","","","","","","","","","","","","","","","",""
"html-keyboard-response","253","692609","0.0-4.0-1.0-3.40","o9ovycd47qx7076","prime","5ebb0f6aff8da30d1f29dc29","5f60e3c0a3b16e07647b2ff9","5f60ef2ada80430172c9fd33","false","null","<div style=""align-items: center; display: flex; color: dodgerblue; font-size: 90px""><b>o</b></div>","null","","","","forget_cue","","","","","","","","","","","","","","","",""
