"trial_type","trial_index","time_elapsed","internal_node_id","subject","exp_part","prolific_PID","study_ID","session_ID","use","rt","stimulus","key_press","button_pressed","responses","question_order","trial_part","correct","resp_map","correct_resp","probe_condition","category","image","forget_condition","list","trial_num","block_num","block","response","test_part","n_span","sequence","num_spaces"
"pavlovia","0","5","0.0-0.0","qe1rud3k2rjcpe3","","5cdbfc1817025800014b3c36","5f60e3c0a3b16e07647b2ff9","5f647bb432d8ba208f40073f","false","","","","","","","","","","","","","","","","","","","","","","",""
"html-keyboard-response","1","78179","0.0-1.0-0.0-0.0","qe1rud3k2rjcpe3","welcome","5cdbfc1817025800014b3c36","5f60e3c0a3b16e07647b2ff9","5f647bb432d8ba208f40073f","false","78169.17499998817","<div align=left>Dear participant, <br> thank you for participating in an online study of the Cognition, Action, and Sustainability Unit of the University of Freiburg! <br> <br>The aim of this study is to examine our ability to remember previously learned information. <br>Our goal is to find out, whether our memory improves, when we only remember information that is relevant to us. <br>The experiment will take about 35 minutes to complete. <br> <br>Please, note that you can only participate in this study if you are using a device with a keyboard (PC, Laptop etc.) <br>and not if you are using a mobile device such as a tablet or smartphone.<br> <br>Press 'SPACE' to proceed to the experiment. </div>","32","","","","","","","","","","","","","","","","","","","",""
"html-keyboard-response","2","99167","0.0-1.0-0.0-1.0","qe1rud3k2rjcpe3","welcome","5cdbfc1817025800014b3c36","5f60e3c0a3b16e07647b2ff9","5f647bb432d8ba208f40073f","false","20983.464999997523","<div align=left><strong> Time Course of this experiment: </strong> <br><br> <strong> 1.</strong>  First, please fill in some information regarding your demographic data. <br><br> <strong> 2.</strong>  Next, your task will be to classify everyday objects. <br>In addition, you will be asked to remember certain objects and recall them later. <br>Working on these tasks requires your undivided attention and concentration.<br>It is therefore essential that you eliminate any sources of distraction in your  <br>environment and ensure that you will not be disturbed. <br><br><strong> 3.</strong>  At the end of the experiment, you will be asked to answer a few additional questions. <br> <br><strong> Important:</strong> After finishing the experiment, only close the browser window <br> by clicking on the 'end the experiment'-button when you are asked to do so. <br>Closing the browser window prematurely will make the allocation of your participation credit impossible. <br><br> Press 'SPACE' to start the experiment. </div>","32","","","","","","","","","","","","","","","","","","","",""
"html-button-response","3","116365","0.0-1.0-0.0-2.0","qe1rud3k2rjcpe3","welcome","5cdbfc1817025800014b3c36","5f60e3c0a3b16e07647b2ff9","5f647bb432d8ba208f40073f","true","17193.020000006072","<div align=left><strong> Informed consent </strong>  <br>The aim of our research is to better understand human behavior and mental processes. <br>In the following study your behavior (e.g. choices, reaction times) will be studied. <br> <br><strong> Voluntariness and Anonymity </strong> <br>Your participation in this study is  <strong> voluntary</strong>.<br>You may withdraw your consent to participate at any time without providing a reason for doing so and without fear of prejudice. <br><br>As no personal data will be collected, <strong>your data and your person cannot be connected after data collection</strong> – the data-set is anonymous. <br>Respectively, deletion of your data will not be possible after data collection has been completed, as we cannot retrace your data-set.<br>The results and anonymized data collected in this study will be published as a scientific publication. <br>This will happen in an <strong>anonymized format</strong>, so that no data can be traced back to a specific person. <br> <br>The anonymized data of this study will be made available to other researchers and/or in a data archive on the Internet as a means of transparency and to enable subsequent re-use. By doing so, this study follows the recommendations of the Deutsche Forschungsgemeinschaft (DFG, German Research Foundation) and Deutsche Gesellschaft für Psychologie (DGPS, German Psychological Society) regarding quality assurance in research.<br>If you have any questions now or after the experiment, please contact our team (experiments@cs.uni-freiburg.de).<br><br><br>I hereby declare, that I understand the above described conditions of participation and I agree to participate under these conditions. <br><br> </div>","","0","","","","","","","","","","","","","","","","","","",""
"html-keyboard-response","4","137885","0.0-1.0-0.0-3.0","qe1rud3k2rjcpe3","welcome","5cdbfc1817025800014b3c36","5f60e3c0a3b16e07647b2ff9","5f647bb432d8ba208f40073f","false","21518.3899999829","<div align=left><strong> General information concerning the experiment </strong>  <br> <br>Please follow the instructions:<ol> <li><strong> Do not leave this tab (your browser window) during the experiment and do not reload this tab! </strong>  <br>If you do switch tabs/windows during the experiment (to check your mail or visit another website, for example), <br>the experiment will end automatically and you will <strong>not receive credit</strong> for your participation. <br>Repeated participation or resumption of the experiment is impossible.</li> <br><li>Please close all other programs for the duration of your participation. </li> <br><li>Please mute or turn off your phone and put it out of your reach. </li> <br><li>Please also take off any disturbing accessories (such as wristwatches, bracelets, etc.). </li> <br><li>If you have music playing in the background, please turn it off now. </li> <br></ol>Thank you! <br>Press 'SPACE' to continue. </div>","32","","","","","","","","","","","","","","","","","","","",""
"survey-text","5","142323","0.0-1.0-1.0-0.0","qe1rud3k2rjcpe3","demographics","5cdbfc1817025800014b3c36","5f60e3c0a3b16e07647b2ff9","5f647bb432d8ba208f40073f","true","4428.9649999991525","","","","{""age"":""31""}","","","","","","","","","","","","","","","","","",""
"survey-multi-choice","6","161045","0.0-1.0-1.0-1.0","qe1rud3k2rjcpe3","demographics","5cdbfc1817025800014b3c36","5f60e3c0a3b16e07647b2ff9","5f647bb432d8ba208f40073f","true","18719.060000003083","","","","{""gender"":""female"",""school"":""others"",""education"":""High school graduate, diploma or equivalent""}","[0,1,2]","","","","","","","","","","","","","","","","",""
"html-keyboard-response","7","166400","0.0-1.0-2.0","qe1rud3k2rjcpe3","instructions","5cdbfc1817025800014b3c36","5f60e3c0a3b16e07647b2ff9","5f647bb432d8ba208f40073f","false","5352.280000020983","<div align=left> The experiment is now about to start: <br> <br>In the following part, you will be presented pictures of everyday objects. <br>Your first task is to <strong>classify these objects. </strong> <br> <br> You will classify them either as mechanical or non-mechanical objects. <br> <br>Objects that include any kind of technical mechanism (for example, wheels, switches, levers, <br> electronic components) fall under the category of <strong>mechanical</strong> objects. <br>Only objects without any kind of technical mechanism should be classified as <strong>non-mechanical</strong>. <br><br>Press 'SPACE' to continue. </div>","32","","","","","","","","","","","","","","","","","","","",""
"html-keyboard-response","8","208065","0.0-2.0-0.0","qe1rud3k2rjcpe3","instructions","5cdbfc1817025800014b3c36","5f60e3c0a3b16e07647b2ff9","5f647bb432d8ba208f40073f","false","41660.73000000324","<div align=justify>You will classify the objects using the <strong>'S'</strong> and the <strong>'L'</strong> keys on your keyboard.<br>For doing so, please place your <strong>left index finger</strong> on the <strong>'S'</strong> key and place your <strong>right index finger</strong> on the <strong>'L'</strong> key. <br><br> Each trial starts with an instruction, indicating which key ('S'/'L') you need to press to classify <br>the object as mechanical (letter M) or non-mechanical (letter N).<br>The instruction <strong>M + N</strong> indicates that, in the current trial, by pressing the left key ('S') you classify the displayed object as mechanical (M) <br> and by pressing the right key ('L') you classify the object as non-mechanical (N). <br>The instruction <strong>N + M</strong> on the other hand indicates that by pressing the left key ('S') you classify the displayed object as non-mechanical (N) <br> and by pressing the right key ('L') you classify the object as mechanical (M). <br><br>Please press the key corresponding to the correct classification as fast as possible as soon as the object is displayed and try to avoid making mistakes.<br>If you do not respond within a 2 second window, a corresponding feedback will be displayed and the next trial will start.<br> The experiment is divided into multiple blocks to give you the opportunity to take a break after each block. <br>First, you can now practice this task. <br><br>Please place your <strong>LEFT INDEX FINGER</strong> on the 'S' key and your <strong>RIGHT INDEX FINGER</strong> on the 'L' key now. <br><br>Press SPACE to continue.</div>","32","","","","","","","","","","","","","","","","","","","",""
"html-keyboard-response","9","212799","0.0-2.0-1.0","qe1rud3k2rjcpe3","instructions","5cdbfc1817025800014b3c36","5f60e3c0a3b16e07647b2ff9","5f647bb432d8ba208f40073f","false","4729.450000013458","<div align=left> You will now have time to practice this task.<br><br>Remember: <br> <br><li>Please place your index fingers on the <strong>'S'</strong> and <strong>'L'</strong> keys <br>to respond as fast and accurately as possible.</li><li>Every picture can be classified as either mechanical or non-mechanical.</li><li>If you do not respond in time or commit an error, you will receive a corresponding feedback. </li><li> Please try to respond as <strong> fast </strong> and as <strong> accurately as possible </strong> .<br><li>To ensure optimal results, please minimize distractions and stay focused. </li><br><br>Press SPACE to continue.</div>","32","","","","","","","","","","","","","","","","","","","",""
"html-keyboard-response","10","213505","0.0-2.0-2.0-0.0","qe1rud3k2rjcpe3","practice_no_cue","5cdbfc1817025800014b3c36","5f60e3c0a3b16e07647b2ff9","5f647bb432d8ba208f40073f","false","null","<span style=""color: black; font-size: 48px"">M + N</span>","null","","","","resp_prompt","","","","","","","","","","","","","","","",""
"categorize-image","11","215077","0.0-2.0-2.0-1.0","qe1rud3k2rjcpe3","practice_no_cue","5cdbfc1817025800014b3c36","5f60e3c0a3b16e07647b2ff9","5f647bb432d8ba208f40073f","true","1063.4750000026543","./Stimuli/ImagesPractice/LN4.jpg","76","","","","test","true","M + N","76","","LN","LN4.jpg","remember","old","1","1","start","right","","","",""
"html-keyboard-response","12","215779","0.0-2.0-2.0-0.1","qe1rud3k2rjcpe3","practice_no_cue","5cdbfc1817025800014b3c36","5f60e3c0a3b16e07647b2ff9","5f647bb432d8ba208f40073f","false","null","<span style=""color: black; font-size: 48px"">M + N</span>","null","","","","resp_prompt","","","","","","","","","","","","","","","",""
"categorize-image","13","216916","0.0-2.0-2.0-1.1","qe1rud3k2rjcpe3","practice_no_cue","5cdbfc1817025800014b3c36","5f60e3c0a3b16e07647b2ff9","5f647bb432d8ba208f40073f","true","631.695000018226","./Stimuli/ImagesPractice/SN222.jpg","76","","","","test","true","M + N","76","","SN","SN222.jpg","remember","old","2","1","start","right","","","",""
"html-keyboard-response","14","217620","0.0-2.0-2.0-0.2","qe1rud3k2rjcpe3","practice_no_cue","5cdbfc1817025800014b3c36","5f60e3c0a3b16e07647b2ff9","5f647bb432d8ba208f40073f","false","null","<span style=""color: black; font-size: 48px"">N + M</span>","null","","","","resp_prompt","","","","","","","","","","","","","","","",""
"categorize-image","15","220070","0.0-2.0-2.0-1.2","qe1rud3k2rjcpe3","practice_no_cue","5cdbfc1817025800014b3c36","5f60e3c0a3b16e07647b2ff9","5f647bb432d8ba208f40073f","true","1942.849999992177","./Stimuli/ImagesPractice/LM230.jpg","83","","","","test","false","N + M","76","","LM","LM230.jpg","remember","old","3","1","start","left","","","",""
"html-keyboard-response","16","220772","0.0-2.0-2.0-0.3","qe1rud3k2rjcpe3","practice_no_cue","5cdbfc1817025800014b3c36","5f60e3c0a3b16e07647b2ff9","5f647bb432d8ba208f40073f","false","null","<span style=""color: black; font-size: 48px"">N + M</span>","null","","","","resp_prompt","","","","","","","","","","","","","","","",""
"categorize-image","17","222917","0.0-2.0-2.0-1.3","qe1rud3k2rjcpe3","practice_no_cue","5cdbfc1817025800014b3c36","5f60e3c0a3b16e07647b2ff9","5f647bb432d8ba208f40073f","true","1639.9300000048243","./Stimuli/ImagesPractice/SN220.jpg","76","","","","test","false","N + M","83","","SN","SN220.jpg","forget","old","4","1","start","right","","","",""
"html-keyboard-response","18","223627","0.0-2.0-2.0-0.4","qe1rud3k2rjcpe3","practice_no_cue","5cdbfc1817025800014b3c36","5f60e3c0a3b16e07647b2ff9","5f647bb432d8ba208f40073f","false","null","<span style=""color: black; font-size: 48px"">N + M</span>","null","","","","resp_prompt","","","","","","","","","","","","","","","",""
"categorize-image","19","225362","0.0-2.0-2.0-1.4","qe1rud3k2rjcpe3","practice_no_cue","5cdbfc1817025800014b3c36","5f60e3c0a3b16e07647b2ff9","5f647bb432d8ba208f40073f","true","1231.5099999832455","./Stimuli/ImagesPractice/LN109.jpg","83","","","","test","true","N + M","83","","LN","LN109.jpg","forget","old","5","1","start","left","","","",""
"html-keyboard-response","20","226067","0.0-2.0-2.0-0.5","qe1rud3k2rjcpe3","practice_no_cue","5cdbfc1817025800014b3c36","5f60e3c0a3b16e07647b2ff9","5f647bb432d8ba208f40073f","false","null","<span style=""color: black; font-size: 48px"">M + N</span>","null","","","","resp_prompt","","","","","","","","","","","","","","","",""
"categorize-image","21","228001","0.0-2.0-2.0-1.5","qe1rud3k2rjcpe3","practice_no_cue","5cdbfc1817025800014b3c36","5f60e3c0a3b16e07647b2ff9","5f647bb432d8ba208f40073f","true","1431.1799999850336","./Stimuli/ImagesPractice/SN75.jpg","76","","","","test","true","M + N","76","","SN","SN75.jpg","remember","old","6","1","start","right","","","",""
"html-keyboard-response","22","228705","0.0-2.0-2.0-0.6","qe1rud3k2rjcpe3","practice_no_cue","5cdbfc1817025800014b3c36","5f60e3c0a3b16e07647b2ff9","5f647bb432d8ba208f40073f","false","null","<span style=""color: black; font-size: 48px"">N + M</span>","null","","","","resp_prompt","","","","","","","","","","","","","","","",""
"categorize-image","23","230162","0.0-2.0-2.0-1.6","qe1rud3k2rjcpe3","practice_no_cue","5cdbfc1817025800014b3c36","5f60e3c0a3b16e07647b2ff9","5f647bb432d8ba208f40073f","true","954.1399999870919","./Stimuli/ImagesPractice/LM224.jpg","83","","","","test","false","N + M","76","","LM","LM224.jpg","forget","old","7","1","start","left","","","",""
"html-keyboard-response","24","230865","0.0-2.0-2.0-0.7","qe1rud3k2rjcpe3","practice_no_cue","5cdbfc1817025800014b3c36","5f60e3c0a3b16e07647b2ff9","5f647bb432d8ba208f40073f","false","null","<span style=""color: black; font-size: 48px"">N + M</span>","null","","","","resp_prompt","","","","","","","","","","","","","","","",""
"categorize-image","25","232834","0.0-2.0-2.0-1.7","qe1rud3k2rjcpe3","practice_no_cue","5cdbfc1817025800014b3c36","5f60e3c0a3b16e07647b2ff9","5f647bb432d8ba208f40073f","true","1466.8599999858998","./Stimuli/ImagesPractice/LN15.jpg","76","","","","test","false","N + M","83","","LN","LN15.jpg","forget","old","8","1","start","right","","","",""
"html-keyboard-response","26","233537","0.0-2.0-2.0-0.8","qe1rud3k2rjcpe3","practice_no_cue","5cdbfc1817025800014b3c36","5f60e3c0a3b16e07647b2ff9","5f647bb432d8ba208f40073f","false","null","<span style=""color: black; font-size: 48px"">M + N</span>","null","","","","resp_prompt","","","","","","","","","","","","","","","",""
"categorize-image","27","236042","0.0-2.0-2.0-1.8","qe1rud3k2rjcpe3","practice_no_cue","5cdbfc1817025800014b3c36","5f60e3c0a3b16e07647b2ff9","5f647bb432d8ba208f40073f","true","null","./Stimuli/ImagesPractice/SM97.jpg","null","","","","test","false","M + N","83","","SM","SM97.jpg","forget","old","9","1","start","too_slow","","","",""
"html-keyboard-response","28","236745","0.0-2.0-2.0-0.9","qe1rud3k2rjcpe3","practice_no_cue","5cdbfc1817025800014b3c36","5f60e3c0a3b16e07647b2ff9","5f647bb432d8ba208f40073f","false","null","<span style=""color: black; font-size: 48px"">M + N</span>","null","","","","resp_prompt","","","","","","","","","","","","","","","",""
"categorize-image","29","237971","0.0-2.0-2.0-1.9","qe1rud3k2rjcpe3","practice_no_cue","5cdbfc1817025800014b3c36","5f60e3c0a3b16e07647b2ff9","5f647bb432d8ba208f40073f","true","719.9099999852479","./Stimuli/ImagesPractice/SN205.jpg","76","","","","test","true","M + N","76","","SN","SN205.jpg","forget","old","10","1","start","right","","","",""
"html-keyboard-response","30","238673","0.0-2.0-2.0-0.10","qe1rud3k2rjcpe3","practice_no_cue","5cdbfc1817025800014b3c36","5f60e3c0a3b16e07647b2ff9","5f647bb432d8ba208f40073f","false","null","<span style=""color: black; font-size: 48px"">N + M</span>","null","","","","resp_prompt","","","","","","","","","","","","","","","",""
"categorize-image","31","240004","0.0-2.0-2.0-1.10","qe1rud3k2rjcpe3","practice_no_cue","5cdbfc1817025800014b3c36","5f60e3c0a3b16e07647b2ff9","5f647bb432d8ba208f40073f","true","826.7200000118464","./Stimuli/ImagesPractice/LN72.jpg","76","","","","test","false","N + M","83","","LN","LN72.jpg","remember","old","11","1","start","right","","","",""
"html-keyboard-response","32","240706","0.0-2.0-2.0-0.11","qe1rud3k2rjcpe3","practice_no_cue","5cdbfc1817025800014b3c36","5f60e3c0a3b16e07647b2ff9","5f647bb432d8ba208f40073f","false","null","<span style=""color: black; font-size: 48px"">N + M</span>","null","","","","resp_prompt","","","","","","","","","","","","","","","",""
"categorize-image","33","242140","0.0-2.0-2.0-1.11","qe1rud3k2rjcpe3","practice_no_cue","5cdbfc1817025800014b3c36","5f60e3c0a3b16e07647b2ff9","5f647bb432d8ba208f40073f","true","929.5599999895785","./Stimuli/ImagesPractice/LN2.jpg","76","","","","test","false","N + M","83","","LN","LN2.jpg","remember","old","12","1","start","right","","","",""
"html-keyboard-response","34","242843","0.0-2.0-2.0-0.12","qe1rud3k2rjcpe3","practice_no_cue","5cdbfc1817025800014b3c36","5f60e3c0a3b16e07647b2ff9","5f647bb432d8ba208f40073f","false","null","<span style=""color: black; font-size: 48px"">N + M</span>","null","","","","resp_prompt","","","","","","","","","","","","","","","",""
"categorize-image","35","244355","0.0-2.0-2.0-1.12","qe1rud3k2rjcpe3","practice_no_cue","5cdbfc1817025800014b3c36","5f60e3c0a3b16e07647b2ff9","5f647bb432d8ba208f40073f","true","1008.0599999928381","./Stimuli/ImagesPractice/SN221.jpg","76","","","","test","false","N + M","83","","SN","SN221.jpg","remember","old","13","1","start","right","","","",""
"html-keyboard-response","36","245058","0.0-2.0-2.0-0.13","qe1rud3k2rjcpe3","practice_no_cue","5cdbfc1817025800014b3c36","5f60e3c0a3b16e07647b2ff9","5f647bb432d8ba208f40073f","false","null","<span style=""color: black; font-size: 48px"">M + N</span>","null","","","","resp_prompt","","","","","","","","","","","","","","","",""
"categorize-image","37","246948","0.0-2.0-2.0-1.13","qe1rud3k2rjcpe3","practice_no_cue","5cdbfc1817025800014b3c36","5f60e3c0a3b16e07647b2ff9","5f647bb432d8ba208f40073f","true","1384.2100000183564","./Stimuli/ImagesPractice/SN76.jpg","76","","","","test","true","M + N","76","","SN","SN76.jpg","forget","old","14","1","start","right","","","",""
"html-keyboard-response","38","247652","0.0-2.0-2.0-0.14","qe1rud3k2rjcpe3","practice_no_cue","5cdbfc1817025800014b3c36","5f60e3c0a3b16e07647b2ff9","5f647bb432d8ba208f40073f","false","null","<span style=""color: black; font-size: 48px"">M + N</span>","null","","","","resp_prompt","","","","","","","","","","","","","","","",""
"categorize-image","39","249860","0.0-2.0-2.0-1.14","qe1rud3k2rjcpe3","practice_no_cue","5cdbfc1817025800014b3c36","5f60e3c0a3b16e07647b2ff9","5f647bb432d8ba208f40073f","true","1701.0149999987334","./Stimuli/ImagesPractice/SM98.jpg","83","","","","test","true","M + N","83","","SM","SM98.jpg","remember","old","15","1","start","left","","","",""
"html-keyboard-response","40","250564","0.0-2.0-2.0-0.15","qe1rud3k2rjcpe3","practice_no_cue","5cdbfc1817025800014b3c36","5f60e3c0a3b16e07647b2ff9","5f647bb432d8ba208f40073f","false","null","<span style=""color: black; font-size: 48px"">M + N</span>","null","","","","resp_prompt","","","","","","","","","","","","","","","",""
"categorize-image","41","252548","0.0-2.0-2.0-1.15","qe1rud3k2rjcpe3","practice_no_cue","5cdbfc1817025800014b3c36","5f60e3c0a3b16e07647b2ff9","5f647bb432d8ba208f40073f","true","1477.1149999869522","./Stimuli/ImagesPractice/SM61.jpg","76","","","","test","false","M + N","83","","SM","SM61.jpg","forget","old","16","1","start","right","","","",""
"html-keyboard-response","42","258047","0.0-2.0-3.0","qe1rud3k2rjcpe3","break","5cdbfc1817025800014b3c36","5f60e3c0a3b16e07647b2ff9","5f647bb432d8ba208f40073f","false","5493.845000019064","<p style='font-size: 32px;'>Break</><br><br><br><br><br><p style='font-size: 24px;'>In the last block, you committed 8 errors and did not respond in time on 1 trials.
</p><p style='font-size: 24px;'>Try to respond as fast and accurately as possible in the next block as well! </p><p style='font-size: 24px;'>Press SPACE to continue.</p>","32","","","","","","","","","","","","","","","","","","","",""
"html-keyboard-response","43","261980","0.0-2.0-4.0","qe1rud3k2rjcpe3","instructions","5cdbfc1817025800014b3c36","5f60e3c0a3b16e07647b2ff9","5f647bb432d8ba208f40073f","false","3929.699999978766","<div align=left> Great!<br><br>Are you ready to continue?<br><br>If you want to reread the instructions and redo the practice trials, <br>please press „Z“. <br><br>Press SPACE to CONTINUE with the experiment when you are ready. </div>","90","","","","","","","","","","","","","","","","","","","",""
"html-keyboard-response","44","271213","0.0-2.1-0.1","qe1rud3k2rjcpe3","instructions","5cdbfc1817025800014b3c36","5f60e3c0a3b16e07647b2ff9","5f647bb432d8ba208f40073f","false","9231.195000000298","<div align=justify>You will classify the objects using the <strong>'S'</strong> and the <strong>'L'</strong> keys on your keyboard.<br>For doing so, please place your <strong>left index finger</strong> on the <strong>'S'</strong> key and place your <strong>right index finger</strong> on the <strong>'L'</strong> key. <br><br> Each trial starts with an instruction, indicating which key ('S'/'L') you need to press to classify <br>the object as mechanical (letter M) or non-mechanical (letter N).<br>The instruction <strong>M + N</strong> indicates that, in the current trial, by pressing the left key ('S') you classify the displayed object as mechanical (M) <br> and by pressing the right key ('L') you classify the object as non-mechanical (N). <br>The instruction <strong>N + M</strong> on the other hand indicates that by pressing the left key ('S') you classify the displayed object as non-mechanical (N) <br> and by pressing the right key ('L') you classify the object as mechanical (M). <br><br>Please press the key corresponding to the correct classification as fast as possible as soon as the object is displayed and try to avoid making mistakes.<br>If you do not respond within a 2 second window, a corresponding feedback will be displayed and the next trial will start.<br> The experiment is divided into multiple blocks to give you the opportunity to take a break after each block. <br>First, you can now practice this task. <br><br>Please place your <strong>LEFT INDEX FINGER</strong> on the 'S' key and your <strong>RIGHT INDEX FINGER</strong> on the 'L' key now. <br><br>Press SPACE to continue.</div>","32","","","","","","","","","","","","","","","","","","","",""
"html-keyboard-response","45","272846","0.0-2.1-1.1","qe1rud3k2rjcpe3","instructions","5cdbfc1817025800014b3c36","5f60e3c0a3b16e07647b2ff9","5f647bb432d8ba208f40073f","false","1631.0800000210293","<div align=left> You will now have time to practice this task.<br><br>Remember: <br> <br><li>Please place your index fingers on the <strong>'S'</strong> and <strong>'L'</strong> keys <br>to respond as fast and accurately as possible.</li><li>Every picture can be classified as either mechanical or non-mechanical.</li><li>If you do not respond in time or commit an error, you will receive a corresponding feedback. </li><li> Please try to respond as <strong> fast </strong> and as <strong> accurately as possible </strong> .<br><li>To ensure optimal results, please minimize distractions and stay focused. </li><br><br>Press SPACE to continue.</div>","32","","","","","","","","","","","","","","","","","","","",""
"html-keyboard-response","46","273551","0.0-2.1-2.1-0.16","qe1rud3k2rjcpe3","practice_no_cue","5cdbfc1817025800014b3c36","5f60e3c0a3b16e07647b2ff9","5f647bb432d8ba208f40073f","false","null","<span style=""color: black; font-size: 48px"">M + N</span>","null","","","","resp_prompt","","","","","","","","","","","","","","","",""
"categorize-image","47","274820","0.0-2.1-2.1-1.16","qe1rud3k2rjcpe3","practice_no_cue","5cdbfc1817025800014b3c36","5f60e3c0a3b16e07647b2ff9","5f647bb432d8ba208f40073f","true","762.4049999867566","./Stimuli/ImagesPractice/SN76.jpg","76","","","","test","true","M + N","76","","SN","SN76.jpg","forget","old","17","2","practice_forget","right","","","",""
"html-keyboard-response","48","275522","0.0-2.1-2.1-0.17","qe1rud3k2rjcpe3","practice_no_cue","5cdbfc1817025800014b3c36","5f60e3c0a3b16e07647b2ff9","5f647bb432d8ba208f40073f","false","null","<span style=""color: black; font-size: 48px"">M + N</span>","null","","","","resp_prompt","","","","","","","","","","","","","","","",""
"categorize-image","49","276739","0.0-2.1-2.1-1.17","qe1rud3k2rjcpe3","practice_no_cue","5cdbfc1817025800014b3c36","5f60e3c0a3b16e07647b2ff9","5f647bb432d8ba208f40073f","true","712.2350000136066","./Stimuli/ImagesPractice/LN4.jpg","76","","","","test","true","M + N","76","","LN","LN4.jpg","remember","old","18","2","practice_forget","right","","","",""
"html-keyboard-response","50","277442","0.0-2.1-2.1-0.18","qe1rud3k2rjcpe3","practice_no_cue","5cdbfc1817025800014b3c36","5f60e3c0a3b16e07647b2ff9","5f647bb432d8ba208f40073f","false","null","<span style=""color: black; font-size: 48px"">N + M</span>","null","","","","resp_prompt","","","","","","","","","","","","","","","",""
"categorize-image","51","278691","0.0-2.1-2.1-1.18","qe1rud3k2rjcpe3","practice_no_cue","5cdbfc1817025800014b3c36","5f60e3c0a3b16e07647b2ff9","5f647bb432d8ba208f40073f","true","744.7900000261143","./Stimuli/ImagesPractice/LN2.jpg","83","","","","test","true","N + M","83","","LN","LN2.jpg","remember","old","19","2","practice_forget","left","","","",""
"html-keyboard-response","52","279394","0.0-2.1-2.1-0.19","qe1rud3k2rjcpe3","practice_no_cue","5cdbfc1817025800014b3c36","5f60e3c0a3b16e07647b2ff9","5f647bb432d8ba208f40073f","false","null","<span style=""color: black; font-size: 48px"">N + M</span>","null","","","","resp_prompt","","","","","","","","","","","","","","","",""
"categorize-image","53","280547","0.0-2.1-2.1-1.19","qe1rud3k2rjcpe3","practice_no_cue","5cdbfc1817025800014b3c36","5f60e3c0a3b16e07647b2ff9","5f647bb432d8ba208f40073f","true","647.4450000096112","./Stimuli/ImagesPractice/LN15.jpg","83","","","","test","true","N + M","83","","LN","LN15.jpg","forget","old","20","2","practice_forget","left","","","",""
"html-keyboard-response","54","281250","0.0-2.1-2.1-0.20","qe1rud3k2rjcpe3","practice_no_cue","5cdbfc1817025800014b3c36","5f60e3c0a3b16e07647b2ff9","5f647bb432d8ba208f40073f","false","null","<span style=""color: black; font-size: 48px"">M + N</span>","null","","","","resp_prompt","","","","","","","","","","","","","","","",""
"categorize-image","55","282849","0.0-2.1-2.1-1.20","qe1rud3k2rjcpe3","practice_no_cue","5cdbfc1817025800014b3c36","5f60e3c0a3b16e07647b2ff9","5f647bb432d8ba208f40073f","true","1095.1249999925494","./Stimuli/ImagesPractice/SN222.jpg","76","","","","test","true","M + N","76","","SN","SN222.jpg","remember","old","21","2","practice_forget","right","","","",""
"html-keyboard-response","56","283551","0.0-2.1-2.1-0.21","qe1rud3k2rjcpe3","practice_no_cue","5cdbfc1817025800014b3c36","5f60e3c0a3b16e07647b2ff9","5f647bb432d8ba208f40073f","false","null","<span style=""color: black; font-size: 48px"">M + N</span>","null","","","","resp_prompt","","","","","","","","","","","","","","","",""
"categorize-image","57","285075","0.0-2.1-2.1-1.21","qe1rud3k2rjcpe3","practice_no_cue","5cdbfc1817025800014b3c36","5f60e3c0a3b16e07647b2ff9","5f647bb432d8ba208f40073f","true","1019.2249999963678","./Stimuli/ImagesPractice/SM61.jpg","76","","","","test","false","M + N","83","","SM","SM61.jpg","forget","old","22","2","practice_forget","right","","","",""
"html-keyboard-response","58","285779","0.0-2.1-2.1-0.22","qe1rud3k2rjcpe3","practice_no_cue","5cdbfc1817025800014b3c36","5f60e3c0a3b16e07647b2ff9","5f647bb432d8ba208f40073f","false","null","<span style=""color: black; font-size: 48px"">N + M</span>","null","","","","resp_prompt","","","","","","","","","","","","","","","",""
"categorize-image","59","287683","0.0-2.1-2.1-1.22","qe1rud3k2rjcpe3","practice_no_cue","5cdbfc1817025800014b3c36","5f60e3c0a3b16e07647b2ff9","5f647bb432d8ba208f40073f","true","1400.885000010021","./Stimuli/ImagesPractice/LN109.jpg","83","","","","test","true","N + M","83","","LN","LN109.jpg","forget","old","23","2","practice_forget","left","","","",""
"html-keyboard-response","60","288385","0.0-2.1-2.1-0.23","qe1rud3k2rjcpe3","practice_no_cue","5cdbfc1817025800014b3c36","5f60e3c0a3b16e07647b2ff9","5f647bb432d8ba208f40073f","false","null","<span style=""color: black; font-size: 48px"">M + N</span>","null","","","","resp_prompt","","","","","","","","","","","","","","","",""
"categorize-image","61","290193","0.0-2.1-2.1-1.23","qe1rud3k2rjcpe3","practice_no_cue","5cdbfc1817025800014b3c36","5f60e3c0a3b16e07647b2ff9","5f647bb432d8ba208f40073f","true","1303.2300000195391","./Stimuli/ImagesPractice/SN205.jpg","83","","","","test","false","M + N","76","","SN","SN205.jpg","forget","old","24","2","practice_forget","left","","","",""
"html-keyboard-response","62","290897","0.0-2.1-2.1-0.24","qe1rud3k2rjcpe3","practice_no_cue","5cdbfc1817025800014b3c36","5f60e3c0a3b16e07647b2ff9","5f647bb432d8ba208f40073f","false","null","<span style=""color: black; font-size: 48px"">N + M</span>","null","","","","resp_prompt","","","","","","","","","","","","","","","",""
"categorize-image","63","292500","0.0-2.1-2.1-1.24","qe1rud3k2rjcpe3","practice_no_cue","5cdbfc1817025800014b3c36","5f60e3c0a3b16e07647b2ff9","5f647bb432d8ba208f40073f","true","1096.8050000083167","./Stimuli/ImagesPractice/SN221.jpg","83","","","","test","true","N + M","83","","SN","SN221.jpg","remember","old","25","2","practice_forget","left","","","",""
"html-keyboard-response","64","293203","0.0-2.1-2.1-0.25","qe1rud3k2rjcpe3","practice_no_cue","5cdbfc1817025800014b3c36","5f60e3c0a3b16e07647b2ff9","5f647bb432d8ba208f40073f","false","null","<span style=""color: black; font-size: 48px"">N + M</span>","null","","","","resp_prompt","","","","","","","","","","","","","","","",""
"categorize-image","65","294502","0.0-2.1-2.1-1.25","qe1rud3k2rjcpe3","practice_no_cue","5cdbfc1817025800014b3c36","5f60e3c0a3b16e07647b2ff9","5f647bb432d8ba208f40073f","true","793.4349999995902","./Stimuli/ImagesPractice/SN220.jpg","83","","","","test","true","N + M","83","","SN","SN220.jpg","forget","old","26","2","practice_forget","left","","","",""
"html-keyboard-response","66","295205","0.0-2.1-2.1-0.26","qe1rud3k2rjcpe3","practice_no_cue","5cdbfc1817025800014b3c36","5f60e3c0a3b16e07647b2ff9","5f647bb432d8ba208f40073f","false","null","<span style=""color: black; font-size: 48px"">M + N</span>","null","","","","resp_prompt","","","","","","","","","","","","","","","",""
"categorize-image","67","296436","0.0-2.1-2.1-1.26","qe1rud3k2rjcpe3","practice_no_cue","5cdbfc1817025800014b3c36","5f60e3c0a3b16e07647b2ff9","5f647bb432d8ba208f40073f","true","725.3550000023097","./Stimuli/ImagesPractice/SM98.jpg","83","","","","test","true","M + N","83","","SM","SM98.jpg","remember","old","27","2","practice_forget","left","","","",""
"html-keyboard-response","68","297141","0.0-2.1-2.1-0.27","qe1rud3k2rjcpe3","practice_no_cue","5cdbfc1817025800014b3c36","5f60e3c0a3b16e07647b2ff9","5f647bb432d8ba208f40073f","false","null","<span style=""color: black; font-size: 48px"">M + N</span>","null","","","","resp_prompt","","","","","","","","","","","","","","","",""
"categorize-image","69","298804","0.0-2.1-2.1-1.27","qe1rud3k2rjcpe3","practice_no_cue","5cdbfc1817025800014b3c36","5f60e3c0a3b16e07647b2ff9","5f647bb432d8ba208f40073f","true","1158.3199999877252","./Stimuli/ImagesPractice/SM97.jpg","83","","","","test","true","M + N","83","","SM","SM97.jpg","forget","old","28","2","practice_forget","left","","","",""
"html-keyboard-response","70","299508","0.0-2.1-2.1-0.28","qe1rud3k2rjcpe3","practice_no_cue","5cdbfc1817025800014b3c36","5f60e3c0a3b16e07647b2ff9","5f647bb432d8ba208f40073f","false","null","<span style=""color: black; font-size: 48px"">N + M</span>","null","","","","resp_prompt","","","","","","","","","","","","","","","",""
"categorize-image","71","301060","0.0-2.1-2.1-1.28","qe1rud3k2rjcpe3","practice_no_cue","5cdbfc1817025800014b3c36","5f60e3c0a3b16e07647b2ff9","5f647bb432d8ba208f40073f","true","1045.444999996107","./Stimuli/ImagesPractice/LM224.jpg","76","","","","test","true","N + M","76","","LM","LM224.jpg","forget","old","29","2","practice_forget","right","","","",""
"html-keyboard-response","72","301763","0.0-2.1-2.1-0.29","qe1rud3k2rjcpe3","practice_no_cue","5cdbfc1817025800014b3c36","5f60e3c0a3b16e07647b2ff9","5f647bb432d8ba208f40073f","false","null","<span style=""color: black; font-size: 48px"">N + M</span>","null","","","","resp_prompt","","","","","","","","","","","","","","","",""
"categorize-image","73","303588","0.0-2.1-2.1-1.29","qe1rud3k2rjcpe3","practice_no_cue","5cdbfc1817025800014b3c36","5f60e3c0a3b16e07647b2ff9","5f647bb432d8ba208f40073f","true","1321.1699999810662","./Stimuli/ImagesPractice/LN72.jpg","83","","","","test","true","N + M","83","","LN","LN72.jpg","remember","old","30","2","practice_forget","left","","","",""
"html-keyboard-response","74","304291","0.0-2.1-2.1-0.30","qe1rud3k2rjcpe3","practice_no_cue","5cdbfc1817025800014b3c36","5f60e3c0a3b16e07647b2ff9","5f647bb432d8ba208f40073f","false","null","<span style=""color: black; font-size: 48px"">M + N</span>","null","","","","resp_prompt","","","","","","","","","","","","","","","",""
"categorize-image","75","305861","0.0-2.1-2.1-1.30","qe1rud3k2rjcpe3","practice_no_cue","5cdbfc1817025800014b3c36","5f60e3c0a3b16e07647b2ff9","5f647bb432d8ba208f40073f","true","1064.7750000061933","./Stimuli/ImagesPractice/SN75.jpg","76","","","","test","true","M + N","76","","SN","SN75.jpg","remember","old","31","2","practice_forget","right","","","",""
"html-keyboard-response","76","306563","0.0-2.1-2.1-0.31","qe1rud3k2rjcpe3","practice_no_cue","5cdbfc1817025800014b3c36","5f60e3c0a3b16e07647b2ff9","5f647bb432d8ba208f40073f","false","null","<span style=""color: black; font-size: 48px"">N + M</span>","null","","","","resp_prompt","","","","","","","","","","","","","","","",""
"categorize-image","77","307828","0.0-2.1-2.1-1.31","qe1rud3k2rjcpe3","practice_no_cue","5cdbfc1817025800014b3c36","5f60e3c0a3b16e07647b2ff9","5f647bb432d8ba208f40073f","true","758.9000000152737","./Stimuli/ImagesPractice/LM230.jpg","83","","","","test","false","N + M","76","","LM","LM230.jpg","remember","old","32","2","practice_forget","left","","","",""
"html-keyboard-response","78","310735","0.0-2.1-3.1","qe1rud3k2rjcpe3","break","5cdbfc1817025800014b3c36","5f60e3c0a3b16e07647b2ff9","5f647bb432d8ba208f40073f","false","2895.825000014156","<p style='font-size: 32px;'>Break</><br><br><br><br><br><p style='font-size: 24px;'>In the last block, you committed 3 errors and did not respond in time on 0 trials.
</p><p style='font-size: 24px;'>Try to respond as fast and accurately as possible in the next block as well! </p><p style='font-size: 24px;'>Press SPACE to continue.</p>","32","","","","","","","","","","","","","","","","","","","",""
"html-keyboard-response","79","313933","0.0-2.1-4.1","qe1rud3k2rjcpe3","instructions","5cdbfc1817025800014b3c36","5f60e3c0a3b16e07647b2ff9","5f647bb432d8ba208f40073f","false","3195.5650000018068","<div align=left> Great!<br><br>Are you ready to continue?<br><br>If you want to reread the instructions and redo the practice trials, <br>please press „Z“. <br><br>Press SPACE to CONTINUE with the experiment when you are ready. </div>","32","","","","","","","","","","","","","","","","","","","",""
"html-keyboard-response","80","331375","0.0-3.0-0.0","qe1rud3k2rjcpe3","instructions","5cdbfc1817025800014b3c36","5f60e3c0a3b16e07647b2ff9","5f647bb432d8ba208f40073f","false","17438.799999974435","<div align=left>Great!<br> <strong>Attention</strong>! You will now receive a second, additional task! <br><br>To this point it was you <strong>first task</strong> to correctly <strong>classify objects</strong>. <br><br>As mentioned in the beginning, we aim to examine how well humans can remember previously learned information.<br>We would like to find out whether our memory improves if we only remember information that is relevant to us. <br><br>Therefore, your <strong>second task</strong> will be to <strong>remember</strong> the pictures you are to categorize. <br> After the learning phase, there will be a memory test phase, in which you will be asked to indicate whether you have seen a picture before or not. <br>Some, but not all pictures shown in the learning phase will appear in the memory test phase.<br>After classifying a picture, you will be told whether you should remember it for the memory test phase or not. <br>Thus, some pictures can be forgotten, whereas others have to be remembered. <br><br>Note: From now on, feedback will only be displayed if you responded incorrectly or not in time.<br><br>Press SPACE to continue.</div>","32","","","","","","","","","","","","","","","","","","","",""
"html-keyboard-response","81","343151","0.0-3.0-1.0","qe1rud3k2rjcpe3","instructions","5cdbfc1817025800014b3c36","5f60e3c0a3b16e07647b2ff9","5f647bb432d8ba208f40073f","false","11772.620000003371","<div align=left>In the following part, you will thus have to remember only some pictures. <br>Immediately after seeing and classifying the picture, a symbol will be displayed, indicating whether you should remember or forget the previous picture. <br><br>A <span style='color: dodgerblue; font-size: 28px'>O</span> indicates REMEMBER. That means, you have to remember this picture, because it will be tested later. <br><br>A <span style='color: darkorange; font-size:28px'>Ø</span> indicates FORGET. You do not have to remember this picture. <br><br> As you will have to remember a lot of pictures, it will be hard for you to remember all of them. <br>It will put you at an advantage if you instantly forget the pictures you are not asked to remember. <br> This will make it easier for you to remember the pictures that will be tested afterwards. <br><br>Press SPACE to continue.</div>","32","","","","","","","","","","","","","","","","","","","",""
"html-keyboard-response","82","355136","0.0-3.0-2.0","qe1rud3k2rjcpe3","instructions","5cdbfc1817025800014b3c36","5f60e3c0a3b16e07647b2ff9","5f647bb432d8ba208f40073f","false","11981.500000023516","<div align=left> Now you have the chance to practice both tasks together.<br><br>Remember: <br> <br><li>Please place your index fingers on the <strong>'S'</strong> and <strong>'L'</strong> keys <br>to respond as fast and accurately as possible.</li><li>Every picture can be classified as either mechanical or non-mechanical.</li><li>If you do not respond in time or commit an error, you will receive a corresponding feedback. <br>Please try to respond as <strong> fast </strong> and as <strong> accurately as possible </strong>.</li><li> Please remember only the to-be-remembered <span style='color: dodgerblue; font-size: 28px'>O</span> pictures. <br></li><li> Please minimize distractions and stay focused. </li><br><br>Press SPACE to START</div>","32","","","","","","","","","","","","","","","","","","","",""
"html-keyboard-response","83","355840","0.0-3.0-3.0-0.0","qe1rud3k2rjcpe3","practice_cue","5cdbfc1817025800014b3c36","5f60e3c0a3b16e07647b2ff9","5f647bb432d8ba208f40073f","false","null","<span style=""color: black; font-size: 48px"">M + N</span>","null","","","","resp_prompt","","","","","","","","","","","","","","","",""
"categorize-image","84","357302","0.0-3.0-3.0-1.0","qe1rud3k2rjcpe3","practice_cue","5cdbfc1817025800014b3c36","5f60e3c0a3b16e07647b2ff9","5f647bb432d8ba208f40073f","true","1451.325000001816","./Stimuli/ImagesPractice/SN76.jpg","83","","","","test","false","M + N","76","","SN","SN76.jpg","forget","old","33","3","practice_forget","left","","","",""
"html-keyboard-response","85","357810","0.0-3.0-3.0-2.0-0.0","qe1rud3k2rjcpe3","practice_cue","5cdbfc1817025800014b3c36","5f60e3c0a3b16e07647b2ff9","5f647bb432d8ba208f40073f","false","null","<span style=""color: red; font-size: 48px"">Error!</span>","null","","","","feedback","","","","","","","","","","","","","","","",""
"html-keyboard-response","86","359812","0.0-3.0-3.0-3.0","qe1rud3k2rjcpe3","practice_cue","5cdbfc1817025800014b3c36","5f60e3c0a3b16e07647b2ff9","5f647bb432d8ba208f40073f","false","null","<div style=""align-items: center; display: flex; color: darkorange; font-size: 90px""><b>ø</b></div>","null","","","","forget_cue","","","","","","","","","","","","","","","",""
"html-keyboard-response","87","360515","0.0-3.0-3.0-0.1","qe1rud3k2rjcpe3","practice_cue","5cdbfc1817025800014b3c36","5f60e3c0a3b16e07647b2ff9","5f647bb432d8ba208f40073f","false","null","<span style=""color: black; font-size: 48px"">N + M</span>","null","","","","resp_prompt","","","","","","","","","","","","","","","",""
"categorize-image","88","361790","0.0-3.0-3.0-1.1","qe1rud3k2rjcpe3","practice_cue","5cdbfc1817025800014b3c36","5f60e3c0a3b16e07647b2ff9","5f647bb432d8ba208f40073f","true","1268.6549999925774","./Stimuli/ImagesPractice/LN72.jpg","76","","","","test","false","N + M","83","","LN","LN72.jpg","remember","old","34","3","practice_forget","right","","","",""
"html-keyboard-response","89","362292","0.0-3.0-3.0-2.1-0.1","qe1rud3k2rjcpe3","practice_cue","5cdbfc1817025800014b3c36","5f60e3c0a3b16e07647b2ff9","5f647bb432d8ba208f40073f","false","null","<span style=""color: red; font-size: 48px"">Error!</span>","null","","","","feedback","","","","","","","","","","","","","","","",""
"html-keyboard-response","90","364294","0.0-3.0-3.0-3.1","qe1rud3k2rjcpe3","practice_cue","5cdbfc1817025800014b3c36","5f60e3c0a3b16e07647b2ff9","5f647bb432d8ba208f40073f","false","null","<div style=""align-items: center; display: flex; color: dodgerblue; font-size: 90px""><b>o</b></div>","null","","","","forget_cue","","","","","","","","","","","","","","","",""
"html-keyboard-response","91","364998","0.0-3.0-3.0-0.2","qe1rud3k2rjcpe3","practice_cue","5cdbfc1817025800014b3c36","5f60e3c0a3b16e07647b2ff9","5f647bb432d8ba208f40073f","false","null","<span style=""color: black; font-size: 48px"">M + N</span>","null","","","","resp_prompt","","","","","","","","","","","","","","","",""
"categorize-image","92","366420","0.0-3.0-3.0-1.2","qe1rud3k2rjcpe3","practice_cue","5cdbfc1817025800014b3c36","5f60e3c0a3b16e07647b2ff9","5f647bb432d8ba208f40073f","true","1412.8600000112783","./Stimuli/ImagesPractice/SN222.jpg","83","","","","test","false","M + N","76","","SN","SN222.jpg","remember","old","35","3","practice_forget","left","","","",""
"html-keyboard-response","93","366924","0.0-3.0-3.0-2.2-0.2","qe1rud3k2rjcpe3","practice_cue","5cdbfc1817025800014b3c36","5f60e3c0a3b16e07647b2ff9","5f647bb432d8ba208f40073f","false","null","<span style=""color: red; font-size: 48px"">Error!</span>","null","","","","feedback","","","","","","","","","","","","","","","",""
"html-keyboard-response","94","368928","0.0-3.0-3.0-3.2","qe1rud3k2rjcpe3","practice_cue","5cdbfc1817025800014b3c36","5f60e3c0a3b16e07647b2ff9","5f647bb432d8ba208f40073f","false","null","<div style=""align-items: center; display: flex; color: dodgerblue; font-size: 90px""><b>o</b></div>","null","","","","forget_cue","","","","","","","","","","","","","","","",""
"html-keyboard-response","95","369633","0.0-3.0-3.0-0.3","qe1rud3k2rjcpe3","practice_cue","5cdbfc1817025800014b3c36","5f60e3c0a3b16e07647b2ff9","5f647bb432d8ba208f40073f","false","null","<span style=""color: black; font-size: 48px"">N + M</span>","null","","","","resp_prompt","","","","","","","","","","","","","","","",""
"categorize-image","96","370962","0.0-3.0-3.0-1.3","qe1rud3k2rjcpe3","practice_cue","5cdbfc1817025800014b3c36","5f60e3c0a3b16e07647b2ff9","5f647bb432d8ba208f40073f","true","1318.4999999939464","./Stimuli/ImagesPractice/LM230.jpg","83","","","","test","false","N + M","76","","LM","LM230.jpg","remember","old","36","3","practice_forget","left","","","",""
"html-keyboard-response","97","371466","0.0-3.0-3.0-2.3-0.3","qe1rud3k2rjcpe3","practice_cue","5cdbfc1817025800014b3c36","5f60e3c0a3b16e07647b2ff9","5f647bb432d8ba208f40073f","false","null","<span style=""color: red; font-size: 48px"">Error!</span>","null","","","","feedback","","","","","","","","","","","","","","","",""
"html-keyboard-response","98","373469","0.0-3.0-3.0-3.3","qe1rud3k2rjcpe3","practice_cue","5cdbfc1817025800014b3c36","5f60e3c0a3b16e07647b2ff9","5f647bb432d8ba208f40073f","false","null","<div style=""align-items: center; display: flex; color: dodgerblue; font-size: 90px""><b>o</b></div>","null","","","","forget_cue","","","","","","","","","","","","","","","",""
"html-keyboard-response","99","374171","0.0-3.0-3.0-0.4","qe1rud3k2rjcpe3","practice_cue","5cdbfc1817025800014b3c36","5f60e3c0a3b16e07647b2ff9","5f647bb432d8ba208f40073f","false","null","<span style=""color: black; font-size: 48px"">M + N</span>","null","","","","resp_prompt","","","","","","","","","","","","","","","",""
"categorize-image","100","374703","0.0-3.0-3.0-1.4","qe1rud3k2rjcpe3","practice_cue","5cdbfc1817025800014b3c36","5f60e3c0a3b16e07647b2ff9","5f647bb432d8ba208f40073f","true","525.0149999919813","./Stimuli/ImagesPractice/SN205.jpg","76","","","","test","true","M + N","76","","SN","SN205.jpg","forget","old","37","3","practice_forget","right","","","",""
"html-keyboard-response","101","376705","0.0-3.0-3.0-3.4","qe1rud3k2rjcpe3","practice_cue","5cdbfc1817025800014b3c36","5f60e3c0a3b16e07647b2ff9","5f647bb432d8ba208f40073f","false","null","<div style=""align-items: center; display: flex; color: darkorange; font-size: 90px""><b>ø</b></div>","null","","","","forget_cue","","","","","","","","","","","","","","","",""
"html-keyboard-response","102","377408","0.0-3.0-3.0-0.5","qe1rud3k2rjcpe3","practice_cue","5cdbfc1817025800014b3c36","5f60e3c0a3b16e07647b2ff9","5f647bb432d8ba208f40073f","false","null","<span style=""color: black; font-size: 48px"">N + M</span>","null","","","","resp_prompt","","","","","","","","","","","","","","","",""
"categorize-image","103","378883","0.0-3.0-3.0-1.5","qe1rud3k2rjcpe3","practice_cue","5cdbfc1817025800014b3c36","5f60e3c0a3b16e07647b2ff9","5f647bb432d8ba208f40073f","true","1467.914999986533","./Stimuli/ImagesPractice/LN15.jpg","83","","","","test","true","N + M","83","","LN","LN15.jpg","forget","old","38","3","practice_forget","left","","","",""
"html-keyboard-response","104","380887","0.0-3.0-3.0-3.5","qe1rud3k2rjcpe3","practice_cue","5cdbfc1817025800014b3c36","5f60e3c0a3b16e07647b2ff9","5f647bb432d8ba208f40073f","false","null","<div style=""align-items: center; display: flex; color: darkorange; font-size: 90px""><b>ø</b></div>","null","","","","forget_cue","","","","","","","","","","","","","","","",""
"html-keyboard-response","105","381588","0.0-3.0-3.0-0.6","qe1rud3k2rjcpe3","practice_cue","5cdbfc1817025800014b3c36","5f60e3c0a3b16e07647b2ff9","5f647bb432d8ba208f40073f","false","null","<span style=""color: black; font-size: 48px"">M + N</span>","null","","","","resp_prompt","","","","","","","","","","","","","","","",""
"categorize-image","106","382674","0.0-3.0-3.0-1.6","qe1rud3k2rjcpe3","practice_cue","5cdbfc1817025800014b3c36","5f60e3c0a3b16e07647b2ff9","5f647bb432d8ba208f40073f","true","1076.2699999904726","./Stimuli/ImagesPractice/LN4.jpg","76","","","","test","true","M + N","76","","LN","LN4.jpg","remember","old","39","3","practice_forget","right","","","",""
"html-keyboard-response","107","384680","0.0-3.0-3.0-3.6","qe1rud3k2rjcpe3","practice_cue","5cdbfc1817025800014b3c36","5f60e3c0a3b16e07647b2ff9","5f647bb432d8ba208f40073f","false","null","<div style=""align-items: center; display: flex; color: dodgerblue; font-size: 90px""><b>o</b></div>","null","","","","forget_cue","","","","","","","","","","","","","","","",""
"html-keyboard-response","108","385382","0.0-3.0-3.0-0.7","qe1rud3k2rjcpe3","practice_cue","5cdbfc1817025800014b3c36","5f60e3c0a3b16e07647b2ff9","5f647bb432d8ba208f40073f","false","null","<span style=""color: black; font-size: 48px"">M + N</span>","null","","","","resp_prompt","","","","","","","","","","","","","","","",""
"categorize-image","109","386275","0.0-3.0-3.0-1.7","qe1rud3k2rjcpe3","practice_cue","5cdbfc1817025800014b3c36","5f60e3c0a3b16e07647b2ff9","5f647bb432d8ba208f40073f","true","882.595000002766","./Stimuli/ImagesPractice/SM61.jpg","83","","","","test","true","M + N","83","","SM","SM61.jpg","forget","old","40","3","practice_forget","left","","","",""
"html-keyboard-response","110","388279","0.0-3.0-3.0-3.7","qe1rud3k2rjcpe3","practice_cue","5cdbfc1817025800014b3c36","5f60e3c0a3b16e07647b2ff9","5f647bb432d8ba208f40073f","false","null","<div style=""align-items: center; display: flex; color: darkorange; font-size: 90px""><b>ø</b></div>","null","","","","forget_cue","","","","","","","","","","","","","","","",""
"html-keyboard-response","111","388983","0.0-3.0-3.0-0.8","qe1rud3k2rjcpe3","practice_cue","5cdbfc1817025800014b3c36","5f60e3c0a3b16e07647b2ff9","5f647bb432d8ba208f40073f","false","null","<span style=""color: black; font-size: 48px"">M + N</span>","null","","","","resp_prompt","","","","","","","","","","","","","","","",""
"categorize-image","112","389700","0.0-3.0-3.0-1.8","qe1rud3k2rjcpe3","practice_cue","5cdbfc1817025800014b3c36","5f60e3c0a3b16e07647b2ff9","5f647bb432d8ba208f40073f","true","708.2099999825004","./Stimuli/ImagesPractice/SM97.jpg","83","","","","test","true","M + N","83","","SM","SM97.jpg","forget","old","41","3","practice_forget","left","","","",""
"html-keyboard-response","113","391705","0.0-3.0-3.0-3.8","qe1rud3k2rjcpe3","practice_cue","5cdbfc1817025800014b3c36","5f60e3c0a3b16e07647b2ff9","5f647bb432d8ba208f40073f","false","null","<div style=""align-items: center; display: flex; color: darkorange; font-size: 90px""><b>ø</b></div>","null","","","","forget_cue","","","","","","","","","","","","","","","",""
"html-keyboard-response","114","392418","0.0-3.0-3.0-0.9","qe1rud3k2rjcpe3","practice_cue","5cdbfc1817025800014b3c36","5f60e3c0a3b16e07647b2ff9","5f647bb432d8ba208f40073f","false","null","<span style=""color: black; font-size: 48px"">N + M</span>","null","","","","resp_prompt","","","","","","","","","","","","","","","",""
"categorize-image","115","393584","0.0-3.0-3.0-1.9","qe1rud3k2rjcpe3","practice_cue","5cdbfc1817025800014b3c36","5f60e3c0a3b16e07647b2ff9","5f647bb432d8ba208f40073f","true","1160.2399999974295","./Stimuli/ImagesPractice/LN109.jpg","76","","","","test","false","N + M","83","","LN","LN109.jpg","forget","old","42","3","practice_forget","right","","","",""
"html-keyboard-response","116","394087","0.0-3.0-3.0-2.9-0.9","qe1rud3k2rjcpe3","practice_cue","5cdbfc1817025800014b3c36","5f60e3c0a3b16e07647b2ff9","5f647bb432d8ba208f40073f","false","null","<span style=""color: red; font-size: 48px"">Error!</span>","null","","","","feedback","","","","","","","","","","","","","","","",""
"html-keyboard-response","117","396090","0.0-3.0-3.0-3.9","qe1rud3k2rjcpe3","practice_cue","5cdbfc1817025800014b3c36","5f60e3c0a3b16e07647b2ff9","5f647bb432d8ba208f40073f","false","null","<div style=""align-items: center; display: flex; color: darkorange; font-size: 90px""><b>ø</b></div>","null","","","","forget_cue","","","","","","","","","","","","","","","",""
"html-keyboard-response","118","396792","0.0-3.0-3.0-0.10","qe1rud3k2rjcpe3","practice_cue","5cdbfc1817025800014b3c36","5f60e3c0a3b16e07647b2ff9","5f647bb432d8ba208f40073f","false","null","<span style=""color: black; font-size: 48px"">N + M</span>","null","","","","resp_prompt","","","","","","","","","","","","","","","",""
"categorize-image","119","396865","0.0-3.0-3.0-1.10","qe1rud3k2rjcpe3","practice_cue","5cdbfc1817025800014b3c36","5f60e3c0a3b16e07647b2ff9","5f647bb432d8ba208f40073f","true","65.60999999055639","./Stimuli/ImagesPractice/SN221.jpg","83","","","","test","true","N + M","83","","SN","SN221.jpg","remember","old","43","3","practice_forget","left","","","",""
"html-keyboard-response","120","398868","0.0-3.0-3.0-3.10","qe1rud3k2rjcpe3","practice_cue","5cdbfc1817025800014b3c36","5f60e3c0a3b16e07647b2ff9","5f647bb432d8ba208f40073f","false","null","<div style=""align-items: center; display: flex; color: dodgerblue; font-size: 90px""><b>o</b></div>","null","","","","forget_cue","","","","","","","","","","","","","","","",""
"html-keyboard-response","121","399572","0.0-3.0-3.0-0.11","qe1rud3k2rjcpe3","practice_cue","5cdbfc1817025800014b3c36","5f60e3c0a3b16e07647b2ff9","5f647bb432d8ba208f40073f","false","null","<span style=""color: black; font-size: 48px"">N + M</span>","null","","","","resp_prompt","","","","","","","","","","","","","","","",""
"categorize-image","122","400831","0.0-3.0-3.0-1.11","qe1rud3k2rjcpe3","practice_cue","5cdbfc1817025800014b3c36","5f60e3c0a3b16e07647b2ff9","5f647bb432d8ba208f40073f","true","1252.8650000167545","./Stimuli/ImagesPractice/LN2.jpg","83","","","","test","true","N + M","83","","LN","LN2.jpg","remember","old","44","3","practice_forget","left","","","",""
"html-keyboard-response","123","402834","0.0-3.0-3.0-3.11","qe1rud3k2rjcpe3","practice_cue","5cdbfc1817025800014b3c36","5f60e3c0a3b16e07647b2ff9","5f647bb432d8ba208f40073f","false","null","<div style=""align-items: center; display: flex; color: dodgerblue; font-size: 90px""><b>o</b></div>","null","","","","forget_cue","","","","","","","","","","","","","","","",""
"html-keyboard-response","124","403536","0.0-3.0-3.0-0.12","qe1rud3k2rjcpe3","practice_cue","5cdbfc1817025800014b3c36","5f60e3c0a3b16e07647b2ff9","5f647bb432d8ba208f40073f","false","null","<span style=""color: black; font-size: 48px"">N + M</span>","null","","","","resp_prompt","","","","","","","","","","","","","","","",""
"categorize-image","125","404452","0.0-3.0-3.0-1.12","qe1rud3k2rjcpe3","practice_cue","5cdbfc1817025800014b3c36","5f60e3c0a3b16e07647b2ff9","5f647bb432d8ba208f40073f","true","906.1099999817088","./Stimuli/ImagesPractice/SN220.jpg","83","","","","test","true","N + M","83","","SN","SN220.jpg","forget","old","45","3","practice_forget","left","","","",""
"html-keyboard-response","126","406458","0.0-3.0-3.0-3.12","qe1rud3k2rjcpe3","practice_cue","5cdbfc1817025800014b3c36","5f60e3c0a3b16e07647b2ff9","5f647bb432d8ba208f40073f","false","null","<div style=""align-items: center; display: flex; color: darkorange; font-size: 90px""><b>ø</b></div>","null","","","","forget_cue","","","","","","","","","","","","","","","",""
"html-keyboard-response","127","407160","0.0-3.0-3.0-0.13","qe1rud3k2rjcpe3","practice_cue","5cdbfc1817025800014b3c36","5f60e3c0a3b16e07647b2ff9","5f647bb432d8ba208f40073f","false","null","<span style=""color: black; font-size: 48px"">M + N</span>","null","","","","resp_prompt","","","","","","","","","","","","","","","",""
"categorize-image","128","408595","0.0-3.0-3.0-1.13","qe1rud3k2rjcpe3","practice_cue","5cdbfc1817025800014b3c36","5f60e3c0a3b16e07647b2ff9","5f647bb432d8ba208f40073f","true","1425.9250000177417","./Stimuli/ImagesPractice/SN75.jpg","76","","","","test","true","M + N","76","","SN","SN75.jpg","remember","old","46","3","practice_forget","right","","","",""
"html-keyboard-response","129","410599","0.0-3.0-3.0-3.13","qe1rud3k2rjcpe3","practice_cue","5cdbfc1817025800014b3c36","5f60e3c0a3b16e07647b2ff9","5f647bb432d8ba208f40073f","false","null","<div style=""align-items: center; display: flex; color: dodgerblue; font-size: 90px""><b>o</b></div>","null","","","","forget_cue","","","","","","","","","","","","","","","",""
"html-keyboard-response","130","411302","0.0-3.0-3.0-0.14","qe1rud3k2rjcpe3","practice_cue","5cdbfc1817025800014b3c36","5f60e3c0a3b16e07647b2ff9","5f647bb432d8ba208f40073f","false","null","<span style=""color: black; font-size: 48px"">M + N</span>","null","","","","resp_prompt","","","","","","","","","","","","","","","",""
"categorize-image","131","412373","0.0-3.0-3.0-1.14","qe1rud3k2rjcpe3","practice_cue","5cdbfc1817025800014b3c36","5f60e3c0a3b16e07647b2ff9","5f647bb432d8ba208f40073f","true","1059.8949999839533","./Stimuli/ImagesPractice/SM98.jpg","83","","","","test","true","M + N","83","","SM","SM98.jpg","remember","old","47","3","practice_forget","left","","","",""
"html-keyboard-response","132","414378","0.0-3.0-3.0-3.14","qe1rud3k2rjcpe3","practice_cue","5cdbfc1817025800014b3c36","5f60e3c0a3b16e07647b2ff9","5f647bb432d8ba208f40073f","false","null","<div style=""align-items: center; display: flex; color: dodgerblue; font-size: 90px""><b>o</b></div>","null","","","","forget_cue","","","","","","","","","","","","","","","",""
"html-keyboard-response","133","415082","0.0-3.0-3.0-0.15","qe1rud3k2rjcpe3","practice_cue","5cdbfc1817025800014b3c36","5f60e3c0a3b16e07647b2ff9","5f647bb432d8ba208f40073f","false","null","<span style=""color: black; font-size: 48px"">N + M</span>","null","","","","resp_prompt","","","","","","","","","","","","","","","",""
"categorize-image","134","416067","0.0-3.0-3.0-1.15","qe1rud3k2rjcpe3","practice_cue","5cdbfc1817025800014b3c36","5f60e3c0a3b16e07647b2ff9","5f647bb432d8ba208f40073f","true","975.8549999969546","./Stimuli/ImagesPractice/LM224.jpg","76","","","","test","true","N + M","76","","LM","LM224.jpg","forget","old","48","3","practice_forget","right","","","",""
"html-keyboard-response","135","418072","0.0-3.0-3.0-3.15","qe1rud3k2rjcpe3","practice_cue","5cdbfc1817025800014b3c36","5f60e3c0a3b16e07647b2ff9","5f647bb432d8ba208f40073f","false","null","<div style=""align-items: center; display: flex; color: darkorange; font-size: 90px""><b>ø</b></div>","null","","","","forget_cue","","","","","","","","","","","","","","","",""
"html-keyboard-response","136","421341","0.0-3.0-4.0","qe1rud3k2rjcpe3","break","5cdbfc1817025800014b3c36","5f60e3c0a3b16e07647b2ff9","5f647bb432d8ba208f40073f","false","3265.239999978803","<p style='font-size: 32px;'>Break</><br><br><br><br><br><p style='font-size: 24px;'>In the last block, you committed 5 errors and did not respond in time on 0 trials.
</p><p style='font-size: 24px;'>Try to respond as fast and accurately as possible in the next block as well! </p><p style='font-size: 24px;'>Press SPACE to continue.</p>","32","","","","","","","","","","","","","","","","","","","",""
"html-keyboard-response","137","437983","0.0-3.0-5.0","qe1rud3k2rjcpe3","instructions","5cdbfc1817025800014b3c36","5f60e3c0a3b16e07647b2ff9","5f647bb432d8ba208f40073f","false","16637.65499999863","<div align=left> Now, to practice, we kindly ask you to remember as many of the to-be-remembered pictures<br>of the previous learning phase as possible.<br><br>The pictures you were instructed to remember were the pictures followed by a <span style='color: dodgerblue; font-size: 28px'>O</span>.<br><br>In this memory test phase, you will also see some new pictures.<br>It is your task to remember whether you were presented with this specific picture in this study so far or not.<br>If you recognize an object (you have already seen it in this study), it is an OLD object. <br>If you do not recognize an object (you have NOT seen it in this study), it is a NEW object. <br><strong> Attention</strong>: As already mentioned, <span style='color: darkorange; font-size:28px'>Ø</span>-pictures will <strong>never</strong> appear in this memory test (neither as new objects). <br><br>Press SPACE to continue. </div>","32","","","","","","","","","","","","","","","","","","","",""
"html-keyboard-response","138","467005","0.0-3.0-6.0","qe1rud3k2rjcpe3","instructions","5cdbfc1817025800014b3c36","5f60e3c0a3b16e07647b2ff9","5f647bb432d8ba208f40073f","false","29018.205000000307","<div align=left> M and N no longer will appear on the left/right of the fixation cross. <br>Instead there will be a note at the bottom of the left or right side  <br>indicating which key you should press for an old or new object:  <br> <br>Press the <strong>right</strong> key to classify an object as <strong>old</strong> and press the <strong>left</strong>, to classify an object as <strong>new</strong>.<br>Please classify the objects as new/old by again placing your index finger on the 'S' and 'L' keys <br>and press them accordingly.<br><br><strong>Old:</strong> This object has been presented before. <br><strong>New:</strong> This object has <strong>not</strong> been presented.<br><br>Now please put your right and left index fingers on the 'S' and 'L' keys of your keyboard. <br>Please respond as fast and as accurately as possible!<br><br>Press SPACE to continue. </div>","32","","","","","","","","","","","","","","","","","","","",""
"categorize-image","139","468981","0.0-3.0-7.0-0.0","qe1rud3k2rjcpe3","practice_recog","5cdbfc1817025800014b3c36","5f60e3c0a3b16e07647b2ff9","5f647bb432d8ba208f40073f","true","1469.0550000232179","./Stimuli/ImagesPractice/LM143.jpg","76","","","","test","false","","83","","LM","LM143.jpg","","new","49","4","practice_recog","right","","","",""
"categorize-image","140","470720","0.0-3.0-7.0-0.1","qe1rud3k2rjcpe3","practice_recog","5cdbfc1817025800014b3c36","5f60e3c0a3b16e07647b2ff9","5f647bb432d8ba208f40073f","true","1233.0999999830965","./Stimuli/ImagesPractice/LM239.jpg","83","","","","test","true","","83","","LM","LM239.jpg","","new","50","4","practice_recog","left","","","",""
"categorize-image","141","472374","0.0-3.0-7.0-0.2","qe1rud3k2rjcpe3","practice_recog","5cdbfc1817025800014b3c36","5f60e3c0a3b16e07647b2ff9","5f647bb432d8ba208f40073f","true","1146.9900000083726","./Stimuli/ImagesPractice/LN4.jpg","76","","","","test","true","","76","","LN","LN4.jpg","","old","51","4","practice_recog","right","","","",""
"categorize-image","142","473986","0.0-3.0-7.0-0.3","qe1rud3k2rjcpe3","practice_recog","5cdbfc1817025800014b3c36","5f60e3c0a3b16e07647b2ff9","5f647bb432d8ba208f40073f","true","1102.1999999938998","./Stimuli/ImagesPractice/SN222.jpg","76","","","","test","true","","76","","SN","SN222.jpg","","old","52","4","practice_recog","right","","","",""
"categorize-image","143","475315","0.0-3.0-7.0-0.4","qe1rud3k2rjcpe3","practice_recog","5cdbfc1817025800014b3c36","5f60e3c0a3b16e07647b2ff9","5f647bb432d8ba208f40073f","true","823.2250000000931","./Stimuli/ImagesPractice/SM62.jpg","83","","","","test","true","","83","","SM","SM62.jpg","","new","53","4","practice_recog","left","","","",""
"categorize-image","144","476691","0.0-3.0-7.0-0.5","qe1rud3k2rjcpe3","practice_recog","5cdbfc1817025800014b3c36","5f60e3c0a3b16e07647b2ff9","5f647bb432d8ba208f40073f","true","871.6850000200793","./Stimuli/ImagesPractice/SM37.jpg","83","","","","test","true","","83","","SM","SM37.jpg","","new","54","4","practice_recog","left","","","",""
"categorize-image","145","478753","0.0-3.0-7.0-0.6","qe1rud3k2rjcpe3","practice_recog","5cdbfc1817025800014b3c36","5f60e3c0a3b16e07647b2ff9","5f647bb432d8ba208f40073f","true","1556.910000013886","./Stimuli/ImagesPractice/LM147.jpg","83","","","","test","true","","83","","LM","LM147.jpg","","new","55","4","practice_recog","left","","","",""
"categorize-image","146","480113","0.0-3.0-7.0-0.7","qe1rud3k2rjcpe3","practice_recog","5cdbfc1817025800014b3c36","5f60e3c0a3b16e07647b2ff9","5f647bb432d8ba208f40073f","true","854.5600000070408","./Stimuli/ImagesPractice/SM35.jpg","83","","","","test","true","","83","","SM","SM35.jpg","","new","56","4","practice_recog","left","","","",""
"categorize-image","147","481200","0.0-3.0-7.0-0.8","qe1rud3k2rjcpe3","practice_recog","5cdbfc1817025800014b3c36","5f60e3c0a3b16e07647b2ff9","5f647bb432d8ba208f40073f","true","582.7449999924283","./Stimuli/ImagesPractice/SN221.jpg","76","","","","test","true","","76","","SN","SN221.jpg","","old","57","4","practice_recog","right","","","",""
"categorize-image","148","482819","0.0-3.0-7.0-0.9","qe1rud3k2rjcpe3","practice_recog","5cdbfc1817025800014b3c36","5f60e3c0a3b16e07647b2ff9","5f647bb432d8ba208f40073f","true","1112.2750000213273","./Stimuli/ImagesPractice/LN17.jpg","83","","","","test","true","","83","","LN","LN17.jpg","","new","58","4","practice_recog","left","","","",""
"categorize-image","149","484224","0.0-3.0-7.0-0.10","qe1rud3k2rjcpe3","practice_recog","5cdbfc1817025800014b3c36","5f60e3c0a3b16e07647b2ff9","5f647bb432d8ba208f40073f","true","899.8999999894295","./Stimuli/ImagesPractice/SN75.jpg","76","","","","test","true","","76","","SN","SN75.jpg","","old","59","4","practice_recog","right","","","",""
"categorize-image","150","485619","0.0-3.0-7.0-0.11","qe1rud3k2rjcpe3","practice_recog","5cdbfc1817025800014b3c36","5f60e3c0a3b16e07647b2ff9","5f647bb432d8ba208f40073f","true","888.2599999778904","./Stimuli/ImagesPractice/LM230.jpg","76","","","","test","true","","76","","LM","LM230.jpg","","old","60","4","practice_recog","right","","","",""
"categorize-image","151","486769","0.0-3.0-7.0-0.12","qe1rud3k2rjcpe3","practice_recog","5cdbfc1817025800014b3c36","5f60e3c0a3b16e07647b2ff9","5f647bb432d8ba208f40073f","true","638.7649999815039","./Stimuli/ImagesPractice/SM98.jpg","76","","","","test","true","","76","","SM","SM98.jpg","","old","61","4","practice_recog","right","","","",""
"categorize-image","152","487924","0.0-3.0-7.0-0.13","qe1rud3k2rjcpe3","practice_recog","5cdbfc1817025800014b3c36","5f60e3c0a3b16e07647b2ff9","5f647bb432d8ba208f40073f","true","649.8600000049919","./Stimuli/ImagesPractice/LM55.jpg","83","","","","test","true","","83","","LM","LM55.jpg","","new","62","4","practice_recog","left","","","",""
"categorize-image","153","489377","0.0-3.0-7.0-0.14","qe1rud3k2rjcpe3","practice_recog","5cdbfc1817025800014b3c36","5f60e3c0a3b16e07647b2ff9","5f647bb432d8ba208f40073f","true","947.7400000032503","./Stimuli/ImagesPractice/LN2.jpg","83","","","","test","false","","76","","LN","LN2.jpg","","old","63","4","practice_recog","left","","","",""
"categorize-image","154","491041","0.0-3.0-7.0-0.15","qe1rud3k2rjcpe3","practice_recog","5cdbfc1817025800014b3c36","5f60e3c0a3b16e07647b2ff9","5f647bb432d8ba208f40073f","true","1157.3700000008103","./Stimuli/ImagesPractice/LN72.jpg","83","","","","test","false","","76","","LN","LN72.jpg","","old","64","4","practice_recog","left","","","",""
"html-keyboard-response","155","498765","0.0-3.0-8.0","qe1rud3k2rjcpe3","instructions","5cdbfc1817025800014b3c36","5f60e3c0a3b16e07647b2ff9","5f647bb432d8ba208f40073f","false","7720.850000012433","<div align=left> Great!<br><br>Are you ready to continue?<br>If you want to reread the instructions and redo the practice trials, please <br>press „Z“.<br><br>You can proceed when you are ready.<br><br>After the presentation of each object, you will receive an instruction whether to <br>remember or to forget the object.<br>We will test your memory of the following pictures only at the very end of <br>the experiment after all learning blocks are completed. <br><br>Press SPACE to CONTINUE when you are ready. </div>","32","","","","","","","","","","","","","","","","","","","",""
"html-keyboard-response","156","505119","0.0-4.0-0.0","qe1rud3k2rjcpe3","instructions","5cdbfc1817025800014b3c36","5f60e3c0a3b16e07647b2ff9","5f647bb432d8ba208f40073f","false","6350.235000019893","<div align=left> The actual experiment is about to start.<br>The practice trials are over!<br><br>Please always respond both fast and accurately!<br><br>Remember: <br> <br><li> Please place your index fingers on the <strong>'S'</strong> and <strong>'L'</strong> keys <br>to respond as fast and accurately as possible.</li><li> Every picture can be classified as either mechanical or non-mechanical.</li><li> If you do not respond in time or commit an error, you will receive a corresponding feedback.<br> Please try to respond as <strong> fast </strong> and as <strong> accurately as possible </strong>.</li><li> Remember the <span style='color: dodgerblue; font-size: 28px'>O</span> pictures. <br></li><li> Please minimize distractions and stay focused. </li><br><br>Press SPACE to START.</div>","32","","","","","","","","","","","","","","","","","","","",""
"html-keyboard-response","157","505822","0.0-4.0-1.0-0.0","qe1rud3k2rjcpe3","prime","5cdbfc1817025800014b3c36","5f60e3c0a3b16e07647b2ff9","5f647bb432d8ba208f40073f","false","null","<span style=""color: black; font-size: 48px"">M + N</span>","null","","","","resp_prompt","","","","","","","","","","","","","","","",""
"categorize-image","158","506813","0.0-4.0-1.0-1.0","qe1rud3k2rjcpe3","prime","5cdbfc1817025800014b3c36","5f60e3c0a3b16e07647b2ff9","5f647bb432d8ba208f40073f","true","985.8799999929033","./Stimuli/SelectedImages/LM/LM216.bmp","83","","","","test","true","M + N","83","repetition","LM","LM216.bmp","remember","","65","4","prime1","left","","","",""
"html-keyboard-response","159","508816","0.0-4.0-1.0-3.0","qe1rud3k2rjcpe3","prime","5cdbfc1817025800014b3c36","5f60e3c0a3b16e07647b2ff9","5f647bb432d8ba208f40073f","false","null","<div style=""align-items: center; display: flex; color: dodgerblue; font-size: 90px""><b>o</b></div>","null","","","","forget_cue","","","","","","","","","","","","","","","",""
"html-keyboard-response","160","509518","0.0-4.0-1.0-0.1","qe1rud3k2rjcpe3","prime","5cdbfc1817025800014b3c36","5f60e3c0a3b16e07647b2ff9","5f647bb432d8ba208f40073f","false","null","<span style=""color: black; font-size: 48px"">M + N</span>","null","","","","resp_prompt","","","","","","","","","","","","","","","",""
"categorize-image","161","510387","0.0-4.0-1.0-1.1","qe1rud3k2rjcpe3","prime","5cdbfc1817025800014b3c36","5f60e3c0a3b16e07647b2ff9","5f647bb432d8ba208f40073f","true","859.2449999996461","./Stimuli/SelectedImages/SM/SM106.bmp","83","","","","test","true","M + N","83","repetition","SM","SM106.bmp","remember","","66","4","prime1","left","","","",""
"html-keyboard-response","162","512392","0.0-4.0-1.0-3.1","qe1rud3k2rjcpe3","prime","5cdbfc1817025800014b3c36","5f60e3c0a3b16e07647b2ff9","5f647bb432d8ba208f40073f","false","null","<div style=""align-items: center; display: flex; color: dodgerblue; font-size: 90px""><b>o</b></div>","null","","","","forget_cue","","","","","","","","","","","","","","","",""
"html-keyboard-response","163","513095","0.0-4.0-1.0-0.2","qe1rud3k2rjcpe3","prime","5cdbfc1817025800014b3c36","5f60e3c0a3b16e07647b2ff9","5f647bb432d8ba208f40073f","false","null","<span style=""color: black; font-size: 48px"">N + M</span>","null","","","","resp_prompt","","","","","","","","","","","","","","","",""
"categorize-image","164","514226","0.0-4.0-1.0-1.2","qe1rud3k2rjcpe3","prime","5cdbfc1817025800014b3c36","5f60e3c0a3b16e07647b2ff9","5f647bb432d8ba208f40073f","true","1121.9250000140164","./Stimuli/SelectedImages/LM/LM167.bmp","76","","","","test","true","N + M","76","switch","LM","LM167.bmp","remember","","67","4","prime1","right","","","",""
"html-keyboard-response","165","516231","0.0-4.0-1.0-3.2","qe1rud3k2rjcpe3","prime","5cdbfc1817025800014b3c36","5f60e3c0a3b16e07647b2ff9","5f647bb432d8ba208f40073f","false","null","<div style=""align-items: center; display: flex; color: dodgerblue; font-size: 90px""><b>o</b></div>","null","","","","forget_cue","","","","","","","","","","","","","","","",""
"html-keyboard-response","166","516933","0.0-4.0-1.0-0.3","qe1rud3k2rjcpe3","prime","5cdbfc1817025800014b3c36","5f60e3c0a3b16e07647b2ff9","5f647bb432d8ba208f40073f","false","null","<span style=""color: black; font-size: 48px"">N + M</span>","null","","","","resp_prompt","","","","","","","","","","","","","","","",""
"categorize-image","167","518371","0.0-4.0-1.0-1.3","qe1rud3k2rjcpe3","prime","5cdbfc1817025800014b3c36","5f60e3c0a3b16e07647b2ff9","5f647bb432d8ba208f40073f","true","1430.0900000089314","./Stimuli/SelectedImages/SM/SM213.bmp","76","","","","test","true","N + M","76","repetition","SM","SM213.bmp","forget","","68","4","prime1","right","","","",""
"html-keyboard-response","168","520375","0.0-4.0-1.0-3.3","qe1rud3k2rjcpe3","prime","5cdbfc1817025800014b3c36","5f60e3c0a3b16e07647b2ff9","5f647bb432d8ba208f40073f","false","null","<div style=""align-items: center; display: flex; color: darkorange; font-size: 90px""><b>ø</b></div>","null","","","","forget_cue","","","","","","","","","","","","","","","",""
"html-keyboard-response","169","521078","0.0-4.0-1.0-0.4","qe1rud3k2rjcpe3","prime","5cdbfc1817025800014b3c36","5f60e3c0a3b16e07647b2ff9","5f647bb432d8ba208f40073f","false","null","<span style=""color: black; font-size: 48px"">M + N</span>","null","","","","resp_prompt","","","","","","","","","","","","","","","",""
"categorize-image","170","522115","0.0-4.0-1.0-1.4","qe1rud3k2rjcpe3","prime","5cdbfc1817025800014b3c36","5f60e3c0a3b16e07647b2ff9","5f647bb432d8ba208f40073f","true","1026.9800000241958","./Stimuli/SelectedImages/SM/SM17.bmp","83","","","","test","true","M + N","83","repetition","SM","SM17.bmp","forget","","69","4","prime1","left","","","",""
"html-keyboard-response","171","524121","0.0-4.0-1.0-3.4","qe1rud3k2rjcpe3","prime","5cdbfc1817025800014b3c36","5f60e3c0a3b16e07647b2ff9","5f647bb432d8ba208f40073f","false","null","<div style=""align-items: center; display: flex; color: darkorange; font-size: 90px""><b>ø</b></div>","null","","","","forget_cue","","","","","","","","","","","","","","","",""
"html-keyboard-response","172","524825","0.0-4.0-1.0-0.5","qe1rud3k2rjcpe3","prime","5cdbfc1817025800014b3c36","5f60e3c0a3b16e07647b2ff9","5f647bb432d8ba208f40073f","false","null","<span style=""color: black; font-size: 48px"">N + M</span>","null","","","","resp_prompt","","","","","","","","","","","","","","","",""
"categorize-image","173","526253","0.0-4.0-1.0-1.5","qe1rud3k2rjcpe3","prime","5cdbfc1817025800014b3c36","5f60e3c0a3b16e07647b2ff9","5f647bb432d8ba208f40073f","true","1423.595000000205","./Stimuli/SelectedImages/SN/SN181.bmp","76","","","","test","false","N + M","83","repetition","SN","SN181.bmp","remember","","70","4","prime1","right","","","",""
"html-keyboard-response","174","526758","0.0-4.0-1.0-2.5-0.5","qe1rud3k2rjcpe3","prime","5cdbfc1817025800014b3c36","5f60e3c0a3b16e07647b2ff9","5f647bb432d8ba208f40073f","false","null","<span style=""color: red; font-size: 48px"">Error!</span>","null","","","","feedback","","","","","","","","","","","","","","","",""
"html-keyboard-response","175","528761","0.0-4.0-1.0-3.5","qe1rud3k2rjcpe3","prime","5cdbfc1817025800014b3c36","5f60e3c0a3b16e07647b2ff9","5f647bb432d8ba208f40073f","false","null","<div style=""align-items: center; display: flex; color: dodgerblue; font-size: 90px""><b>o</b></div>","null","","","","forget_cue","","","","","","","","","","","","","","","",""
"html-keyboard-response","176","529463","0.0-4.0-1.0-0.6","qe1rud3k2rjcpe3","prime","5cdbfc1817025800014b3c36","5f60e3c0a3b16e07647b2ff9","5f647bb432d8ba208f40073f","false","null","<span style=""color: black; font-size: 48px"">M + N</span>","null","","","","resp_prompt","","","","","","","","","","","","","","","",""
"categorize-image","177","530612","0.0-4.0-1.0-1.6","qe1rud3k2rjcpe3","prime","5cdbfc1817025800014b3c36","5f60e3c0a3b16e07647b2ff9","5f647bb432d8ba208f40073f","true","1139.614999992773","./Stimuli/SelectedImages/LM/LM75.bmp","83","","","","test","true","M + N","83","repetition","LM","LM75.bmp","forget","","71","4","prime1","left","","","",""
"html-keyboard-response","178","532620","0.0-4.0-1.0-3.6","qe1rud3k2rjcpe3","prime","5cdbfc1817025800014b3c36","5f60e3c0a3b16e07647b2ff9","5f647bb432d8ba208f40073f","false","null","<div style=""align-items: center; display: flex; color: darkorange; font-size: 90px""><b>ø</b></div>","null","","","","forget_cue","","","","","","","","","","","","","","","",""
"html-keyboard-response","179","533323","0.0-4.0-1.0-0.7","qe1rud3k2rjcpe3","prime","5cdbfc1817025800014b3c36","5f60e3c0a3b16e07647b2ff9","5f647bb432d8ba208f40073f","false","null","<span style=""color: black; font-size: 48px"">M + N</span>","null","","","","resp_prompt","","","","","","","","","","","","","","","",""
"categorize-image","180","533954","0.0-4.0-1.0-1.7","qe1rud3k2rjcpe3","prime","5cdbfc1817025800014b3c36","5f60e3c0a3b16e07647b2ff9","5f647bb432d8ba208f40073f","true","621.2050000031013","./Stimuli/SelectedImages/SM/SM76.bmp","83","","","","test","true","M + N","83","repetition","SM","SM76.bmp","forget","","72","4","prime1","left","","","",""
"html-keyboard-response","181","535959","0.0-4.0-1.0-3.7","qe1rud3k2rjcpe3","prime","5cdbfc1817025800014b3c36","5f60e3c0a3b16e07647b2ff9","5f647bb432d8ba208f40073f","false","null","<div style=""align-items: center; display: flex; color: darkorange; font-size: 90px""><b>ø</b></div>","null","","","","forget_cue","","","","","","","","","","","","","","","",""
"html-keyboard-response","182","536663","0.0-4.0-1.0-0.8","qe1rud3k2rjcpe3","prime","5cdbfc1817025800014b3c36","5f60e3c0a3b16e07647b2ff9","5f647bb432d8ba208f40073f","false","null","<span style=""color: black; font-size: 48px"">N + M</span>","null","","","","resp_prompt","","","","","","","","","","","","","","","",""
"categorize-image","183","537730","0.0-4.0-1.0-1.8","qe1rud3k2rjcpe3","prime","5cdbfc1817025800014b3c36","5f60e3c0a3b16e07647b2ff9","5f647bb432d8ba208f40073f","true","1059.559999994235","./Stimuli/SelectedImages/LM/LM129.bmp","76","","","","test","true","N + M","76","repetition","LM","LM129.bmp","forget","","73","4","prime1","right","","","",""
"html-keyboard-response","184","539735","0.0-4.0-1.0-3.8","qe1rud3k2rjcpe3","prime","5cdbfc1817025800014b3c36","5f60e3c0a3b16e07647b2ff9","5f647bb432d8ba208f40073f","false","null","<div style=""align-items: center; display: flex; color: darkorange; font-size: 90px""><b>ø</b></div>","null","","","","forget_cue","","","","","","","","","","","","","","","",""
"html-keyboard-response","185","540437","0.0-4.0-1.0-0.9","qe1rud3k2rjcpe3","prime","5cdbfc1817025800014b3c36","5f60e3c0a3b16e07647b2ff9","5f647bb432d8ba208f40073f","false","null","<span style=""color: black; font-size: 48px"">M + N</span>","null","","","","resp_prompt","","","","","","","","","","","","","","","",""
"categorize-image","186","541413","0.0-4.0-1.0-1.9","qe1rud3k2rjcpe3","prime","5cdbfc1817025800014b3c36","5f60e3c0a3b16e07647b2ff9","5f647bb432d8ba208f40073f","true","964.4700000062585","./Stimuli/SelectedImages/SM/SM128.bmp","76","","","","test","false","M + N","83","switch","SM","SM128.bmp","remember","","74","4","prime1","right","","","",""
"html-keyboard-response","187","541918","0.0-4.0-1.0-2.9-0.9","qe1rud3k2rjcpe3","prime","5cdbfc1817025800014b3c36","5f60e3c0a3b16e07647b2ff9","5f647bb432d8ba208f40073f","false","null","<span style=""color: red; font-size: 48px"">Error!</span>","null","","","","feedback","","","","","","","","","","","","","","","",""
"html-keyboard-response","188","543922","0.0-4.0-1.0-3.9","qe1rud3k2rjcpe3","prime","5cdbfc1817025800014b3c36","5f60e3c0a3b16e07647b2ff9","5f647bb432d8ba208f40073f","false","null","<div style=""align-items: center; display: flex; color: dodgerblue; font-size: 90px""><b>o</b></div>","null","","","","forget_cue","","","","","","","","","","","","","","","",""
"html-keyboard-response","189","544624","0.0-4.0-1.0-0.10","qe1rud3k2rjcpe3","prime","5cdbfc1817025800014b3c36","5f60e3c0a3b16e07647b2ff9","5f647bb432d8ba208f40073f","false","null","<span style=""color: black; font-size: 48px"">N + M</span>","null","","","","resp_prompt","","","","","","","","","","","","","","","",""
"categorize-image","190","545570","0.0-4.0-1.0-1.10","qe1rud3k2rjcpe3","prime","5cdbfc1817025800014b3c36","5f60e3c0a3b16e07647b2ff9","5f647bb432d8ba208f40073f","true","935.5599999835249","./Stimuli/SelectedImages/LM/LM51.bmp","83","","","","test","false","N + M","76","switch","LM","LM51.bmp","forget","","75","4","prime1","left","","","",""
"html-keyboard-response","191","546076","0.0-4.0-1.0-2.10-0.10","qe1rud3k2rjcpe3","prime","5cdbfc1817025800014b3c36","5f60e3c0a3b16e07647b2ff9","5f647bb432d8ba208f40073f","false","null","<span style=""color: red; font-size: 48px"">Error!</span>","null","","","","feedback","","","","","","","","","","","","","","","",""
"html-keyboard-response","192","548078","0.0-4.0-1.0-3.10","qe1rud3k2rjcpe3","prime","5cdbfc1817025800014b3c36","5f60e3c0a3b16e07647b2ff9","5f647bb432d8ba208f40073f","false","null","<div style=""align-items: center; display: flex; color: darkorange; font-size: 90px""><b>ø</b></div>","null","","","","forget_cue","","","","","","","","","","","","","","","",""
"html-keyboard-response","193","548782","0.0-4.0-1.0-0.11","qe1rud3k2rjcpe3","prime","5cdbfc1817025800014b3c36","5f60e3c0a3b16e07647b2ff9","5f647bb432d8ba208f40073f","false","null","<span style=""color: black; font-size: 48px"">N + M</span>","null","","","","resp_prompt","","","","","","","","","","","","","","","",""
"categorize-image","194","549822","0.0-4.0-1.0-1.11","qe1rud3k2rjcpe3","prime","5cdbfc1817025800014b3c36","5f60e3c0a3b16e07647b2ff9","5f647bb432d8ba208f40073f","true","1033.2599999965169","./Stimuli/SelectedImages/LM/LM48.bmp","76","","","","test","true","N + M","76","repetition","LM","LM48.bmp","remember","","76","4","prime1","right","","","",""
"html-keyboard-response","195","551826","0.0-4.0-1.0-3.11","qe1rud3k2rjcpe3","prime","5cdbfc1817025800014b3c36","5f60e3c0a3b16e07647b2ff9","5f647bb432d8ba208f40073f","false","null","<div style=""align-items: center; display: flex; color: dodgerblue; font-size: 90px""><b>o</b></div>","null","","","","forget_cue","","","","","","","","","","","","","","","",""
"html-keyboard-response","196","552535","0.0-4.0-1.0-0.12","qe1rud3k2rjcpe3","prime","5cdbfc1817025800014b3c36","5f60e3c0a3b16e07647b2ff9","5f647bb432d8ba208f40073f","false","null","<span style=""color: black; font-size: 48px"">M + N</span>","null","","","","resp_prompt","","","","","","","","","","","","","","","",""
"categorize-image","197","553616","0.0-4.0-1.0-1.12","qe1rud3k2rjcpe3","prime","5cdbfc1817025800014b3c36","5f60e3c0a3b16e07647b2ff9","5f647bb432d8ba208f40073f","true","1072.214999992866","./Stimuli/SelectedImages/LM/LM100.bmp","83","","","","test","true","M + N","83","switch","LM","LM100.bmp","forget","","77","4","prime1","left","","","",""
"html-keyboard-response","198","555619","0.0-4.0-1.0-3.12","qe1rud3k2rjcpe3","prime","5cdbfc1817025800014b3c36","5f60e3c0a3b16e07647b2ff9","5f647bb432d8ba208f40073f","false","null","<div style=""align-items: center; display: flex; color: darkorange; font-size: 90px""><b>ø</b></div>","null","","","","forget_cue","","","","","","","","","","","","","","","",""
"html-keyboard-response","199","556322","0.0-4.0-1.0-0.13","qe1rud3k2rjcpe3","prime","5cdbfc1817025800014b3c36","5f60e3c0a3b16e07647b2ff9","5f647bb432d8ba208f40073f","false","null","<span style=""color: black; font-size: 48px"">M + N</span>","null","","","","resp_prompt","","","","","","","","","","","","","","","",""
"categorize-image","200","557089","0.0-4.0-1.0-1.13","qe1rud3k2rjcpe3","prime","5cdbfc1817025800014b3c36","5f60e3c0a3b16e07647b2ff9","5f647bb432d8ba208f40073f","true","759.84499999322","./Stimuli/SelectedImages/SM/SM205.bmp","83","","","","test","true","M + N","83","switch","SM","SM205.bmp","forget","","78","4","prime1","left","","","",""
"html-keyboard-response","201","559094","0.0-4.0-1.0-3.13","qe1rud3k2rjcpe3","prime","5cdbfc1817025800014b3c36","5f60e3c0a3b16e07647b2ff9","5f647bb432d8ba208f40073f","false","null","<div style=""align-items: center; display: flex; color: darkorange; font-size: 90px""><b>ø</b></div>","null","","","","forget_cue","","","","","","","","","","","","","","","",""
"html-keyboard-response","202","559797","0.0-4.0-1.0-0.14","qe1rud3k2rjcpe3","prime","5cdbfc1817025800014b3c36","5f60e3c0a3b16e07647b2ff9","5f647bb432d8ba208f40073f","false","null","<span style=""color: black; font-size: 48px"">M + N</span>","null","","","","resp_prompt","","","","","","","","","","","","","","","",""
"categorize-image","203","560612","0.0-4.0-1.0-1.14","qe1rud3k2rjcpe3","prime","5cdbfc1817025800014b3c36","5f60e3c0a3b16e07647b2ff9","5f647bb432d8ba208f40073f","true","805.6499999947846","./Stimuli/SelectedImages/LM/LM58.bmp","83","","","","test","true","M + N","83","repetition","LM","LM58.bmp","remember","","79","4","prime1","left","","","",""
"html-keyboard-response","204","562620","0.0-4.0-1.0-3.14","qe1rud3k2rjcpe3","prime","5cdbfc1817025800014b3c36","5f60e3c0a3b16e07647b2ff9","5f647bb432d8ba208f40073f","false","null","<div style=""align-items: center; display: flex; color: dodgerblue; font-size: 90px""><b>o</b></div>","null","","","","forget_cue","","","","","","","","","","","","","","","",""
"html-keyboard-response","205","563322","0.0-4.0-1.0-0.15","qe1rud3k2rjcpe3","prime","5cdbfc1817025800014b3c36","5f60e3c0a3b16e07647b2ff9","5f647bb432d8ba208f40073f","false","null","<span style=""color: black; font-size: 48px"">N + M</span>","null","","","","resp_prompt","","","","","","","","","","","","","","","",""
"categorize-image","206","564052","0.0-4.0-1.0-1.15","qe1rud3k2rjcpe3","prime","5cdbfc1817025800014b3c36","5f60e3c0a3b16e07647b2ff9","5f647bb432d8ba208f40073f","true","721.3100000226405","./Stimuli/SelectedImages/LM/LM235.bmp","76","","","","test","true","N + M","76","switch","LM","LM235.bmp","remember","","80","4","prime1","right","","","",""
"html-keyboard-response","207","566056","0.0-4.0-1.0-3.15","qe1rud3k2rjcpe3","prime","5cdbfc1817025800014b3c36","5f60e3c0a3b16e07647b2ff9","5f647bb432d8ba208f40073f","false","null","<div style=""align-items: center; display: flex; color: dodgerblue; font-size: 90px""><b>o</b></div>","null","","","","forget_cue","","","","","","","","","","","","","","","",""
"html-keyboard-response","208","566759","0.0-4.0-1.0-0.16","qe1rud3k2rjcpe3","prime","5cdbfc1817025800014b3c36","5f60e3c0a3b16e07647b2ff9","5f647bb432d8ba208f40073f","false","null","<span style=""color: black; font-size: 48px"">N + M</span>","null","","","","resp_prompt","","","","","","","","","","","","","","","",""
"categorize-image","209","567372","0.0-4.0-1.0-1.16","qe1rud3k2rjcpe3","prime","5cdbfc1817025800014b3c36","5f60e3c0a3b16e07647b2ff9","5f647bb432d8ba208f40073f","true","609.7149999986868","./Stimuli/SelectedImages/SM/SM73.bmp","76","","","","test","true","N + M","76","switch","SM","SM73.bmp","forget","","81","4","prime1","right","","","",""
"html-keyboard-response","210","569375","0.0-4.0-1.0-3.16","qe1rud3k2rjcpe3","prime","5cdbfc1817025800014b3c36","5f60e3c0a3b16e07647b2ff9","5f647bb432d8ba208f40073f","false","null","<div style=""align-items: center; display: flex; color: darkorange; font-size: 90px""><b>ø</b></div>","null","","","","forget_cue","","","","","","","","","","","","","","","",""
"html-keyboard-response","211","570077","0.0-4.0-1.0-0.17","qe1rud3k2rjcpe3","prime","5cdbfc1817025800014b3c36","5f60e3c0a3b16e07647b2ff9","5f647bb432d8ba208f40073f","false","null","<span style=""color: black; font-size: 48px"">N + M</span>","null","","","","resp_prompt","","","","","","","","","","","","","","","",""
"categorize-image","212","570962","0.0-4.0-1.0-1.17","qe1rud3k2rjcpe3","prime","5cdbfc1817025800014b3c36","5f60e3c0a3b16e07647b2ff9","5f647bb432d8ba208f40073f","true","875.3949999809265","./Stimuli/SelectedImages/SM/SM24.bmp","83","","","","test","false","N + M","76","switch","SM","SM24.bmp","forget","","82","4","prime1","left","","","",""
"html-keyboard-response","213","571468","0.0-4.0-1.0-2.17-0.17","qe1rud3k2rjcpe3","prime","5cdbfc1817025800014b3c36","5f60e3c0a3b16e07647b2ff9","5f647bb432d8ba208f40073f","false","null","<span style=""color: red; font-size: 48px"">Error!</span>","null","","","","feedback","","","","","","","","","","","","","","","",""
"html-keyboard-response","214","573470","0.0-4.0-1.0-3.17","qe1rud3k2rjcpe3","prime","5cdbfc1817025800014b3c36","5f60e3c0a3b16e07647b2ff9","5f647bb432d8ba208f40073f","false","null","<div style=""align-items: center; display: flex; color: darkorange; font-size: 90px""><b>ø</b></div>","null","","","","forget_cue","","","","","","","","","","","","","","","",""
"html-keyboard-response","215","574173","0.0-4.0-1.0-0.18","qe1rud3k2rjcpe3","prime","5cdbfc1817025800014b3c36","5f60e3c0a3b16e07647b2ff9","5f647bb432d8ba208f40073f","false","null","<span style=""color: black; font-size: 48px"">N + M</span>","null","","","","resp_prompt","","","","","","","","","","","","","","","",""
"categorize-image","216","575060","0.0-4.0-1.0-1.18","qe1rud3k2rjcpe3","prime","5cdbfc1817025800014b3c36","5f60e3c0a3b16e07647b2ff9","5f647bb432d8ba208f40073f","true","877.5800000003073","./Stimuli/SelectedImages/LM/LM57.bmp","76","","","","test","true","N + M","76","repetition","LM","LM57.bmp","remember","","83","4","prime1","right","","","",""
"html-keyboard-response","217","577064","0.0-4.0-1.0-3.18","qe1rud3k2rjcpe3","prime","5cdbfc1817025800014b3c36","5f60e3c0a3b16e07647b2ff9","5f647bb432d8ba208f40073f","false","null","<div style=""align-items: center; display: flex; color: dodgerblue; font-size: 90px""><b>o</b></div>","null","","","","forget_cue","","","","","","","","","","","","","","","",""
"html-keyboard-response","218","577768","0.0-4.0-1.0-0.19","qe1rud3k2rjcpe3","prime","5cdbfc1817025800014b3c36","5f60e3c0a3b16e07647b2ff9","5f647bb432d8ba208f40073f","false","null","<span style=""color: black; font-size: 48px"">M + N</span>","null","","","","resp_prompt","","","","","","","","","","","","","","","",""
"categorize-image","219","578930","0.0-4.0-1.0-1.19","qe1rud3k2rjcpe3","prime","5cdbfc1817025800014b3c36","5f60e3c0a3b16e07647b2ff9","5f647bb432d8ba208f40073f","true","1153.1900000118185","./Stimuli/SelectedImages/LN/LN101.bmp","76","","","","test","true","M + N","76","switch","LN","LN101.bmp","remember","","84","4","prime1","right","","","",""
"html-keyboard-response","220","580935","0.0-4.0-1.0-3.19","qe1rud3k2rjcpe3","prime","5cdbfc1817025800014b3c36","5f60e3c0a3b16e07647b2ff9","5f647bb432d8ba208f40073f","false","null","<div style=""align-items: center; display: flex; color: dodgerblue; font-size: 90px""><b>o</b></div>","null","","","","forget_cue","","","","","","","","","","","","","","","",""
"html-keyboard-response","221","581639","0.0-4.0-1.0-0.20","qe1rud3k2rjcpe3","prime","5cdbfc1817025800014b3c36","5f60e3c0a3b16e07647b2ff9","5f647bb432d8ba208f40073f","false","null","<span style=""color: black; font-size: 48px"">M + N</span>","null","","","","resp_prompt","","","","","","","","","","","","","","","",""
"categorize-image","222","582542","0.0-4.0-1.0-1.20","qe1rud3k2rjcpe3","prime","5cdbfc1817025800014b3c36","5f60e3c0a3b16e07647b2ff9","5f647bb432d8ba208f40073f","true","895.9949999989476","./Stimuli/SelectedImages/LM/LM157.bmp","83","","","","test","true","M + N","83","switch","LM","LM157.bmp","remember","","85","4","prime1","left","","","",""
"html-keyboard-response","223","584545","0.0-4.0-1.0-3.20","qe1rud3k2rjcpe3","prime","5cdbfc1817025800014b3c36","5f60e3c0a3b16e07647b2ff9","5f647bb432d8ba208f40073f","false","null","<div style=""align-items: center; display: flex; color: dodgerblue; font-size: 90px""><b>o</b></div>","null","","","","forget_cue","","","","","","","","","","","","","","","",""
"html-keyboard-response","224","585249","0.0-4.0-1.0-0.21","qe1rud3k2rjcpe3","prime","5cdbfc1817025800014b3c36","5f60e3c0a3b16e07647b2ff9","5f647bb432d8ba208f40073f","false","null","<span style=""color: black; font-size: 48px"">M + N</span>","null","","","","resp_prompt","","","","","","","","","","","","","","","",""
"categorize-image","225","586500","0.0-4.0-1.0-1.21","qe1rud3k2rjcpe3","prime","5cdbfc1817025800014b3c36","5f60e3c0a3b16e07647b2ff9","5f647bb432d8ba208f40073f","true","1240.860000019893","./Stimuli/SelectedImages/LM/LM103.bmp","83","","","","test","true","M + N","83","switch","LM","LM103.bmp","forget","","86","4","prime1","left","","","",""
"html-keyboard-response","226","588506","0.0-4.0-1.0-3.21","qe1rud3k2rjcpe3","prime","5cdbfc1817025800014b3c36","5f60e3c0a3b16e07647b2ff9","5f647bb432d8ba208f40073f","false","null","<div style=""align-items: center; display: flex; color: darkorange; font-size: 90px""><b>ø</b></div>","null","","","","forget_cue","","","","","","","","","","","","","","","",""
"html-keyboard-response","227","589209","0.0-4.0-1.0-0.22","qe1rud3k2rjcpe3","prime","5cdbfc1817025800014b3c36","5f60e3c0a3b16e07647b2ff9","5f647bb432d8ba208f40073f","false","null","<span style=""color: black; font-size: 48px"">N + M</span>","null","","","","resp_prompt","","","","","","","","","","","","","","","",""
"categorize-image","228","590082","0.0-4.0-1.0-1.22","qe1rud3k2rjcpe3","prime","5cdbfc1817025800014b3c36","5f60e3c0a3b16e07647b2ff9","5f647bb432d8ba208f40073f","true","862.5999999931082","./Stimuli/SelectedImages/SN/SN93.bmp","83","","","","test","true","N + M","83","switch","SN","SN93.bmp","forget","","87","4","prime1","left","","","",""
"html-keyboard-response","229","592086","0.0-4.0-1.0-3.22","qe1rud3k2rjcpe3","prime","5cdbfc1817025800014b3c36","5f60e3c0a3b16e07647b2ff9","5f647bb432d8ba208f40073f","false","null","<div style=""align-items: center; display: flex; color: darkorange; font-size: 90px""><b>ø</b></div>","null","","","","forget_cue","","","","","","","","","","","","","","","",""
"html-keyboard-response","230","592788","0.0-4.0-1.0-0.23","qe1rud3k2rjcpe3","prime","5cdbfc1817025800014b3c36","5f60e3c0a3b16e07647b2ff9","5f647bb432d8ba208f40073f","false","null","<span style=""color: black; font-size: 48px"">N + M</span>","null","","","","resp_prompt","","","","","","","","","","","","","","","",""
"categorize-image","231","593505","0.0-4.0-1.0-1.23","qe1rud3k2rjcpe3","prime","5cdbfc1817025800014b3c36","5f60e3c0a3b16e07647b2ff9","5f647bb432d8ba208f40073f","true","708.7800000153948","./Stimuli/SelectedImages/SN/SN240.bmp","83","","","","test","true","N + M","83","switch","SN","SN240.bmp","forget","","88","4","prime1","left","","","",""
"html-keyboard-response","232","595509","0.0-4.0-1.0-3.23","qe1rud3k2rjcpe3","prime","5cdbfc1817025800014b3c36","5f60e3c0a3b16e07647b2ff9","5f647bb432d8ba208f40073f","false","null","<div style=""align-items: center; display: flex; color: darkorange; font-size: 90px""><b>ø</b></div>","null","","","","forget_cue","","","","","","","","","","","","","","","",""
"html-keyboard-response","233","596213","0.0-4.0-1.0-0.24","qe1rud3k2rjcpe3","prime","5cdbfc1817025800014b3c36","5f60e3c0a3b16e07647b2ff9","5f647bb432d8ba208f40073f","false","null","<span style=""color: black; font-size: 48px"">N + M</span>","null","","","","resp_prompt","","","","","","","","","","","","","","","",""
"categorize-image","234","596801","0.0-4.0-1.0-1.24","qe1rud3k2rjcpe3","prime","5cdbfc1817025800014b3c36","5f60e3c0a3b16e07647b2ff9","5f647bb432d8ba208f40073f","true","579.5899999793619","./Stimuli/SelectedImages/LN/LN28.bmp","83","","","","test","true","N + M","83","switch","LN","LN28.bmp","remember","","89","4","prime1","left","","","",""
"html-keyboard-response","235","598807","0.0-4.0-1.0-3.24","qe1rud3k2rjcpe3","prime","5cdbfc1817025800014b3c36","5f60e3c0a3b16e07647b2ff9","5f647bb432d8ba208f40073f","false","null","<div style=""align-items: center; display: flex; color: dodgerblue; font-size: 90px""><b>o</b></div>","null","","","","forget_cue","","","","","","","","","","","","","","","",""
"html-keyboard-response","236","599509","0.0-4.0-1.0-0.25","qe1rud3k2rjcpe3","prime","5cdbfc1817025800014b3c36","5f60e3c0a3b16e07647b2ff9","5f647bb432d8ba208f40073f","false","null","<span style=""color: black; font-size: 48px"">N + M</span>","null","","","","resp_prompt","","","","","","","","","","","","","","","",""
"categorize-image","237","600227","0.0-4.0-1.0-1.25","qe1rud3k2rjcpe3","prime","5cdbfc1817025800014b3c36","5f60e3c0a3b16e07647b2ff9","5f647bb432d8ba208f40073f","true","707.6750000123866","./Stimuli/SelectedImages/SN/SN140.bmp","83","","","","test","true","N + M","83","repetition","SN","SN140.bmp","forget","","90","4","prime1","left","","","",""
"html-keyboard-response","238","602232","0.0-4.0-1.0-3.25","qe1rud3k2rjcpe3","prime","5cdbfc1817025800014b3c36","5f60e3c0a3b16e07647b2ff9","5f647bb432d8ba208f40073f","false","null","<div style=""align-items: center; display: flex; color: darkorange; font-size: 90px""><b>ø</b></div>","null","","","","forget_cue","","","","","","","","","","","","","","","",""
"html-keyboard-response","239","602937","0.0-4.0-1.0-0.26","qe1rud3k2rjcpe3","prime","5cdbfc1817025800014b3c36","5f60e3c0a3b16e07647b2ff9","5f647bb432d8ba208f40073f","false","null","<span style=""color: black; font-size: 48px"">N + M</span>","null","","","","resp_prompt","","","","","","","","","","","","","","","",""
"categorize-image","240","603537","0.0-4.0-1.0-1.26","qe1rud3k2rjcpe3","prime","5cdbfc1817025800014b3c36","5f60e3c0a3b16e07647b2ff9","5f647bb432d8ba208f40073f","true","591.7099999787752","./Stimuli/SelectedImages/LN/LN13.bmp","83","","","","test","true","N + M","83","switch","LN","LN13.bmp","remember","","91","4","prime1","left","","","",""
"html-keyboard-response","241","605541","0.0-4.0-1.0-3.26","qe1rud3k2rjcpe3","prime","5cdbfc1817025800014b3c36","5f60e3c0a3b16e07647b2ff9","5f647bb432d8ba208f40073f","false","null","<div style=""align-items: center; display: flex; color: dodgerblue; font-size: 90px""><b>o</b></div>","null","","","","forget_cue","","","","","","","","","","","","","","","",""
"html-keyboard-response","242","606244","0.0-4.0-1.0-0.27","qe1rud3k2rjcpe3","prime","5cdbfc1817025800014b3c36","5f60e3c0a3b16e07647b2ff9","5f647bb432d8ba208f40073f","false","null","<span style=""color: black; font-size: 48px"">M + N</span>","null","","","","resp_prompt","","","","","","","","","","","","","","","",""
"categorize-image","243","606798","0.0-4.0-1.0-1.27","qe1rud3k2rjcpe3","prime","5cdbfc1817025800014b3c36","5f60e3c0a3b16e07647b2ff9","5f647bb432d8ba208f40073f","true","548.030000005383","./Stimuli/SelectedImages/SM/SM195.bmp","76","","","","test","false","M + N","83","repetition","SM","SM195.bmp","remember","","92","4","prime1","right","","","",""
"html-keyboard-response","244","607301","0.0-4.0-1.0-2.27-0.27","qe1rud3k2rjcpe3","prime","5cdbfc1817025800014b3c36","5f60e3c0a3b16e07647b2ff9","5f647bb432d8ba208f40073f","false","null","<span style=""color: red; font-size: 48px"">Error!</span>","null","","","","feedback","","","","","","","","","","","","","","","",""
"html-keyboard-response","245","609305","0.0-4.0-1.0-3.27","qe1rud3k2rjcpe3","prime","5cdbfc1817025800014b3c36","5f60e3c0a3b16e07647b2ff9","5f647bb432d8ba208f40073f","false","null","<div style=""align-items: center; display: flex; color: dodgerblue; font-size: 90px""><b>o</b></div>","null","","","","forget_cue","","","","","","","","","","","","","","","",""
