"trial_type","trial_index","time_elapsed","internal_node_id","subject","exp_part","prolific_PID","study_ID","session_ID","use","rt","stimulus","key_press","button_pressed","responses","question_order","trial_part","correct","resp_map","correct_resp","probe_condition","category","image","forget_condition","list","trial_num","block_num","block","response","test_part","n_span","sequence","num_spaces"
"pavlovia","0","248","0.0-0.0","0oa4xf2xglb8xuz","","5f427edd0f1aee45a78fa4d7","5f60e3c0a3b16e07647b2ff9","5f64c4fa8892d6026928c732","false","","","","","","","","","","","","","","","","","","","","","","",""
"html-keyboard-response","1","121632","0.0-1.0-0.0-0.0","0oa4xf2xglb8xuz","welcome","5f427edd0f1aee45a78fa4d7","5f60e3c0a3b16e07647b2ff9","5f64c4fa8892d6026928c732","false","121370","<div align=left>Dear participant, <br> thank you for participating in an online study of the Cognition, Action, and Sustainability Unit of the University of Freiburg! <br> <br>The aim of this study is to examine our ability to remember previously learned information. <br>Our goal is to find out, whether our memory improves, when we only remember information that is relevant to us. <br>The experiment will take about 35 minutes to complete. <br> <br>Please, note that you can only participate in this study if you are using a device with a keyboard (PC, Laptop etc.) <br>and not if you are using a mobile device such as a tablet or smartphone.<br> <br>Press 'SPACE' to proceed to the experiment. </div>","32","","","","","","","","","","","","","","","","","","","",""
"html-keyboard-response","2","125379","0.0-1.0-0.0-1.0","0oa4xf2xglb8xuz","welcome","5f427edd0f1aee45a78fa4d7","5f60e3c0a3b16e07647b2ff9","5f64c4fa8892d6026928c732","false","3740","<div align=left><strong> Time Course of this experiment: </strong> <br><br> <strong> 1.</strong>  First, please fill in some information regarding your demographic data. <br><br> <strong> 2.</strong>  Next, your task will be to classify everyday objects. <br>In addition, you will be asked to remember certain objects and recall them later. <br>Working on these tasks requires your undivided attention and concentration.<br>It is therefore essential that you eliminate any sources of distraction in your  <br>environment and ensure that you will not be disturbed. <br><br><strong> 3.</strong>  At the end of the experiment, you will be asked to answer a few additional questions. <br> <br><strong> Important:</strong> After finishing the experiment, only close the browser window <br> by clicking on the 'end the experiment'-button when you are asked to do so. <br>Closing the browser window prematurely will make the allocation of your participation credit impossible. <br><br> Press 'SPACE' to start the experiment. </div>","32","","","","","","","","","","","","","","","","","","","",""
"html-button-response","3","128802","0.0-1.0-0.0-2.0","0oa4xf2xglb8xuz","welcome","5f427edd0f1aee45a78fa4d7","5f60e3c0a3b16e07647b2ff9","5f64c4fa8892d6026928c732","true","3412","<div align=left><strong> Informed consent </strong>  <br>The aim of our research is to better understand human behavior and mental processes. <br>In the following study your behavior (e.g. choices, reaction times) will be studied. <br> <br><strong> Voluntariness and Anonymity </strong> <br>Your participation in this study is  <strong> voluntary</strong>.<br>You may withdraw your consent to participate at any time without providing a reason for doing so and without fear of prejudice. <br><br>As no personal data will be collected, <strong>your data and your person cannot be connected after data collection</strong> – the data-set is anonymous. <br>Respectively, deletion of your data will not be possible after data collection has been completed, as we cannot retrace your data-set.<br>The results and anonymized data collected in this study will be published as a scientific publication. <br>This will happen in an <strong>anonymized format</strong>, so that no data can be traced back to a specific person. <br> <br>The anonymized data of this study will be made available to other researchers and/or in a data archive on the Internet as a means of transparency and to enable subsequent re-use. By doing so, this study follows the recommendations of the Deutsche Forschungsgemeinschaft (DFG, German Research Foundation) and Deutsche Gesellschaft für Psychologie (DGPS, German Psychological Society) regarding quality assurance in research.<br>If you have any questions now or after the experiment, please contact our team (experiments@cs.uni-freiburg.de).<br><br><br>I hereby declare, that I understand the above described conditions of participation and I agree to participate under these conditions. <br><br> </div>","","0","","","","","","","","","","","","","","","","","","",""
"html-keyboard-response","4","131735","0.0-1.0-0.0-3.0","0oa4xf2xglb8xuz","welcome","5f427edd0f1aee45a78fa4d7","5f60e3c0a3b16e07647b2ff9","5f64c4fa8892d6026928c732","false","2916","<div align=left><strong> General information concerning the experiment </strong>  <br> <br>Please follow the instructions:<ol> <li><strong> Do not leave this tab (your browser window) during the experiment and do not reload this tab! </strong>  <br>If you do switch tabs/windows during the experiment (to check your mail or visit another website, for example), <br>the experiment will end automatically and you will <strong>not receive credit</strong> for your participation. <br>Repeated participation or resumption of the experiment is impossible.</li> <br><li>Please close all other programs for the duration of your participation. </li> <br><li>Please mute or turn off your phone and put it out of your reach. </li> <br><li>Please also take off any disturbing accessories (such as wristwatches, bracelets, etc.). </li> <br><li>If you have music playing in the background, please turn it off now. </li> <br></ol>Thank you! <br>Press 'SPACE' to continue. </div>","32","","","","","","","","","","","","","","","","","","","",""
"survey-text","5","136912","0.0-1.0-1.0-0.0","0oa4xf2xglb8xuz","demographics","5f427edd0f1aee45a78fa4d7","5f60e3c0a3b16e07647b2ff9","5f64c4fa8892d6026928c732","true","4899","","","","{""age"":""30""}","","","","","","","","","","","","","","","","","",""
"survey-multi-choice","6","171188","0.0-1.0-1.0-1.0","0oa4xf2xglb8xuz","demographics","5f427edd0f1aee45a78fa4d7","5f60e3c0a3b16e07647b2ff9","5f64c4fa8892d6026928c732","true","34261","","","","{""gender"":""male"",""school"":""high school"",""education"":""Completed university degree or equivalent""}","[0,1,2]","","","","","","","","","","","","","","","","",""
"html-keyboard-response","7","505760","0.0-1.0-2.0","0oa4xf2xglb8xuz","instructions","5f427edd0f1aee45a78fa4d7","5f60e3c0a3b16e07647b2ff9","5f64c4fa8892d6026928c732","false","334554","<div align=left> The experiment is now about to start: <br> <br>In the following part, you will be presented pictures of everyday objects. <br>Your first task is to <strong>classify these objects. </strong> <br> <br> You will classify them either as mechanical or non-mechanical objects. <br> <br>Objects that include any kind of technical mechanism (for example, wheels, switches, levers, <br> electronic components) fall under the category of <strong>mechanical</strong> objects. <br>Only objects without any kind of technical mechanism should be classified as <strong>non-mechanical</strong>. <br><br>Press 'SPACE' to continue. </div>","32","","","","","","","","","","","","","","","","","","","",""
"html-keyboard-response","8","531920","0.0-2.0-0.0","0oa4xf2xglb8xuz","instructions","5f427edd0f1aee45a78fa4d7","5f60e3c0a3b16e07647b2ff9","5f64c4fa8892d6026928c732","false","26151","<div align=justify>You will classify the objects using the <strong>'S'</strong> and the <strong>'L'</strong> keys on your keyboard.<br>For doing so, please place your <strong>left index finger</strong> on the <strong>'S'</strong> key and place your <strong>right index finger</strong> on the <strong>'L'</strong> key. <br><br> Each trial starts with an instruction, indicating which key ('S'/'L') you need to press to classify <br>the object as mechanical (letter M) or non-mechanical (letter N).<br>The instruction <strong>M + N</strong> indicates that, in the current trial, by pressing the left key ('S') you classify the displayed object as mechanical (M) <br> and by pressing the right key ('L') you classify the object as non-mechanical (N). <br>The instruction <strong>N + M</strong> on the other hand indicates that by pressing the left key ('S') you classify the displayed object as non-mechanical (N) <br> and by pressing the right key ('L') you classify the object as mechanical (M). <br><br>Please press the key corresponding to the correct classification as fast as possible as soon as the object is displayed and try to avoid making mistakes.<br>If you do not respond within a 2 second window, a corresponding feedback will be displayed and the next trial will start.<br> The experiment is divided into multiple blocks to give you the opportunity to take a break after each block. <br>First, you can now practice this task. <br><br>Please place your <strong>LEFT INDEX FINGER</strong> on the 'S' key and your <strong>RIGHT INDEX FINGER</strong> on the 'L' key now. <br><br>Press SPACE to continue.</div>","32","","","","","","","","","","","","","","","","","","","",""
"html-keyboard-response","9","535264","0.0-2.0-1.0","0oa4xf2xglb8xuz","instructions","5f427edd0f1aee45a78fa4d7","5f60e3c0a3b16e07647b2ff9","5f64c4fa8892d6026928c732","false","3337","<div align=left> You will now have time to practice this task.<br><br>Remember: <br> <br><li>Please place your index fingers on the <strong>'S'</strong> and <strong>'L'</strong> keys <br>to respond as fast and accurately as possible.</li><li>Every picture can be classified as either mechanical or non-mechanical.</li><li>If you do not respond in time or commit an error, you will receive a corresponding feedback. </li><li> Please try to respond as <strong> fast </strong> and as <strong> accurately as possible </strong> .<br><li>To ensure optimal results, please minimize distractions and stay focused. </li><br><br>Press SPACE to continue.</div>","32","","","","","","","","","","","","","","","","","","","",""
"html-keyboard-response","10","535981","0.0-2.0-2.0-0.0","0oa4xf2xglb8xuz","practice_no_cue","5f427edd0f1aee45a78fa4d7","5f60e3c0a3b16e07647b2ff9","5f64c4fa8892d6026928c732","false","null","<span style=""color: black; font-size: 48px"">M + N</span>","null","","","","resp_prompt","","","","","","","","","","","","","","","",""
"categorize-image","11","537772","0.0-2.0-2.0-1.0","0oa4xf2xglb8xuz","practice_no_cue","5f427edd0f1aee45a78fa4d7","5f60e3c0a3b16e07647b2ff9","5f64c4fa8892d6026928c732","true","1233","./Stimuli/ImagesPractice/LM143.jpg","83","","","","test","true","M + N","83","","LM","LM143.jpg","remember","old","1","1","start","left","","","",""
"html-keyboard-response","12","538482","0.0-2.0-2.0-0.1","0oa4xf2xglb8xuz","practice_no_cue","5f427edd0f1aee45a78fa4d7","5f60e3c0a3b16e07647b2ff9","5f64c4fa8892d6026928c732","false","null","<span style=""color: black; font-size: 48px"">N + M</span>","null","","","","resp_prompt","","","","","","","","","","","","","","","",""
"categorize-image","13","539711","0.0-2.0-2.0-1.1","0oa4xf2xglb8xuz","practice_no_cue","5f427edd0f1aee45a78fa4d7","5f60e3c0a3b16e07647b2ff9","5f64c4fa8892d6026928c732","true","703","./Stimuli/ImagesPractice/LM230.jpg","83","","","","test","false","N + M","76","","LM","LM230.jpg","remember","old","2","1","start","left","","","",""
"html-keyboard-response","14","540431","0.0-2.0-2.0-0.2","0oa4xf2xglb8xuz","practice_no_cue","5f427edd0f1aee45a78fa4d7","5f60e3c0a3b16e07647b2ff9","5f64c4fa8892d6026928c732","false","null","<span style=""color: black; font-size: 48px"">M + N</span>","null","","","","resp_prompt","","","","","","","","","","","","","","","",""
"categorize-image","15","541575","0.0-2.0-2.0-1.2","0oa4xf2xglb8xuz","practice_no_cue","5f427edd0f1aee45a78fa4d7","5f60e3c0a3b16e07647b2ff9","5f64c4fa8892d6026928c732","true","620","./Stimuli/ImagesPractice/SN221.jpg","76","","","","test","true","M + N","76","","SN","SN221.jpg","forget","old","3","1","start","right","","","",""
"html-keyboard-response","16","542281","0.0-2.0-2.0-0.3","0oa4xf2xglb8xuz","practice_no_cue","5f427edd0f1aee45a78fa4d7","5f60e3c0a3b16e07647b2ff9","5f64c4fa8892d6026928c732","false","null","<span style=""color: black; font-size: 48px"">N + M</span>","null","","","","resp_prompt","","","","","","","","","","","","","","","",""
"categorize-image","17","543467","0.0-2.0-2.0-1.3","0oa4xf2xglb8xuz","practice_no_cue","5f427edd0f1aee45a78fa4d7","5f60e3c0a3b16e07647b2ff9","5f64c4fa8892d6026928c732","true","677","./Stimuli/ImagesPractice/SN75.jpg","76","","","","test","false","N + M","83","","SN","SN75.jpg","forget","old","4","1","start","right","","","",""
"html-keyboard-response","18","544176","0.0-2.0-2.0-0.4","0oa4xf2xglb8xuz","practice_no_cue","5f427edd0f1aee45a78fa4d7","5f60e3c0a3b16e07647b2ff9","5f64c4fa8892d6026928c732","false","null","<span style=""color: black; font-size: 48px"">M + N</span>","null","","","","resp_prompt","","","","","","","","","","","","","","","",""
"categorize-image","19","545341","0.0-2.0-2.0-1.4","0oa4xf2xglb8xuz","practice_no_cue","5f427edd0f1aee45a78fa4d7","5f60e3c0a3b16e07647b2ff9","5f64c4fa8892d6026928c732","true","637","./Stimuli/ImagesPractice/LM224.jpg","83","","","","test","true","M + N","83","","LM","LM224.jpg","forget","old","5","1","start","left","","","",""
"html-keyboard-response","20","546059","0.0-2.0-2.0-0.5","0oa4xf2xglb8xuz","practice_no_cue","5f427edd0f1aee45a78fa4d7","5f60e3c0a3b16e07647b2ff9","5f64c4fa8892d6026928c732","false","null","<span style=""color: black; font-size: 48px"">M + N</span>","null","","","","resp_prompt","","","","","","","","","","","","","","","",""
"categorize-image","21","547271","0.0-2.0-2.0-1.5","0oa4xf2xglb8xuz","practice_no_cue","5f427edd0f1aee45a78fa4d7","5f60e3c0a3b16e07647b2ff9","5f64c4fa8892d6026928c732","true","689","./Stimuli/ImagesPractice/SM98.jpg","83","","","","test","true","M + N","83","","SM","SM98.jpg","remember","old","6","1","start","left","","","",""
"html-keyboard-response","22","547994","0.0-2.0-2.0-0.6","0oa4xf2xglb8xuz","practice_no_cue","5f427edd0f1aee45a78fa4d7","5f60e3c0a3b16e07647b2ff9","5f64c4fa8892d6026928c732","false","null","<span style=""color: black; font-size: 48px"">N + M</span>","null","","","","resp_prompt","","","","","","","","","","","","","","","",""
"categorize-image","23","549232","0.0-2.0-2.0-1.6","0oa4xf2xglb8xuz","practice_no_cue","5f427edd0f1aee45a78fa4d7","5f60e3c0a3b16e07647b2ff9","5f64c4fa8892d6026928c732","true","726","./Stimuli/ImagesPractice/SN222.jpg","76","","","","test","false","N + M","83","","SN","SN222.jpg","forget","old","7","1","start","right","","","",""
"html-keyboard-response","24","549952","0.0-2.0-2.0-0.7","0oa4xf2xglb8xuz","practice_no_cue","5f427edd0f1aee45a78fa4d7","5f60e3c0a3b16e07647b2ff9","5f64c4fa8892d6026928c732","false","null","<span style=""color: black; font-size: 48px"">M + N</span>","null","","","","resp_prompt","","","","","","","","","","","","","","","",""
"categorize-image","25","551496","0.0-2.0-2.0-1.7","0oa4xf2xglb8xuz","practice_no_cue","5f427edd0f1aee45a78fa4d7","5f60e3c0a3b16e07647b2ff9","5f64c4fa8892d6026928c732","true","1028","./Stimuli/ImagesPractice/LN72.jpg","83","","","","test","false","M + N","76","","LN","LN72.jpg","remember","old","8","1","start","left","","","",""
"html-keyboard-response","26","552212","0.0-2.0-2.0-0.8","0oa4xf2xglb8xuz","practice_no_cue","5f427edd0f1aee45a78fa4d7","5f60e3c0a3b16e07647b2ff9","5f64c4fa8892d6026928c732","false","null","<span style=""color: black; font-size: 48px"">M + N</span>","null","","","","resp_prompt","","","","","","","","","","","","","","","",""
"categorize-image","27","553657","0.0-2.0-2.0-1.8","0oa4xf2xglb8xuz","practice_no_cue","5f427edd0f1aee45a78fa4d7","5f60e3c0a3b16e07647b2ff9","5f64c4fa8892d6026928c732","true","918","./Stimuli/ImagesPractice/LM239.jpg","83","","","","test","true","M + N","83","","LM","LM239.jpg","forget","old","9","1","start","left","","","",""
"html-keyboard-response","28","554362","0.0-2.0-2.0-0.9","0oa4xf2xglb8xuz","practice_no_cue","5f427edd0f1aee45a78fa4d7","5f60e3c0a3b16e07647b2ff9","5f64c4fa8892d6026928c732","false","null","<span style=""color: black; font-size: 48px"">N + M</span>","null","","","","resp_prompt","","","","","","","","","","","","","","","",""
"categorize-image","29","555737","0.0-2.0-2.0-1.9","0oa4xf2xglb8xuz","practice_no_cue","5f427edd0f1aee45a78fa4d7","5f60e3c0a3b16e07647b2ff9","5f64c4fa8892d6026928c732","true","864","./Stimuli/ImagesPractice/LM147.jpg","83","","","","test","false","N + M","76","","LM","LM147.jpg","remember","old","10","1","start","left","","","",""
"html-keyboard-response","30","556456","0.0-2.0-2.0-0.10","0oa4xf2xglb8xuz","practice_no_cue","5f427edd0f1aee45a78fa4d7","5f60e3c0a3b16e07647b2ff9","5f64c4fa8892d6026928c732","false","null","<span style=""color: black; font-size: 48px"">M + N</span>","null","","","","resp_prompt","","","","","","","","","","","","","","","",""
"categorize-image","31","557901","0.0-2.0-2.0-1.10","0oa4xf2xglb8xuz","practice_no_cue","5f427edd0f1aee45a78fa4d7","5f60e3c0a3b16e07647b2ff9","5f64c4fa8892d6026928c732","true","927","./Stimuli/ImagesPractice/SN220.jpg","76","","","","test","true","M + N","76","","SN","SN220.jpg","remember","old","11","1","start","right","","","",""
"html-keyboard-response","32","558616","0.0-2.0-2.0-0.11","0oa4xf2xglb8xuz","practice_no_cue","5f427edd0f1aee45a78fa4d7","5f60e3c0a3b16e07647b2ff9","5f64c4fa8892d6026928c732","false","null","<span style=""color: black; font-size: 48px"">N + M</span>","null","","","","resp_prompt","","","","","","","","","","","","","","","",""
"categorize-image","33","560401","0.0-2.0-2.0-1.11","0oa4xf2xglb8xuz","practice_no_cue","5f427edd0f1aee45a78fa4d7","5f60e3c0a3b16e07647b2ff9","5f64c4fa8892d6026928c732","true","1276","./Stimuli/ImagesPractice/LM55.jpg","83","","","","test","false","N + M","76","","LM","LM55.jpg","forget","old","12","1","start","left","","","",""
"html-keyboard-response","34","561112","0.0-2.0-2.0-0.12","0oa4xf2xglb8xuz","practice_no_cue","5f427edd0f1aee45a78fa4d7","5f60e3c0a3b16e07647b2ff9","5f64c4fa8892d6026928c732","false","null","<span style=""color: black; font-size: 48px"">M + N</span>","null","","","","resp_prompt","","","","","","","","","","","","","","","",""
"categorize-image","35","562406","0.0-2.0-2.0-1.12","0oa4xf2xglb8xuz","practice_no_cue","5f427edd0f1aee45a78fa4d7","5f60e3c0a3b16e07647b2ff9","5f64c4fa8892d6026928c732","true","783","./Stimuli/ImagesPractice/SM97.jpg","83","","","","test","true","M + N","83","","SM","SM97.jpg","forget","old","13","1","start","left","","","",""
"html-keyboard-response","36","563119","0.0-2.0-2.0-0.13","0oa4xf2xglb8xuz","practice_no_cue","5f427edd0f1aee45a78fa4d7","5f60e3c0a3b16e07647b2ff9","5f64c4fa8892d6026928c732","false","null","<span style=""color: black; font-size: 48px"">N + M</span>","null","","","","resp_prompt","","","","","","","","","","","","","","","",""
"categorize-image","37","564896","0.0-2.0-2.0-1.13","0oa4xf2xglb8xuz","practice_no_cue","5f427edd0f1aee45a78fa4d7","5f60e3c0a3b16e07647b2ff9","5f64c4fa8892d6026928c732","true","1256","./Stimuli/ImagesPractice/SM61.jpg","76","","","","test","true","N + M","76","","SM","SM61.jpg","remember","old","14","1","start","right","","","",""
"html-keyboard-response","38","565607","0.0-2.0-2.0-0.14","0oa4xf2xglb8xuz","practice_no_cue","5f427edd0f1aee45a78fa4d7","5f60e3c0a3b16e07647b2ff9","5f64c4fa8892d6026928c732","false","null","<span style=""color: black; font-size: 48px"">N + M</span>","null","","","","resp_prompt","","","","","","","","","","","","","","","",""
"categorize-image","39","567393","0.0-2.0-2.0-1.14","0oa4xf2xglb8xuz","practice_no_cue","5f427edd0f1aee45a78fa4d7","5f60e3c0a3b16e07647b2ff9","5f64c4fa8892d6026928c732","true","1268","./Stimuli/ImagesPractice/LN2.jpg","76","","","","test","false","N + M","83","","LN","LN2.jpg","forget","old","15","1","start","right","","","",""
"html-keyboard-response","40","568115","0.0-2.0-2.0-0.15","0oa4xf2xglb8xuz","practice_no_cue","5f427edd0f1aee45a78fa4d7","5f60e3c0a3b16e07647b2ff9","5f64c4fa8892d6026928c732","false","null","<span style=""color: black; font-size: 48px"">N + M</span>","null","","","","resp_prompt","","","","","","","","","","","","","","","",""
"categorize-image","41","569622","0.0-2.0-2.0-1.15","0oa4xf2xglb8xuz","practice_no_cue","5f427edd0f1aee45a78fa4d7","5f60e3c0a3b16e07647b2ff9","5f64c4fa8892d6026928c732","true","1001","./Stimuli/ImagesPractice/LN4.jpg","83","","","","test","true","N + M","83","","LN","LN4.jpg","remember","old","16","1","start","left","","","",""
"html-keyboard-response","42","578139","0.0-2.0-3.0","0oa4xf2xglb8xuz","break","5f427edd0f1aee45a78fa4d7","5f60e3c0a3b16e07647b2ff9","5f64c4fa8892d6026928c732","false","8509","<p style='font-size: 32px;'>Break</><br><br><br><br><br><p style='font-size: 24px;'>In the last block, you committed 7 errors and did not respond in time on 0 trials.
</p><p style='font-size: 24px;'>Try to respond as fast and accurately as possible in the next block as well! </p><p style='font-size: 24px;'>Press SPACE to continue.</p>","32","","","","","","","","","","","","","","","","","","","",""
"html-keyboard-response","43","584401","0.0-2.0-4.0","0oa4xf2xglb8xuz","instructions","5f427edd0f1aee45a78fa4d7","5f60e3c0a3b16e07647b2ff9","5f64c4fa8892d6026928c732","false","6259","<div align=left> Great!<br><br>Are you ready to continue?<br><br>If you want to reread the instructions and redo the practice trials, <br>please press „Z“. <br><br>Press SPACE to CONTINUE with the experiment when you are ready. </div>","32","","","","","","","","","","","","","","","","","","","",""
"html-keyboard-response","44","591021","0.0-3.0-0.0","0oa4xf2xglb8xuz","instructions","5f427edd0f1aee45a78fa4d7","5f60e3c0a3b16e07647b2ff9","5f64c4fa8892d6026928c732","false","6617","<div align=left>Great!<br> <strong>Attention</strong>! You will now receive a second, additional task! <br><br>To this point it was you <strong>first task</strong> to correctly <strong>classify objects</strong>. <br><br>As mentioned in the beginning, we aim to examine how well humans can remember previously learned information.<br>We would like to find out whether our memory improves if we only remember information that is relevant to us. <br><br>Therefore, your <strong>second task</strong> will be to <strong>remember</strong> the pictures you are to categorize. <br> After the learning phase, there will be a memory test phase, in which you will be asked to indicate whether you have seen a picture before or not. <br>Some, but not all pictures shown in the learning phase will appear in the memory test phase.<br>After classifying a picture, you will be told whether you should remember it for the memory test phase or not. <br>Thus, some pictures can be forgotten, whereas others have to be remembered. <br><br>Note: From now on, feedback will only be displayed if you responded incorrectly or not in time.<br><br>Press SPACE to continue.</div>","32","","","","","","","","","","","","","","","","","","","",""
"html-keyboard-response","45","615004","0.0-3.0-1.0","0oa4xf2xglb8xuz","instructions","5f427edd0f1aee45a78fa4d7","5f60e3c0a3b16e07647b2ff9","5f64c4fa8892d6026928c732","false","23979","<div align=left>In the following part, you will thus have to remember only some pictures. <br>Immediately after seeing and classifying the picture, a symbol will be displayed, indicating whether you should remember or forget the previous picture. <br><br>A <span style='color: dodgerblue; font-size: 28px'>O</span> indicates REMEMBER. That means, you have to remember this picture, because it will be tested later. <br><br>A <span style='color: darkorange; font-size:28px'>Ø</span> indicates FORGET. You do not have to remember this picture. <br><br> As you will have to remember a lot of pictures, it will be hard for you to remember all of them. <br>It will put you at an advantage if you instantly forget the pictures you are not asked to remember. <br> This will make it easier for you to remember the pictures that will be tested afterwards. <br><br>Press SPACE to continue.</div>","32","","","","","","","","","","","","","","","","","","","",""
"html-keyboard-response","46","625917","0.0-3.0-2.0","0oa4xf2xglb8xuz","instructions","5f427edd0f1aee45a78fa4d7","5f60e3c0a3b16e07647b2ff9","5f64c4fa8892d6026928c732","false","10903","<div align=left> Now you have the chance to practice both tasks together.<br><br>Remember: <br> <br><li>Please place your index fingers on the <strong>'S'</strong> and <strong>'L'</strong> keys <br>to respond as fast and accurately as possible.</li><li>Every picture can be classified as either mechanical or non-mechanical.</li><li>If you do not respond in time or commit an error, you will receive a corresponding feedback. <br>Please try to respond as <strong> fast </strong> and as <strong> accurately as possible </strong>.</li><li> Please remember only the to-be-remembered <span style='color: dodgerblue; font-size: 28px'>O</span> pictures. <br></li><li> Please minimize distractions and stay focused. </li><br><br>Press SPACE to START</div>","32","","","","","","","","","","","","","","","","","","","",""
"html-keyboard-response","47","626630","0.0-3.0-3.0-0.0","0oa4xf2xglb8xuz","practice_cue","5f427edd0f1aee45a78fa4d7","5f60e3c0a3b16e07647b2ff9","5f64c4fa8892d6026928c732","false","null","<span style=""color: black; font-size: 48px"">N + M</span>","null","","","","resp_prompt","","","","","","","","","","","","","","","",""
"categorize-image","48","627983","0.0-3.0-3.0-1.0","0oa4xf2xglb8xuz","practice_cue","5f427edd0f1aee45a78fa4d7","5f60e3c0a3b16e07647b2ff9","5f64c4fa8892d6026928c732","true","1342","./Stimuli/ImagesPractice/SM61.jpg","76","","","","test","true","N + M","76","","SM","SM61.jpg","remember","old","17","2","practice_forget","right","","","",""
"html-keyboard-response","49","630004","0.0-3.0-3.0-3.0","0oa4xf2xglb8xuz","practice_cue","5f427edd0f1aee45a78fa4d7","5f60e3c0a3b16e07647b2ff9","5f64c4fa8892d6026928c732","false","null","<div style=""align-items: center; display: flex; color: dodgerblue; font-size: 90px""><b>o</b></div>","null","","","","forget_cue","","","","","","","","","","","","","","","",""
"html-keyboard-response","50","630724","0.0-3.0-3.0-0.1","0oa4xf2xglb8xuz","practice_cue","5f427edd0f1aee45a78fa4d7","5f60e3c0a3b16e07647b2ff9","5f64c4fa8892d6026928c732","false","null","<span style=""color: black; font-size: 48px"">M + N</span>","null","","","","resp_prompt","","","","","","","","","","","","","","","",""
"categorize-image","51","631532","0.0-3.0-3.0-1.1","0oa4xf2xglb8xuz","practice_cue","5f427edd0f1aee45a78fa4d7","5f60e3c0a3b16e07647b2ff9","5f64c4fa8892d6026928c732","true","798","./Stimuli/ImagesPractice/SM98.jpg","83","","","","test","true","M + N","83","","SM","SM98.jpg","remember","old","18","2","practice_forget","left","","","",""
"html-keyboard-response","52","633544","0.0-3.0-3.0-3.1","0oa4xf2xglb8xuz","practice_cue","5f427edd0f1aee45a78fa4d7","5f60e3c0a3b16e07647b2ff9","5f64c4fa8892d6026928c732","false","null","<div style=""align-items: center; display: flex; color: dodgerblue; font-size: 90px""><b>o</b></div>","null","","","","forget_cue","","","","","","","","","","","","","","","",""
"html-keyboard-response","53","634260","0.0-3.0-3.0-0.2","0oa4xf2xglb8xuz","practice_cue","5f427edd0f1aee45a78fa4d7","5f60e3c0a3b16e07647b2ff9","5f64c4fa8892d6026928c732","false","null","<span style=""color: black; font-size: 48px"">M + N</span>","null","","","","resp_prompt","","","","","","","","","","","","","","","",""
"categorize-image","54","634850","0.0-3.0-3.0-1.2","0oa4xf2xglb8xuz","practice_cue","5f427edd0f1aee45a78fa4d7","5f60e3c0a3b16e07647b2ff9","5f64c4fa8892d6026928c732","true","582","./Stimuli/ImagesPractice/LM224.jpg","83","","","","test","true","M + N","83","","LM","LM224.jpg","forget","old","19","2","practice_forget","left","","","",""
"html-keyboard-response","55","636859","0.0-3.0-3.0-3.2","0oa4xf2xglb8xuz","practice_cue","5f427edd0f1aee45a78fa4d7","5f60e3c0a3b16e07647b2ff9","5f64c4fa8892d6026928c732","false","null","<div style=""align-items: center; display: flex; color: darkorange; font-size: 90px""><b>ø</b></div>","null","","","","forget_cue","","","","","","","","","","","","","","","",""
"html-keyboard-response","56","637574","0.0-3.0-3.0-0.3","0oa4xf2xglb8xuz","practice_cue","5f427edd0f1aee45a78fa4d7","5f60e3c0a3b16e07647b2ff9","5f64c4fa8892d6026928c732","false","null","<span style=""color: black; font-size: 48px"">N + M</span>","null","","","","resp_prompt","","","","","","","","","","","","","","","",""
"categorize-image","57","638218","0.0-3.0-3.0-1.3","0oa4xf2xglb8xuz","practice_cue","5f427edd0f1aee45a78fa4d7","5f60e3c0a3b16e07647b2ff9","5f64c4fa8892d6026928c732","true","639","./Stimuli/ImagesPractice/SN222.jpg","76","","","","test","false","N + M","83","","SN","SN222.jpg","forget","old","20","2","practice_forget","right","","","",""
"html-keyboard-response","58","638745","0.0-3.0-3.0-2.3-0.3","0oa4xf2xglb8xuz","practice_cue","5f427edd0f1aee45a78fa4d7","5f60e3c0a3b16e07647b2ff9","5f64c4fa8892d6026928c732","false","null","<span style=""color: red; font-size: 48px"">Error!</span>","null","","","","feedback","","","","","","","","","","","","","","","",""
"html-keyboard-response","59","640749","0.0-3.0-3.0-3.3","0oa4xf2xglb8xuz","practice_cue","5f427edd0f1aee45a78fa4d7","5f60e3c0a3b16e07647b2ff9","5f64c4fa8892d6026928c732","false","null","<div style=""align-items: center; display: flex; color: darkorange; font-size: 90px""><b>ø</b></div>","null","","","","forget_cue","","","","","","","","","","","","","","","",""
"html-keyboard-response","60","641465","0.0-3.0-3.0-0.4","0oa4xf2xglb8xuz","practice_cue","5f427edd0f1aee45a78fa4d7","5f60e3c0a3b16e07647b2ff9","5f64c4fa8892d6026928c732","false","null","<span style=""color: black; font-size: 48px"">M + N</span>","null","","","","resp_prompt","","","","","","","","","","","","","","","",""
"categorize-image","61","642110","0.0-3.0-3.0-1.4","0oa4xf2xglb8xuz","practice_cue","5f427edd0f1aee45a78fa4d7","5f60e3c0a3b16e07647b2ff9","5f64c4fa8892d6026928c732","true","640","./Stimuli/ImagesPractice/SN221.jpg","76","","","","test","true","M + N","76","","SN","SN221.jpg","forget","old","21","2","practice_forget","right","","","",""
"html-keyboard-response","62","644115","0.0-3.0-3.0-3.4","0oa4xf2xglb8xuz","practice_cue","5f427edd0f1aee45a78fa4d7","5f60e3c0a3b16e07647b2ff9","5f64c4fa8892d6026928c732","false","null","<div style=""align-items: center; display: flex; color: darkorange; font-size: 90px""><b>ø</b></div>","null","","","","forget_cue","","","","","","","","","","","","","","","",""
"html-keyboard-response","63","644830","0.0-3.0-3.0-0.5","0oa4xf2xglb8xuz","practice_cue","5f427edd0f1aee45a78fa4d7","5f60e3c0a3b16e07647b2ff9","5f64c4fa8892d6026928c732","false","null","<span style=""color: black; font-size: 48px"">M + N</span>","null","","","","resp_prompt","","","","","","","","","","","","","","","",""
"categorize-image","64","645930","0.0-3.0-3.0-1.5","0oa4xf2xglb8xuz","practice_cue","5f427edd0f1aee45a78fa4d7","5f60e3c0a3b16e07647b2ff9","5f64c4fa8892d6026928c732","true","1096","./Stimuli/ImagesPractice/LN72.jpg","76","","","","test","true","M + N","76","","LN","LN72.jpg","remember","old","22","2","practice_forget","right","","","",""
"html-keyboard-response","65","647945","0.0-3.0-3.0-3.5","0oa4xf2xglb8xuz","practice_cue","5f427edd0f1aee45a78fa4d7","5f60e3c0a3b16e07647b2ff9","5f64c4fa8892d6026928c732","false","null","<div style=""align-items: center; display: flex; color: dodgerblue; font-size: 90px""><b>o</b></div>","null","","","","forget_cue","","","","","","","","","","","","","","","",""
"html-keyboard-response","66","648665","0.0-3.0-3.0-0.6","0oa4xf2xglb8xuz","practice_cue","5f427edd0f1aee45a78fa4d7","5f60e3c0a3b16e07647b2ff9","5f64c4fa8892d6026928c732","false","null","<span style=""color: black; font-size: 48px"">M + N</span>","null","","","","resp_prompt","","","","","","","","","","","","","","","",""
"categorize-image","67","649727","0.0-3.0-3.0-1.6","0oa4xf2xglb8xuz","practice_cue","5f427edd0f1aee45a78fa4d7","5f60e3c0a3b16e07647b2ff9","5f64c4fa8892d6026928c732","true","1058","./Stimuli/ImagesPractice/SN220.jpg","76","","","","test","true","M + N","76","","SN","SN220.jpg","remember","old","23","2","practice_forget","right","","","",""
"html-keyboard-response","68","651746","0.0-3.0-3.0-3.6","0oa4xf2xglb8xuz","practice_cue","5f427edd0f1aee45a78fa4d7","5f60e3c0a3b16e07647b2ff9","5f64c4fa8892d6026928c732","false","null","<div style=""align-items: center; display: flex; color: dodgerblue; font-size: 90px""><b>o</b></div>","null","","","","forget_cue","","","","","","","","","","","","","","","",""
"html-keyboard-response","69","652464","0.0-3.0-3.0-0.7","0oa4xf2xglb8xuz","practice_cue","5f427edd0f1aee45a78fa4d7","5f60e3c0a3b16e07647b2ff9","5f64c4fa8892d6026928c732","false","null","<span style=""color: black; font-size: 48px"">M + N</span>","null","","","","resp_prompt","","","","","","","","","","","","","","","",""
"categorize-image","70","653201","0.0-3.0-3.0-1.7","0oa4xf2xglb8xuz","practice_cue","5f427edd0f1aee45a78fa4d7","5f60e3c0a3b16e07647b2ff9","5f64c4fa8892d6026928c732","true","732","./Stimuli/ImagesPractice/LM239.jpg","83","","","","test","true","M + N","83","","LM","LM239.jpg","forget","old","24","2","practice_forget","left","","","",""
"html-keyboard-response","71","655220","0.0-3.0-3.0-3.7","0oa4xf2xglb8xuz","practice_cue","5f427edd0f1aee45a78fa4d7","5f60e3c0a3b16e07647b2ff9","5f64c4fa8892d6026928c732","false","null","<div style=""align-items: center; display: flex; color: darkorange; font-size: 90px""><b>ø</b></div>","null","","","","forget_cue","","","","","","","","","","","","","","","",""
"html-keyboard-response","72","655935","0.0-3.0-3.0-0.8","0oa4xf2xglb8xuz","practice_cue","5f427edd0f1aee45a78fa4d7","5f60e3c0a3b16e07647b2ff9","5f64c4fa8892d6026928c732","false","null","<span style=""color: black; font-size: 48px"">M + N</span>","null","","","","resp_prompt","","","","","","","","","","","","","","","",""
"categorize-image","73","656618","0.0-3.0-3.0-1.8","0oa4xf2xglb8xuz","practice_cue","5f427edd0f1aee45a78fa4d7","5f60e3c0a3b16e07647b2ff9","5f64c4fa8892d6026928c732","true","677","./Stimuli/ImagesPractice/LM143.jpg","83","","","","test","true","M + N","83","","LM","LM143.jpg","remember","old","25","2","practice_forget","left","","","",""
"html-keyboard-response","74","658627","0.0-3.0-3.0-3.8","0oa4xf2xglb8xuz","practice_cue","5f427edd0f1aee45a78fa4d7","5f60e3c0a3b16e07647b2ff9","5f64c4fa8892d6026928c732","false","null","<div style=""align-items: center; display: flex; color: dodgerblue; font-size: 90px""><b>o</b></div>","null","","","","forget_cue","","","","","","","","","","","","","","","",""
"html-keyboard-response","75","659335","0.0-3.0-3.0-0.9","0oa4xf2xglb8xuz","practice_cue","5f427edd0f1aee45a78fa4d7","5f60e3c0a3b16e07647b2ff9","5f64c4fa8892d6026928c732","false","null","<span style=""color: black; font-size: 48px"">N + M</span>","null","","","","resp_prompt","","","","","","","","","","","","","","","",""
"categorize-image","76","660035","0.0-3.0-3.0-1.9","0oa4xf2xglb8xuz","practice_cue","5f427edd0f1aee45a78fa4d7","5f60e3c0a3b16e07647b2ff9","5f64c4fa8892d6026928c732","true","697","./Stimuli/ImagesPractice/LN2.jpg","83","","","","test","true","N + M","83","","LN","LN2.jpg","forget","old","26","2","practice_forget","left","","","",""
"html-keyboard-response","77","662056","0.0-3.0-3.0-3.9","0oa4xf2xglb8xuz","practice_cue","5f427edd0f1aee45a78fa4d7","5f60e3c0a3b16e07647b2ff9","5f64c4fa8892d6026928c732","false","null","<div style=""align-items: center; display: flex; color: darkorange; font-size: 90px""><b>ø</b></div>","null","","","","forget_cue","","","","","","","","","","","","","","","",""
"html-keyboard-response","78","662765","0.0-3.0-3.0-0.10","0oa4xf2xglb8xuz","practice_cue","5f427edd0f1aee45a78fa4d7","5f60e3c0a3b16e07647b2ff9","5f64c4fa8892d6026928c732","false","null","<span style=""color: black; font-size: 48px"">M + N</span>","null","","","","resp_prompt","","","","","","","","","","","","","","","",""
"categorize-image","79","663319","0.0-3.0-3.0-1.10","0oa4xf2xglb8xuz","practice_cue","5f427edd0f1aee45a78fa4d7","5f60e3c0a3b16e07647b2ff9","5f64c4fa8892d6026928c732","true","548","./Stimuli/ImagesPractice/SM97.jpg","83","","","","test","true","M + N","83","","SM","SM97.jpg","forget","old","27","2","practice_forget","left","","","",""
"html-keyboard-response","80","665325","0.0-3.0-3.0-3.10","0oa4xf2xglb8xuz","practice_cue","5f427edd0f1aee45a78fa4d7","5f60e3c0a3b16e07647b2ff9","5f64c4fa8892d6026928c732","false","null","<div style=""align-items: center; display: flex; color: darkorange; font-size: 90px""><b>ø</b></div>","null","","","","forget_cue","","","","","","","","","","","","","","","",""
"html-keyboard-response","81","666031","0.0-3.0-3.0-0.11","0oa4xf2xglb8xuz","practice_cue","5f427edd0f1aee45a78fa4d7","5f60e3c0a3b16e07647b2ff9","5f64c4fa8892d6026928c732","false","null","<span style=""color: black; font-size: 48px"">N + M</span>","null","","","","resp_prompt","","","","","","","","","","","","","","","",""
"categorize-image","82","666943","0.0-3.0-3.0-1.11","0oa4xf2xglb8xuz","practice_cue","5f427edd0f1aee45a78fa4d7","5f60e3c0a3b16e07647b2ff9","5f64c4fa8892d6026928c732","true","907","./Stimuli/ImagesPractice/LM55.jpg","76","","","","test","true","N + M","76","","LM","LM55.jpg","forget","old","28","2","practice_forget","right","","","",""
"html-keyboard-response","83","668957","0.0-3.0-3.0-3.11","0oa4xf2xglb8xuz","practice_cue","5f427edd0f1aee45a78fa4d7","5f60e3c0a3b16e07647b2ff9","5f64c4fa8892d6026928c732","false","null","<div style=""align-items: center; display: flex; color: darkorange; font-size: 90px""><b>ø</b></div>","null","","","","forget_cue","","","","","","","","","","","","","","","",""
"html-keyboard-response","84","669676","0.0-3.0-3.0-0.12","0oa4xf2xglb8xuz","practice_cue","5f427edd0f1aee45a78fa4d7","5f60e3c0a3b16e07647b2ff9","5f64c4fa8892d6026928c732","false","null","<span style=""color: black; font-size: 48px"">N + M</span>","null","","","","resp_prompt","","","","","","","","","","","","","","","",""
"categorize-image","85","670767","0.0-3.0-3.0-1.12","0oa4xf2xglb8xuz","practice_cue","5f427edd0f1aee45a78fa4d7","5f60e3c0a3b16e07647b2ff9","5f64c4fa8892d6026928c732","true","1075","./Stimuli/ImagesPractice/LM147.jpg","76","","","","test","true","N + M","76","","LM","LM147.jpg","remember","old","29","2","practice_forget","right","","","",""
"html-keyboard-response","86","672780","0.0-3.0-3.0-3.12","0oa4xf2xglb8xuz","practice_cue","5f427edd0f1aee45a78fa4d7","5f60e3c0a3b16e07647b2ff9","5f64c4fa8892d6026928c732","false","null","<div style=""align-items: center; display: flex; color: dodgerblue; font-size: 90px""><b>o</b></div>","null","","","","forget_cue","","","","","","","","","","","","","","","",""
"html-keyboard-response","87","673495","0.0-3.0-3.0-0.13","0oa4xf2xglb8xuz","practice_cue","5f427edd0f1aee45a78fa4d7","5f60e3c0a3b16e07647b2ff9","5f64c4fa8892d6026928c732","false","null","<span style=""color: black; font-size: 48px"">N + M</span>","null","","","","resp_prompt","","","","","","","","","","","","","","","",""
"categorize-image","88","674332","0.0-3.0-3.0-1.13","0oa4xf2xglb8xuz","practice_cue","5f427edd0f1aee45a78fa4d7","5f60e3c0a3b16e07647b2ff9","5f64c4fa8892d6026928c732","true","830","./Stimuli/ImagesPractice/LM230.jpg","83","","","","test","false","N + M","76","","LM","LM230.jpg","remember","old","30","2","practice_forget","left","","","",""
"html-keyboard-response","89","674846","0.0-3.0-3.0-2.13-0.13","0oa4xf2xglb8xuz","practice_cue","5f427edd0f1aee45a78fa4d7","5f60e3c0a3b16e07647b2ff9","5f64c4fa8892d6026928c732","false","null","<span style=""color: red; font-size: 48px"">Error!</span>","null","","","","feedback","","","","","","","","","","","","","","","",""
"html-keyboard-response","90","676863","0.0-3.0-3.0-3.13","0oa4xf2xglb8xuz","practice_cue","5f427edd0f1aee45a78fa4d7","5f60e3c0a3b16e07647b2ff9","5f64c4fa8892d6026928c732","false","null","<div style=""align-items: center; display: flex; color: dodgerblue; font-size: 90px""><b>o</b></div>","null","","","","forget_cue","","","","","","","","","","","","","","","",""
"html-keyboard-response","91","677566","0.0-3.0-3.0-0.14","0oa4xf2xglb8xuz","practice_cue","5f427edd0f1aee45a78fa4d7","5f60e3c0a3b16e07647b2ff9","5f64c4fa8892d6026928c732","false","null","<span style=""color: black; font-size: 48px"">N + M</span>","null","","","","resp_prompt","","","","","","","","","","","","","","","",""
"categorize-image","92","678566","0.0-3.0-3.0-1.14","0oa4xf2xglb8xuz","practice_cue","5f427edd0f1aee45a78fa4d7","5f60e3c0a3b16e07647b2ff9","5f64c4fa8892d6026928c732","true","985","./Stimuli/ImagesPractice/LN4.jpg","76","","","","test","false","N + M","83","","LN","LN4.jpg","remember","old","31","2","practice_forget","right","","","",""
"html-keyboard-response","93","679073","0.0-3.0-3.0-2.14-0.14","0oa4xf2xglb8xuz","practice_cue","5f427edd0f1aee45a78fa4d7","5f60e3c0a3b16e07647b2ff9","5f64c4fa8892d6026928c732","false","null","<span style=""color: red; font-size: 48px"">Error!</span>","null","","","","feedback","","","","","","","","","","","","","","","",""
"html-keyboard-response","94","681077","0.0-3.0-3.0-3.14","0oa4xf2xglb8xuz","practice_cue","5f427edd0f1aee45a78fa4d7","5f60e3c0a3b16e07647b2ff9","5f64c4fa8892d6026928c732","false","null","<div style=""align-items: center; display: flex; color: dodgerblue; font-size: 90px""><b>o</b></div>","null","","","","forget_cue","","","","","","","","","","","","","","","",""
"html-keyboard-response","95","681786","0.0-3.0-3.0-0.15","0oa4xf2xglb8xuz","practice_cue","5f427edd0f1aee45a78fa4d7","5f60e3c0a3b16e07647b2ff9","5f64c4fa8892d6026928c732","false","null","<span style=""color: black; font-size: 48px"">N + M</span>","null","","","","resp_prompt","","","","","","","","","","","","","","","",""
"categorize-image","96","682552","0.0-3.0-3.0-1.15","0oa4xf2xglb8xuz","practice_cue","5f427edd0f1aee45a78fa4d7","5f60e3c0a3b16e07647b2ff9","5f64c4fa8892d6026928c732","true","760","./Stimuli/ImagesPractice/SN75.jpg","83","","","","test","true","N + M","83","","SN","SN75.jpg","forget","old","32","2","practice_forget","left","","","",""
"html-keyboard-response","97","684571","0.0-3.0-3.0-3.15","0oa4xf2xglb8xuz","practice_cue","5f427edd0f1aee45a78fa4d7","5f60e3c0a3b16e07647b2ff9","5f64c4fa8892d6026928c732","false","null","<div style=""align-items: center; display: flex; color: darkorange; font-size: 90px""><b>ø</b></div>","null","","","","forget_cue","","","","","","","","","","","","","","","",""
"html-keyboard-response","98","688137","0.0-3.0-4.0","0oa4xf2xglb8xuz","break","5f427edd0f1aee45a78fa4d7","5f60e3c0a3b16e07647b2ff9","5f64c4fa8892d6026928c732","false","3556","<p style='font-size: 32px;'>Break</><br><br><br><br><br><p style='font-size: 24px;'>In the last block, you committed 3 errors and did not respond in time on 0 trials.
</p><p style='font-size: 24px;'>Try to respond as fast and accurately as possible in the next block as well! </p><p style='font-size: 24px;'>Press SPACE to continue.</p>","32","","","","","","","","","","","","","","","","","","","",""
"html-keyboard-response","99","690069","0.0-3.0-5.0","0oa4xf2xglb8xuz","instructions","5f427edd0f1aee45a78fa4d7","5f60e3c0a3b16e07647b2ff9","5f64c4fa8892d6026928c732","false","1927","<div align=left> Now, to practice, we kindly ask you to remember as many of the to-be-remembered pictures<br>of the previous learning phase as possible.<br><br>The pictures you were instructed to remember were the pictures followed by a <span style='color: dodgerblue; font-size: 28px'>O</span>.<br><br>In this memory test phase, you will also see some new pictures.<br>It is your task to remember whether you were presented with this specific picture in this study so far or not.<br>If you recognize an object (you have already seen it in this study), it is an OLD object. <br>If you do not recognize an object (you have NOT seen it in this study), it is a NEW object. <br><strong> Attention</strong>: As already mentioned, <span style='color: darkorange; font-size:28px'>Ø</span>-pictures will <strong>never</strong> appear in this memory test (neither as new objects). <br><br>Press SPACE to continue. </div>","32","","","","","","","","","","","","","","","","","","","",""
"html-keyboard-response","100","694464","0.0-3.0-6.0","0oa4xf2xglb8xuz","instructions","5f427edd0f1aee45a78fa4d7","5f60e3c0a3b16e07647b2ff9","5f64c4fa8892d6026928c732","false","4391","<div align=left> M and N no longer will appear on the left/right of the fixation cross. <br>Instead there will be a note at the bottom of the left or right side  <br>indicating which key you should press for an old or new object:  <br> <br>Press the <strong>right</strong> key to classify an object as <strong>old</strong> and press the <strong>left</strong>, to classify an object as <strong>new</strong>.<br>Please classify the objects as new/old by again placing your index finger on the 'S' and 'L' keys <br>and press them accordingly.<br><br><strong>Old:</strong> This object has been presented before. <br><strong>New:</strong> This object has <strong>not</strong> been presented.<br><br>Now please put your right and left index fingers on the 'S' and 'L' keys of your keyboard. <br>Please respond as fast and as accurately as possible!<br><br>Press SPACE to continue. </div>","32","","","","","","","","","","","","","","","","","","","",""
"categorize-image","101","697399","0.0-3.0-7.0-0.0","0oa4xf2xglb8xuz","practice_recog","5f427edd0f1aee45a78fa4d7","5f60e3c0a3b16e07647b2ff9","5f64c4fa8892d6026928c732","true","2422","./Stimuli/ImagesPractice/LM143.jpg","76","","","","test","false","","83","","LM","LM143.jpg","","old","33","3","practice_recog","right","","","",""
"categorize-image","102","698555","0.0-3.0-7.0-0.1","0oa4xf2xglb8xuz","practice_recog","5f427edd0f1aee45a78fa4d7","5f60e3c0a3b16e07647b2ff9","5f64c4fa8892d6026928c732","true","641","./Stimuli/ImagesPractice/LN4.jpg","83","","","","test","true","","83","","LN","LN4.jpg","","old","34","3","practice_recog","left","","","",""
"categorize-image","103","699883","0.0-3.0-7.0-0.2","0oa4xf2xglb8xuz","practice_recog","5f427edd0f1aee45a78fa4d7","5f60e3c0a3b16e07647b2ff9","5f64c4fa8892d6026928c732","true","815","./Stimuli/ImagesPractice/SN220.jpg","83","","","","test","true","","83","","SN","SN220.jpg","","old","35","3","practice_recog","left","","","",""
"categorize-image","104","701256","0.0-3.0-7.0-0.3","0oa4xf2xglb8xuz","practice_recog","5f427edd0f1aee45a78fa4d7","5f60e3c0a3b16e07647b2ff9","5f64c4fa8892d6026928c732","true","865","./Stimuli/ImagesPractice/SN76.jpg","76","","","","test","true","","76","","SN","SN76.jpg","","new","36","3","practice_recog","right","","","",""
"categorize-image","105","702476","0.0-3.0-7.0-0.4","0oa4xf2xglb8xuz","practice_recog","5f427edd0f1aee45a78fa4d7","5f60e3c0a3b16e07647b2ff9","5f64c4fa8892d6026928c732","true","711","./Stimuli/ImagesPractice/SM98.jpg","83","","","","test","true","","83","","SM","SM98.jpg","","old","37","3","practice_recog","left","","","",""
"categorize-image","106","703786","0.0-3.0-7.0-0.5","0oa4xf2xglb8xuz","practice_recog","5f427edd0f1aee45a78fa4d7","5f60e3c0a3b16e07647b2ff9","5f64c4fa8892d6026928c732","true","789","./Stimuli/ImagesPractice/LM147.jpg","83","","","","test","true","","83","","LM","LM147.jpg","","old","38","3","practice_recog","left","","","",""
"categorize-image","107","705206","0.0-3.0-7.0-0.6","0oa4xf2xglb8xuz","practice_recog","5f427edd0f1aee45a78fa4d7","5f60e3c0a3b16e07647b2ff9","5f64c4fa8892d6026928c732","true","913","./Stimuli/ImagesPractice/SM35.jpg","76","","","","test","true","","76","","SM","SM35.jpg","","new","39","3","practice_recog","right","","","",""
"categorize-image","108","706567","0.0-3.0-7.0-0.7","0oa4xf2xglb8xuz","practice_recog","5f427edd0f1aee45a78fa4d7","5f60e3c0a3b16e07647b2ff9","5f64c4fa8892d6026928c732","true","850","./Stimuli/ImagesPractice/LN109.jpg","76","","","","test","true","","76","","LN","LN109.jpg","","new","40","3","practice_recog","right","","","",""
"categorize-image","109","708137","0.0-3.0-7.0-0.8","0oa4xf2xglb8xuz","practice_recog","5f427edd0f1aee45a78fa4d7","5f60e3c0a3b16e07647b2ff9","5f64c4fa8892d6026928c732","true","1048","./Stimuli/ImagesPractice/LN15.jpg","76","","","","test","true","","76","","LN","LN15.jpg","","new","41","3","practice_recog","right","","","",""
"categorize-image","110","709549","0.0-3.0-7.0-0.9","0oa4xf2xglb8xuz","practice_recog","5f427edd0f1aee45a78fa4d7","5f60e3c0a3b16e07647b2ff9","5f64c4fa8892d6026928c732","true","881","./Stimuli/ImagesPractice/SM62.jpg","76","","","","test","true","","76","","SM","SM62.jpg","","new","42","3","practice_recog","right","","","",""
"categorize-image","111","710856","0.0-3.0-7.0-0.10","0oa4xf2xglb8xuz","practice_recog","5f427edd0f1aee45a78fa4d7","5f60e3c0a3b16e07647b2ff9","5f64c4fa8892d6026928c732","true","788","./Stimuli/ImagesPractice/SM61.jpg","83","","","","test","true","","83","","SM","SM61.jpg","","old","43","3","practice_recog","left","","","",""
"categorize-image","112","712317","0.0-3.0-7.0-0.11","0oa4xf2xglb8xuz","practice_recog","5f427edd0f1aee45a78fa4d7","5f60e3c0a3b16e07647b2ff9","5f64c4fa8892d6026928c732","true","943","./Stimuli/ImagesPractice/SM37.jpg","83","","","","test","false","","76","","SM","SM37.jpg","","new","44","3","practice_recog","left","","","",""
"categorize-image","113","713557","0.0-3.0-7.0-0.12","0oa4xf2xglb8xuz","practice_recog","5f427edd0f1aee45a78fa4d7","5f60e3c0a3b16e07647b2ff9","5f64c4fa8892d6026928c732","true","717","./Stimuli/ImagesPractice/LN72.jpg","83","","","","test","true","","83","","LN","LN72.jpg","","old","45","3","practice_recog","left","","","",""
"categorize-image","114","714825","0.0-3.0-7.0-0.13","0oa4xf2xglb8xuz","practice_recog","5f427edd0f1aee45a78fa4d7","5f60e3c0a3b16e07647b2ff9","5f64c4fa8892d6026928c732","true","762","./Stimuli/ImagesPractice/SN205.jpg","83","","","","test","false","","76","","SN","SN205.jpg","","new","46","3","practice_recog","left","","","",""
"categorize-image","115","716007","0.0-3.0-7.0-0.14","0oa4xf2xglb8xuz","practice_recog","5f427edd0f1aee45a78fa4d7","5f60e3c0a3b16e07647b2ff9","5f64c4fa8892d6026928c732","true","674","./Stimuli/ImagesPractice/LM230.jpg","83","","","","test","true","","83","","LM","LM230.jpg","","old","47","3","practice_recog","left","","","",""
"categorize-image","116","717565","0.0-3.0-7.0-0.15","0oa4xf2xglb8xuz","practice_recog","5f427edd0f1aee45a78fa4d7","5f60e3c0a3b16e07647b2ff9","5f64c4fa8892d6026928c732","true","1042","./Stimuli/ImagesPractice/LN17.jpg","76","","","","test","true","","76","","LN","LN17.jpg","","new","48","3","practice_recog","right","","","",""
"html-keyboard-response","117","720919","0.0-3.0-8.0","0oa4xf2xglb8xuz","instructions","5f427edd0f1aee45a78fa4d7","5f60e3c0a3b16e07647b2ff9","5f64c4fa8892d6026928c732","false","3352","<div align=left> Great!<br><br>Are you ready to continue?<br>If you want to reread the instructions and redo the practice trials, please <br>press „Z“.<br><br>You can proceed when you are ready.<br><br>After the presentation of each object, you will receive an instruction whether to <br>remember or to forget the object.<br>We will test your memory of the following pictures only at the very end of <br>the experiment after all learning blocks are completed. <br><br>Press SPACE to CONTINUE when you are ready. </div>","32","","","","","","","","","","","","","","","","","","","",""
"html-keyboard-response","118","722202","0.0-4.0-0.0","0oa4xf2xglb8xuz","instructions","5f427edd0f1aee45a78fa4d7","5f60e3c0a3b16e07647b2ff9","5f64c4fa8892d6026928c732","false","1280","<div align=left> The actual experiment is about to start.<br>The practice trials are over!<br><br>Please always respond both fast and accurately!<br><br>Remember: <br> <br><li> Please place your index fingers on the <strong>'S'</strong> and <strong>'L'</strong> keys <br>to respond as fast and accurately as possible.</li><li> Every picture can be classified as either mechanical or non-mechanical.</li><li> If you do not respond in time or commit an error, you will receive a corresponding feedback.<br> Please try to respond as <strong> fast </strong> and as <strong> accurately as possible </strong>.</li><li> Remember the <span style='color: dodgerblue; font-size: 28px'>O</span> pictures. <br></li><li> Please minimize distractions and stay focused. </li><br><br>Press SPACE to START.</div>","32","","","","","","","","","","","","","","","","","","","",""
"html-keyboard-response","119","722922","0.0-4.0-1.0-0.0","0oa4xf2xglb8xuz","prime","5f427edd0f1aee45a78fa4d7","5f60e3c0a3b16e07647b2ff9","5f64c4fa8892d6026928c732","false","null","<span style=""color: black; font-size: 48px"">M + N</span>","null","","","","resp_prompt","","","","","","","","","","","","","","","",""
"categorize-image","120","723669","0.0-4.0-1.0-1.0","0oa4xf2xglb8xuz","prime","5f427edd0f1aee45a78fa4d7","5f60e3c0a3b16e07647b2ff9","5f64c4fa8892d6026928c732","true","743","./Stimuli/SelectedImages/SN/SN52.bmp","76","","","","test","true","M + N","76","switch","SN","SN52.bmp","remember","","49","3","prime1","right","","","",""
"html-keyboard-response","121","725676","0.0-4.0-1.0-3.0","0oa4xf2xglb8xuz","prime","5f427edd0f1aee45a78fa4d7","5f60e3c0a3b16e07647b2ff9","5f64c4fa8892d6026928c732","false","null","<div style=""align-items: center; display: flex; color: dodgerblue; font-size: 90px""><b>o</b></div>","null","","","","forget_cue","","","","","","","","","","","","","","","",""
"html-keyboard-response","122","726402","0.0-4.0-1.0-0.1","0oa4xf2xglb8xuz","prime","5f427edd0f1aee45a78fa4d7","5f60e3c0a3b16e07647b2ff9","5f64c4fa8892d6026928c732","false","null","<span style=""color: black; font-size: 48px"">N + M</span>","null","","","","resp_prompt","","","","","","","","","","","","","","","",""
"categorize-image","123","727184","0.0-4.0-1.0-1.1","0oa4xf2xglb8xuz","prime","5f427edd0f1aee45a78fa4d7","5f60e3c0a3b16e07647b2ff9","5f64c4fa8892d6026928c732","true","777","./Stimuli/SelectedImages/LM/LM179.bmp","83","","","","test","false","N + M","76","switch","LM","LM179.bmp","remember","","50","3","prime1","left","","","",""
"html-keyboard-response","124","727698","0.0-4.0-1.0-2.1-0.1","0oa4xf2xglb8xuz","prime","5f427edd0f1aee45a78fa4d7","5f60e3c0a3b16e07647b2ff9","5f64c4fa8892d6026928c732","false","null","<span style=""color: red; font-size: 48px"">Error!</span>","null","","","","feedback","","","","","","","","","","","","","","","",""
"html-keyboard-response","125","729707","0.0-4.0-1.0-3.1","0oa4xf2xglb8xuz","prime","5f427edd0f1aee45a78fa4d7","5f60e3c0a3b16e07647b2ff9","5f64c4fa8892d6026928c732","false","null","<div style=""align-items: center; display: flex; color: dodgerblue; font-size: 90px""><b>o</b></div>","null","","","","forget_cue","","","","","","","","","","","","","","","",""
"html-keyboard-response","126","730413","0.0-4.0-1.0-0.2","0oa4xf2xglb8xuz","prime","5f427edd0f1aee45a78fa4d7","5f60e3c0a3b16e07647b2ff9","5f64c4fa8892d6026928c732","false","null","<span style=""color: black; font-size: 48px"">N + M</span>","null","","","","resp_prompt","","","","","","","","","","","","","","","",""
"categorize-image","127","731371","0.0-4.0-1.0-1.2","0oa4xf2xglb8xuz","prime","5f427edd0f1aee45a78fa4d7","5f60e3c0a3b16e07647b2ff9","5f64c4fa8892d6026928c732","true","953","./Stimuli/SelectedImages/LN/LN42.bmp","76","","","","test","false","N + M","83","repetition","LN","LN42.bmp","remember","","51","3","prime1","right","","","",""
"html-keyboard-response","128","731882","0.0-4.0-1.0-2.2-0.2","0oa4xf2xglb8xuz","prime","5f427edd0f1aee45a78fa4d7","5f60e3c0a3b16e07647b2ff9","5f64c4fa8892d6026928c732","false","null","<span style=""color: red; font-size: 48px"">Error!</span>","null","","","","feedback","","","","","","","","","","","","","","","",""
"html-keyboard-response","129","733908","0.0-4.0-1.0-3.2","0oa4xf2xglb8xuz","prime","5f427edd0f1aee45a78fa4d7","5f60e3c0a3b16e07647b2ff9","5f64c4fa8892d6026928c732","false","null","<div style=""align-items: center; display: flex; color: dodgerblue; font-size: 90px""><b>o</b></div>","null","","","","forget_cue","","","","","","","","","","","","","","","",""
"html-keyboard-response","130","734617","0.0-4.0-1.0-0.3","0oa4xf2xglb8xuz","prime","5f427edd0f1aee45a78fa4d7","5f60e3c0a3b16e07647b2ff9","5f64c4fa8892d6026928c732","false","null","<span style=""color: black; font-size: 48px"">M + N</span>","null","","","","resp_prompt","","","","","","","","","","","","","","","",""
"categorize-image","131","735352","0.0-4.0-1.0-1.3","0oa4xf2xglb8xuz","prime","5f427edd0f1aee45a78fa4d7","5f60e3c0a3b16e07647b2ff9","5f64c4fa8892d6026928c732","true","721","./Stimuli/SelectedImages/SM/SM205.bmp","83","","","","test","true","M + N","83","repetition","SM","SM205.bmp","remember","","52","3","prime1","left","","","",""
"html-keyboard-response","132","737358","0.0-4.0-1.0-3.3","0oa4xf2xglb8xuz","prime","5f427edd0f1aee45a78fa4d7","5f60e3c0a3b16e07647b2ff9","5f64c4fa8892d6026928c732","false","null","<div style=""align-items: center; display: flex; color: dodgerblue; font-size: 90px""><b>o</b></div>","null","","","","forget_cue","","","","","","","","","","","","","","","",""
"html-keyboard-response","133","738077","0.0-4.0-1.0-0.4","0oa4xf2xglb8xuz","prime","5f427edd0f1aee45a78fa4d7","5f60e3c0a3b16e07647b2ff9","5f64c4fa8892d6026928c732","false","null","<span style=""color: black; font-size: 48px"">M + N</span>","null","","","","resp_prompt","","","","","","","","","","","","","","","",""
"categorize-image","134","738902","0.0-4.0-1.0-1.4","0oa4xf2xglb8xuz","prime","5f427edd0f1aee45a78fa4d7","5f60e3c0a3b16e07647b2ff9","5f64c4fa8892d6026928c732","true","820","./Stimuli/SelectedImages/LN/LN177.bmp","83","","","","test","false","M + N","76","switch","LN","LN177.bmp","forget","","53","3","prime1","left","","","",""
"html-keyboard-response","135","739409","0.0-4.0-1.0-2.4-0.4","0oa4xf2xglb8xuz","prime","5f427edd0f1aee45a78fa4d7","5f60e3c0a3b16e07647b2ff9","5f64c4fa8892d6026928c732","false","null","<span style=""color: red; font-size: 48px"">Error!</span>","null","","","","feedback","","","","","","","","","","","","","","","",""
"html-keyboard-response","136","741424","0.0-4.0-1.0-3.4","0oa4xf2xglb8xuz","prime","5f427edd0f1aee45a78fa4d7","5f60e3c0a3b16e07647b2ff9","5f64c4fa8892d6026928c732","false","null","<div style=""align-items: center; display: flex; color: darkorange; font-size: 90px""><b>ø</b></div>","null","","","","forget_cue","","","","","","","","","","","","","","","",""
"html-keyboard-response","137","742128","0.0-4.0-1.0-0.5","0oa4xf2xglb8xuz","prime","5f427edd0f1aee45a78fa4d7","5f60e3c0a3b16e07647b2ff9","5f64c4fa8892d6026928c732","false","null","<span style=""color: black; font-size: 48px"">N + M</span>","null","","","","resp_prompt","","","","","","","","","","","","","","","",""
"categorize-image","138","743008","0.0-4.0-1.0-1.5","0oa4xf2xglb8xuz","prime","5f427edd0f1aee45a78fa4d7","5f60e3c0a3b16e07647b2ff9","5f64c4fa8892d6026928c732","true","872","./Stimuli/SelectedImages/LM/LM235.bmp","83","","","","test","false","N + M","76","switch","LM","LM235.bmp","remember","","54","3","prime1","left","","","",""
"html-keyboard-response","139","743517","0.0-4.0-1.0-2.5-0.5","0oa4xf2xglb8xuz","prime","5f427edd0f1aee45a78fa4d7","5f60e3c0a3b16e07647b2ff9","5f64c4fa8892d6026928c732","false","null","<span style=""color: red; font-size: 48px"">Error!</span>","null","","","","feedback","","","","","","","","","","","","","","","",""
"html-keyboard-response","140","745529","0.0-4.0-1.0-3.5","0oa4xf2xglb8xuz","prime","5f427edd0f1aee45a78fa4d7","5f60e3c0a3b16e07647b2ff9","5f64c4fa8892d6026928c732","false","null","<div style=""align-items: center; display: flex; color: dodgerblue; font-size: 90px""><b>o</b></div>","null","","","","forget_cue","","","","","","","","","","","","","","","",""
"html-keyboard-response","141","746250","0.0-4.0-1.0-0.6","0oa4xf2xglb8xuz","prime","5f427edd0f1aee45a78fa4d7","5f60e3c0a3b16e07647b2ff9","5f64c4fa8892d6026928c732","false","null","<span style=""color: black; font-size: 48px"">N + M</span>","null","","","","resp_prompt","","","","","","","","","","","","","","","",""
"categorize-image","142","746984","0.0-4.0-1.0-1.6","0oa4xf2xglb8xuz","prime","5f427edd0f1aee45a78fa4d7","5f60e3c0a3b16e07647b2ff9","5f64c4fa8892d6026928c732","true","728","./Stimuli/SelectedImages/LN/LN13.bmp","76","","","","test","false","N + M","83","repetition","LN","LN13.bmp","remember","","55","3","prime1","right","","","",""
"html-keyboard-response","143","747488","0.0-4.0-1.0-2.6-0.6","0oa4xf2xglb8xuz","prime","5f427edd0f1aee45a78fa4d7","5f60e3c0a3b16e07647b2ff9","5f64c4fa8892d6026928c732","false","null","<span style=""color: red; font-size: 48px"">Error!</span>","null","","","","feedback","","","","","","","","","","","","","","","",""
"html-keyboard-response","144","749501","0.0-4.0-1.0-3.6","0oa4xf2xglb8xuz","prime","5f427edd0f1aee45a78fa4d7","5f60e3c0a3b16e07647b2ff9","5f64c4fa8892d6026928c732","false","null","<div style=""align-items: center; display: flex; color: dodgerblue; font-size: 90px""><b>o</b></div>","null","","","","forget_cue","","","","","","","","","","","","","","","",""
"html-keyboard-response","145","750218","0.0-4.0-1.0-0.7","0oa4xf2xglb8xuz","prime","5f427edd0f1aee45a78fa4d7","5f60e3c0a3b16e07647b2ff9","5f64c4fa8892d6026928c732","false","null","<span style=""color: black; font-size: 48px"">M + N</span>","null","","","","resp_prompt","","","","","","","","","","","","","","","",""
"categorize-image","146","751047","0.0-4.0-1.0-1.7","0oa4xf2xglb8xuz","prime","5f427edd0f1aee45a78fa4d7","5f60e3c0a3b16e07647b2ff9","5f64c4fa8892d6026928c732","true","824","./Stimuli/SelectedImages/SM/SM17.bmp","76","","","","test","false","M + N","83","switch","SM","SM17.bmp","remember","","56","3","prime1","right","","","",""
"html-keyboard-response","147","751558","0.0-4.0-1.0-2.7-0.7","0oa4xf2xglb8xuz","prime","5f427edd0f1aee45a78fa4d7","5f60e3c0a3b16e07647b2ff9","5f64c4fa8892d6026928c732","false","null","<span style=""color: red; font-size: 48px"">Error!</span>","null","","","","feedback","","","","","","","","","","","","","","","",""
"html-keyboard-response","148","753578","0.0-4.0-1.0-3.7","0oa4xf2xglb8xuz","prime","5f427edd0f1aee45a78fa4d7","5f60e3c0a3b16e07647b2ff9","5f64c4fa8892d6026928c732","false","null","<div style=""align-items: center; display: flex; color: dodgerblue; font-size: 90px""><b>o</b></div>","null","","","","forget_cue","","","","","","","","","","","","","","","",""
"html-keyboard-response","149","754297","0.0-4.0-1.0-0.8","0oa4xf2xglb8xuz","prime","5f427edd0f1aee45a78fa4d7","5f60e3c0a3b16e07647b2ff9","5f64c4fa8892d6026928c732","false","null","<span style=""color: black; font-size: 48px"">N + M</span>","null","","","","resp_prompt","","","","","","","","","","","","","","","",""
"categorize-image","150","754833","0.0-4.0-1.0-1.8","0oa4xf2xglb8xuz","prime","5f427edd0f1aee45a78fa4d7","5f60e3c0a3b16e07647b2ff9","5f64c4fa8892d6026928c732","true","531","./Stimuli/SelectedImages/SM/SM108.bmp","83","","","","test","false","N + M","76","repetition","SM","SM108.bmp","forget","","57","3","prime1","left","","","",""
"html-keyboard-response","151","755348","0.0-4.0-1.0-2.8-0.8","0oa4xf2xglb8xuz","prime","5f427edd0f1aee45a78fa4d7","5f60e3c0a3b16e07647b2ff9","5f64c4fa8892d6026928c732","false","null","<span style=""color: red; font-size: 48px"">Error!</span>","null","","","","feedback","","","","","","","","","","","","","","","",""
"html-keyboard-response","152","757358","0.0-4.0-1.0-3.8","0oa4xf2xglb8xuz","prime","5f427edd0f1aee45a78fa4d7","5f60e3c0a3b16e07647b2ff9","5f64c4fa8892d6026928c732","false","null","<div style=""align-items: center; display: flex; color: darkorange; font-size: 90px""><b>ø</b></div>","null","","","","forget_cue","","","","","","","","","","","","","","","",""
"html-keyboard-response","153","758072","0.0-4.0-1.0-0.9","0oa4xf2xglb8xuz","prime","5f427edd0f1aee45a78fa4d7","5f60e3c0a3b16e07647b2ff9","5f64c4fa8892d6026928c732","false","null","<span style=""color: black; font-size: 48px"">N + M</span>","null","","","","resp_prompt","","","","","","","","","","","","","","","",""
"categorize-image","154","758776","0.0-4.0-1.0-1.9","0oa4xf2xglb8xuz","prime","5f427edd0f1aee45a78fa4d7","5f60e3c0a3b16e07647b2ff9","5f64c4fa8892d6026928c732","true","701","./Stimuli/SelectedImages/SM/SM195.bmp","76","","","","test","true","N + M","76","switch","SM","SM195.bmp","forget","","58","3","prime1","right","","","",""
"html-keyboard-response","155","760801","0.0-4.0-1.0-3.9","0oa4xf2xglb8xuz","prime","5f427edd0f1aee45a78fa4d7","5f60e3c0a3b16e07647b2ff9","5f64c4fa8892d6026928c732","false","null","<div style=""align-items: center; display: flex; color: darkorange; font-size: 90px""><b>ø</b></div>","null","","","","forget_cue","","","","","","","","","","","","","","","",""
"html-keyboard-response","156","761509","0.0-4.0-1.0-0.10","0oa4xf2xglb8xuz","prime","5f427edd0f1aee45a78fa4d7","5f60e3c0a3b16e07647b2ff9","5f64c4fa8892d6026928c732","false","null","<span style=""color: black; font-size: 48px"">M + N</span>","null","","","","resp_prompt","","","","","","","","","","","","","","","",""
"categorize-image","157","762162","0.0-4.0-1.0-1.10","0oa4xf2xglb8xuz","prime","5f427edd0f1aee45a78fa4d7","5f60e3c0a3b16e07647b2ff9","5f64c4fa8892d6026928c732","true","647","./Stimuli/SelectedImages/SM/SM74.bmp","83","","","","test","true","M + N","83","repetition","SM","SM74.bmp","forget","","59","3","prime1","left","","","",""
"html-keyboard-response","158","764169","0.0-4.0-1.0-3.10","0oa4xf2xglb8xuz","prime","5f427edd0f1aee45a78fa4d7","5f60e3c0a3b16e07647b2ff9","5f64c4fa8892d6026928c732","false","null","<div style=""align-items: center; display: flex; color: darkorange; font-size: 90px""><b>ø</b></div>","null","","","","forget_cue","","","","","","","","","","","","","","","",""
"html-keyboard-response","159","764879","0.0-4.0-1.0-0.11","0oa4xf2xglb8xuz","prime","5f427edd0f1aee45a78fa4d7","5f60e3c0a3b16e07647b2ff9","5f64c4fa8892d6026928c732","false","null","<span style=""color: black; font-size: 48px"">N + M</span>","null","","","","resp_prompt","","","","","","","","","","","","","","","",""
"categorize-image","160","765448","0.0-4.0-1.0-1.11","0oa4xf2xglb8xuz","prime","5f427edd0f1aee45a78fa4d7","5f60e3c0a3b16e07647b2ff9","5f64c4fa8892d6026928c732","true","563","./Stimuli/SelectedImages/LN/LN150.bmp","83","","","","test","true","N + M","83","switch","LN","LN150.bmp","remember","","60","3","prime1","left","","","",""
"html-keyboard-response","161","767458","0.0-4.0-1.0-3.11","0oa4xf2xglb8xuz","prime","5f427edd0f1aee45a78fa4d7","5f60e3c0a3b16e07647b2ff9","5f64c4fa8892d6026928c732","false","null","<div style=""align-items: center; display: flex; color: dodgerblue; font-size: 90px""><b>o</b></div>","null","","","","forget_cue","","","","","","","","","","","","","","","",""
"html-keyboard-response","162","768168","0.0-4.0-1.0-0.12","0oa4xf2xglb8xuz","prime","5f427edd0f1aee45a78fa4d7","5f60e3c0a3b16e07647b2ff9","5f64c4fa8892d6026928c732","false","null","<span style=""color: black; font-size: 48px"">M + N</span>","null","","","","resp_prompt","","","","","","","","","","","","","","","",""
"categorize-image","163","769086","0.0-4.0-1.0-1.12","0oa4xf2xglb8xuz","prime","5f427edd0f1aee45a78fa4d7","5f60e3c0a3b16e07647b2ff9","5f64c4fa8892d6026928c732","true","913","./Stimuli/SelectedImages/LN/LN12.bmp","83","","","","test","false","M + N","76","switch","LN","LN12.bmp","remember","","61","3","prime1","left","","","",""
"html-keyboard-response","164","769598","0.0-4.0-1.0-2.12-0.12","0oa4xf2xglb8xuz","prime","5f427edd0f1aee45a78fa4d7","5f60e3c0a3b16e07647b2ff9","5f64c4fa8892d6026928c732","false","null","<span style=""color: red; font-size: 48px"">Error!</span>","null","","","","feedback","","","","","","","","","","","","","","","",""
"html-keyboard-response","165","771606","0.0-4.0-1.0-3.12","0oa4xf2xglb8xuz","prime","5f427edd0f1aee45a78fa4d7","5f60e3c0a3b16e07647b2ff9","5f64c4fa8892d6026928c732","false","null","<div style=""align-items: center; display: flex; color: dodgerblue; font-size: 90px""><b>o</b></div>","null","","","","forget_cue","","","","","","","","","","","","","","","",""
"html-keyboard-response","166","772324","0.0-4.0-1.0-0.13","0oa4xf2xglb8xuz","prime","5f427edd0f1aee45a78fa4d7","5f60e3c0a3b16e07647b2ff9","5f64c4fa8892d6026928c732","false","null","<span style=""color: black; font-size: 48px"">M + N</span>","null","","","","resp_prompt","","","","","","","","","","","","","","","",""
"categorize-image","167","773155","0.0-4.0-1.0-1.13","0oa4xf2xglb8xuz","prime","5f427edd0f1aee45a78fa4d7","5f60e3c0a3b16e07647b2ff9","5f64c4fa8892d6026928c732","true","827","./Stimuli/SelectedImages/LN/LN149.bmp","83","","","","test","false","M + N","76","switch","LN","LN149.bmp","remember","","62","3","prime1","left","","","",""
"html-keyboard-response","168","773678","0.0-4.0-1.0-2.13-0.13","0oa4xf2xglb8xuz","prime","5f427edd0f1aee45a78fa4d7","5f60e3c0a3b16e07647b2ff9","5f64c4fa8892d6026928c732","false","null","<span style=""color: red; font-size: 48px"">Error!</span>","null","","","","feedback","","","","","","","","","","","","","","","",""
"html-keyboard-response","169","775698","0.0-4.0-1.0-3.13","0oa4xf2xglb8xuz","prime","5f427edd0f1aee45a78fa4d7","5f60e3c0a3b16e07647b2ff9","5f64c4fa8892d6026928c732","false","null","<div style=""align-items: center; display: flex; color: dodgerblue; font-size: 90px""><b>o</b></div>","null","","","","forget_cue","","","","","","","","","","","","","","","",""
"html-keyboard-response","170","776418","0.0-4.0-1.0-0.14","0oa4xf2xglb8xuz","prime","5f427edd0f1aee45a78fa4d7","5f60e3c0a3b16e07647b2ff9","5f64c4fa8892d6026928c732","false","null","<span style=""color: black; font-size: 48px"">M + N</span>","null","","","","resp_prompt","","","","","","","","","","","","","","","",""
"categorize-image","171","777008","0.0-4.0-1.0-1.14","0oa4xf2xglb8xuz","prime","5f427edd0f1aee45a78fa4d7","5f60e3c0a3b16e07647b2ff9","5f64c4fa8892d6026928c732","true","584","./Stimuli/SelectedImages/SM/SM24.bmp","76","","","","test","false","M + N","83","switch","SM","SM24.bmp","forget","","63","3","prime1","right","","","",""
"html-keyboard-response","172","777528","0.0-4.0-1.0-2.14-0.14","0oa4xf2xglb8xuz","prime","5f427edd0f1aee45a78fa4d7","5f60e3c0a3b16e07647b2ff9","5f64c4fa8892d6026928c732","false","null","<span style=""color: red; font-size: 48px"">Error!</span>","null","","","","feedback","","","","","","","","","","","","","","","",""
"html-keyboard-response","173","779538","0.0-4.0-1.0-3.14","0oa4xf2xglb8xuz","prime","5f427edd0f1aee45a78fa4d7","5f60e3c0a3b16e07647b2ff9","5f64c4fa8892d6026928c732","false","null","<div style=""align-items: center; display: flex; color: darkorange; font-size: 90px""><b>ø</b></div>","null","","","","forget_cue","","","","","","","","","","","","","","","",""
"html-keyboard-response","174","780250","0.0-4.0-1.0-0.15","0oa4xf2xglb8xuz","prime","5f427edd0f1aee45a78fa4d7","5f60e3c0a3b16e07647b2ff9","5f64c4fa8892d6026928c732","false","null","<span style=""color: black; font-size: 48px"">N + M</span>","null","","","","resp_prompt","","","","","","","","","","","","","","","",""
"categorize-image","175","781003","0.0-4.0-1.0-1.15","0oa4xf2xglb8xuz","prime","5f427edd0f1aee45a78fa4d7","5f60e3c0a3b16e07647b2ff9","5f64c4fa8892d6026928c732","true","746","./Stimuli/SelectedImages/LN/LN9.bmp","76","","","","test","false","N + M","83","switch","LN","LN9.bmp","remember","","64","3","prime1","right","","","",""
"html-keyboard-response","176","781514","0.0-4.0-1.0-2.15-0.15","0oa4xf2xglb8xuz","prime","5f427edd0f1aee45a78fa4d7","5f60e3c0a3b16e07647b2ff9","5f64c4fa8892d6026928c732","false","null","<span style=""color: red; font-size: 48px"">Error!</span>","null","","","","feedback","","","","","","","","","","","","","","","",""
"html-keyboard-response","177","783529","0.0-4.0-1.0-3.15","0oa4xf2xglb8xuz","prime","5f427edd0f1aee45a78fa4d7","5f60e3c0a3b16e07647b2ff9","5f64c4fa8892d6026928c732","false","null","<div style=""align-items: center; display: flex; color: dodgerblue; font-size: 90px""><b>o</b></div>","null","","","","forget_cue","","","","","","","","","","","","","","","",""
"html-keyboard-response","178","784235","0.0-4.0-1.0-0.16","0oa4xf2xglb8xuz","prime","5f427edd0f1aee45a78fa4d7","5f60e3c0a3b16e07647b2ff9","5f64c4fa8892d6026928c732","false","null","<span style=""color: black; font-size: 48px"">M + N</span>","null","","","","resp_prompt","","","","","","","","","","","","","","","",""
"categorize-image","179","784981","0.0-4.0-1.0-1.16","0oa4xf2xglb8xuz","prime","5f427edd0f1aee45a78fa4d7","5f60e3c0a3b16e07647b2ff9","5f64c4fa8892d6026928c732","true","741","./Stimuli/SelectedImages/SM/SM207.bmp","83","","","","test","true","M + N","83","repetition","SM","SM207.bmp","remember","","65","3","prime1","left","","","",""
"html-keyboard-response","180","786995","0.0-4.0-1.0-3.16","0oa4xf2xglb8xuz","prime","5f427edd0f1aee45a78fa4d7","5f60e3c0a3b16e07647b2ff9","5f64c4fa8892d6026928c732","false","null","<div style=""align-items: center; display: flex; color: dodgerblue; font-size: 90px""><b>o</b></div>","null","","","","forget_cue","","","","","","","","","","","","","","","",""
"html-keyboard-response","181","787700","0.0-4.0-1.0-0.17","0oa4xf2xglb8xuz","prime","5f427edd0f1aee45a78fa4d7","5f60e3c0a3b16e07647b2ff9","5f64c4fa8892d6026928c732","false","null","<span style=""color: black; font-size: 48px"">N + M</span>","null","","","","resp_prompt","","","","","","","","","","","","","","","",""
"categorize-image","182","788417","0.0-4.0-1.0-1.17","0oa4xf2xglb8xuz","prime","5f427edd0f1aee45a78fa4d7","5f60e3c0a3b16e07647b2ff9","5f64c4fa8892d6026928c732","true","711","./Stimuli/SelectedImages/SN/SN240.bmp","76","","","","test","false","N + M","83","switch","SN","SN240.bmp","remember","","66","3","prime1","right","","","",""
"html-keyboard-response","183","788940","0.0-4.0-1.0-2.17-0.17","0oa4xf2xglb8xuz","prime","5f427edd0f1aee45a78fa4d7","5f60e3c0a3b16e07647b2ff9","5f64c4fa8892d6026928c732","false","null","<span style=""color: red; font-size: 48px"">Error!</span>","null","","","","feedback","","","","","","","","","","","","","","","",""
"html-keyboard-response","184","790946","0.0-4.0-1.0-3.17","0oa4xf2xglb8xuz","prime","5f427edd0f1aee45a78fa4d7","5f60e3c0a3b16e07647b2ff9","5f64c4fa8892d6026928c732","false","null","<div style=""align-items: center; display: flex; color: dodgerblue; font-size: 90px""><b>o</b></div>","null","","","","forget_cue","","","","","","","","","","","","","","","",""
"html-keyboard-response","185","791659","0.0-4.0-1.0-0.18","0oa4xf2xglb8xuz","prime","5f427edd0f1aee45a78fa4d7","5f60e3c0a3b16e07647b2ff9","5f64c4fa8892d6026928c732","false","null","<span style=""color: black; font-size: 48px"">N + M</span>","null","","","","resp_prompt","","","","","","","","","","","","","","","",""
"categorize-image","186","792227","0.0-4.0-1.0-1.18","0oa4xf2xglb8xuz","prime","5f427edd0f1aee45a78fa4d7","5f60e3c0a3b16e07647b2ff9","5f64c4fa8892d6026928c732","true","567","./Stimuli/SelectedImages/LM/LM51.bmp","83","","","","test","false","N + M","76","switch","LM","LM51.bmp","forget","","67","3","prime1","left","","","",""
"html-keyboard-response","187","792742","0.0-4.0-1.0-2.18-0.18","0oa4xf2xglb8xuz","prime","5f427edd0f1aee45a78fa4d7","5f60e3c0a3b16e07647b2ff9","5f64c4fa8892d6026928c732","false","null","<span style=""color: red; font-size: 48px"">Error!</span>","null","","","","feedback","","","","","","","","","","","","","","","",""
"html-keyboard-response","188","794745","0.0-4.0-1.0-3.18","0oa4xf2xglb8xuz","prime","5f427edd0f1aee45a78fa4d7","5f60e3c0a3b16e07647b2ff9","5f64c4fa8892d6026928c732","false","null","<div style=""align-items: center; display: flex; color: darkorange; font-size: 90px""><b>ø</b></div>","null","","","","forget_cue","","","","","","","","","","","","","","","",""
"html-keyboard-response","189","795459","0.0-4.0-1.0-0.19","0oa4xf2xglb8xuz","prime","5f427edd0f1aee45a78fa4d7","5f60e3c0a3b16e07647b2ff9","5f64c4fa8892d6026928c732","false","null","<span style=""color: black; font-size: 48px"">N + M</span>","null","","","","resp_prompt","","","","","","","","","","","","","","","",""
"categorize-image","190","796186","0.0-4.0-1.0-1.19","0oa4xf2xglb8xuz","prime","5f427edd0f1aee45a78fa4d7","5f60e3c0a3b16e07647b2ff9","5f64c4fa8892d6026928c732","true","722","./Stimuli/SelectedImages/SM/SM78.bmp","76","","","","test","true","N + M","76","switch","SM","SM78.bmp","forget","","68","3","prime1","right","","","",""
"html-keyboard-response","191","798189","0.0-4.0-1.0-3.19","0oa4xf2xglb8xuz","prime","5f427edd0f1aee45a78fa4d7","5f60e3c0a3b16e07647b2ff9","5f64c4fa8892d6026928c732","false","null","<div style=""align-items: center; display: flex; color: darkorange; font-size: 90px""><b>ø</b></div>","null","","","","forget_cue","","","","","","","","","","","","","","","",""
"html-keyboard-response","192","798909","0.0-4.0-1.0-0.20","0oa4xf2xglb8xuz","prime","5f427edd0f1aee45a78fa4d7","5f60e3c0a3b16e07647b2ff9","5f64c4fa8892d6026928c732","false","null","<span style=""color: black; font-size: 48px"">M + N</span>","null","","","","resp_prompt","","","","","","","","","","","","","","","",""
"categorize-image","193","799497","0.0-4.0-1.0-1.20","0oa4xf2xglb8xuz","prime","5f427edd0f1aee45a78fa4d7","5f60e3c0a3b16e07647b2ff9","5f64c4fa8892d6026928c732","true","585","./Stimuli/SelectedImages/SN/SN18.bmp","83","","","","test","false","M + N","76","switch","SN","SN18.bmp","remember","","69","3","prime1","left","","","",""
"html-keyboard-response","194","800000","0.0-4.0-1.0-2.20-0.20","0oa4xf2xglb8xuz","prime","5f427edd0f1aee45a78fa4d7","5f60e3c0a3b16e07647b2ff9","5f64c4fa8892d6026928c732","false","null","<span style=""color: red; font-size: 48px"">Error!</span>","null","","","","feedback","","","","","","","","","","","","","","","",""
"html-keyboard-response","195","802009","0.0-4.0-1.0-3.20","0oa4xf2xglb8xuz","prime","5f427edd0f1aee45a78fa4d7","5f60e3c0a3b16e07647b2ff9","5f64c4fa8892d6026928c732","false","null","<div style=""align-items: center; display: flex; color: dodgerblue; font-size: 90px""><b>o</b></div>","null","","","","forget_cue","","","","","","","","","","","","","","","",""
"html-keyboard-response","196","802720","0.0-4.0-1.0-0.21","0oa4xf2xglb8xuz","prime","5f427edd0f1aee45a78fa4d7","5f60e3c0a3b16e07647b2ff9","5f64c4fa8892d6026928c732","false","null","<span style=""color: black; font-size: 48px"">N + M</span>","null","","","","resp_prompt","","","","","","","","","","","","","","","",""
"categorize-image","197","803176","0.0-4.0-1.0-1.21","0oa4xf2xglb8xuz","prime","5f427edd0f1aee45a78fa4d7","5f60e3c0a3b16e07647b2ff9","5f64c4fa8892d6026928c732","true","453","./Stimuli/SelectedImages/LN/LN59.bmp","83","","","","test","true","N + M","83","repetition","LN","LN59.bmp","forget","","70","3","prime1","left","","","",""
"html-keyboard-response","198","805179","0.0-4.0-1.0-3.21","0oa4xf2xglb8xuz","prime","5f427edd0f1aee45a78fa4d7","5f60e3c0a3b16e07647b2ff9","5f64c4fa8892d6026928c732","false","null","<div style=""align-items: center; display: flex; color: darkorange; font-size: 90px""><b>ø</b></div>","null","","","","forget_cue","","","","","","","","","","","","","","","",""
"html-keyboard-response","199","805890","0.0-4.0-1.0-0.22","0oa4xf2xglb8xuz","prime","5f427edd0f1aee45a78fa4d7","5f60e3c0a3b16e07647b2ff9","5f64c4fa8892d6026928c732","false","null","<span style=""color: black; font-size: 48px"">M + N</span>","null","","","","resp_prompt","","","","","","","","","","","","","","","",""
"categorize-image","200","806459","0.0-4.0-1.0-1.22","0oa4xf2xglb8xuz","prime","5f427edd0f1aee45a78fa4d7","5f60e3c0a3b16e07647b2ff9","5f64c4fa8892d6026928c732","true","563","./Stimuli/SelectedImages/LM/LM216.bmp","76","","","","test","false","M + N","83","repetition","LM","LM216.bmp","forget","","71","3","prime1","right","","","",""
"html-keyboard-response","201","806980","0.0-4.0-1.0-2.22-0.22","0oa4xf2xglb8xuz","prime","5f427edd0f1aee45a78fa4d7","5f60e3c0a3b16e07647b2ff9","5f64c4fa8892d6026928c732","false","null","<span style=""color: red; font-size: 48px"">Error!</span>","null","","","","feedback","","","","","","","","","","","","","","","",""
"html-keyboard-response","202","808995","0.0-4.0-1.0-3.22","0oa4xf2xglb8xuz","prime","5f427edd0f1aee45a78fa4d7","5f60e3c0a3b16e07647b2ff9","5f64c4fa8892d6026928c732","false","null","<div style=""align-items: center; display: flex; color: darkorange; font-size: 90px""><b>ø</b></div>","null","","","","forget_cue","","","","","","","","","","","","","","","",""
"html-keyboard-response","203","809699","0.0-4.0-1.0-0.23","0oa4xf2xglb8xuz","prime","5f427edd0f1aee45a78fa4d7","5f60e3c0a3b16e07647b2ff9","5f64c4fa8892d6026928c732","false","null","<span style=""color: black; font-size: 48px"">N + M</span>","null","","","","resp_prompt","","","","","","","","","","","","","","","",""
"categorize-image","204","810306","0.0-4.0-1.0-1.23","0oa4xf2xglb8xuz","prime","5f427edd0f1aee45a78fa4d7","5f60e3c0a3b16e07647b2ff9","5f64c4fa8892d6026928c732","true","601","./Stimuli/SelectedImages/LM/LM59.bmp","76","","","","test","true","N + M","76","repetition","LM","LM59.bmp","remember","","72","3","prime1","right","","","",""
"html-keyboard-response","205","812320","0.0-4.0-1.0-3.23","0oa4xf2xglb8xuz","prime","5f427edd0f1aee45a78fa4d7","5f60e3c0a3b16e07647b2ff9","5f64c4fa8892d6026928c732","false","null","<div style=""align-items: center; display: flex; color: dodgerblue; font-size: 90px""><b>o</b></div>","null","","","","forget_cue","","","","","","","","","","","","","","","",""
"html-keyboard-response","206","813025","0.0-4.0-1.0-0.24","0oa4xf2xglb8xuz","prime","5f427edd0f1aee45a78fa4d7","5f60e3c0a3b16e07647b2ff9","5f64c4fa8892d6026928c732","false","null","<span style=""color: black; font-size: 48px"">M + N</span>","null","","","","resp_prompt","","","","","","","","","","","","","","","",""
"categorize-image","207","813616","0.0-4.0-1.0-1.24","0oa4xf2xglb8xuz","prime","5f427edd0f1aee45a78fa4d7","5f60e3c0a3b16e07647b2ff9","5f64c4fa8892d6026928c732","true","587","./Stimuli/SelectedImages/LN/LN82.bmp","76","","","","test","true","M + N","76","repetition","LN","LN82.bmp","remember","","73","3","prime1","right","","","",""
"html-keyboard-response","208","815633","0.0-4.0-1.0-3.24","0oa4xf2xglb8xuz","prime","5f427edd0f1aee45a78fa4d7","5f60e3c0a3b16e07647b2ff9","5f64c4fa8892d6026928c732","false","null","<div style=""align-items: center; display: flex; color: dodgerblue; font-size: 90px""><b>o</b></div>","null","","","","forget_cue","","","","","","","","","","","","","","","",""
"html-keyboard-response","209","816350","0.0-4.0-1.0-0.25","0oa4xf2xglb8xuz","prime","5f427edd0f1aee45a78fa4d7","5f60e3c0a3b16e07647b2ff9","5f64c4fa8892d6026928c732","false","null","<span style=""color: black; font-size: 48px"">N + M</span>","null","","","","resp_prompt","","","","","","","","","","","","","","","",""
"categorize-image","210","816862","0.0-4.0-1.0-1.25","0oa4xf2xglb8xuz","prime","5f427edd0f1aee45a78fa4d7","5f60e3c0a3b16e07647b2ff9","5f64c4fa8892d6026928c732","true","507","./Stimuli/SelectedImages/SN/SN155.bmp","76","","","","test","false","N + M","83","switch","SN","SN155.bmp","forget","","74","3","prime1","right","","","",""
"html-keyboard-response","211","817380","0.0-4.0-1.0-2.25-0.25","0oa4xf2xglb8xuz","prime","5f427edd0f1aee45a78fa4d7","5f60e3c0a3b16e07647b2ff9","5f64c4fa8892d6026928c732","false","null","<span style=""color: red; font-size: 48px"">Error!</span>","null","","","","feedback","","","","","","","","","","","","","","","",""
"html-keyboard-response","212","819390","0.0-4.0-1.0-3.25","0oa4xf2xglb8xuz","prime","5f427edd0f1aee45a78fa4d7","5f60e3c0a3b16e07647b2ff9","5f64c4fa8892d6026928c732","false","null","<div style=""align-items: center; display: flex; color: darkorange; font-size: 90px""><b>ø</b></div>","null","","","","forget_cue","","","","","","","","","","","","","","","",""
"html-keyboard-response","213","820094","0.0-4.0-1.0-0.26","0oa4xf2xglb8xuz","prime","5f427edd0f1aee45a78fa4d7","5f60e3c0a3b16e07647b2ff9","5f64c4fa8892d6026928c732","false","null","<span style=""color: black; font-size: 48px"">N + M</span>","null","","","","resp_prompt","","","","","","","","","","","","","","","",""
"categorize-image","214","820691","0.0-4.0-1.0-1.26","0oa4xf2xglb8xuz","prime","5f427edd0f1aee45a78fa4d7","5f60e3c0a3b16e07647b2ff9","5f64c4fa8892d6026928c732","true","592","./Stimuli/SelectedImages/SM/SM76.bmp","76","","","","test","true","N + M","76","repetition","SM","SM76.bmp","remember","","75","3","prime1","right","","","",""
"html-keyboard-response","215","822710","0.0-4.0-1.0-3.26","0oa4xf2xglb8xuz","prime","5f427edd0f1aee45a78fa4d7","5f60e3c0a3b16e07647b2ff9","5f64c4fa8892d6026928c732","false","null","<div style=""align-items: center; display: flex; color: dodgerblue; font-size: 90px""><b>o</b></div>","null","","","","forget_cue","","","","","","","","","","","","","","","",""
"html-keyboard-response","216","823425","0.0-4.0-1.0-0.27","0oa4xf2xglb8xuz","prime","5f427edd0f1aee45a78fa4d7","5f60e3c0a3b16e07647b2ff9","5f64c4fa8892d6026928c732","false","null","<span style=""color: black; font-size: 48px"">M + N</span>","null","","","","resp_prompt","","","","","","","","","","","","","","","",""
"categorize-image","217","824095","0.0-4.0-1.0-1.27","0oa4xf2xglb8xuz","prime","5f427edd0f1aee45a78fa4d7","5f60e3c0a3b16e07647b2ff9","5f64c4fa8892d6026928c732","true","666","./Stimuli/SelectedImages/SN/SN179.bmp","83","","","","test","false","M + N","76","repetition","SN","SN179.bmp","forget","","76","3","prime1","left","","","",""
"html-keyboard-response","218","824643","0.0-4.0-1.0-2.27-0.27","0oa4xf2xglb8xuz","prime","5f427edd0f1aee45a78fa4d7","5f60e3c0a3b16e07647b2ff9","5f64c4fa8892d6026928c732","false","null","<span style=""color: red; font-size: 48px"">Error!</span>","null","","","","feedback","","","","","","","","","","","","","","","",""
"html-keyboard-response","219","826651","0.0-4.0-1.0-3.27","0oa4xf2xglb8xuz","prime","5f427edd0f1aee45a78fa4d7","5f60e3c0a3b16e07647b2ff9","5f64c4fa8892d6026928c732","false","null","<div style=""align-items: center; display: flex; color: darkorange; font-size: 90px""><b>ø</b></div>","null","","","","forget_cue","","","","","","","","","","","","","","","",""
"html-keyboard-response","220","827360","0.0-4.0-1.0-0.28","0oa4xf2xglb8xuz","prime","5f427edd0f1aee45a78fa4d7","5f60e3c0a3b16e07647b2ff9","5f64c4fa8892d6026928c732","false","null","<span style=""color: black; font-size: 48px"">N + M</span>","null","","","","resp_prompt","","","","","","","","","","","","","","","",""
"categorize-image","221","827888","0.0-4.0-1.0-1.28","0oa4xf2xglb8xuz","prime","5f427edd0f1aee45a78fa4d7","5f60e3c0a3b16e07647b2ff9","5f64c4fa8892d6026928c732","true","522","./Stimuli/SelectedImages/SN/SN111.bmp","76","","","","test","false","N + M","83","repetition","SN","SN111.bmp","remember","","77","3","prime1","right","","","",""
"html-keyboard-response","222","828400","0.0-4.0-1.0-2.28-0.28","0oa4xf2xglb8xuz","prime","5f427edd0f1aee45a78fa4d7","5f60e3c0a3b16e07647b2ff9","5f64c4fa8892d6026928c732","false","null","<span style=""color: red; font-size: 48px"">Error!</span>","null","","","","feedback","","","","","","","","","","","","","","","",""
"html-keyboard-response","223","830415","0.0-4.0-1.0-3.28","0oa4xf2xglb8xuz","prime","5f427edd0f1aee45a78fa4d7","5f60e3c0a3b16e07647b2ff9","5f64c4fa8892d6026928c732","false","null","<div style=""align-items: center; display: flex; color: dodgerblue; font-size: 90px""><b>o</b></div>","null","","","","forget_cue","","","","","","","","","","","","","","","",""
"html-keyboard-response","224","831140","0.0-4.0-1.0-0.29","0oa4xf2xglb8xuz","prime","5f427edd0f1aee45a78fa4d7","5f60e3c0a3b16e07647b2ff9","5f64c4fa8892d6026928c732","false","null","<span style=""color: black; font-size: 48px"">M + N</span>","null","","","","resp_prompt","","","","","","","","","","","","","","","",""
"categorize-image","225","831588","0.0-4.0-1.0-1.29","0oa4xf2xglb8xuz","prime","5f427edd0f1aee45a78fa4d7","5f60e3c0a3b16e07647b2ff9","5f64c4fa8892d6026928c732","true","442","./Stimuli/SelectedImages/LM/LM58.bmp","83","","","","test","true","M + N","83","switch","LM","LM58.bmp","remember","","78","3","prime1","left","","","",""
"html-keyboard-response","226","833592","0.0-4.0-1.0-3.29","0oa4xf2xglb8xuz","prime","5f427edd0f1aee45a78fa4d7","5f60e3c0a3b16e07647b2ff9","5f64c4fa8892d6026928c732","false","null","<div style=""align-items: center; display: flex; color: dodgerblue; font-size: 90px""><b>o</b></div>","null","","","","forget_cue","","","","","","","","","","","","","","","",""
"html-keyboard-response","227","834303","0.0-4.0-1.0-0.30","0oa4xf2xglb8xuz","prime","5f427edd0f1aee45a78fa4d7","5f60e3c0a3b16e07647b2ff9","5f64c4fa8892d6026928c732","false","null","<span style=""color: black; font-size: 48px"">N + M</span>","null","","","","resp_prompt","","","","","","","","","","","","","","","",""
"categorize-image","228","834912","0.0-4.0-1.0-1.30","0oa4xf2xglb8xuz","prime","5f427edd0f1aee45a78fa4d7","5f60e3c0a3b16e07647b2ff9","5f64c4fa8892d6026928c732","true","603","./Stimuli/SelectedImages/LN/LN166.bmp","83","","","","test","true","N + M","83","switch","LN","LN166.bmp","forget","","79","3","prime1","left","","","",""
"html-keyboard-response","229","836916","0.0-4.0-1.0-3.30","0oa4xf2xglb8xuz","prime","5f427edd0f1aee45a78fa4d7","5f60e3c0a3b16e07647b2ff9","5f64c4fa8892d6026928c732","false","null","<div style=""align-items: center; display: flex; color: darkorange; font-size: 90px""><b>ø</b></div>","null","","","","forget_cue","","","","","","","","","","","","","","","",""
"html-keyboard-response","230","837630","0.0-4.0-1.0-0.31","0oa4xf2xglb8xuz","prime","5f427edd0f1aee45a78fa4d7","5f60e3c0a3b16e07647b2ff9","5f64c4fa8892d6026928c732","false","null","<span style=""color: black; font-size: 48px"">N + M</span>","null","","","","resp_prompt","","","","","","","","","","","","","","","",""
"categorize-image","231","838234","0.0-4.0-1.0-1.31","0oa4xf2xglb8xuz","prime","5f427edd0f1aee45a78fa4d7","5f60e3c0a3b16e07647b2ff9","5f64c4fa8892d6026928c732","true","597","./Stimuli/SelectedImages/SN/SN128.bmp","76","","","","test","false","N + M","83","switch","SN","SN128.bmp","remember","","80","3","prime1","right","","","",""
"html-keyboard-response","232","838735","0.0-4.0-1.0-2.31-0.31","0oa4xf2xglb8xuz","prime","5f427edd0f1aee45a78fa4d7","5f60e3c0a3b16e07647b2ff9","5f64c4fa8892d6026928c732","false","null","<span style=""color: red; font-size: 48px"">Error!</span>","null","","","","feedback","","","","","","","","","","","","","","","",""
"html-keyboard-response","233","840748","0.0-4.0-1.0-3.31","0oa4xf2xglb8xuz","prime","5f427edd0f1aee45a78fa4d7","5f60e3c0a3b16e07647b2ff9","5f64c4fa8892d6026928c732","false","null","<div style=""align-items: center; display: flex; color: dodgerblue; font-size: 90px""><b>o</b></div>","null","","","","forget_cue","","","","","","","","","","","","","","","",""
"html-keyboard-response","234","841451","0.0-4.0-1.0-0.32","0oa4xf2xglb8xuz","prime","5f427edd0f1aee45a78fa4d7","5f60e3c0a3b16e07647b2ff9","5f64c4fa8892d6026928c732","false","null","<span style=""color: black; font-size: 48px"">M + N</span>","null","","","","resp_prompt","","","","","","","","","","","","","","","",""
"categorize-image","235","842025","0.0-4.0-1.0-1.32","0oa4xf2xglb8xuz","prime","5f427edd0f1aee45a78fa4d7","5f60e3c0a3b16e07647b2ff9","5f64c4fa8892d6026928c732","true","570","./Stimuli/SelectedImages/LN/LN92.bmp","76","","","","test","true","M + N","76","repetition","LN","LN92.bmp","remember","","81","3","prime1","right","","","",""
"html-keyboard-response","236","844030","0.0-4.0-1.0-3.32","0oa4xf2xglb8xuz","prime","5f427edd0f1aee45a78fa4d7","5f60e3c0a3b16e07647b2ff9","5f64c4fa8892d6026928c732","false","null","<div style=""align-items: center; display: flex; color: dodgerblue; font-size: 90px""><b>o</b></div>","null","","","","forget_cue","","","","","","","","","","","","","","","",""
"html-keyboard-response","237","844740","0.0-4.0-1.0-0.33","0oa4xf2xglb8xuz","prime","5f427edd0f1aee45a78fa4d7","5f60e3c0a3b16e07647b2ff9","5f64c4fa8892d6026928c732","false","null","<span style=""color: black; font-size: 48px"">N + M</span>","null","","","","resp_prompt","","","","","","","","","","","","","","","",""
"categorize-image","238","845348","0.0-4.0-1.0-1.33","0oa4xf2xglb8xuz","prime","5f427edd0f1aee45a78fa4d7","5f60e3c0a3b16e07647b2ff9","5f64c4fa8892d6026928c732","true","604","./Stimuli/SelectedImages/LM/LM167.bmp","76","","","","test","true","N + M","76","repetition","LM","LM167.bmp","forget","","82","3","prime1","right","","","",""
"html-keyboard-response","239","847361","0.0-4.0-1.0-3.33","0oa4xf2xglb8xuz","prime","5f427edd0f1aee45a78fa4d7","5f60e3c0a3b16e07647b2ff9","5f64c4fa8892d6026928c732","false","null","<div style=""align-items: center; display: flex; color: darkorange; font-size: 90px""><b>ø</b></div>","null","","","","forget_cue","","","","","","","","","","","","","","","",""
"html-keyboard-response","240","848062","0.0-4.0-1.0-0.34","0oa4xf2xglb8xuz","prime","5f427edd0f1aee45a78fa4d7","5f60e3c0a3b16e07647b2ff9","5f64c4fa8892d6026928c732","false","null","<span style=""color: black; font-size: 48px"">M + N</span>","null","","","","resp_prompt","","","","","","","","","","","","","","","",""
"categorize-image","241","848468","0.0-4.0-1.0-1.34","0oa4xf2xglb8xuz","prime","5f427edd0f1aee45a78fa4d7","5f60e3c0a3b16e07647b2ff9","5f64c4fa8892d6026928c732","true","401","./Stimuli/SelectedImages/SN/SN60.bmp","83","","","","test","false","M + N","76","switch","SN","SN60.bmp","forget","","83","3","prime1","left","","","",""
"html-keyboard-response","242","848971","0.0-4.0-1.0-2.34-0.34","0oa4xf2xglb8xuz","prime","5f427edd0f1aee45a78fa4d7","5f60e3c0a3b16e07647b2ff9","5f64c4fa8892d6026928c732","false","null","<span style=""color: red; font-size: 48px"">Error!</span>","null","","","","feedback","","","","","","","","","","","","","","","",""
"html-keyboard-response","243","850981","0.0-4.0-1.0-3.34","0oa4xf2xglb8xuz","prime","5f427edd0f1aee45a78fa4d7","5f60e3c0a3b16e07647b2ff9","5f64c4fa8892d6026928c732","false","null","<div style=""align-items: center; display: flex; color: darkorange; font-size: 90px""><b>ø</b></div>","null","","","","forget_cue","","","","","","","","","","","","","","","",""
"html-keyboard-response","244","851700","0.0-4.0-1.0-0.35","0oa4xf2xglb8xuz","prime","5f427edd0f1aee45a78fa4d7","5f60e3c0a3b16e07647b2ff9","5f64c4fa8892d6026928c732","false","null","<span style=""color: black; font-size: 48px"">M + N</span>","null","","","","resp_prompt","","","","","","","","","","","","","","","",""
"categorize-image","245","852056","0.0-4.0-1.0-1.35","0oa4xf2xglb8xuz","prime","5f427edd0f1aee45a78fa4d7","5f60e3c0a3b16e07647b2ff9","5f64c4fa8892d6026928c732","true","350","./Stimuli/SelectedImages/LM/LM48.bmp","76","","","","test","false","M + N","83","switch","LM","LM48.bmp","remember","","84","3","prime1","right","","","",""
"html-keyboard-response","246","852562","0.0-4.0-1.0-2.35-0.35","0oa4xf2xglb8xuz","prime","5f427edd0f1aee45a78fa4d7","5f60e3c0a3b16e07647b2ff9","5f64c4fa8892d6026928c732","false","null","<span style=""color: red; font-size: 48px"">Error!</span>","null","","","","feedback","","","","","","","","","","","","","","","",""
"html-keyboard-response","247","854581","0.0-4.0-1.0-3.35","0oa4xf2xglb8xuz","prime","5f427edd0f1aee45a78fa4d7","5f60e3c0a3b16e07647b2ff9","5f64c4fa8892d6026928c732","false","null","<div style=""align-items: center; display: flex; color: dodgerblue; font-size: 90px""><b>o</b></div>","null","","","","forget_cue","","","","","","","","","","","","","","","",""
"html-keyboard-response","248","855292","0.0-4.0-1.0-0.36","0oa4xf2xglb8xuz","prime","5f427edd0f1aee45a78fa4d7","5f60e3c0a3b16e07647b2ff9","5f64c4fa8892d6026928c732","false","null","<span style=""color: black; font-size: 48px"">M + N</span>","null","","","","resp_prompt","","","","","","","","","","","","","","","",""
"categorize-image","249","855846","0.0-4.0-1.0-1.36","0oa4xf2xglb8xuz","prime","5f427edd0f1aee45a78fa4d7","5f60e3c0a3b16e07647b2ff9","5f64c4fa8892d6026928c732","true","549","./Stimuli/SelectedImages/LN/LN131.bmp","83","","","","test","false","M + N","76","repetition","LN","LN131.bmp","forget","","85","3","prime1","left","","","",""
"html-keyboard-response","250","856362","0.0-4.0-1.0-2.36-0.36","0oa4xf2xglb8xuz","prime","5f427edd0f1aee45a78fa4d7","5f60e3c0a3b16e07647b2ff9","5f64c4fa8892d6026928c732","false","null","<span style=""color: red; font-size: 48px"">Error!</span>","null","","","","feedback","","","","","","","","","","","","","","","",""
"html-keyboard-response","251","858372","0.0-4.0-1.0-3.36","0oa4xf2xglb8xuz","prime","5f427edd0f1aee45a78fa4d7","5f60e3c0a3b16e07647b2ff9","5f64c4fa8892d6026928c732","false","null","<div style=""align-items: center; display: flex; color: darkorange; font-size: 90px""><b>ø</b></div>","null","","","","forget_cue","","","","","","","","","","","","","","","",""
"html-keyboard-response","252","859084","0.0-4.0-1.0-0.37","0oa4xf2xglb8xuz","prime","5f427edd0f1aee45a78fa4d7","5f60e3c0a3b16e07647b2ff9","5f64c4fa8892d6026928c732","false","null","<span style=""color: black; font-size: 48px"">M + N</span>","null","","","","resp_prompt","","","","","","","","","","","","","","","",""
"categorize-image","253","859917","0.0-4.0-1.0-1.37","0oa4xf2xglb8xuz","prime","5f427edd0f1aee45a78fa4d7","5f60e3c0a3b16e07647b2ff9","5f64c4fa8892d6026928c732","true","829","./Stimuli/SelectedImages/SM/SM200.bmp","83","","","","test","true","M + N","83","switch","SM","SM200.bmp","remember","","86","3","prime1","left","","","",""
"html-keyboard-response","254","861922","0.0-4.0-1.0-3.37","0oa4xf2xglb8xuz","prime","5f427edd0f1aee45a78fa4d7","5f60e3c0a3b16e07647b2ff9","5f64c4fa8892d6026928c732","false","null","<div style=""align-items: center; display: flex; color: dodgerblue; font-size: 90px""><b>o</b></div>","null","","","","forget_cue","","","","","","","","","","","","","","","",""
"html-keyboard-response","255","862640","0.0-4.0-1.0-0.38","0oa4xf2xglb8xuz","prime","5f427edd0f1aee45a78fa4d7","5f60e3c0a3b16e07647b2ff9","5f64c4fa8892d6026928c732","false","null","<span style=""color: black; font-size: 48px"">N + M</span>","null","","","","resp_prompt","","","","","","","","","","","","","","","",""
"categorize-image","256","863257","0.0-4.0-1.0-1.38","0oa4xf2xglb8xuz","prime","5f427edd0f1aee45a78fa4d7","5f60e3c0a3b16e07647b2ff9","5f64c4fa8892d6026928c732","true","611","./Stimuli/SelectedImages/SM/SM73.bmp","83","","","","test","false","N + M","76","repetition","SM","SM73.bmp","forget","","87","3","prime1","left","","","",""
"html-keyboard-response","257","863766","0.0-4.0-1.0-2.38-0.38","0oa4xf2xglb8xuz","prime","5f427edd0f1aee45a78fa4d7","5f60e3c0a3b16e07647b2ff9","5f64c4fa8892d6026928c732","false","null","<span style=""color: red; font-size: 48px"">Error!</span>","null","","","","feedback","","","","","","","","","","","","","","","",""
"html-keyboard-response","258","865773","0.0-4.0-1.0-3.38","0oa4xf2xglb8xuz","prime","5f427edd0f1aee45a78fa4d7","5f60e3c0a3b16e07647b2ff9","5f64c4fa8892d6026928c732","false","null","<div style=""align-items: center; display: flex; color: darkorange; font-size: 90px""><b>ø</b></div>","null","","","","forget_cue","","","","","","","","","","","","","","","",""
