"trial_type","trial_index","time_elapsed","internal_node_id","subject","exp_part","prolific_PID","study_ID","session_ID","use","rt","stimulus","key_press","button_pressed","responses","question_order","trial_part","correct","resp_map","correct_resp","probe_condition","category","image","forget_condition","list","trial_num","block_num","block","response","test_part","n_span","sequence","num_spaces"
"pavlovia","0","11","0.0-0.0","t4lesuj3gc8vnvz","","5eccd04687671e0133893894","5f60e3c0a3b16e07647b2ff9","5f60eea9609af401bac75e09","false","","","","","","","","","","","","","","","","","","","","","","",""
"html-keyboard-response","1","27273","0.0-1.0-0.0-0.0","t4lesuj3gc8vnvz","welcome","5eccd04687671e0133893894","5f60e3c0a3b16e07647b2ff9","5f60eea9609af401bac75e09","false","27255.584999977145","<div align=left>Dear participant, <br> thank you for participating in an online study of the Cognition, Action, and Sustainability Unit of the University of Freiburg! <br> <br>The aim of this study is to examine our ability to remember previously learned information. <br>Our goal is to find out, whether our memory improves, when we only remember information that is relevant to us. <br>The experiment will take about 35 minutes to complete. <br> <br>Please, note that you can only participate in this study if you are using a device with a keyboard (PC, Laptop etc.) <br>and not if you are using a mobile device such as a tablet or smartphone.<br> <br>Press 'SPACE' to proceed to the experiment. </div>","32","","","","","","","","","","","","","","","","","","","",""
"html-keyboard-response","2","57558","0.0-1.0-0.0-1.0","t4lesuj3gc8vnvz","welcome","5eccd04687671e0133893894","5f60e3c0a3b16e07647b2ff9","5f60eea9609af401bac75e09","false","30281.549999985145","<div align=left><strong> Time Course of this experiment: </strong> <br><br> <strong> 1.</strong>  First, please fill in some information regarding your demographic data. <br><br> <strong> 2.</strong>  Next, your task will be to classify everyday objects. <br>In addition, you will be asked to remember certain objects and recall them later. <br>Working on these tasks requires your undivided attention and concentration.<br>It is therefore essential that you eliminate any sources of distraction in your  <br>environment and ensure that you will not be disturbed. <br><br><strong> 3.</strong>  At the end of the experiment, you will be asked to answer a few additional questions. <br> <br><strong> Important:</strong> After finishing the experiment, only close the browser window <br> by clicking on the 'end the experiment'-button when you are asked to do so. <br>Closing the browser window prematurely will make the allocation of your participation credit impossible. <br><br> Press 'SPACE' to start the experiment. </div>","32","","","","","","","","","","","","","","","","","","","",""
"html-button-response","3","126387","0.0-1.0-0.0-2.0","t4lesuj3gc8vnvz","welcome","5eccd04687671e0133893894","5f60e3c0a3b16e07647b2ff9","5f60eea9609af401bac75e09","true","68822.87499998347","<div align=left><strong> Informed consent </strong>  <br>The aim of our research is to better understand human behavior and mental processes. <br>In the following study your behavior (e.g. choices, reaction times) will be studied. <br> <br><strong> Voluntariness and Anonymity </strong> <br>Your participation in this study is  <strong> voluntary</strong>.<br>You may withdraw your consent to participate at any time without providing a reason for doing so and without fear of prejudice. <br><br>As no personal data will be collected, <strong>your data and your person cannot be connected after data collection</strong> – the data-set is anonymous. <br>Respectively, deletion of your data will not be possible after data collection has been completed, as we cannot retrace your data-set.<br>The results and anonymized data collected in this study will be published as a scientific publication. <br>This will happen in an <strong>anonymized format</strong>, so that no data can be traced back to a specific person. <br> <br>The anonymized data of this study will be made available to other researchers and/or in a data archive on the Internet as a means of transparency and to enable subsequent re-use. By doing so, this study follows the recommendations of the Deutsche Forschungsgemeinschaft (DFG, German Research Foundation) and Deutsche Gesellschaft für Psychologie (DGPS, German Psychological Society) regarding quality assurance in research.<br>If you have any questions now or after the experiment, please contact our team (experiments@cs.uni-freiburg.de).<br><br><br>I hereby declare, that I understand the above described conditions of participation and I agree to participate under these conditions. <br><br> </div>","","0","","","","","","","","","","","","","","","","","","",""
"html-keyboard-response","4","152822","0.0-1.0-0.0-3.0","t4lesuj3gc8vnvz","welcome","5eccd04687671e0133893894","5f60e3c0a3b16e07647b2ff9","5f60eea9609af401bac75e09","false","26430.464999983087","<div align=left><strong> General information concerning the experiment </strong>  <br> <br>Please follow the instructions:<ol> <li><strong> Do not leave this tab (your browser window) during the experiment and do not reload this tab! </strong>  <br>If you do switch tabs/windows during the experiment (to check your mail or visit another website, for example), <br>the experiment will end automatically and you will <strong>not receive credit</strong> for your participation. <br>Repeated participation or resumption of the experiment is impossible.</li> <br><li>Please close all other programs for the duration of your participation. </li> <br><li>Please mute or turn off your phone and put it out of your reach. </li> <br><li>Please also take off any disturbing accessories (such as wristwatches, bracelets, etc.). </li> <br><li>If you have music playing in the background, please turn it off now. </li> <br></ol>Thank you! <br>Press 'SPACE' to continue. </div>","32","","","","","","","","","","","","","","","","","","","",""
"survey-text","5","158458","0.0-1.0-1.0-0.0","t4lesuj3gc8vnvz","demographics","5eccd04687671e0133893894","5f60e3c0a3b16e07647b2ff9","5f60eea9609af401bac75e09","true","5623.149999999441","","","","{""age"":""25""}","","","","","","","","","","","","","","","","","",""
"survey-multi-choice","6","175963","0.0-1.0-1.0-1.0","t4lesuj3gc8vnvz","demographics","5eccd04687671e0133893894","5f60e3c0a3b16e07647b2ff9","5f60eea9609af401bac75e09","true","17499.414999998407","","","","{""gender"":""female"",""school"":""others"",""education"":""Completed university degree or equivalent""}","[0,1,2]","","","","","","","","","","","","","","","","",""
"html-keyboard-response","7","198851","0.0-1.0-2.0","t4lesuj3gc8vnvz","instructions","5eccd04687671e0133893894","5f60e3c0a3b16e07647b2ff9","5f60eea9609af401bac75e09","false","22874.440000014147","<div align=left> The experiment is now about to start: <br> <br>In the following part, you will be presented pictures of everyday objects. <br>Your first task is to <strong>classify these objects. </strong> <br> <br> You will classify them either as mechanical or non-mechanical objects. <br> <br>Objects that include any kind of technical mechanism (for example, wheels, switches, levers, <br> electronic components) fall under the category of <strong>mechanical</strong> objects. <br>Only objects without any kind of technical mechanism should be classified as <strong>non-mechanical</strong>. <br><br>Press 'SPACE' to continue. </div>","32","","","","","","","","","","","","","","","","","","","",""
"html-keyboard-response","8","263447","0.0-2.0-0.0","t4lesuj3gc8vnvz","instructions","5eccd04687671e0133893894","5f60e3c0a3b16e07647b2ff9","5f60eea9609af401bac75e09","false","64592.86000000429","<div align=justify>You will classify the objects using the <strong>'S'</strong> and the <strong>'L'</strong> keys on your keyboard.<br>For doing so, please place your <strong>left index finger</strong> on the <strong>'S'</strong> key and place your <strong>right index finger</strong> on the <strong>'L'</strong> key. <br><br> Each trial starts with an instruction, indicating which key ('S'/'L') you need to press to classify <br>the object as mechanical (letter M) or non-mechanical (letter N).<br>The instruction <strong>M + N</strong> indicates that, in the current trial, by pressing the left key ('S') you classify the displayed object as mechanical (M) <br> and by pressing the right key ('L') you classify the object as non-mechanical (N). <br>The instruction <strong>N + M</strong> on the other hand indicates that by pressing the left key ('S') you classify the displayed object as non-mechanical (N) <br> and by pressing the right key ('L') you classify the object as mechanical (M). <br><br>Please press the key corresponding to the correct classification as fast as possible as soon as the object is displayed and try to avoid making mistakes.<br>If you do not respond within a 2 second window, a corresponding feedback will be displayed and the next trial will start.<br> The experiment is divided into multiple blocks to give you the opportunity to take a break after each block. <br>First, you can now practice this task. <br><br>Please place your <strong>LEFT INDEX FINGER</strong> on the 'S' key and your <strong>RIGHT INDEX FINGER</strong> on the 'L' key now. <br><br>Press SPACE to continue.</div>","32","","","","","","","","","","","","","","","","","","","",""
"html-keyboard-response","9","271921","0.0-2.0-1.0","t4lesuj3gc8vnvz","instructions","5eccd04687671e0133893894","5f60e3c0a3b16e07647b2ff9","5f60eea9609af401bac75e09","false","8471.055000001797","<div align=left> You will now have time to practice this task.<br><br>Remember: <br> <br><li>Please place your index fingers on the <strong>'S'</strong> and <strong>'L'</strong> keys <br>to respond as fast and accurately as possible.</li><li>Every picture can be classified as either mechanical or non-mechanical.</li><li>If you do not respond in time or commit an error, you will receive a corresponding feedback. </li><li> Please try to respond as <strong> fast </strong> and as <strong> accurately as possible </strong> .<br><li>To ensure optimal results, please minimize distractions and stay focused. </li><br><br>Press SPACE to continue.</div>","32","","","","","","","","","","","","","","","","","","","",""
"html-keyboard-response","10","272626","0.0-2.0-2.0-0.0","t4lesuj3gc8vnvz","practice_no_cue","5eccd04687671e0133893894","5f60e3c0a3b16e07647b2ff9","5f60eea9609af401bac75e09","false","null","<span style=""color: black; font-size: 48px"">N + M</span>","null","","","","resp_prompt","","","","","","","","","","","","","","","",""
"categorize-image","11","274081","0.0-2.0-2.0-1.0","t4lesuj3gc8vnvz","practice_no_cue","5eccd04687671e0133893894","5f60e3c0a3b16e07647b2ff9","5f60eea9609af401bac75e09","true","939.5650000078604","./Stimuli/ImagesPractice/LN109.jpg","76","","","","test","false","N + M","83","","LN","LN109.jpg","remember","old","1","1","start","right","","","",""
"html-keyboard-response","12","274785","0.0-2.0-2.0-0.1","t4lesuj3gc8vnvz","practice_no_cue","5eccd04687671e0133893894","5f60e3c0a3b16e07647b2ff9","5f60eea9609af401bac75e09","false","null","<span style=""color: black; font-size: 48px"">M + N</span>","null","","","","resp_prompt","","","","","","","","","","","","","","","",""
"categorize-image","13","276286","0.0-2.0-2.0-1.1","t4lesuj3gc8vnvz","practice_no_cue","5eccd04687671e0133893894","5f60e3c0a3b16e07647b2ff9","5f60eea9609af401bac75e09","true","996.1600000096951","./Stimuli/ImagesPractice/LM143.jpg","83","","","","test","true","M + N","83","","LM","LM143.jpg","forget","old","2","1","start","left","","","",""
"html-keyboard-response","14","276989","0.0-2.0-2.0-0.2","t4lesuj3gc8vnvz","practice_no_cue","5eccd04687671e0133893894","5f60e3c0a3b16e07647b2ff9","5f60eea9609af401bac75e09","false","null","<span style=""color: black; font-size: 48px"">M + N</span>","null","","","","resp_prompt","","","","","","","","","","","","","","","",""
"categorize-image","15","278279","0.0-2.0-2.0-1.2","t4lesuj3gc8vnvz","practice_no_cue","5eccd04687671e0133893894","5f60e3c0a3b16e07647b2ff9","5f60eea9609af401bac75e09","true","786.019999999553","./Stimuli/ImagesPractice/SM97.jpg","83","","","","test","true","M + N","83","","SM","SM97.jpg","remember","old","3","1","start","left","","","",""
"html-keyboard-response","16","278982","0.0-2.0-2.0-0.3","t4lesuj3gc8vnvz","practice_no_cue","5eccd04687671e0133893894","5f60e3c0a3b16e07647b2ff9","5f60eea9609af401bac75e09","false","null","<span style=""color: black; font-size: 48px"">N + M</span>","null","","","","resp_prompt","","","","","","","","","","","","","","","",""
"categorize-image","17","280606","0.0-2.0-2.0-1.3","t4lesuj3gc8vnvz","practice_no_cue","5eccd04687671e0133893894","5f60e3c0a3b16e07647b2ff9","5f60eea9609af401bac75e09","true","1119.9499999929685","./Stimuli/ImagesPractice/LN15.jpg","83","","","","test","true","N + M","83","","LN","LN15.jpg","forget","old","4","1","start","left","","","",""
"html-keyboard-response","18","281309","0.0-2.0-2.0-0.4","t4lesuj3gc8vnvz","practice_no_cue","5eccd04687671e0133893894","5f60e3c0a3b16e07647b2ff9","5f60eea9609af401bac75e09","false","null","<span style=""color: black; font-size: 48px"">M + N</span>","null","","","","resp_prompt","","","","","","","","","","","","","","","",""
"categorize-image","19","282768","0.0-2.0-2.0-1.4","t4lesuj3gc8vnvz","practice_no_cue","5eccd04687671e0133893894","5f60e3c0a3b16e07647b2ff9","5f60eea9609af401bac75e09","true","954.8450000002049","./Stimuli/ImagesPractice/LM239.jpg","83","","","","test","true","M + N","83","","LM","LM239.jpg","forget","old","5","1","start","left","","","",""
"html-keyboard-response","20","283471","0.0-2.0-2.0-0.5","t4lesuj3gc8vnvz","practice_no_cue","5eccd04687671e0133893894","5f60e3c0a3b16e07647b2ff9","5f60eea9609af401bac75e09","false","null","<span style=""color: black; font-size: 48px"">N + M</span>","null","","","","resp_prompt","","","","","","","","","","","","","","","",""
"categorize-image","21","284642","0.0-2.0-2.0-1.5","t4lesuj3gc8vnvz","practice_no_cue","5eccd04687671e0133893894","5f60e3c0a3b16e07647b2ff9","5f60eea9609af401bac75e09","true","667.2450000187382","./Stimuli/ImagesPractice/LN17.jpg","76","","","","test","false","N + M","83","","LN","LN17.jpg","remember","old","6","1","start","right","","","",""
"html-keyboard-response","22","285345","0.0-2.0-2.0-0.6","t4lesuj3gc8vnvz","practice_no_cue","5eccd04687671e0133893894","5f60e3c0a3b16e07647b2ff9","5f60eea9609af401bac75e09","false","null","<span style=""color: black; font-size: 48px"">N + M</span>","null","","","","resp_prompt","","","","","","","","","","","","","","","",""
"categorize-image","23","286957","0.0-2.0-2.0-1.6","t4lesuj3gc8vnvz","practice_no_cue","5eccd04687671e0133893894","5f60e3c0a3b16e07647b2ff9","5f60eea9609af401bac75e09","true","1108.1800000101794","./Stimuli/ImagesPractice/LM55.jpg","76","","","","test","true","N + M","76","","LM","LM55.jpg","remember","old","7","1","start","right","","","",""
"html-keyboard-response","24","287659","0.0-2.0-2.0-0.7","t4lesuj3gc8vnvz","practice_no_cue","5eccd04687671e0133893894","5f60e3c0a3b16e07647b2ff9","5f60eea9609af401bac75e09","false","null","<span style=""color: black; font-size: 48px"">N + M</span>","null","","","","resp_prompt","","","","","","","","","","","","","","","",""
"categorize-image","25","288756","0.0-2.0-2.0-1.7","t4lesuj3gc8vnvz","practice_no_cue","5eccd04687671e0133893894","5f60e3c0a3b16e07647b2ff9","5f60eea9609af401bac75e09","true","592.8049999929499","./Stimuli/ImagesPractice/LM230.jpg","76","","","","test","true","N + M","76","","LM","LM230.jpg","forget","old","8","1","start","right","","","",""
"html-keyboard-response","26","289461","0.0-2.0-2.0-0.8","t4lesuj3gc8vnvz","practice_no_cue","5eccd04687671e0133893894","5f60e3c0a3b16e07647b2ff9","5f60eea9609af401bac75e09","false","null","<span style=""color: black; font-size: 48px"">M + N</span>","null","","","","resp_prompt","","","","","","","","","","","","","","","",""
"categorize-image","27","290819","0.0-2.0-2.0-1.8","t4lesuj3gc8vnvz","practice_no_cue","5eccd04687671e0133893894","5f60e3c0a3b16e07647b2ff9","5f60eea9609af401bac75e09","true","855.0849999883212","./Stimuli/ImagesPractice/SN205.jpg","76","","","","test","true","M + N","76","","SN","SN205.jpg","remember","old","9","1","start","right","","","",""
"html-keyboard-response","28","291522","0.0-2.0-2.0-0.9","t4lesuj3gc8vnvz","practice_no_cue","5eccd04687671e0133893894","5f60e3c0a3b16e07647b2ff9","5f60eea9609af401bac75e09","false","null","<span style=""color: black; font-size: 48px"">N + M</span>","null","","","","resp_prompt","","","","","","","","","","","","","","","",""
"categorize-image","29","292753","0.0-2.0-2.0-1.9","t4lesuj3gc8vnvz","practice_no_cue","5eccd04687671e0133893894","5f60e3c0a3b16e07647b2ff9","5f60eea9609af401bac75e09","true","727.7850000245962","./Stimuli/ImagesPractice/LM147.jpg","76","","","","test","true","N + M","76","","LM","LM147.jpg","forget","old","10","1","start","right","","","",""
"html-keyboard-response","30","293456","0.0-2.0-2.0-0.10","t4lesuj3gc8vnvz","practice_no_cue","5eccd04687671e0133893894","5f60e3c0a3b16e07647b2ff9","5f60eea9609af401bac75e09","false","null","<span style=""color: black; font-size: 48px"">M + N</span>","null","","","","resp_prompt","","","","","","","","","","","","","","","",""
"categorize-image","31","294898","0.0-2.0-2.0-1.10","t4lesuj3gc8vnvz","practice_no_cue","5eccd04687671e0133893894","5f60e3c0a3b16e07647b2ff9","5f60eea9609af401bac75e09","true","936.8799999938346","./Stimuli/ImagesPractice/LN72.jpg","76","","","","test","true","M + N","76","","LN","LN72.jpg","remember","old","11","1","start","right","","","",""
"html-keyboard-response","32","295601","0.0-2.0-2.0-0.11","t4lesuj3gc8vnvz","practice_no_cue","5eccd04687671e0133893894","5f60e3c0a3b16e07647b2ff9","5f60eea9609af401bac75e09","false","null","<span style=""color: black; font-size: 48px"">M + N</span>","null","","","","resp_prompt","","","","","","","","","","","","","","","",""
"categorize-image","33","296789","0.0-2.0-2.0-1.11","t4lesuj3gc8vnvz","practice_no_cue","5eccd04687671e0133893894","5f60e3c0a3b16e07647b2ff9","5f60eea9609af401bac75e09","true","684.7500000149012","./Stimuli/ImagesPractice/SM61.jpg","83","","","","test","true","M + N","83","","SM","SM61.jpg","forget","old","12","1","start","left","","","",""
"html-keyboard-response","34","297492","0.0-2.0-2.0-0.12","t4lesuj3gc8vnvz","practice_no_cue","5eccd04687671e0133893894","5f60e3c0a3b16e07647b2ff9","5f60eea9609af401bac75e09","false","null","<span style=""color: black; font-size: 48px"">M + N</span>","null","","","","resp_prompt","","","","","","","","","","","","","","","",""
"categorize-image","35","298744","0.0-2.0-2.0-1.12","t4lesuj3gc8vnvz","practice_no_cue","5eccd04687671e0133893894","5f60e3c0a3b16e07647b2ff9","5f60eea9609af401bac75e09","true","748.0650000215974","./Stimuli/ImagesPractice/SN221.jpg","76","","","","test","true","M + N","76","","SN","SN221.jpg","remember","old","13","1","start","right","","","",""
"html-keyboard-response","36","299447","0.0-2.0-2.0-0.13","t4lesuj3gc8vnvz","practice_no_cue","5eccd04687671e0133893894","5f60e3c0a3b16e07647b2ff9","5f60eea9609af401bac75e09","false","null","<span style=""color: black; font-size: 48px"">N + M</span>","null","","","","resp_prompt","","","","","","","","","","","","","","","",""
"categorize-image","37","300669","0.0-2.0-2.0-1.13","t4lesuj3gc8vnvz","practice_no_cue","5eccd04687671e0133893894","5f60e3c0a3b16e07647b2ff9","5f60eea9609af401bac75e09","true","718.044999986887","./Stimuli/ImagesPractice/SN220.jpg","76","","","","test","false","N + M","83","","SN","SN220.jpg","remember","old","14","1","start","right","","","",""
"html-keyboard-response","38","301372","0.0-2.0-2.0-0.14","t4lesuj3gc8vnvz","practice_no_cue","5eccd04687671e0133893894","5f60e3c0a3b16e07647b2ff9","5f60eea9609af401bac75e09","false","null","<span style=""color: black; font-size: 48px"">N + M</span>","null","","","","resp_prompt","","","","","","","","","","","","","","","",""
"categorize-image","39","302837","0.0-2.0-2.0-1.14","t4lesuj3gc8vnvz","practice_no_cue","5eccd04687671e0133893894","5f60e3c0a3b16e07647b2ff9","5f60eea9609af401bac75e09","true","961.0250000259839","./Stimuli/ImagesPractice/LN2.jpg","76","","","","test","false","N + M","83","","LN","LN2.jpg","forget","old","15","1","start","right","","","",""
"html-keyboard-response","40","303540","0.0-2.0-2.0-0.15","t4lesuj3gc8vnvz","practice_no_cue","5eccd04687671e0133893894","5f60e3c0a3b16e07647b2ff9","5f60eea9609af401bac75e09","false","null","<span style=""color: black; font-size: 48px"">M + N</span>","null","","","","resp_prompt","","","","","","","","","","","","","","","",""
"categorize-image","41","304715","0.0-2.0-2.0-1.15","t4lesuj3gc8vnvz","practice_no_cue","5eccd04687671e0133893894","5f60e3c0a3b16e07647b2ff9","5f60eea9609af401bac75e09","true","671.0800000000745","./Stimuli/ImagesPractice/SM37.jpg","83","","","","test","true","M + N","83","","SM","SM37.jpg","forget","old","16","1","start","left","","","",""
"html-keyboard-response","42","309389","0.0-2.0-3.0","t4lesuj3gc8vnvz","break","5eccd04687671e0133893894","5f60e3c0a3b16e07647b2ff9","5f60eea9609af401bac75e09","false","4669.5550000004005","<p style='font-size: 32px;'>Break</><br><br><br><br><br><p style='font-size: 24px;'>In the last block, you committed 4 errors and did not respond in time on 0 trials.
</p><p style='font-size: 24px;'>Try to respond as fast and accurately as possible in the next block as well! </p><p style='font-size: 24px;'>Press SPACE to continue.</p>","32","","","","","","","","","","","","","","","","","","","",""
"html-keyboard-response","43","312960","0.0-2.0-4.0","t4lesuj3gc8vnvz","instructions","5eccd04687671e0133893894","5f60e3c0a3b16e07647b2ff9","5f60eea9609af401bac75e09","false","3568.7050000124145","<div align=left> Great!<br><br>Are you ready to continue?<br><br>If you want to reread the instructions and redo the practice trials, <br>please press „Z“. <br><br>Press SPACE to CONTINUE with the experiment when you are ready. </div>","32","","","","","","","","","","","","","","","","","","","",""
"html-keyboard-response","44","355760","0.0-3.0-0.0","t4lesuj3gc8vnvz","instructions","5eccd04687671e0133893894","5f60e3c0a3b16e07647b2ff9","5f60eea9609af401bac75e09","false","42797.325000021374","<div align=left>Great!<br> <strong>Attention</strong>! You will now receive a second, additional task! <br><br>To this point it was you <strong>first task</strong> to correctly <strong>classify objects</strong>. <br><br>As mentioned in the beginning, we aim to examine how well humans can remember previously learned information.<br>We would like to find out whether our memory improves if we only remember information that is relevant to us. <br><br>Therefore, your <strong>second task</strong> will be to <strong>remember</strong> the pictures you are to categorize. <br> After the learning phase, there will be a memory test phase, in which you will be asked to indicate whether you have seen a picture before or not. <br>Some, but not all pictures shown in the learning phase will appear in the memory test phase.<br>After classifying a picture, you will be told whether you should remember it for the memory test phase or not. <br>Thus, some pictures can be forgotten, whereas others have to be remembered. <br><br>Note: From now on, feedback will only be displayed if you responded incorrectly or not in time.<br><br>Press SPACE to continue.</div>","32","","","","","","","","","","","","","","","","","","","",""
"html-keyboard-response","45","379143","0.0-3.0-1.0","t4lesuj3gc8vnvz","instructions","5eccd04687671e0133893894","5f60e3c0a3b16e07647b2ff9","5f60eea9609af401bac75e09","false","23380.979999987176","<div align=left>In the following part, you will thus have to remember only some pictures. <br>Immediately after seeing and classifying the picture, a symbol will be displayed, indicating whether you should remember or forget the previous picture. <br><br>A <span style='color: dodgerblue; font-size: 28px'>O</span> indicates REMEMBER. That means, you have to remember this picture, because it will be tested later. <br><br>A <span style='color: darkorange; font-size:28px'>Ø</span> indicates FORGET. You do not have to remember this picture. <br><br> As you will have to remember a lot of pictures, it will be hard for you to remember all of them. <br>It will put you at an advantage if you instantly forget the pictures you are not asked to remember. <br> This will make it easier for you to remember the pictures that will be tested afterwards. <br><br>Press SPACE to continue.</div>","32","","","","","","","","","","","","","","","","","","","",""
"html-keyboard-response","46","393514","0.0-3.0-2.0","t4lesuj3gc8vnvz","instructions","5eccd04687671e0133893894","5f60e3c0a3b16e07647b2ff9","5f60eea9609af401bac75e09","false","14368.855000007898","<div align=left> Now you have the chance to practice both tasks together.<br><br>Remember: <br> <br><li>Please place your index fingers on the <strong>'S'</strong> and <strong>'L'</strong> keys <br>to respond as fast and accurately as possible.</li><li>Every picture can be classified as either mechanical or non-mechanical.</li><li>If you do not respond in time or commit an error, you will receive a corresponding feedback. <br>Please try to respond as <strong> fast </strong> and as <strong> accurately as possible </strong>.</li><li> Please remember only the to-be-remembered <span style='color: dodgerblue; font-size: 28px'>O</span> pictures. <br></li><li> Please minimize distractions and stay focused. </li><br><br>Press SPACE to START</div>","32","","","","","","","","","","","","","","","","","","","",""
"html-keyboard-response","47","394218","0.0-3.0-3.0-0.0","t4lesuj3gc8vnvz","practice_cue","5eccd04687671e0133893894","5f60e3c0a3b16e07647b2ff9","5f60eea9609af401bac75e09","false","null","<span style=""color: black; font-size: 48px"">N + M</span>","null","","","","resp_prompt","","","","","","","","","","","","","","","",""
"categorize-image","48","394967","0.0-3.0-3.0-1.0","t4lesuj3gc8vnvz","practice_cue","5eccd04687671e0133893894","5f60e3c0a3b16e07647b2ff9","5f60eea9609af401bac75e09","true","741.2750000075903","./Stimuli/ImagesPractice/SN220.jpg","83","","","","test","true","N + M","83","","SN","SN220.jpg","remember","old","17","2","practice_forget","left","","","",""
"html-keyboard-response","49","396971","0.0-3.0-3.0-3.0","t4lesuj3gc8vnvz","practice_cue","5eccd04687671e0133893894","5f60e3c0a3b16e07647b2ff9","5f60eea9609af401bac75e09","false","null","<div style=""align-items: center; display: flex; color: dodgerblue; font-size: 90px""><b>o</b></div>","null","","","","forget_cue","","","","","","","","","","","","","","","",""
"html-keyboard-response","50","397673","0.0-3.0-3.0-0.1","t4lesuj3gc8vnvz","practice_cue","5eccd04687671e0133893894","5f60e3c0a3b16e07647b2ff9","5f60eea9609af401bac75e09","false","null","<span style=""color: black; font-size: 48px"">M + N</span>","null","","","","resp_prompt","","","","","","","","","","","","","","","",""
"categorize-image","51","398314","0.0-3.0-3.0-1.1","t4lesuj3gc8vnvz","practice_cue","5eccd04687671e0133893894","5f60e3c0a3b16e07647b2ff9","5f60eea9609af401bac75e09","true","633.6900000169408","./Stimuli/ImagesPractice/SM37.jpg","83","","","","test","true","M + N","83","","SM","SM37.jpg","forget","old","18","2","practice_forget","left","","","",""
"html-keyboard-response","52","400316","0.0-3.0-3.0-3.1","t4lesuj3gc8vnvz","practice_cue","5eccd04687671e0133893894","5f60e3c0a3b16e07647b2ff9","5f60eea9609af401bac75e09","false","null","<div style=""align-items: center; display: flex; color: darkorange; font-size: 90px""><b>ø</b></div>","null","","","","forget_cue","","","","","","","","","","","","","","","",""
"html-keyboard-response","53","401019","0.0-3.0-3.0-0.2","t4lesuj3gc8vnvz","practice_cue","5eccd04687671e0133893894","5f60e3c0a3b16e07647b2ff9","5f60eea9609af401bac75e09","false","null","<span style=""color: black; font-size: 48px"">M + N</span>","null","","","","resp_prompt","","","","","","","","","","","","","","","",""
"categorize-image","54","401605","0.0-3.0-3.0-1.2","t4lesuj3gc8vnvz","practice_cue","5eccd04687671e0133893894","5f60e3c0a3b16e07647b2ff9","5f60eea9609af401bac75e09","true","580.3799999994226","./Stimuli/ImagesPractice/LM143.jpg","83","","","","test","true","M + N","83","","LM","LM143.jpg","forget","old","19","2","practice_forget","left","","","",""
"html-keyboard-response","55","403610","0.0-3.0-3.0-3.2","t4lesuj3gc8vnvz","practice_cue","5eccd04687671e0133893894","5f60e3c0a3b16e07647b2ff9","5f60eea9609af401bac75e09","false","null","<div style=""align-items: center; display: flex; color: darkorange; font-size: 90px""><b>ø</b></div>","null","","","","forget_cue","","","","","","","","","","","","","","","",""
"html-keyboard-response","56","404313","0.0-3.0-3.0-0.3","t4lesuj3gc8vnvz","practice_cue","5eccd04687671e0133893894","5f60e3c0a3b16e07647b2ff9","5f60eea9609af401bac75e09","false","null","<span style=""color: black; font-size: 48px"">N + M</span>","null","","","","resp_prompt","","","","","","","","","","","","","","","",""
"categorize-image","57","405354","0.0-3.0-3.0-1.3","t4lesuj3gc8vnvz","practice_cue","5eccd04687671e0133893894","5f60e3c0a3b16e07647b2ff9","5f60eea9609af401bac75e09","true","1033.2200000120793","./Stimuli/ImagesPractice/LN2.jpg","83","","","","test","true","N + M","83","","LN","LN2.jpg","forget","old","20","2","practice_forget","left","","","",""
"html-keyboard-response","58","407356","0.0-3.0-3.0-3.3","t4lesuj3gc8vnvz","practice_cue","5eccd04687671e0133893894","5f60e3c0a3b16e07647b2ff9","5f60eea9609af401bac75e09","false","null","<div style=""align-items: center; display: flex; color: darkorange; font-size: 90px""><b>ø</b></div>","null","","","","forget_cue","","","","","","","","","","","","","","","",""
"html-keyboard-response","59","408058","0.0-3.0-3.0-0.4","t4lesuj3gc8vnvz","practice_cue","5eccd04687671e0133893894","5f60e3c0a3b16e07647b2ff9","5f60eea9609af401bac75e09","false","null","<span style=""color: black; font-size: 48px"">N + M</span>","null","","","","resp_prompt","","","","","","","","","","","","","","","",""
"categorize-image","60","408690","0.0-3.0-3.0-1.4","t4lesuj3gc8vnvz","practice_cue","5eccd04687671e0133893894","5f60e3c0a3b16e07647b2ff9","5f60eea9609af401bac75e09","true","624.6350000146776","./Stimuli/ImagesPractice/LM147.jpg","76","","","","test","true","N + M","76","","LM","LM147.jpg","forget","old","21","2","practice_forget","right","","","",""
"html-keyboard-response","61","410693","0.0-3.0-3.0-3.4","t4lesuj3gc8vnvz","practice_cue","5eccd04687671e0133893894","5f60e3c0a3b16e07647b2ff9","5f60eea9609af401bac75e09","false","null","<div style=""align-items: center; display: flex; color: darkorange; font-size: 90px""><b>ø</b></div>","null","","","","forget_cue","","","","","","","","","","","","","","","",""
"html-keyboard-response","62","411396","0.0-3.0-3.0-0.5","t4lesuj3gc8vnvz","practice_cue","5eccd04687671e0133893894","5f60e3c0a3b16e07647b2ff9","5f60eea9609af401bac75e09","false","null","<span style=""color: black; font-size: 48px"">N + M</span>","null","","","","resp_prompt","","","","","","","","","","","","","","","",""
"categorize-image","63","412075","0.0-3.0-3.0-1.5","t4lesuj3gc8vnvz","practice_cue","5eccd04687671e0133893894","5f60e3c0a3b16e07647b2ff9","5f60eea9609af401bac75e09","true","673.064999980852","./Stimuli/ImagesPractice/LM55.jpg","76","","","","test","true","N + M","76","","LM","LM55.jpg","remember","old","22","2","practice_forget","right","","","",""
"html-keyboard-response","64","414079","0.0-3.0-3.0-3.5","t4lesuj3gc8vnvz","practice_cue","5eccd04687671e0133893894","5f60e3c0a3b16e07647b2ff9","5f60eea9609af401bac75e09","false","null","<div style=""align-items: center; display: flex; color: dodgerblue; font-size: 90px""><b>o</b></div>","null","","","","forget_cue","","","","","","","","","","","","","","","",""
"html-keyboard-response","65","414781","0.0-3.0-3.0-0.6","t4lesuj3gc8vnvz","practice_cue","5eccd04687671e0133893894","5f60e3c0a3b16e07647b2ff9","5f60eea9609af401bac75e09","false","null","<span style=""color: black; font-size: 48px"">M + N</span>","null","","","","resp_prompt","","","","","","","","","","","","","","","",""
"categorize-image","66","415630","0.0-3.0-3.0-1.6","t4lesuj3gc8vnvz","practice_cue","5eccd04687671e0133893894","5f60e3c0a3b16e07647b2ff9","5f60eea9609af401bac75e09","true","842.0949999999721","./Stimuli/ImagesPractice/LN72.jpg","76","","","","test","true","M + N","76","","LN","LN72.jpg","remember","old","23","2","practice_forget","right","","","",""
"html-keyboard-response","67","417634","0.0-3.0-3.0-3.6","t4lesuj3gc8vnvz","practice_cue","5eccd04687671e0133893894","5f60e3c0a3b16e07647b2ff9","5f60eea9609af401bac75e09","false","null","<div style=""align-items: center; display: flex; color: dodgerblue; font-size: 90px""><b>o</b></div>","null","","","","forget_cue","","","","","","","","","","","","","","","",""
"html-keyboard-response","68","418336","0.0-3.0-3.0-0.7","t4lesuj3gc8vnvz","practice_cue","5eccd04687671e0133893894","5f60e3c0a3b16e07647b2ff9","5f60eea9609af401bac75e09","false","null","<span style=""color: black; font-size: 48px"">M + N</span>","null","","","","resp_prompt","","","","","","","","","","","","","","","",""
"categorize-image","69","419108","0.0-3.0-3.0-1.7","t4lesuj3gc8vnvz","practice_cue","5eccd04687671e0133893894","5f60e3c0a3b16e07647b2ff9","5f60eea9609af401bac75e09","true","765.5249999952503","./Stimuli/ImagesPractice/SM97.jpg","83","","","","test","true","M + N","83","","SM","SM97.jpg","remember","old","24","2","practice_forget","left","","","",""
"html-keyboard-response","70","421111","0.0-3.0-3.0-3.7","t4lesuj3gc8vnvz","practice_cue","5eccd04687671e0133893894","5f60e3c0a3b16e07647b2ff9","5f60eea9609af401bac75e09","false","null","<div style=""align-items: center; display: flex; color: dodgerblue; font-size: 90px""><b>o</b></div>","null","","","","forget_cue","","","","","","","","","","","","","","","",""
"html-keyboard-response","71","421814","0.0-3.0-3.0-0.8","t4lesuj3gc8vnvz","practice_cue","5eccd04687671e0133893894","5f60e3c0a3b16e07647b2ff9","5f60eea9609af401bac75e09","false","null","<span style=""color: black; font-size: 48px"">M + N</span>","null","","","","resp_prompt","","","","","","","","","","","","","","","",""
"categorize-image","72","422574","0.0-3.0-3.0-1.8","t4lesuj3gc8vnvz","practice_cue","5eccd04687671e0133893894","5f60e3c0a3b16e07647b2ff9","5f60eea9609af401bac75e09","true","752.7499999850988","./Stimuli/ImagesPractice/SN221.jpg","76","","","","test","true","M + N","76","","SN","SN221.jpg","remember","old","25","2","practice_forget","right","","","",""
"html-keyboard-response","73","424578","0.0-3.0-3.0-3.8","t4lesuj3gc8vnvz","practice_cue","5eccd04687671e0133893894","5f60e3c0a3b16e07647b2ff9","5f60eea9609af401bac75e09","false","null","<div style=""align-items: center; display: flex; color: dodgerblue; font-size: 90px""><b>o</b></div>","null","","","","forget_cue","","","","","","","","","","","","","","","",""
"html-keyboard-response","74","425280","0.0-3.0-3.0-0.9","t4lesuj3gc8vnvz","practice_cue","5eccd04687671e0133893894","5f60e3c0a3b16e07647b2ff9","5f60eea9609af401bac75e09","false","null","<span style=""color: black; font-size: 48px"">N + M</span>","null","","","","resp_prompt","","","","","","","","","","","","","","","",""
"categorize-image","75","426189","0.0-3.0-3.0-1.9","t4lesuj3gc8vnvz","practice_cue","5eccd04687671e0133893894","5f60e3c0a3b16e07647b2ff9","5f60eea9609af401bac75e09","true","901.4050000114366","./Stimuli/ImagesPractice/LN17.jpg","83","","","","test","true","N + M","83","","LN","LN17.jpg","remember","old","26","2","practice_forget","left","","","",""
"html-keyboard-response","76","428191","0.0-3.0-3.0-3.9","t4lesuj3gc8vnvz","practice_cue","5eccd04687671e0133893894","5f60e3c0a3b16e07647b2ff9","5f60eea9609af401bac75e09","false","null","<div style=""align-items: center; display: flex; color: dodgerblue; font-size: 90px""><b>o</b></div>","null","","","","forget_cue","","","","","","","","","","","","","","","",""
"html-keyboard-response","77","428894","0.0-3.0-3.0-0.10","t4lesuj3gc8vnvz","practice_cue","5eccd04687671e0133893894","5f60e3c0a3b16e07647b2ff9","5f60eea9609af401bac75e09","false","null","<span style=""color: black; font-size: 48px"">M + N</span>","null","","","","resp_prompt","","","","","","","","","","","","","","","",""
"categorize-image","78","429901","0.0-3.0-3.0-1.10","t4lesuj3gc8vnvz","practice_cue","5eccd04687671e0133893894","5f60e3c0a3b16e07647b2ff9","5f60eea9609af401bac75e09","true","994.6650000056252","./Stimuli/ImagesPractice/SM61.jpg","83","","","","test","true","M + N","83","","SM","SM61.jpg","forget","old","27","2","practice_forget","left","","","",""
"html-keyboard-response","79","431904","0.0-3.0-3.0-3.10","t4lesuj3gc8vnvz","practice_cue","5eccd04687671e0133893894","5f60e3c0a3b16e07647b2ff9","5f60eea9609af401bac75e09","false","null","<div style=""align-items: center; display: flex; color: darkorange; font-size: 90px""><b>ø</b></div>","null","","","","forget_cue","","","","","","","","","","","","","","","",""
"html-keyboard-response","80","432607","0.0-3.0-3.0-0.11","t4lesuj3gc8vnvz","practice_cue","5eccd04687671e0133893894","5f60e3c0a3b16e07647b2ff9","5f60eea9609af401bac75e09","false","null","<span style=""color: black; font-size: 48px"">N + M</span>","null","","","","resp_prompt","","","","","","","","","","","","","","","",""
"categorize-image","81","433549","0.0-3.0-3.0-1.11","t4lesuj3gc8vnvz","practice_cue","5eccd04687671e0133893894","5f60e3c0a3b16e07647b2ff9","5f60eea9609af401bac75e09","true","934.9600000132341","./Stimuli/ImagesPractice/LN109.jpg","76","","","","test","false","N + M","83","","LN","LN109.jpg","remember","old","28","2","practice_forget","right","","","",""
"html-keyboard-response","82","434052","0.0-3.0-3.0-2.11-0.11","t4lesuj3gc8vnvz","practice_cue","5eccd04687671e0133893894","5f60e3c0a3b16e07647b2ff9","5f60eea9609af401bac75e09","false","null","<span style=""color: red; font-size: 48px"">Error!</span>","null","","","","feedback","","","","","","","","","","","","","","","",""
"html-keyboard-response","83","436055","0.0-3.0-3.0-3.11","t4lesuj3gc8vnvz","practice_cue","5eccd04687671e0133893894","5f60e3c0a3b16e07647b2ff9","5f60eea9609af401bac75e09","false","null","<div style=""align-items: center; display: flex; color: dodgerblue; font-size: 90px""><b>o</b></div>","null","","","","forget_cue","","","","","","","","","","","","","","","",""
"html-keyboard-response","84","436758","0.0-3.0-3.0-0.12","t4lesuj3gc8vnvz","practice_cue","5eccd04687671e0133893894","5f60e3c0a3b16e07647b2ff9","5f60eea9609af401bac75e09","false","null","<span style=""color: black; font-size: 48px"">M + N</span>","null","","","","resp_prompt","","","","","","","","","","","","","","","",""
"categorize-image","85","437905","0.0-3.0-3.0-1.12","t4lesuj3gc8vnvz","practice_cue","5eccd04687671e0133893894","5f60e3c0a3b16e07647b2ff9","5f60eea9609af401bac75e09","true","1140.6600000045728","./Stimuli/ImagesPractice/LM239.jpg","83","","","","test","true","M + N","83","","LM","LM239.jpg","forget","old","29","2","practice_forget","left","","","",""
"html-keyboard-response","86","439907","0.0-3.0-3.0-3.12","t4lesuj3gc8vnvz","practice_cue","5eccd04687671e0133893894","5f60e3c0a3b16e07647b2ff9","5f60eea9609af401bac75e09","false","null","<div style=""align-items: center; display: flex; color: darkorange; font-size: 90px""><b>ø</b></div>","null","","","","forget_cue","","","","","","","","","","","","","","","",""
"html-keyboard-response","87","440611","0.0-3.0-3.0-0.13","t4lesuj3gc8vnvz","practice_cue","5eccd04687671e0133893894","5f60e3c0a3b16e07647b2ff9","5f60eea9609af401bac75e09","false","null","<span style=""color: black; font-size: 48px"">N + M</span>","null","","","","resp_prompt","","","","","","","","","","","","","","","",""
"categorize-image","88","441635","0.0-3.0-3.0-1.13","t4lesuj3gc8vnvz","practice_cue","5eccd04687671e0133893894","5f60e3c0a3b16e07647b2ff9","5f60eea9609af401bac75e09","true","1017.3549999890383","./Stimuli/ImagesPractice/LN15.jpg","83","","","","test","true","N + M","83","","LN","LN15.jpg","forget","old","30","2","practice_forget","left","","","",""
"html-keyboard-response","89","443638","0.0-3.0-3.0-3.13","t4lesuj3gc8vnvz","practice_cue","5eccd04687671e0133893894","5f60e3c0a3b16e07647b2ff9","5f60eea9609af401bac75e09","false","null","<div style=""align-items: center; display: flex; color: darkorange; font-size: 90px""><b>ø</b></div>","null","","","","forget_cue","","","","","","","","","","","","","","","",""
"html-keyboard-response","90","444341","0.0-3.0-3.0-0.14","t4lesuj3gc8vnvz","practice_cue","5eccd04687671e0133893894","5f60e3c0a3b16e07647b2ff9","5f60eea9609af401bac75e09","false","null","<span style=""color: black; font-size: 48px"">M + N</span>","null","","","","resp_prompt","","","","","","","","","","","","","","","",""
"categorize-image","91","445509","0.0-3.0-3.0-1.14","t4lesuj3gc8vnvz","practice_cue","5eccd04687671e0133893894","5f60e3c0a3b16e07647b2ff9","5f60eea9609af401bac75e09","true","1159.8400000075344","./Stimuli/ImagesPractice/SN205.jpg","76","","","","test","true","M + N","76","","SN","SN205.jpg","remember","old","31","2","practice_forget","right","","","",""
"html-keyboard-response","92","447511","0.0-3.0-3.0-3.14","t4lesuj3gc8vnvz","practice_cue","5eccd04687671e0133893894","5f60e3c0a3b16e07647b2ff9","5f60eea9609af401bac75e09","false","null","<div style=""align-items: center; display: flex; color: dodgerblue; font-size: 90px""><b>o</b></div>","null","","","","forget_cue","","","","","","","","","","","","","","","",""
"html-keyboard-response","93","448214","0.0-3.0-3.0-0.15","t4lesuj3gc8vnvz","practice_cue","5eccd04687671e0133893894","5f60e3c0a3b16e07647b2ff9","5f60eea9609af401bac75e09","false","null","<span style=""color: black; font-size: 48px"">N + M</span>","null","","","","resp_prompt","","","","","","","","","","","","","","","",""
"categorize-image","94","449088","0.0-3.0-3.0-1.15","t4lesuj3gc8vnvz","practice_cue","5eccd04687671e0133893894","5f60e3c0a3b16e07647b2ff9","5f60eea9609af401bac75e09","true","867.0600000186823","./Stimuli/ImagesPractice/LM230.jpg","83","","","","test","false","N + M","76","","LM","LM230.jpg","forget","old","32","2","practice_forget","left","","","",""
"html-keyboard-response","95","449591","0.0-3.0-3.0-2.15-0.15","t4lesuj3gc8vnvz","practice_cue","5eccd04687671e0133893894","5f60e3c0a3b16e07647b2ff9","5f60eea9609af401bac75e09","false","null","<span style=""color: red; font-size: 48px"">Error!</span>","null","","","","feedback","","","","","","","","","","","","","","","",""
"html-keyboard-response","96","451594","0.0-3.0-3.0-3.15","t4lesuj3gc8vnvz","practice_cue","5eccd04687671e0133893894","5f60e3c0a3b16e07647b2ff9","5f60eea9609af401bac75e09","false","null","<div style=""align-items: center; display: flex; color: darkorange; font-size: 90px""><b>ø</b></div>","null","","","","forget_cue","","","","","","","","","","","","","","","",""
"html-keyboard-response","97","455540","0.0-3.0-4.0","t4lesuj3gc8vnvz","break","5eccd04687671e0133893894","5f60e3c0a3b16e07647b2ff9","5f60eea9609af401bac75e09","false","3943.1949999998324","<p style='font-size: 32px;'>Break</><br><br><br><br><br><p style='font-size: 24px;'>In the last block, you committed 2 errors and did not respond in time on 0 trials.
</p><p style='font-size: 24px;'>Try to respond as fast and accurately as possible in the next block as well! </p><p style='font-size: 24px;'>Press SPACE to continue.</p>","32","","","","","","","","","","","","","","","","","","","",""
"html-keyboard-response","98","474523","0.0-3.0-5.0","t4lesuj3gc8vnvz","instructions","5eccd04687671e0133893894","5f60e3c0a3b16e07647b2ff9","5f60eea9609af401bac75e09","false","18980.30500000459","<div align=left> Now, to practice, we kindly ask you to remember as many of the to-be-remembered pictures<br>of the previous learning phase as possible.<br><br>The pictures you were instructed to remember were the pictures followed by a <span style='color: dodgerblue; font-size: 28px'>O</span>.<br><br>In this memory test phase, you will also see some new pictures.<br>It is your task to remember whether you were presented with this specific picture in this study so far or not.<br>If you recognize an object (you have already seen it in this study), it is an OLD object. <br>If you do not recognize an object (you have NOT seen it in this study), it is a NEW object. <br><strong> Attention</strong>: As already mentioned, <span style='color: darkorange; font-size:28px'>Ø</span>-pictures will <strong>never</strong> appear in this memory test (neither as new objects). <br><br>Press SPACE to continue. </div>","32","","","","","","","","","","","","","","","","","","","",""
"html-keyboard-response","99","506602","0.0-3.0-6.0","t4lesuj3gc8vnvz","instructions","5eccd04687671e0133893894","5f60e3c0a3b16e07647b2ff9","5f60eea9609af401bac75e09","false","32076.539999980014","<div align=left> M and N no longer will appear on the left/right of the fixation cross. <br>Instead there will be a note at the bottom of the left or right side  <br>indicating which key you should press for an old or new object:  <br> <br>Press the <strong>right</strong> key to classify an object as <strong>old</strong> and press the <strong>left</strong>, to classify an object as <strong>new</strong>.<br>Please classify the objects as new/old by again placing your index finger on the 'S' and 'L' keys <br>and press them accordingly.<br><br><strong>Old:</strong> This object has been presented before. <br><strong>New:</strong> This object has <strong>not</strong> been presented.<br><br>Now please put your right and left index fingers on the 'S' and 'L' keys of your keyboard. <br>Please respond as fast and as accurately as possible!<br><br>Press SPACE to continue. </div>","32","","","","","","","","","","","","","","","","","","","",""
"categorize-image","100","508631","0.0-3.0-7.0-0.0","t4lesuj3gc8vnvz","practice_recog","5eccd04687671e0133893894","5f60e3c0a3b16e07647b2ff9","5f60eea9609af401bac75e09","true","1522.5950000167359","./Stimuli/ImagesPractice/SM35.jpg","83","","","","test","false","","76","","SM","SM35.jpg","","new","33","3","practice_recog","left","","","",""
"categorize-image","101","510111","0.0-3.0-7.0-0.1","t4lesuj3gc8vnvz","practice_recog","5eccd04687671e0133893894","5f60e3c0a3b16e07647b2ff9","5f60eea9609af401bac75e09","true","975.2199999929871","./Stimuli/ImagesPractice/LN109.jpg","76","","","","test","false","","83","","LN","LN109.jpg","","old","34","3","practice_recog","right","","","",""
"categorize-image","102","511937","0.0-3.0-7.0-0.2","t4lesuj3gc8vnvz","practice_recog","5eccd04687671e0133893894","5f60e3c0a3b16e07647b2ff9","5f60eea9609af401bac75e09","true","1321.7799999983981","./Stimuli/ImagesPractice/SN222.jpg","76","","","","test","true","","76","","SN","SN222.jpg","","new","35","3","practice_recog","right","","","",""
"categorize-image","103","513275","0.0-3.0-7.0-0.3","t4lesuj3gc8vnvz","practice_recog","5eccd04687671e0133893894","5f60e3c0a3b16e07647b2ff9","5f60eea9609af401bac75e09","true","829.5599999837577","./Stimuli/ImagesPractice/SM98.jpg","76","","","","test","true","","76","","SM","SM98.jpg","","new","36","3","practice_recog","right","","","",""
"categorize-image","104","514520","0.0-3.0-7.0-0.4","t4lesuj3gc8vnvz","practice_recog","5eccd04687671e0133893894","5f60e3c0a3b16e07647b2ff9","5f60eea9609af401bac75e09","true","740.1549999776762","./Stimuli/ImagesPractice/LM55.jpg","83","","","","test","true","","83","","LM","LM55.jpg","","old","37","3","practice_recog","left","","","",""
"categorize-image","105","515746","0.0-3.0-7.0-0.5","t4lesuj3gc8vnvz","practice_recog","5eccd04687671e0133893894","5f60e3c0a3b16e07647b2ff9","5f60eea9609af401bac75e09","true","720.5600000161212","./Stimuli/ImagesPractice/SN205.jpg","83","","","","test","true","","83","","SN","SN205.jpg","","old","38","3","practice_recog","left","","","",""
"categorize-image","106","516857","0.0-3.0-7.0-0.6","t4lesuj3gc8vnvz","practice_recog","5eccd04687671e0133893894","5f60e3c0a3b16e07647b2ff9","5f60eea9609af401bac75e09","true","606.4299999852665","./Stimuli/ImagesPractice/LN72.jpg","83","","","","test","true","","83","","LN","LN72.jpg","","old","39","3","practice_recog","left","","","",""
"categorize-image","107","517991","0.0-3.0-7.0-0.7","t4lesuj3gc8vnvz","practice_recog","5eccd04687671e0133893894","5f60e3c0a3b16e07647b2ff9","5f60eea9609af401bac75e09","true","629.6750000037719","./Stimuli/ImagesPractice/SN76.jpg","76","","","","test","true","","76","","SN","SN76.jpg","","new","40","3","practice_recog","right","","","",""
"categorize-image","108","519181","0.0-3.0-7.0-0.8","t4lesuj3gc8vnvz","practice_recog","5eccd04687671e0133893894","5f60e3c0a3b16e07647b2ff9","5f60eea9609af401bac75e09","true","684.6700000169221","./Stimuli/ImagesPractice/LM224.jpg","76","","","","test","true","","76","","LM","LM224.jpg","","new","41","3","practice_recog","right","","","",""
"categorize-image","109","520276","0.0-3.0-7.0-0.9","t4lesuj3gc8vnvz","practice_recog","5eccd04687671e0133893894","5f60e3c0a3b16e07647b2ff9","5f60eea9609af401bac75e09","true","589.9149999895599","./Stimuli/ImagesPractice/SN220.jpg","83","","","","test","true","","83","","SN","SN220.jpg","","old","42","3","practice_recog","left","","","",""
"categorize-image","110","521409","0.0-3.0-7.0-0.10","t4lesuj3gc8vnvz","practice_recog","5eccd04687671e0133893894","5f60e3c0a3b16e07647b2ff9","5f60eea9609af401bac75e09","true","628.515000018524","./Stimuli/ImagesPractice/LN17.jpg","83","","","","test","true","","83","","LN","LN17.jpg","","old","43","3","practice_recog","left","","","",""
"categorize-image","111","522704","0.0-3.0-7.0-0.11","t4lesuj3gc8vnvz","practice_recog","5eccd04687671e0133893894","5f60e3c0a3b16e07647b2ff9","5f60eea9609af401bac75e09","true","790.949999995064","./Stimuli/ImagesPractice/SM62.jpg","76","","","","test","true","","76","","SM","SM62.jpg","","new","44","3","practice_recog","right","","","",""
"categorize-image","112","523956","0.0-3.0-7.0-0.12","t4lesuj3gc8vnvz","practice_recog","5eccd04687671e0133893894","5f60e3c0a3b16e07647b2ff9","5f60eea9609af401bac75e09","true","745.9450000023935","./Stimuli/ImagesPractice/SN221.jpg","83","","","","test","true","","83","","SN","SN221.jpg","","old","45","3","practice_recog","left","","","",""
"categorize-image","113","525175","0.0-3.0-7.0-0.13","t4lesuj3gc8vnvz","practice_recog","5eccd04687671e0133893894","5f60e3c0a3b16e07647b2ff9","5f60eea9609af401bac75e09","true","714.1300000075717","./Stimuli/ImagesPractice/SM97.jpg","83","","","","test","true","","83","","SM","SM97.jpg","","old","46","3","practice_recog","left","","","",""
"categorize-image","114","526329","0.0-3.0-7.0-0.14","t4lesuj3gc8vnvz","practice_recog","5eccd04687671e0133893894","5f60e3c0a3b16e07647b2ff9","5f60eea9609af401bac75e09","true","650.3699999884702","./Stimuli/ImagesPractice/SN75.jpg","76","","","","test","true","","76","","SN","SN75.jpg","","new","47","3","practice_recog","right","","","",""
"categorize-image","115","527412","0.0-3.0-7.0-0.15","t4lesuj3gc8vnvz","practice_recog","5eccd04687671e0133893894","5f60e3c0a3b16e07647b2ff9","5f60eea9609af401bac75e09","true","578.6950000037905","./Stimuli/ImagesPractice/LN4.jpg","76","","","","test","true","","76","","LN","LN4.jpg","","new","48","3","practice_recog","right","","","",""
"html-keyboard-response","116","536978","0.0-3.0-8.0","t4lesuj3gc8vnvz","instructions","5eccd04687671e0133893894","5f60e3c0a3b16e07647b2ff9","5f60eea9609af401bac75e09","false","9563.69999999879","<div align=left> Great!<br><br>Are you ready to continue?<br>If you want to reread the instructions and redo the practice trials, please <br>press „Z“.<br><br>You can proceed when you are ready.<br><br>After the presentation of each object, you will receive an instruction whether to <br>remember or to forget the object.<br>We will test your memory of the following pictures only at the very end of <br>the experiment after all learning blocks are completed. <br><br>Press SPACE to CONTINUE when you are ready. </div>","32","","","","","","","","","","","","","","","","","","","",""
"html-keyboard-response","117","559366","0.0-4.0-0.0","t4lesuj3gc8vnvz","instructions","5eccd04687671e0133893894","5f60e3c0a3b16e07647b2ff9","5f60eea9609af401bac75e09","false","22384.41500000772","<div align=left> The actual experiment is about to start.<br>The practice trials are over!<br><br>Please always respond both fast and accurately!<br><br>Remember: <br> <br><li> Please place your index fingers on the <strong>'S'</strong> and <strong>'L'</strong> keys <br>to respond as fast and accurately as possible.</li><li> Every picture can be classified as either mechanical or non-mechanical.</li><li> If you do not respond in time or commit an error, you will receive a corresponding feedback.<br> Please try to respond as <strong> fast </strong> and as <strong> accurately as possible </strong>.</li><li> Remember the <span style='color: dodgerblue; font-size: 28px'>O</span> pictures. <br></li><li> Please minimize distractions and stay focused. </li><br><br>Press SPACE to START.</div>","32","","","","","","","","","","","","","","","","","","","",""
"html-keyboard-response","118","560069","0.0-4.0-1.0-0.0","t4lesuj3gc8vnvz","prime","5eccd04687671e0133893894","5f60e3c0a3b16e07647b2ff9","5f60eea9609af401bac75e09","false","null","<span style=""color: black; font-size: 48px"">N + M</span>","null","","","","resp_prompt","","","","","","","","","","","","","","","",""
"categorize-image","119","561004","0.0-4.0-1.0-1.0","t4lesuj3gc8vnvz","prime","5eccd04687671e0133893894","5f60e3c0a3b16e07647b2ff9","5f60eea9609af401bac75e09","true","928.5600000002887","./Stimuli/SelectedImages/LN/LN9.bmp","83","","","","test","true","N + M","83","repetition","LN","LN9.bmp","forget","","49","3","prime1","left","","","",""
"html-keyboard-response","120","563007","0.0-4.0-1.0-3.0","t4lesuj3gc8vnvz","prime","5eccd04687671e0133893894","5f60e3c0a3b16e07647b2ff9","5f60eea9609af401bac75e09","false","null","<div style=""align-items: center; display: flex; color: darkorange; font-size: 90px""><b>ø</b></div>","null","","","","forget_cue","","","","","","","","","","","","","","","",""
"html-keyboard-response","121","563710","0.0-4.0-1.0-0.1","t4lesuj3gc8vnvz","prime","5eccd04687671e0133893894","5f60e3c0a3b16e07647b2ff9","5f60eea9609af401bac75e09","false","null","<span style=""color: black; font-size: 48px"">N + M</span>","null","","","","resp_prompt","","","","","","","","","","","","","","","",""
"categorize-image","122","565094","0.0-4.0-1.0-1.1","t4lesuj3gc8vnvz","prime","5eccd04687671e0133893894","5f60e3c0a3b16e07647b2ff9","5f60eea9609af401bac75e09","true","1376.9650000031106","./Stimuli/SelectedImages/LN/LN111.bmp","83","","","","test","true","N + M","83","switch","LN","LN111.bmp","forget","","50","3","prime1","left","","","",""
"html-keyboard-response","123","567097","0.0-4.0-1.0-3.1","t4lesuj3gc8vnvz","prime","5eccd04687671e0133893894","5f60e3c0a3b16e07647b2ff9","5f60eea9609af401bac75e09","false","null","<div style=""align-items: center; display: flex; color: darkorange; font-size: 90px""><b>ø</b></div>","null","","","","forget_cue","","","","","","","","","","","","","","","",""
"html-keyboard-response","124","567800","0.0-4.0-1.0-0.2","t4lesuj3gc8vnvz","prime","5eccd04687671e0133893894","5f60e3c0a3b16e07647b2ff9","5f60eea9609af401bac75e09","false","null","<span style=""color: black; font-size: 48px"">M + N</span>","null","","","","resp_prompt","","","","","","","","","","","","","","","",""
"categorize-image","125","568397","0.0-4.0-1.0-1.2","t4lesuj3gc8vnvz","prime","5eccd04687671e0133893894","5f60e3c0a3b16e07647b2ff9","5f60eea9609af401bac75e09","true","590.490000002319","./Stimuli/SelectedImages/SM/SM24.bmp","83","","","","test","true","M + N","83","repetition","SM","SM24.bmp","forget","","51","3","prime1","left","","","",""
"html-keyboard-response","126","570399","0.0-4.0-1.0-3.2","t4lesuj3gc8vnvz","prime","5eccd04687671e0133893894","5f60e3c0a3b16e07647b2ff9","5f60eea9609af401bac75e09","false","null","<div style=""align-items: center; display: flex; color: darkorange; font-size: 90px""><b>ø</b></div>","null","","","","forget_cue","","","","","","","","","","","","","","","",""
"html-keyboard-response","127","571103","0.0-4.0-1.0-0.3","t4lesuj3gc8vnvz","prime","5eccd04687671e0133893894","5f60e3c0a3b16e07647b2ff9","5f60eea9609af401bac75e09","false","null","<span style=""color: black; font-size: 48px"">M + N</span>","null","","","","resp_prompt","","","","","","","","","","","","","","","",""
"categorize-image","128","571716","0.0-4.0-1.0-1.3","t4lesuj3gc8vnvz","prime","5eccd04687671e0133893894","5f60e3c0a3b16e07647b2ff9","5f60eea9609af401bac75e09","true","607.3949999990873","./Stimuli/SelectedImages/LM/LM57.bmp","83","","","","test","true","M + N","83","repetition","LM","LM57.bmp","remember","","52","3","prime1","left","","","",""
"html-keyboard-response","129","573718","0.0-4.0-1.0-3.3","t4lesuj3gc8vnvz","prime","5eccd04687671e0133893894","5f60e3c0a3b16e07647b2ff9","5f60eea9609af401bac75e09","false","null","<div style=""align-items: center; display: flex; color: dodgerblue; font-size: 90px""><b>o</b></div>","null","","","","forget_cue","","","","","","","","","","","","","","","",""
"html-keyboard-response","130","574421","0.0-4.0-1.0-0.4","t4lesuj3gc8vnvz","prime","5eccd04687671e0133893894","5f60e3c0a3b16e07647b2ff9","5f60eea9609af401bac75e09","false","null","<span style=""color: black; font-size: 48px"">N + M</span>","null","","","","resp_prompt","","","","","","","","","","","","","","","",""
"categorize-image","131","575555","0.0-4.0-1.0-1.4","t4lesuj3gc8vnvz","prime","5eccd04687671e0133893894","5f60e3c0a3b16e07647b2ff9","5f60eea9609af401bac75e09","true","1127.3550000041723","./Stimuli/SelectedImages/LN/LN131.bmp","76","","","","test","false","N + M","83","switch","LN","LN131.bmp","forget","","53","3","prime1","right","","","",""
"html-keyboard-response","132","576059","0.0-4.0-1.0-2.4-0.4","t4lesuj3gc8vnvz","prime","5eccd04687671e0133893894","5f60e3c0a3b16e07647b2ff9","5f60eea9609af401bac75e09","false","null","<span style=""color: red; font-size: 48px"">Error!</span>","null","","","","feedback","","","","","","","","","","","","","","","",""
"html-keyboard-response","133","578060","0.0-4.0-1.0-3.4","t4lesuj3gc8vnvz","prime","5eccd04687671e0133893894","5f60e3c0a3b16e07647b2ff9","5f60eea9609af401bac75e09","false","null","<div style=""align-items: center; display: flex; color: darkorange; font-size: 90px""><b>ø</b></div>","null","","","","forget_cue","","","","","","","","","","","","","","","",""
"html-keyboard-response","134","578763","0.0-4.0-1.0-0.5","t4lesuj3gc8vnvz","prime","5eccd04687671e0133893894","5f60e3c0a3b16e07647b2ff9","5f60eea9609af401bac75e09","false","null","<span style=""color: black; font-size: 48px"">N + M</span>","null","","","","resp_prompt","","","","","","","","","","","","","","","",""
"categorize-image","135","579778","0.0-4.0-1.0-1.5","t4lesuj3gc8vnvz","prime","5eccd04687671e0133893894","5f60e3c0a3b16e07647b2ff9","5f60eea9609af401bac75e09","true","1006.7249999847263","./Stimuli/SelectedImages/LM/LM235.bmp","76","","","","test","true","N + M","76","repetition","LM","LM235.bmp","forget","","54","3","prime1","right","","","",""
"html-keyboard-response","136","581781","0.0-4.0-1.0-3.5","t4lesuj3gc8vnvz","prime","5eccd04687671e0133893894","5f60e3c0a3b16e07647b2ff9","5f60eea9609af401bac75e09","false","null","<div style=""align-items: center; display: flex; color: darkorange; font-size: 90px""><b>ø</b></div>","null","","","","forget_cue","","","","","","","","","","","","","","","",""
"html-keyboard-response","137","582482","0.0-4.0-1.0-0.6","t4lesuj3gc8vnvz","prime","5eccd04687671e0133893894","5f60e3c0a3b16e07647b2ff9","5f60eea9609af401bac75e09","false","null","<span style=""color: black; font-size: 48px"">N + M</span>","null","","","","resp_prompt","","","","","","","","","","","","","","","",""
"categorize-image","138","583541","0.0-4.0-1.0-1.6","t4lesuj3gc8vnvz","prime","5eccd04687671e0133893894","5f60e3c0a3b16e07647b2ff9","5f60eea9609af401bac75e09","true","1051.8800000136252","./Stimuli/SelectedImages/SM/SM73.bmp","76","","","","test","true","N + M","76","switch","SM","SM73.bmp","forget","","55","3","prime1","right","","","",""
"html-keyboard-response","139","585545","0.0-4.0-1.0-3.6","t4lesuj3gc8vnvz","prime","5eccd04687671e0133893894","5f60e3c0a3b16e07647b2ff9","5f60eea9609af401bac75e09","false","null","<div style=""align-items: center; display: flex; color: darkorange; font-size: 90px""><b>ø</b></div>","null","","","","forget_cue","","","","","","","","","","","","","","","",""
"html-keyboard-response","140","586248","0.0-4.0-1.0-0.7","t4lesuj3gc8vnvz","prime","5eccd04687671e0133893894","5f60e3c0a3b16e07647b2ff9","5f60eea9609af401bac75e09","false","null","<span style=""color: black; font-size: 48px"">M + N</span>","null","","","","resp_prompt","","","","","","","","","","","","","","","",""
"categorize-image","141","586809","0.0-4.0-1.0-1.7","t4lesuj3gc8vnvz","prime","5eccd04687671e0133893894","5f60e3c0a3b16e07647b2ff9","5f60eea9609af401bac75e09","true","553.4050000132993","./Stimuli/SelectedImages/LM/LM216.bmp","83","","","","test","true","M + N","83","repetition","LM","LM216.bmp","remember","","56","3","prime1","left","","","",""
"html-keyboard-response","142","588811","0.0-4.0-1.0-3.7","t4lesuj3gc8vnvz","prime","5eccd04687671e0133893894","5f60e3c0a3b16e07647b2ff9","5f60eea9609af401bac75e09","false","null","<div style=""align-items: center; display: flex; color: dodgerblue; font-size: 90px""><b>o</b></div>","null","","","","forget_cue","","","","","","","","","","","","","","","",""
"html-keyboard-response","143","589514","0.0-4.0-1.0-0.8","t4lesuj3gc8vnvz","prime","5eccd04687671e0133893894","5f60e3c0a3b16e07647b2ff9","5f60eea9609af401bac75e09","false","null","<span style=""color: black; font-size: 48px"">M + N</span>","null","","","","resp_prompt","","","","","","","","","","","","","","","",""
"categorize-image","144","590632","0.0-4.0-1.0-1.8","t4lesuj3gc8vnvz","prime","5eccd04687671e0133893894","5f60e3c0a3b16e07647b2ff9","5f60eea9609af401bac75e09","true","1109.8950000014156","./Stimuli/SelectedImages/LN/LN149.bmp","83","","","","test","false","M + N","76","repetition","LN","LN149.bmp","forget","","57","3","prime1","left","","","",""
"html-keyboard-response","145","591136","0.0-4.0-1.0-2.8-0.8","t4lesuj3gc8vnvz","prime","5eccd04687671e0133893894","5f60e3c0a3b16e07647b2ff9","5f60eea9609af401bac75e09","false","null","<span style=""color: red; font-size: 48px"">Error!</span>","null","","","","feedback","","","","","","","","","","","","","","","",""
"html-keyboard-response","146","593138","0.0-4.0-1.0-3.8","t4lesuj3gc8vnvz","prime","5eccd04687671e0133893894","5f60e3c0a3b16e07647b2ff9","5f60eea9609af401bac75e09","false","null","<div style=""align-items: center; display: flex; color: darkorange; font-size: 90px""><b>ø</b></div>","null","","","","forget_cue","","","","","","","","","","","","","","","",""
"html-keyboard-response","147","593841","0.0-4.0-1.0-0.9","t4lesuj3gc8vnvz","prime","5eccd04687671e0133893894","5f60e3c0a3b16e07647b2ff9","5f60eea9609af401bac75e09","false","null","<span style=""color: black; font-size: 48px"">N + M</span>","null","","","","resp_prompt","","","","","","","","","","","","","","","",""
"categorize-image","148","594959","0.0-4.0-1.0-1.9","t4lesuj3gc8vnvz","prime","5eccd04687671e0133893894","5f60e3c0a3b16e07647b2ff9","5f60eea9609af401bac75e09","true","1112.2899999900255","./Stimuli/SelectedImages/LN/LN150.bmp","83","","","","test","true","N + M","83","repetition","LN","LN150.bmp","forget","","58","3","prime1","left","","","",""
"html-keyboard-response","149","596962","0.0-4.0-1.0-3.9","t4lesuj3gc8vnvz","prime","5eccd04687671e0133893894","5f60e3c0a3b16e07647b2ff9","5f60eea9609af401bac75e09","false","null","<div style=""align-items: center; display: flex; color: darkorange; font-size: 90px""><b>ø</b></div>","null","","","","forget_cue","","","","","","","","","","","","","","","",""
"html-keyboard-response","150","597664","0.0-4.0-1.0-0.10","t4lesuj3gc8vnvz","prime","5eccd04687671e0133893894","5f60e3c0a3b16e07647b2ff9","5f60eea9609af401bac75e09","false","null","<span style=""color: black; font-size: 48px"">M + N</span>","null","","","","resp_prompt","","","","","","","","","","","","","","","",""
"categorize-image","151","598351","0.0-4.0-1.0-1.10","t4lesuj3gc8vnvz","prime","5eccd04687671e0133893894","5f60e3c0a3b16e07647b2ff9","5f60eea9609af401bac75e09","true","680.1500000001397","./Stimuli/SelectedImages/LN/LN42.bmp","76","","","","test","true","M + N","76","switch","LN","LN42.bmp","forget","","59","3","prime1","right","","","",""
"html-keyboard-response","152","600355","0.0-4.0-1.0-3.10","t4lesuj3gc8vnvz","prime","5eccd04687671e0133893894","5f60e3c0a3b16e07647b2ff9","5f60eea9609af401bac75e09","false","null","<div style=""align-items: center; display: flex; color: darkorange; font-size: 90px""><b>ø</b></div>","null","","","","forget_cue","","","","","","","","","","","","","","","",""
"html-keyboard-response","153","601059","0.0-4.0-1.0-0.11","t4lesuj3gc8vnvz","prime","5eccd04687671e0133893894","5f60e3c0a3b16e07647b2ff9","5f60eea9609af401bac75e09","false","null","<span style=""color: black; font-size: 48px"">N + M</span>","null","","","","resp_prompt","","","","","","","","","","","","","","","",""
"categorize-image","154","602353","0.0-4.0-1.0-1.11","t4lesuj3gc8vnvz","prime","5eccd04687671e0133893894","5f60e3c0a3b16e07647b2ff9","5f60eea9609af401bac75e09","true","1289.0250000054948","./Stimuli/SelectedImages/SN/SN140.bmp","83","","","","test","true","N + M","83","repetition","SN","SN140.bmp","forget","","60","3","prime1","left","","","",""
"html-keyboard-response","155","604356","0.0-4.0-1.0-3.11","t4lesuj3gc8vnvz","prime","5eccd04687671e0133893894","5f60e3c0a3b16e07647b2ff9","5f60eea9609af401bac75e09","false","null","<div style=""align-items: center; display: flex; color: darkorange; font-size: 90px""><b>ø</b></div>","null","","","","forget_cue","","","","","","","","","","","","","","","",""
"html-keyboard-response","156","605059","0.0-4.0-1.0-0.12","t4lesuj3gc8vnvz","prime","5eccd04687671e0133893894","5f60e3c0a3b16e07647b2ff9","5f60eea9609af401bac75e09","false","null","<span style=""color: black; font-size: 48px"">N + M</span>","null","","","","resp_prompt","","","","","","","","","","","","","","","",""
"categorize-image","157","606322","0.0-4.0-1.0-1.12","t4lesuj3gc8vnvz","prime","5eccd04687671e0133893894","5f60e3c0a3b16e07647b2ff9","5f60eea9609af401bac75e09","true","1253.805000014836","./Stimuli/SelectedImages/LN/LN28.bmp","83","","","","test","true","N + M","83","switch","LN","LN28.bmp","remember","","61","3","prime1","left","","","",""
"html-keyboard-response","158","608325","0.0-4.0-1.0-3.12","t4lesuj3gc8vnvz","prime","5eccd04687671e0133893894","5f60e3c0a3b16e07647b2ff9","5f60eea9609af401bac75e09","false","null","<div style=""align-items: center; display: flex; color: dodgerblue; font-size: 90px""><b>o</b></div>","null","","","","forget_cue","","","","","","","","","","","","","","","",""
"html-keyboard-response","159","609028","0.0-4.0-1.0-0.13","t4lesuj3gc8vnvz","prime","5eccd04687671e0133893894","5f60e3c0a3b16e07647b2ff9","5f60eea9609af401bac75e09","false","null","<span style=""color: black; font-size: 48px"">N + M</span>","null","","","","resp_prompt","","","","","","","","","","","","","","","",""
"categorize-image","160","609739","0.0-4.0-1.0-1.13","t4lesuj3gc8vnvz","prime","5eccd04687671e0133893894","5f60e3c0a3b16e07647b2ff9","5f60eea9609af401bac75e09","true","703.3050000027288","./Stimuli/SelectedImages/SM/SM148.bmp","76","","","","test","true","N + M","76","repetition","SM","SM148.bmp","forget","","62","3","prime1","right","","","",""
"html-keyboard-response","161","611742","0.0-4.0-1.0-3.13","t4lesuj3gc8vnvz","prime","5eccd04687671e0133893894","5f60e3c0a3b16e07647b2ff9","5f60eea9609af401bac75e09","false","null","<div style=""align-items: center; display: flex; color: darkorange; font-size: 90px""><b>ø</b></div>","null","","","","forget_cue","","","","","","","","","","","","","","","",""
"html-keyboard-response","162","612444","0.0-4.0-1.0-0.14","t4lesuj3gc8vnvz","prime","5eccd04687671e0133893894","5f60e3c0a3b16e07647b2ff9","5f60eea9609af401bac75e09","false","null","<span style=""color: black; font-size: 48px"">N + M</span>","null","","","","resp_prompt","","","","","","","","","","","","","","","",""
"categorize-image","163","613191","0.0-4.0-1.0-1.14","t4lesuj3gc8vnvz","prime","5eccd04687671e0133893894","5f60e3c0a3b16e07647b2ff9","5f60eea9609af401bac75e09","true","738.9449999900535","./Stimuli/SelectedImages/LM/LM209.bmp","76","","","","test","true","N + M","76","repetition","LM","LM209.bmp","remember","","63","3","prime1","right","","","",""
"html-keyboard-response","164","615193","0.0-4.0-1.0-3.14","t4lesuj3gc8vnvz","prime","5eccd04687671e0133893894","5f60e3c0a3b16e07647b2ff9","5f60eea9609af401bac75e09","false","null","<div style=""align-items: center; display: flex; color: dodgerblue; font-size: 90px""><b>o</b></div>","null","","","","forget_cue","","","","","","","","","","","","","","","",""
"html-keyboard-response","165","615895","0.0-4.0-1.0-0.15","t4lesuj3gc8vnvz","prime","5eccd04687671e0133893894","5f60e3c0a3b16e07647b2ff9","5f60eea9609af401bac75e09","false","null","<span style=""color: black; font-size: 48px"">M + N</span>","null","","","","resp_prompt","","","","","","","","","","","","","","","",""
"categorize-image","166","616493","0.0-4.0-1.0-1.15","t4lesuj3gc8vnvz","prime","5eccd04687671e0133893894","5f60e3c0a3b16e07647b2ff9","5f60eea9609af401bac75e09","true","590.9900000260677","./Stimuli/SelectedImages/SN/SN187.bmp","76","","","","test","true","M + N","76","switch","SN","SN187.bmp","forget","","64","3","prime1","right","","","",""
"html-keyboard-response","167","618495","0.0-4.0-1.0-3.15","t4lesuj3gc8vnvz","prime","5eccd04687671e0133893894","5f60e3c0a3b16e07647b2ff9","5f60eea9609af401bac75e09","false","null","<div style=""align-items: center; display: flex; color: darkorange; font-size: 90px""><b>ø</b></div>","null","","","","forget_cue","","","","","","","","","","","","","","","",""
"html-keyboard-response","168","619198","0.0-4.0-1.0-0.16","t4lesuj3gc8vnvz","prime","5eccd04687671e0133893894","5f60e3c0a3b16e07647b2ff9","5f60eea9609af401bac75e09","false","null","<span style=""color: black; font-size: 48px"">N + M</span>","null","","","","resp_prompt","","","","","","","","","","","","","","","",""
"categorize-image","169","619881","0.0-4.0-1.0-1.16","t4lesuj3gc8vnvz","prime","5eccd04687671e0133893894","5f60e3c0a3b16e07647b2ff9","5f60eea9609af401bac75e09","true","673.6050000181422","./Stimuli/SelectedImages/LM/LM103.bmp","76","","","","test","true","N + M","76","repetition","LM","LM103.bmp","forget","","65","3","prime1","right","","","",""
"html-keyboard-response","170","621887","0.0-4.0-1.0-3.16","t4lesuj3gc8vnvz","prime","5eccd04687671e0133893894","5f60e3c0a3b16e07647b2ff9","5f60eea9609af401bac75e09","false","null","<div style=""align-items: center; display: flex; color: darkorange; font-size: 90px""><b>ø</b></div>","null","","","","forget_cue","","","","","","","","","","","","","","","",""
"html-keyboard-response","171","622591","0.0-4.0-1.0-0.17","t4lesuj3gc8vnvz","prime","5eccd04687671e0133893894","5f60e3c0a3b16e07647b2ff9","5f60eea9609af401bac75e09","false","null","<span style=""color: black; font-size: 48px"">N + M</span>","null","","","","resp_prompt","","","","","","","","","","","","","","","",""
"categorize-image","172","623173","0.0-4.0-1.0-1.17","t4lesuj3gc8vnvz","prime","5eccd04687671e0133893894","5f60e3c0a3b16e07647b2ff9","5f60eea9609af401bac75e09","true","573.9799999864772","./Stimuli/SelectedImages/LM/LM157.bmp","76","","","","test","true","N + M","76","switch","LM","LM157.bmp","remember","","66","3","prime1","right","","","",""
"html-keyboard-response","173","625176","0.0-4.0-1.0-3.17","t4lesuj3gc8vnvz","prime","5eccd04687671e0133893894","5f60e3c0a3b16e07647b2ff9","5f60eea9609af401bac75e09","false","null","<div style=""align-items: center; display: flex; color: dodgerblue; font-size: 90px""><b>o</b></div>","null","","","","forget_cue","","","","","","","","","","","","","","","",""
"html-keyboard-response","174","625878","0.0-4.0-1.0-0.18","t4lesuj3gc8vnvz","prime","5eccd04687671e0133893894","5f60e3c0a3b16e07647b2ff9","5f60eea9609af401bac75e09","false","null","<span style=""color: black; font-size: 48px"">M + N</span>","null","","","","resp_prompt","","","","","","","","","","","","","","","",""
"categorize-image","175","626611","0.0-4.0-1.0-1.18","t4lesuj3gc8vnvz","prime","5eccd04687671e0133893894","5f60e3c0a3b16e07647b2ff9","5f60eea9609af401bac75e09","true","726.92499999539","./Stimuli/SelectedImages/LM/LM150.bmp","83","","","","test","true","M + N","83","switch","LM","LM150.bmp","remember","","67","3","prime1","left","","","",""
"html-keyboard-response","176","628614","0.0-4.0-1.0-3.18","t4lesuj3gc8vnvz","prime","5eccd04687671e0133893894","5f60e3c0a3b16e07647b2ff9","5f60eea9609af401bac75e09","false","null","<div style=""align-items: center; display: flex; color: dodgerblue; font-size: 90px""><b>o</b></div>","null","","","","forget_cue","","","","","","","","","","","","","","","",""
"html-keyboard-response","177","629316","0.0-4.0-1.0-0.19","t4lesuj3gc8vnvz","prime","5eccd04687671e0133893894","5f60e3c0a3b16e07647b2ff9","5f60eea9609af401bac75e09","false","null","<span style=""color: black; font-size: 48px"">M + N</span>","null","","","","resp_prompt","","","","","","","","","","","","","","","",""
"categorize-image","178","629956","0.0-4.0-1.0-1.19","t4lesuj3gc8vnvz","prime","5eccd04687671e0133893894","5f60e3c0a3b16e07647b2ff9","5f60eea9609af401bac75e09","true","634.39500000095","./Stimuli/SelectedImages/SN/SN27.bmp","76","","","","test","true","M + N","76","switch","SN","SN27.bmp","remember","","68","3","prime1","right","","","",""
"html-keyboard-response","179","631958","0.0-4.0-1.0-3.19","t4lesuj3gc8vnvz","prime","5eccd04687671e0133893894","5f60e3c0a3b16e07647b2ff9","5f60eea9609af401bac75e09","false","null","<div style=""align-items: center; display: flex; color: dodgerblue; font-size: 90px""><b>o</b></div>","null","","","","forget_cue","","","","","","","","","","","","","","","",""
"html-keyboard-response","180","632661","0.0-4.0-1.0-0.20","t4lesuj3gc8vnvz","prime","5eccd04687671e0133893894","5f60e3c0a3b16e07647b2ff9","5f60eea9609af401bac75e09","false","null","<span style=""color: black; font-size: 48px"">M + N</span>","null","","","","resp_prompt","","","","","","","","","","","","","","","",""
"categorize-image","181","633346","0.0-4.0-1.0-1.20","t4lesuj3gc8vnvz","prime","5eccd04687671e0133893894","5f60e3c0a3b16e07647b2ff9","5f60eea9609af401bac75e09","true","677.5550000020303","./Stimuli/SelectedImages/SN/SN240.bmp","76","","","","test","true","M + N","76","repetition","SN","SN240.bmp","forget","","69","3","prime1","right","","","",""
"html-keyboard-response","182","635349","0.0-4.0-1.0-3.20","t4lesuj3gc8vnvz","prime","5eccd04687671e0133893894","5f60e3c0a3b16e07647b2ff9","5f60eea9609af401bac75e09","false","null","<div style=""align-items: center; display: flex; color: darkorange; font-size: 90px""><b>ø</b></div>","null","","","","forget_cue","","","","","","","","","","","","","","","",""
"html-keyboard-response","183","636052","0.0-4.0-1.0-0.21","t4lesuj3gc8vnvz","prime","5eccd04687671e0133893894","5f60e3c0a3b16e07647b2ff9","5f60eea9609af401bac75e09","false","null","<span style=""color: black; font-size: 48px"">M + N</span>","null","","","","resp_prompt","","","","","","","","","","","","","","","",""
"categorize-image","184","636685","0.0-4.0-1.0-1.21","t4lesuj3gc8vnvz","prime","5eccd04687671e0133893894","5f60e3c0a3b16e07647b2ff9","5f60eea9609af401bac75e09","true","625.5250000103842","./Stimuli/SelectedImages/LN/LN92.bmp","76","","","","test","true","M + N","76","repetition","LN","LN92.bmp","remember","","70","3","prime1","right","","","",""
"html-keyboard-response","185","638689","0.0-4.0-1.0-3.21","t4lesuj3gc8vnvz","prime","5eccd04687671e0133893894","5f60e3c0a3b16e07647b2ff9","5f60eea9609af401bac75e09","false","null","<div style=""align-items: center; display: flex; color: dodgerblue; font-size: 90px""><b>o</b></div>","null","","","","forget_cue","","","","","","","","","","","","","","","",""
"html-keyboard-response","186","639392","0.0-4.0-1.0-0.22","t4lesuj3gc8vnvz","prime","5eccd04687671e0133893894","5f60e3c0a3b16e07647b2ff9","5f60eea9609af401bac75e09","false","null","<span style=""color: black; font-size: 48px"">M + N</span>","null","","","","resp_prompt","","","","","","","","","","","","","","","",""
"categorize-image","187","640770","0.0-4.0-1.0-1.22","t4lesuj3gc8vnvz","prime","5eccd04687671e0133893894","5f60e3c0a3b16e07647b2ff9","5f60eea9609af401bac75e09","true","1371.4349999791011","./Stimuli/SelectedImages/LN/LN82.bmp","76","","","","test","true","M + N","76","switch","LN","LN82.bmp","forget","","71","3","prime1","right","","","",""
"html-keyboard-response","188","642773","0.0-4.0-1.0-3.22","t4lesuj3gc8vnvz","prime","5eccd04687671e0133893894","5f60e3c0a3b16e07647b2ff9","5f60eea9609af401bac75e09","false","null","<div style=""align-items: center; display: flex; color: darkorange; font-size: 90px""><b>ø</b></div>","null","","","","forget_cue","","","","","","","","","","","","","","","",""
"html-keyboard-response","189","643476","0.0-4.0-1.0-0.23","t4lesuj3gc8vnvz","prime","5eccd04687671e0133893894","5f60e3c0a3b16e07647b2ff9","5f60eea9609af401bac75e09","false","null","<span style=""color: black; font-size: 48px"">N + M</span>","null","","","","resp_prompt","","","","","","","","","","","","","","","",""
"categorize-image","190","644090","0.0-4.0-1.0-1.23","t4lesuj3gc8vnvz","prime","5eccd04687671e0133893894","5f60e3c0a3b16e07647b2ff9","5f60eea9609af401bac75e09","true","607.4849999858998","./Stimuli/SelectedImages/LM/LM179.bmp","83","","","","test","false","N + M","76","repetition","LM","LM179.bmp","remember","","72","3","prime1","left","","","",""
"html-keyboard-response","191","644593","0.0-4.0-1.0-2.23-0.23","t4lesuj3gc8vnvz","prime","5eccd04687671e0133893894","5f60e3c0a3b16e07647b2ff9","5f60eea9609af401bac75e09","false","null","<span style=""color: red; font-size: 48px"">Error!</span>","null","","","","feedback","","","","","","","","","","","","","","","",""
"html-keyboard-response","192","646595","0.0-4.0-1.0-3.23","t4lesuj3gc8vnvz","prime","5eccd04687671e0133893894","5f60e3c0a3b16e07647b2ff9","5f60eea9609af401bac75e09","false","null","<div style=""align-items: center; display: flex; color: dodgerblue; font-size: 90px""><b>o</b></div>","null","","","","forget_cue","","","","","","","","","","","","","","","",""
"html-keyboard-response","193","647298","0.0-4.0-1.0-0.24","t4lesuj3gc8vnvz","prime","5eccd04687671e0133893894","5f60e3c0a3b16e07647b2ff9","5f60eea9609af401bac75e09","false","null","<span style=""color: black; font-size: 48px"">M + N</span>","null","","","","resp_prompt","","","","","","","","","","","","","","","",""
"categorize-image","194","647970","0.0-4.0-1.0-1.24","t4lesuj3gc8vnvz","prime","5eccd04687671e0133893894","5f60e3c0a3b16e07647b2ff9","5f60eea9609af401bac75e09","true","664.8449999920558","./Stimuli/SelectedImages/SM/SM195.bmp","83","","","","test","true","M + N","83","repetition","SM","SM195.bmp","remember","","73","3","prime1","left","","","",""
"html-keyboard-response","195","649973","0.0-4.0-1.0-3.24","t4lesuj3gc8vnvz","prime","5eccd04687671e0133893894","5f60e3c0a3b16e07647b2ff9","5f60eea9609af401bac75e09","false","null","<div style=""align-items: center; display: flex; color: dodgerblue; font-size: 90px""><b>o</b></div>","null","","","","forget_cue","","","","","","","","","","","","","","","",""
"html-keyboard-response","196","650676","0.0-4.0-1.0-0.25","t4lesuj3gc8vnvz","prime","5eccd04687671e0133893894","5f60e3c0a3b16e07647b2ff9","5f60eea9609af401bac75e09","false","null","<span style=""color: black; font-size: 48px"">M + N</span>","null","","","","resp_prompt","","","","","","","","","","","","","","","",""
"categorize-image","197","651492","0.0-4.0-1.0-1.25","t4lesuj3gc8vnvz","prime","5eccd04687671e0133893894","5f60e3c0a3b16e07647b2ff9","5f60eea9609af401bac75e09","true","808.6950000142679","./Stimuli/SelectedImages/LM/LM75.bmp","83","","","","test","true","M + N","83","switch","LM","LM75.bmp","remember","","74","3","prime1","left","","","",""
"html-keyboard-response","198","653495","0.0-4.0-1.0-3.25","t4lesuj3gc8vnvz","prime","5eccd04687671e0133893894","5f60e3c0a3b16e07647b2ff9","5f60eea9609af401bac75e09","false","null","<div style=""align-items: center; display: flex; color: dodgerblue; font-size: 90px""><b>o</b></div>","null","","","","forget_cue","","","","","","","","","","","","","","","",""
"html-keyboard-response","199","654198","0.0-4.0-1.0-0.26","t4lesuj3gc8vnvz","prime","5eccd04687671e0133893894","5f60e3c0a3b16e07647b2ff9","5f60eea9609af401bac75e09","false","null","<span style=""color: black; font-size: 48px"">N + M</span>","null","","","","resp_prompt","","","","","","","","","","","","","","","",""
"categorize-image","200","655065","0.0-4.0-1.0-1.26","t4lesuj3gc8vnvz","prime","5eccd04687671e0133893894","5f60e3c0a3b16e07647b2ff9","5f60eea9609af401bac75e09","true","859.889999992447","./Stimuli/SelectedImages/SM/SM184.bmp","76","","","","test","true","N + M","76","switch","SM","SM184.bmp","remember","","75","3","prime1","right","","","",""
"html-keyboard-response","201","657068","0.0-4.0-1.0-3.26","t4lesuj3gc8vnvz","prime","5eccd04687671e0133893894","5f60e3c0a3b16e07647b2ff9","5f60eea9609af401bac75e09","false","null","<div style=""align-items: center; display: flex; color: dodgerblue; font-size: 90px""><b>o</b></div>","null","","","","forget_cue","","","","","","","","","","","","","","","",""
"html-keyboard-response","202","657771","0.0-4.0-1.0-0.27","t4lesuj3gc8vnvz","prime","5eccd04687671e0133893894","5f60e3c0a3b16e07647b2ff9","5f60eea9609af401bac75e09","false","null","<span style=""color: black; font-size: 48px"">N + M</span>","null","","","","resp_prompt","","","","","","","","","","","","","","","",""
"categorize-image","203","658456","0.0-4.0-1.0-1.27","t4lesuj3gc8vnvz","prime","5eccd04687671e0133893894","5f60e3c0a3b16e07647b2ff9","5f60eea9609af401bac75e09","true","677.945000003092","./Stimuli/SelectedImages/SM/SM17.bmp","76","","","","test","true","N + M","76","switch","SM","SM17.bmp","remember","","76","3","prime1","right","","","",""
"html-keyboard-response","204","660458","0.0-4.0-1.0-3.27","t4lesuj3gc8vnvz","prime","5eccd04687671e0133893894","5f60e3c0a3b16e07647b2ff9","5f60eea9609af401bac75e09","false","null","<div style=""align-items: center; display: flex; color: dodgerblue; font-size: 90px""><b>o</b></div>","null","","","","forget_cue","","","","","","","","","","","","","","","",""
"html-keyboard-response","205","661160","0.0-4.0-1.0-0.28","t4lesuj3gc8vnvz","prime","5eccd04687671e0133893894","5f60e3c0a3b16e07647b2ff9","5f60eea9609af401bac75e09","false","null","<span style=""color: black; font-size: 48px"">N + M</span>","null","","","","resp_prompt","","","","","","","","","","","","","","","",""
"categorize-image","206","661769","0.0-4.0-1.0-1.28","t4lesuj3gc8vnvz","prime","5eccd04687671e0133893894","5f60e3c0a3b16e07647b2ff9","5f60eea9609af401bac75e09","true","602.2449999873061","./Stimuli/SelectedImages/SM/SM76.bmp","76","","","","test","true","N + M","76","repetition","SM","SM76.bmp","remember","","77","3","prime1","right","","","",""
"html-keyboard-response","207","663772","0.0-4.0-1.0-3.28","t4lesuj3gc8vnvz","prime","5eccd04687671e0133893894","5f60e3c0a3b16e07647b2ff9","5f60eea9609af401bac75e09","false","null","<div style=""align-items: center; display: flex; color: dodgerblue; font-size: 90px""><b>o</b></div>","null","","","","forget_cue","","","","","","","","","","","","","","","",""
"html-keyboard-response","208","664475","0.0-4.0-1.0-0.29","t4lesuj3gc8vnvz","prime","5eccd04687671e0133893894","5f60e3c0a3b16e07647b2ff9","5f60eea9609af401bac75e09","false","null","<span style=""color: black; font-size: 48px"">M + N</span>","null","","","","resp_prompt","","","","","","","","","","","","","","","",""
"categorize-image","209","665175","0.0-4.0-1.0-1.29","t4lesuj3gc8vnvz","prime","5eccd04687671e0133893894","5f60e3c0a3b16e07647b2ff9","5f60eea9609af401bac75e09","true","692.3850000021048","./Stimuli/SelectedImages/SN/SN111.bmp","83","","","","test","false","M + N","76","repetition","SN","SN111.bmp","remember","","78","3","prime1","left","","","",""
"html-keyboard-response","210","665678","0.0-4.0-1.0-2.29-0.29","t4lesuj3gc8vnvz","prime","5eccd04687671e0133893894","5f60e3c0a3b16e07647b2ff9","5f60eea9609af401bac75e09","false","null","<span style=""color: red; font-size: 48px"">Error!</span>","null","","","","feedback","","","","","","","","","","","","","","","",""
"html-keyboard-response","211","667682","0.0-4.0-1.0-3.29","t4lesuj3gc8vnvz","prime","5eccd04687671e0133893894","5f60e3c0a3b16e07647b2ff9","5f60eea9609af401bac75e09","false","null","<div style=""align-items: center; display: flex; color: dodgerblue; font-size: 90px""><b>o</b></div>","null","","","","forget_cue","","","","","","","","","","","","","","","",""
"html-keyboard-response","212","668385","0.0-4.0-1.0-0.30","t4lesuj3gc8vnvz","prime","5eccd04687671e0133893894","5f60e3c0a3b16e07647b2ff9","5f60eea9609af401bac75e09","false","null","<span style=""color: black; font-size: 48px"">N + M</span>","null","","","","resp_prompt","","","","","","","","","","","","","","","",""
"categorize-image","213","669532","0.0-4.0-1.0-1.30","t4lesuj3gc8vnvz","prime","5eccd04687671e0133893894","5f60e3c0a3b16e07647b2ff9","5f60eea9609af401bac75e09","true","1139.9200000159908","./Stimuli/SelectedImages/SN/SN179.bmp","83","","","","test","true","N + M","83","switch","SN","SN179.bmp","remember","","79","3","prime1","left","","","",""
"html-keyboard-response","214","671535","0.0-4.0-1.0-3.30","t4lesuj3gc8vnvz","prime","5eccd04687671e0133893894","5f60e3c0a3b16e07647b2ff9","5f60eea9609af401bac75e09","false","null","<div style=""align-items: center; display: flex; color: dodgerblue; font-size: 90px""><b>o</b></div>","null","","","","forget_cue","","","","","","","","","","","","","","","",""
"html-keyboard-response","215","672238","0.0-4.0-1.0-0.31","t4lesuj3gc8vnvz","prime","5eccd04687671e0133893894","5f60e3c0a3b16e07647b2ff9","5f60eea9609af401bac75e09","false","null","<span style=""color: black; font-size: 48px"">N + M</span>","null","","","","resp_prompt","","","","","","","","","","","","","","","",""
"categorize-image","216","672826","0.0-4.0-1.0-1.31","t4lesuj3gc8vnvz","prime","5eccd04687671e0133893894","5f60e3c0a3b16e07647b2ff9","5f60eea9609af401bac75e09","true","581.6800000029616","./Stimuli/SelectedImages/SM/SM207.bmp","76","","","","test","true","N + M","76","repetition","SM","SM207.bmp","forget","","80","3","prime1","right","","","",""
"html-keyboard-response","217","674830","0.0-4.0-1.0-3.31","t4lesuj3gc8vnvz","prime","5eccd04687671e0133893894","5f60e3c0a3b16e07647b2ff9","5f60eea9609af401bac75e09","false","null","<div style=""align-items: center; display: flex; color: darkorange; font-size: 90px""><b>ø</b></div>","null","","","","forget_cue","","","","","","","","","","","","","","","",""
"html-keyboard-response","218","675533","0.0-4.0-1.0-0.32","t4lesuj3gc8vnvz","prime","5eccd04687671e0133893894","5f60e3c0a3b16e07647b2ff9","5f60eea9609af401bac75e09","false","null","<span style=""color: black; font-size: 48px"">M + N</span>","null","","","","resp_prompt","","","","","","","","","","","","","","","",""
"categorize-image","219","676184","0.0-4.0-1.0-1.32","t4lesuj3gc8vnvz","prime","5eccd04687671e0133893894","5f60e3c0a3b16e07647b2ff9","5f60eea9609af401bac75e09","true","643.7300000106916","./Stimuli/SelectedImages/SN/SN93.bmp","76","","","","test","true","M + N","76","switch","SN","SN93.bmp","forget","","81","3","prime1","right","","","",""
"html-keyboard-response","220","678186","0.0-4.0-1.0-3.32","t4lesuj3gc8vnvz","prime","5eccd04687671e0133893894","5f60e3c0a3b16e07647b2ff9","5f60eea9609af401bac75e09","false","null","<div style=""align-items: center; display: flex; color: darkorange; font-size: 90px""><b>ø</b></div>","null","","","","forget_cue","","","","","","","","","","","","","","","",""
"html-keyboard-response","221","678889","0.0-4.0-1.0-0.33","t4lesuj3gc8vnvz","prime","5eccd04687671e0133893894","5f60e3c0a3b16e07647b2ff9","5f60eea9609af401bac75e09","false","null","<span style=""color: black; font-size: 48px"">N + M</span>","null","","","","resp_prompt","","","","","","","","","","","","","","","",""
"categorize-image","222","679517","0.0-4.0-1.0-1.33","t4lesuj3gc8vnvz","prime","5eccd04687671e0133893894","5f60e3c0a3b16e07647b2ff9","5f60eea9609af401bac75e09","true","620.2249999914784","./Stimuli/SelectedImages/SN/SN182.bmp","83","","","","test","true","N + M","83","switch","SN","SN182.bmp","remember","","82","3","prime1","left","","","",""
"html-keyboard-response","223","681520","0.0-4.0-1.0-3.33","t4lesuj3gc8vnvz","prime","5eccd04687671e0133893894","5f60e3c0a3b16e07647b2ff9","5f60eea9609af401bac75e09","false","null","<div style=""align-items: center; display: flex; color: dodgerblue; font-size: 90px""><b>o</b></div>","null","","","","forget_cue","","","","","","","","","","","","","","","",""
"html-keyboard-response","224","682223","0.0-4.0-1.0-0.34","t4lesuj3gc8vnvz","prime","5eccd04687671e0133893894","5f60e3c0a3b16e07647b2ff9","5f60eea9609af401bac75e09","false","null","<span style=""color: black; font-size: 48px"">N + M</span>","null","","","","resp_prompt","","","","","","","","","","","","","","","",""
"categorize-image","225","682939","0.0-4.0-1.0-1.34","t4lesuj3gc8vnvz","prime","5eccd04687671e0133893894","5f60e3c0a3b16e07647b2ff9","5f60eea9609af401bac75e09","true","709.7699999867473","./Stimuli/SelectedImages/LM/LM48.bmp","76","","","","test","true","N + M","76","switch","LM","LM48.bmp","forget","","83","3","prime1","right","","","",""
"html-keyboard-response","226","684942","0.0-4.0-1.0-3.34","t4lesuj3gc8vnvz","prime","5eccd04687671e0133893894","5f60e3c0a3b16e07647b2ff9","5f60eea9609af401bac75e09","false","null","<div style=""align-items: center; display: flex; color: darkorange; font-size: 90px""><b>ø</b></div>","null","","","","forget_cue","","","","","","","","","","","","","","","",""
"html-keyboard-response","227","685645","0.0-4.0-1.0-0.35","t4lesuj3gc8vnvz","prime","5eccd04687671e0133893894","5f60e3c0a3b16e07647b2ff9","5f60eea9609af401bac75e09","false","null","<span style=""color: black; font-size: 48px"">M + N</span>","null","","","","resp_prompt","","","","","","","","","","","","","","","",""
"categorize-image","228","686175","0.0-4.0-1.0-1.35","t4lesuj3gc8vnvz","prime","5eccd04687671e0133893894","5f60e3c0a3b16e07647b2ff9","5f60eea9609af401bac75e09","true","522.7149999991525","./Stimuli/SelectedImages/SM/SM78.bmp","83","","","","test","true","M + N","83","switch","SM","SM78.bmp","forget","","84","3","prime1","left","","","",""
"html-keyboard-response","229","688177","0.0-4.0-1.0-3.35","t4lesuj3gc8vnvz","prime","5eccd04687671e0133893894","5f60e3c0a3b16e07647b2ff9","5f60eea9609af401bac75e09","false","null","<div style=""align-items: center; display: flex; color: darkorange; font-size: 90px""><b>ø</b></div>","null","","","","forget_cue","","","","","","","","","","","","","","","",""
"html-keyboard-response","230","688879","0.0-4.0-1.0-0.36","t4lesuj3gc8vnvz","prime","5eccd04687671e0133893894","5f60e3c0a3b16e07647b2ff9","5f60eea9609af401bac75e09","false","null","<span style=""color: black; font-size: 48px"">N + M</span>","null","","","","resp_prompt","","","","","","","","","","","","","","","",""
"categorize-image","231","689592","0.0-4.0-1.0-1.36","t4lesuj3gc8vnvz","prime","5eccd04687671e0133893894","5f60e3c0a3b16e07647b2ff9","5f60eea9609af401bac75e09","true","706.3450000132434","./Stimuli/SelectedImages/SN/SN18.bmp","83","","","","test","true","N + M","83","switch","SN","SN18.bmp","forget","","85","3","prime1","left","","","",""
"html-keyboard-response","232","691596","0.0-4.0-1.0-3.36","t4lesuj3gc8vnvz","prime","5eccd04687671e0133893894","5f60e3c0a3b16e07647b2ff9","5f60eea9609af401bac75e09","false","null","<div style=""align-items: center; display: flex; color: darkorange; font-size: 90px""><b>ø</b></div>","null","","","","forget_cue","","","","","","","","","","","","","","","",""
"html-keyboard-response","233","692299","0.0-4.0-1.0-0.37","t4lesuj3gc8vnvz","prime","5eccd04687671e0133893894","5f60e3c0a3b16e07647b2ff9","5f60eea9609af401bac75e09","false","null","<span style=""color: black; font-size: 48px"">N + M</span>","null","","","","resp_prompt","","","","","","","","","","","","","","","",""
"categorize-image","234","692776","0.0-4.0-1.0-1.37","t4lesuj3gc8vnvz","prime","5eccd04687671e0133893894","5f60e3c0a3b16e07647b2ff9","5f60eea9609af401bac75e09","true","469.63499998673797","./Stimuli/SelectedImages/LM/LM167.bmp","76","","","","test","true","N + M","76","switch","LM","LM167.bmp","remember","","86","3","prime1","right","","","",""
"html-keyboard-response","235","694778","0.0-4.0-1.0-3.37","t4lesuj3gc8vnvz","prime","5eccd04687671e0133893894","5f60e3c0a3b16e07647b2ff9","5f60eea9609af401bac75e09","false","null","<div style=""align-items: center; display: flex; color: dodgerblue; font-size: 90px""><b>o</b></div>","null","","","","forget_cue","","","","","","","","","","","","","","","",""
"html-keyboard-response","236","695481","0.0-4.0-1.0-0.38","t4lesuj3gc8vnvz","prime","5eccd04687671e0133893894","5f60e3c0a3b16e07647b2ff9","5f60eea9609af401bac75e09","false","null","<span style=""color: black; font-size: 48px"">M + N</span>","null","","","","resp_prompt","","","","","","","","","","","","","","","",""
"categorize-image","237","696102","0.0-4.0-1.0-1.38","t4lesuj3gc8vnvz","prime","5eccd04687671e0133893894","5f60e3c0a3b16e07647b2ff9","5f60eea9609af401bac75e09","true","614.6900000167079","./Stimuli/SelectedImages/SM/SM128.bmp","83","","","","test","true","M + N","83","switch","SM","SM128.bmp","remember","","87","3","prime1","left","","","",""
"html-keyboard-response","238","698105","0.0-4.0-1.0-3.38","t4lesuj3gc8vnvz","prime","5eccd04687671e0133893894","5f60e3c0a3b16e07647b2ff9","5f60eea9609af401bac75e09","false","null","<div style=""align-items: center; display: flex; color: dodgerblue; font-size: 90px""><b>o</b></div>","null","","","","forget_cue","","","","","","","","","","","","","","","",""
"html-keyboard-response","239","698807","0.0-4.0-1.0-0.39","t4lesuj3gc8vnvz","prime","5eccd04687671e0133893894","5f60e3c0a3b16e07647b2ff9","5f60eea9609af401bac75e09","false","null","<span style=""color: black; font-size: 48px"">M + N</span>","null","","","","resp_prompt","","","","","","","","","","","","","","","",""
"categorize-image","240","699398","0.0-4.0-1.0-1.39","t4lesuj3gc8vnvz","prime","5eccd04687671e0133893894","5f60e3c0a3b16e07647b2ff9","5f60eea9609af401bac75e09","true","584.0150000003632","./Stimuli/SelectedImages/LN/LN101.bmp","76","","","","test","true","M + N","76","repetition","LN","LN101.bmp","forget","","88","3","prime1","right","","","",""
"html-keyboard-response","241","701402","0.0-4.0-1.0-3.39","t4lesuj3gc8vnvz","prime","5eccd04687671e0133893894","5f60e3c0a3b16e07647b2ff9","5f60eea9609af401bac75e09","false","null","<div style=""align-items: center; display: flex; color: darkorange; font-size: 90px""><b>ø</b></div>","null","","","","forget_cue","","","","","","","","","","","","","","","",""
"html-keyboard-response","242","702105","0.0-4.0-1.0-0.40","t4lesuj3gc8vnvz","prime","5eccd04687671e0133893894","5f60e3c0a3b16e07647b2ff9","5f60eea9609af401bac75e09","false","null","<span style=""color: black; font-size: 48px"">N + M</span>","null","","","","resp_prompt","","","","","","","","","","","","","","","",""
"categorize-image","243","702669","0.0-4.0-1.0-1.40","t4lesuj3gc8vnvz","prime","5eccd04687671e0133893894","5f60e3c0a3b16e07647b2ff9","5f60eea9609af401bac75e09","true","556.7949999822304","./Stimuli/SelectedImages/SN/SN128.bmp","83","","","","test","true","N + M","83","repetition","SN","SN128.bmp","forget","","89","3","prime1","left","","","",""
"html-keyboard-response","244","704672","0.0-4.0-1.0-3.40","t4lesuj3gc8vnvz","prime","5eccd04687671e0133893894","5f60e3c0a3b16e07647b2ff9","5f60eea9609af401bac75e09","false","null","<div style=""align-items: center; display: flex; color: darkorange; font-size: 90px""><b>ø</b></div>","null","","","","forget_cue","","","","","","","","","","","","","","","",""
"html-keyboard-response","245","705375","0.0-4.0-1.0-0.41","t4lesuj3gc8vnvz","prime","5eccd04687671e0133893894","5f60e3c0a3b16e07647b2ff9","5f60eea9609af401bac75e09","false","null","<span style=""color: black; font-size: 48px"">M + N</span>","null","","","","resp_prompt","","","","","","","","","","","","","","","",""
"categorize-image","246","706236","0.0-4.0-1.0-1.41","t4lesuj3gc8vnvz","prime","5eccd04687671e0133893894","5f60e3c0a3b16e07647b2ff9","5f60eea9609af401bac75e09","true","855.2449999842793","./Stimuli/SelectedImages/LN/LN128.bmp","76","","","","test","true","M + N","76","switch","LN","LN128.bmp","remember","","90","3","prime1","right","","","",""
"html-keyboard-response","247","708239","0.0-4.0-1.0-3.41","t4lesuj3gc8vnvz","prime","5eccd04687671e0133893894","5f60e3c0a3b16e07647b2ff9","5f60eea9609af401bac75e09","false","null","<div style=""align-items: center; display: flex; color: dodgerblue; font-size: 90px""><b>o</b></div>","null","","","","forget_cue","","","","","","","","","","","","","","","",""
"html-keyboard-response","248","708943","0.0-4.0-1.0-0.42","t4lesuj3gc8vnvz","prime","5eccd04687671e0133893894","5f60e3c0a3b16e07647b2ff9","5f60eea9609af401bac75e09","false","null","<span style=""color: black; font-size: 48px"">M + N</span>","null","","","","resp_prompt","","","","","","","","","","","","","","","",""
"categorize-image","249","709603","0.0-4.0-1.0-1.42","t4lesuj3gc8vnvz","prime","5eccd04687671e0133893894","5f60e3c0a3b16e07647b2ff9","5f60eea9609af401bac75e09","true","653.2050000096206","./Stimuli/SelectedImages/SM/SM106.bmp","83","","","","test","true","M + N","83","repetition","SM","SM106.bmp","forget","","91","3","prime1","left","","","",""
"html-keyboard-response","250","711606","0.0-4.0-1.0-3.42","t4lesuj3gc8vnvz","prime","5eccd04687671e0133893894","5f60e3c0a3b16e07647b2ff9","5f60eea9609af401bac75e09","false","null","<div style=""align-items: center; display: flex; color: darkorange; font-size: 90px""><b>ø</b></div>","null","","","","forget_cue","","","","","","","","","","","","","","","",""
"html-keyboard-response","251","712309","0.0-4.0-1.0-0.43","t4lesuj3gc8vnvz","prime","5eccd04687671e0133893894","5f60e3c0a3b16e07647b2ff9","5f60eea9609af401bac75e09","false","null","<span style=""color: black; font-size: 48px"">M + N</span>","null","","","","resp_prompt","","","","","","","","","","","","","","","",""
"categorize-image","252","713150","0.0-4.0-1.0-1.43","t4lesuj3gc8vnvz","prime","5eccd04687671e0133893894","5f60e3c0a3b16e07647b2ff9","5f60eea9609af401bac75e09","true","832.8849999816157","./Stimuli/SelectedImages/SM/SM200.bmp","83","","","","test","true","M + N","83","switch","SM","SM200.bmp","forget","","92","3","prime1","left","","","",""
