"trial_type","trial_index","time_elapsed","internal_node_id","subject","exp_part","prolific_PID","study_ID","session_ID","use","rt","stimulus","key_press","button_pressed","responses","question_order","trial_part","correct","resp_map","correct_resp","probe_condition","category","image","forget_condition","list","trial_num","block_num","block","response","test_part","n_span","sequence","num_spaces"
"pavlovia","0","15","0.0-0.0","y8m57qej0gs5cj6","","5f19dbed7881230892a5feb0","5f60e3c0a3b16e07647b2ff9","5f646a6aada2991f5e12a209","false","","","","","","","","","","","","","","","","","","","","","","",""
"html-keyboard-response","1","15976","0.0-1.0-0.0-0.0","y8m57qej0gs5cj6","welcome","5f19dbed7881230892a5feb0","5f60e3c0a3b16e07647b2ff9","5f646a6aada2991f5e12a209","false","15954.240000020945","<div align=left>Dear participant, <br> thank you for participating in an online study of the Cognition, Action, and Sustainability Unit of the University of Freiburg! <br> <br>The aim of this study is to examine our ability to remember previously learned information. <br>Our goal is to find out, whether our memory improves, when we only remember information that is relevant to us. <br>The experiment will take about 35 minutes to complete. <br> <br>Please, note that you can only participate in this study if you are using a device with a keyboard (PC, Laptop etc.) <br>and not if you are using a mobile device such as a tablet or smartphone.<br> <br>Press 'SPACE' to proceed to the experiment. </div>","32","","","","","","","","","","","","","","","","","","","",""
"html-keyboard-response","2","75667","0.0-1.0-0.0-1.0","y8m57qej0gs5cj6","welcome","5f19dbed7881230892a5feb0","5f60e3c0a3b16e07647b2ff9","5f646a6aada2991f5e12a209","false","59687.195000005886","<div align=left><strong> Time Course of this experiment: </strong> <br><br> <strong> 1.</strong>  First, please fill in some information regarding your demographic data. <br><br> <strong> 2.</strong>  Next, your task will be to classify everyday objects. <br>In addition, you will be asked to remember certain objects and recall them later. <br>Working on these tasks requires your undivided attention and concentration.<br>It is therefore essential that you eliminate any sources of distraction in your  <br>environment and ensure that you will not be disturbed. <br><br><strong> 3.</strong>  At the end of the experiment, you will be asked to answer a few additional questions. <br> <br><strong> Important:</strong> After finishing the experiment, only close the browser window <br> by clicking on the 'end the experiment'-button when you are asked to do so. <br>Closing the browser window prematurely will make the allocation of your participation credit impossible. <br><br> Press 'SPACE' to start the experiment. </div>","32","","","","","","","","","","","","","","","","","","","",""
"html-button-response","3","114445","0.0-1.0-0.0-2.0","y8m57qej0gs5cj6","welcome","5f19dbed7881230892a5feb0","5f60e3c0a3b16e07647b2ff9","5f646a6aada2991f5e12a209","true","38772.49000000302","<div align=left><strong> Informed consent </strong>  <br>The aim of our research is to better understand human behavior and mental processes. <br>In the following study your behavior (e.g. choices, reaction times) will be studied. <br> <br><strong> Voluntariness and Anonymity </strong> <br>Your participation in this study is  <strong> voluntary</strong>.<br>You may withdraw your consent to participate at any time without providing a reason for doing so and without fear of prejudice. <br><br>As no personal data will be collected, <strong>your data and your person cannot be connected after data collection</strong> – the data-set is anonymous. <br>Respectively, deletion of your data will not be possible after data collection has been completed, as we cannot retrace your data-set.<br>The results and anonymized data collected in this study will be published as a scientific publication. <br>This will happen in an <strong>anonymized format</strong>, so that no data can be traced back to a specific person. <br> <br>The anonymized data of this study will be made available to other researchers and/or in a data archive on the Internet as a means of transparency and to enable subsequent re-use. By doing so, this study follows the recommendations of the Deutsche Forschungsgemeinschaft (DFG, German Research Foundation) and Deutsche Gesellschaft für Psychologie (DGPS, German Psychological Society) regarding quality assurance in research.<br>If you have any questions now or after the experiment, please contact our team (experiments@cs.uni-freiburg.de).<br><br><br>I hereby declare, that I understand the above described conditions of participation and I agree to participate under these conditions. <br><br> </div>","","0","","","","","","","","","","","","","","","","","","",""
"html-keyboard-response","4","190471","0.0-1.0-0.0-3.0","y8m57qej0gs5cj6","welcome","5f19dbed7881230892a5feb0","5f60e3c0a3b16e07647b2ff9","5f646a6aada2991f5e12a209","false","76019.57499998389","<div align=left><strong> General information concerning the experiment </strong>  <br> <br>Please follow the instructions:<ol> <li><strong> Do not leave this tab (your browser window) during the experiment and do not reload this tab! </strong>  <br>If you do switch tabs/windows during the experiment (to check your mail or visit another website, for example), <br>the experiment will end automatically and you will <strong>not receive credit</strong> for your participation. <br>Repeated participation or resumption of the experiment is impossible.</li> <br><li>Please close all other programs for the duration of your participation. </li> <br><li>Please mute or turn off your phone and put it out of your reach. </li> <br><li>Please also take off any disturbing accessories (such as wristwatches, bracelets, etc.). </li> <br><li>If you have music playing in the background, please turn it off now. </li> <br></ol>Thank you! <br>Press 'SPACE' to continue. </div>","32","","","","","","","","","","","","","","","","","","","",""
"survey-text","5","197972","0.0-1.0-1.0-0.0","y8m57qej0gs5cj6","demographics","5f19dbed7881230892a5feb0","5f60e3c0a3b16e07647b2ff9","5f646a6aada2991f5e12a209","true","7489.325000002282","","","","{""age"":""20""}","","","","","","","","","","","","","","","","","",""
"survey-multi-choice","6","239543","0.0-1.0-1.0-1.0","y8m57qej0gs5cj6","demographics","5f19dbed7881230892a5feb0","5f60e3c0a3b16e07647b2ff9","5f646a6aada2991f5e12a209","true","41565.00000000233","","","","{""gender"":""male"",""school"":""others"",""education"":""Still in training/ university""}","[0,1,2]","","","","","","","","","","","","","","","","",""
"survey-text","7","291594","0.0-1.0-1.0-2.0-0.0","y8m57qej0gs5cj6","demographics","5f19dbed7881230892a5feb0","5f60e3c0a3b16e07647b2ff9","5f646a6aada2991f5e12a209","true","52016.929999983404","","","","{""education_text"":""cellular and Molecular Biology degree (MBiol)""}","","","","","","","","","","","","","","","","","",""
"html-keyboard-response","8","319189","0.0-1.0-2.0","y8m57qej0gs5cj6","instructions","5f19dbed7881230892a5feb0","5f60e3c0a3b16e07647b2ff9","5f646a6aada2991f5e12a209","false","27589.950000023236","<div align=left> The experiment is now about to start: <br> <br>In the following part, you will be presented pictures of everyday objects. <br>Your first task is to <strong>classify these objects. </strong> <br> <br> You will classify them either as mechanical or non-mechanical objects. <br> <br>Objects that include any kind of technical mechanism (for example, wheels, switches, levers, <br> electronic components) fall under the category of <strong>mechanical</strong> objects. <br>Only objects without any kind of technical mechanism should be classified as <strong>non-mechanical</strong>. <br><br>Press 'SPACE' to continue. </div>","32","","","","","","","","","","","","","","","","","","","",""
"html-keyboard-response","9","436051","0.0-2.0-0.0","y8m57qej0gs5cj6","instructions","5f19dbed7881230892a5feb0","5f60e3c0a3b16e07647b2ff9","5f646a6aada2991f5e12a209","false","116858.39499998838","<div align=justify>You will classify the objects using the <strong>'S'</strong> and the <strong>'L'</strong> keys on your keyboard.<br>For doing so, please place your <strong>left index finger</strong> on the <strong>'S'</strong> key and place your <strong>right index finger</strong> on the <strong>'L'</strong> key. <br><br> Each trial starts with an instruction, indicating which key ('S'/'L') you need to press to classify <br>the object as mechanical (letter M) or non-mechanical (letter N).<br>The instruction <strong>M + N</strong> indicates that, in the current trial, by pressing the left key ('S') you classify the displayed object as mechanical (M) <br> and by pressing the right key ('L') you classify the object as non-mechanical (N). <br>The instruction <strong>N + M</strong> on the other hand indicates that by pressing the left key ('S') you classify the displayed object as non-mechanical (N) <br> and by pressing the right key ('L') you classify the object as mechanical (M). <br><br>Please press the key corresponding to the correct classification as fast as possible as soon as the object is displayed and try to avoid making mistakes.<br>If you do not respond within a 2 second window, a corresponding feedback will be displayed and the next trial will start.<br> The experiment is divided into multiple blocks to give you the opportunity to take a break after each block. <br>First, you can now practice this task. <br><br>Please place your <strong>LEFT INDEX FINGER</strong> on the 'S' key and your <strong>RIGHT INDEX FINGER</strong> on the 'L' key now. <br><br>Press SPACE to continue.</div>","32","","","","","","","","","","","","","","","","","","","",""
"html-keyboard-response","10","457646","0.0-2.0-1.0","y8m57qej0gs5cj6","instructions","5f19dbed7881230892a5feb0","5f60e3c0a3b16e07647b2ff9","5f646a6aada2991f5e12a209","false","21592.60999999242","<div align=left> You will now have time to practice this task.<br><br>Remember: <br> <br><li>Please place your index fingers on the <strong>'S'</strong> and <strong>'L'</strong> keys <br>to respond as fast and accurately as possible.</li><li>Every picture can be classified as either mechanical or non-mechanical.</li><li>If you do not respond in time or commit an error, you will receive a corresponding feedback. </li><li> Please try to respond as <strong> fast </strong> and as <strong> accurately as possible </strong> .<br><li>To ensure optimal results, please minimize distractions and stay focused. </li><br><br>Press SPACE to continue.</div>","32","","","","","","","","","","","","","","","","","","","",""
"html-keyboard-response","11","458352","0.0-2.0-2.0-0.0","y8m57qej0gs5cj6","practice_no_cue","5f19dbed7881230892a5feb0","5f60e3c0a3b16e07647b2ff9","5f646a6aada2991f5e12a209","false","null","<span style=""color: black; font-size: 48px"">N + M</span>","null","","","","resp_prompt","","","","","","","","","","","","","","","",""
"categorize-image","12","460461","0.0-2.0-2.0-1.0","y8m57qej0gs5cj6","practice_no_cue","5f19dbed7881230892a5feb0","5f60e3c0a3b16e07647b2ff9","5f646a6aada2991f5e12a209","true","1603.8649999827612","./Stimuli/ImagesPractice/SN221.jpg","76","","","","test","false","N + M","83","","SN","SN221.jpg","forget","old","1","1","start","right","","","",""
"html-keyboard-response","13","461166","0.0-2.0-2.0-0.1","y8m57qej0gs5cj6","practice_no_cue","5f19dbed7881230892a5feb0","5f60e3c0a3b16e07647b2ff9","5f646a6aada2991f5e12a209","false","null","<span style=""color: black; font-size: 48px"">M + N</span>","null","","","","resp_prompt","","","","","","","","","","","","","","","",""
"categorize-image","14","461716","0.0-2.0-2.0-1.1","y8m57qej0gs5cj6","practice_no_cue","5f19dbed7881230892a5feb0","5f60e3c0a3b16e07647b2ff9","5f646a6aada2991f5e12a209","true","45.96499999752268","./Stimuli/ImagesPractice/SM98.jpg","83","","","","test","true","M + N","83","","SM","SM98.jpg","forget","old","2","1","start","left","","","",""
"html-keyboard-response","15","462419","0.0-2.0-2.0-0.2","y8m57qej0gs5cj6","practice_no_cue","5f19dbed7881230892a5feb0","5f60e3c0a3b16e07647b2ff9","5f646a6aada2991f5e12a209","false","null","<span style=""color: black; font-size: 48px"">M + N</span>","null","","","","resp_prompt","","","","","","","","","","","","","","","",""
"categorize-image","16","464074","0.0-2.0-2.0-1.2","y8m57qej0gs5cj6","practice_no_cue","5f19dbed7881230892a5feb0","5f60e3c0a3b16e07647b2ff9","5f646a6aada2991f5e12a209","true","1150.1400000124704","./Stimuli/ImagesPractice/LM230.jpg","83","","","","test","true","M + N","83","","LM","LM230.jpg","remember","old","3","1","start","left","","","",""
"html-keyboard-response","17","464777","0.0-2.0-2.0-0.3","y8m57qej0gs5cj6","practice_no_cue","5f19dbed7881230892a5feb0","5f60e3c0a3b16e07647b2ff9","5f646a6aada2991f5e12a209","false","null","<span style=""color: black; font-size: 48px"">N + M</span>","null","","","","resp_prompt","","","","","","","","","","","","","","","",""
"categorize-image","18","466734","0.0-2.0-2.0-1.3","y8m57qej0gs5cj6","practice_no_cue","5f19dbed7881230892a5feb0","5f60e3c0a3b16e07647b2ff9","5f646a6aada2991f5e12a209","true","1453.7249999993946","./Stimuli/ImagesPractice/SM35.jpg","83","","","","test","false","N + M","76","","SM","SM35.jpg","forget","old","4","1","start","left","","","",""
"html-keyboard-response","19","467438","0.0-2.0-2.0-0.4","y8m57qej0gs5cj6","practice_no_cue","5f19dbed7881230892a5feb0","5f60e3c0a3b16e07647b2ff9","5f646a6aada2991f5e12a209","false","null","<span style=""color: black; font-size: 48px"">M + N</span>","null","","","","resp_prompt","","","","","","","","","","","","","","","",""
"categorize-image","20","469095","0.0-2.0-2.0-1.4","y8m57qej0gs5cj6","practice_no_cue","5f19dbed7881230892a5feb0","5f60e3c0a3b16e07647b2ff9","5f646a6aada2991f5e12a209","true","1152.1599999978207","./Stimuli/ImagesPractice/LN15.jpg","76","","","","test","true","M + N","76","","LN","LN15.jpg","remember","old","5","1","start","right","","","",""
"html-keyboard-response","21","469798","0.0-2.0-2.0-0.5","y8m57qej0gs5cj6","practice_no_cue","5f19dbed7881230892a5feb0","5f60e3c0a3b16e07647b2ff9","5f646a6aada2991f5e12a209","false","null","<span style=""color: black; font-size: 48px"">M + N</span>","null","","","","resp_prompt","","","","","","","","","","","","","","","",""
"categorize-image","22","471375","0.0-2.0-2.0-1.5","y8m57qej0gs5cj6","practice_no_cue","5f19dbed7881230892a5feb0","5f60e3c0a3b16e07647b2ff9","5f646a6aada2991f5e12a209","true","1070.6399999908172","./Stimuli/ImagesPractice/LM55.jpg","83","","","","test","true","M + N","83","","LM","LM55.jpg","remember","old","6","1","start","left","","","",""
"html-keyboard-response","23","472077","0.0-2.0-2.0-0.6","y8m57qej0gs5cj6","practice_no_cue","5f19dbed7881230892a5feb0","5f60e3c0a3b16e07647b2ff9","5f646a6aada2991f5e12a209","false","null","<span style=""color: black; font-size: 48px"">N + M</span>","null","","","","resp_prompt","","","","","","","","","","","","","","","",""
"categorize-image","24","473700","0.0-2.0-2.0-1.6","y8m57qej0gs5cj6","practice_no_cue","5f19dbed7881230892a5feb0","5f60e3c0a3b16e07647b2ff9","5f646a6aada2991f5e12a209","true","1118.4899999934714","./Stimuli/ImagesPractice/SM61.jpg","76","","","","test","true","N + M","76","","SM","SM61.jpg","remember","old","7","1","start","right","","","",""
"html-keyboard-response","25","474403","0.0-2.0-2.0-0.7","y8m57qej0gs5cj6","practice_no_cue","5f19dbed7881230892a5feb0","5f60e3c0a3b16e07647b2ff9","5f646a6aada2991f5e12a209","false","null","<span style=""color: black; font-size: 48px"">N + M</span>","null","","","","resp_prompt","","","","","","","","","","","","","","","",""
"categorize-image","26","476138","0.0-2.0-2.0-1.7","y8m57qej0gs5cj6","practice_no_cue","5f19dbed7881230892a5feb0","5f60e3c0a3b16e07647b2ff9","5f646a6aada2991f5e12a209","true","1230.4200000071432","./Stimuli/ImagesPractice/LN72.jpg","76","","","","test","false","N + M","83","","LN","LN72.jpg","forget","old","8","1","start","right","","","",""
"html-keyboard-response","27","476841","0.0-2.0-2.0-0.8","y8m57qej0gs5cj6","practice_no_cue","5f19dbed7881230892a5feb0","5f60e3c0a3b16e07647b2ff9","5f646a6aada2991f5e12a209","false","null","<span style=""color: black; font-size: 48px"">M + N</span>","null","","","","resp_prompt","","","","","","","","","","","","","","","",""
"categorize-image","28","478774","0.0-2.0-2.0-1.8","y8m57qej0gs5cj6","practice_no_cue","5f19dbed7881230892a5feb0","5f60e3c0a3b16e07647b2ff9","5f646a6aada2991f5e12a209","true","1429.0899999905378","./Stimuli/ImagesPractice/LN2.jpg","76","","","","test","true","M + N","76","","LN","LN2.jpg","remember","old","9","1","start","right","","","",""
"html-keyboard-response","29","479476","0.0-2.0-2.0-0.9","y8m57qej0gs5cj6","practice_no_cue","5f19dbed7881230892a5feb0","5f60e3c0a3b16e07647b2ff9","5f646a6aada2991f5e12a209","false","null","<span style=""color: black; font-size: 48px"">N + M</span>","null","","","","resp_prompt","","","","","","","","","","","","","","","",""
"categorize-image","30","481032","0.0-2.0-2.0-1.9","y8m57qej0gs5cj6","practice_no_cue","5f19dbed7881230892a5feb0","5f60e3c0a3b16e07647b2ff9","5f646a6aada2991f5e12a209","true","1051.5600000217091","./Stimuli/ImagesPractice/SN75.jpg","83","","","","test","true","N + M","83","","SN","SN75.jpg","remember","old","10","1","start","left","","","",""
"html-keyboard-response","31","481734","0.0-2.0-2.0-0.10","y8m57qej0gs5cj6","practice_no_cue","5f19dbed7881230892a5feb0","5f60e3c0a3b16e07647b2ff9","5f646a6aada2991f5e12a209","false","null","<span style=""color: black; font-size: 48px"">M + N</span>","null","","","","resp_prompt","","","","","","","","","","","","","","","",""
"categorize-image","32","483354","0.0-2.0-2.0-1.10","y8m57qej0gs5cj6","practice_no_cue","5f19dbed7881230892a5feb0","5f60e3c0a3b16e07647b2ff9","5f646a6aada2991f5e12a209","true","1114.4999999960419","./Stimuli/ImagesPractice/LM239.jpg","76","","","","test","false","M + N","83","","LM","LM239.jpg","forget","old","11","1","start","right","","","",""
"html-keyboard-response","33","484056","0.0-2.0-2.0-0.11","y8m57qej0gs5cj6","practice_no_cue","5f19dbed7881230892a5feb0","5f60e3c0a3b16e07647b2ff9","5f646a6aada2991f5e12a209","false","null","<span style=""color: black; font-size: 48px"">N + M</span>","null","","","","resp_prompt","","","","","","","","","","","","","","","",""
"categorize-image","34","485557","0.0-2.0-2.0-1.11","y8m57qej0gs5cj6","practice_no_cue","5f19dbed7881230892a5feb0","5f60e3c0a3b16e07647b2ff9","5f646a6aada2991f5e12a209","true","995.5900000059046","./Stimuli/ImagesPractice/SN222.jpg","83","","","","test","true","N + M","83","","SN","SN222.jpg","remember","old","12","1","start","left","","","",""
"html-keyboard-response","35","486260","0.0-2.0-2.0-0.12","y8m57qej0gs5cj6","practice_no_cue","5f19dbed7881230892a5feb0","5f60e3c0a3b16e07647b2ff9","5f646a6aada2991f5e12a209","false","null","<span style=""color: black; font-size: 48px"">M + N</span>","null","","","","resp_prompt","","","","","","","","","","","","","","","",""
"categorize-image","36","487415","0.0-2.0-2.0-1.12","y8m57qej0gs5cj6","practice_no_cue","5f19dbed7881230892a5feb0","5f60e3c0a3b16e07647b2ff9","5f646a6aada2991f5e12a209","true","652.6449999946635","./Stimuli/ImagesPractice/SM97.jpg","83","","","","test","true","M + N","83","","SM","SM97.jpg","forget","old","13","1","start","left","","","",""
"html-keyboard-response","37","488118","0.0-2.0-2.0-0.13","y8m57qej0gs5cj6","practice_no_cue","5f19dbed7881230892a5feb0","5f60e3c0a3b16e07647b2ff9","5f646a6aada2991f5e12a209","false","null","<span style=""color: black; font-size: 48px"">M + N</span>","null","","","","resp_prompt","","","","","","","","","","","","","","","",""
"categorize-image","38","489334","0.0-2.0-2.0-1.13","y8m57qej0gs5cj6","practice_no_cue","5f19dbed7881230892a5feb0","5f60e3c0a3b16e07647b2ff9","5f646a6aada2991f5e12a209","true","711.0650000104215","./Stimuli/ImagesPractice/SM62.jpg","83","","","","test","true","M + N","83","","SM","SM62.jpg","forget","old","14","1","start","left","","","",""
"html-keyboard-response","39","490036","0.0-2.0-2.0-0.14","y8m57qej0gs5cj6","practice_no_cue","5f19dbed7881230892a5feb0","5f60e3c0a3b16e07647b2ff9","5f646a6aada2991f5e12a209","false","null","<span style=""color: black; font-size: 48px"">N + M</span>","null","","","","resp_prompt","","","","","","","","","","","","","","","",""
"categorize-image","40","491993","0.0-2.0-2.0-1.14","y8m57qej0gs5cj6","practice_no_cue","5f19dbed7881230892a5feb0","5f60e3c0a3b16e07647b2ff9","5f646a6aada2991f5e12a209","true","1453.219999995781","./Stimuli/ImagesPractice/SN76.jpg","76","","","","test","false","N + M","83","","SN","SN76.jpg","forget","old","15","1","start","right","","","",""
"html-keyboard-response","41","492696","0.0-2.0-2.0-0.15","y8m57qej0gs5cj6","practice_no_cue","5f19dbed7881230892a5feb0","5f60e3c0a3b16e07647b2ff9","5f646a6aada2991f5e12a209","false","null","<span style=""color: black; font-size: 48px"">N + M</span>","null","","","","resp_prompt","","","","","","","","","","","","","","","",""
"categorize-image","42","493783","0.0-2.0-2.0-1.15","y8m57qej0gs5cj6","practice_no_cue","5f19dbed7881230892a5feb0","5f60e3c0a3b16e07647b2ff9","5f646a6aada2991f5e12a209","true","583.0249999999069","./Stimuli/ImagesPractice/SN205.jpg","83","","","","test","true","N + M","83","","SN","SN205.jpg","remember","old","16","1","start","left","","","",""
"html-keyboard-response","43","501691","0.0-2.0-3.0","y8m57qej0gs5cj6","break","5f19dbed7881230892a5feb0","5f60e3c0a3b16e07647b2ff9","5f646a6aada2991f5e12a209","false","7902.529999992112","<p style='font-size: 32px;'>Break</><br><br><br><br><br><p style='font-size: 24px;'>In the last block, you committed 5 errors and did not respond in time on 0 trials.
</p><p style='font-size: 24px;'>Try to respond as fast and accurately as possible in the next block as well! </p><p style='font-size: 24px;'>Press SPACE to continue.</p>","32","","","","","","","","","","","","","","","","","","","",""
"html-keyboard-response","44","510415","0.0-2.0-4.0","y8m57qej0gs5cj6","instructions","5f19dbed7881230892a5feb0","5f60e3c0a3b16e07647b2ff9","5f646a6aada2991f5e12a209","false","8721.839999983786","<div align=left> Great!<br><br>Are you ready to continue?<br><br>If you want to reread the instructions and redo the practice trials, <br>please press „Z“. <br><br>Press SPACE to CONTINUE with the experiment when you are ready. </div>","32","","","","","","","","","","","","","","","","","","","",""
"html-keyboard-response","45","581537","0.0-3.0-0.0","y8m57qej0gs5cj6","instructions","5f19dbed7881230892a5feb0","5f60e3c0a3b16e07647b2ff9","5f646a6aada2991f5e12a209","false","71115.6750000082","<div align=left>Great!<br> <strong>Attention</strong>! You will now receive a second, additional task! <br><br>To this point it was you <strong>first task</strong> to correctly <strong>classify objects</strong>. <br><br>As mentioned in the beginning, we aim to examine how well humans can remember previously learned information.<br>We would like to find out whether our memory improves if we only remember information that is relevant to us. <br><br>Therefore, your <strong>second task</strong> will be to <strong>remember</strong> the pictures you are to categorize. <br> After the learning phase, there will be a memory test phase, in which you will be asked to indicate whether you have seen a picture before or not. <br>Some, but not all pictures shown in the learning phase will appear in the memory test phase.<br>After classifying a picture, you will be told whether you should remember it for the memory test phase or not. <br>Thus, some pictures can be forgotten, whereas others have to be remembered. <br><br>Note: From now on, feedback will only be displayed if you responded incorrectly or not in time.<br><br>Press SPACE to continue.</div>","32","","","","","","","","","","","","","","","","","","","",""
"html-keyboard-response","46","614454","0.0-3.0-1.0","y8m57qej0gs5cj6","instructions","5f19dbed7881230892a5feb0","5f60e3c0a3b16e07647b2ff9","5f646a6aada2991f5e12a209","false","32914.66500001843","<div align=left>In the following part, you will thus have to remember only some pictures. <br>Immediately after seeing and classifying the picture, a symbol will be displayed, indicating whether you should remember or forget the previous picture. <br><br>A <span style='color: dodgerblue; font-size: 28px'>O</span> indicates REMEMBER. That means, you have to remember this picture, because it will be tested later. <br><br>A <span style='color: darkorange; font-size:28px'>Ø</span> indicates FORGET. You do not have to remember this picture. <br><br> As you will have to remember a lot of pictures, it will be hard for you to remember all of them. <br>It will put you at an advantage if you instantly forget the pictures you are not asked to remember. <br> This will make it easier for you to remember the pictures that will be tested afterwards. <br><br>Press SPACE to continue.</div>","32","","","","","","","","","","","","","","","","","","","",""
"html-keyboard-response","47","639874","0.0-3.0-2.0","y8m57qej0gs5cj6","instructions","5f19dbed7881230892a5feb0","5f60e3c0a3b16e07647b2ff9","5f646a6aada2991f5e12a209","false","25416.705000010552","<div align=left> Now you have the chance to practice both tasks together.<br><br>Remember: <br> <br><li>Please place your index fingers on the <strong>'S'</strong> and <strong>'L'</strong> keys <br>to respond as fast and accurately as possible.</li><li>Every picture can be classified as either mechanical or non-mechanical.</li><li>If you do not respond in time or commit an error, you will receive a corresponding feedback. <br>Please try to respond as <strong> fast </strong> and as <strong> accurately as possible </strong>.</li><li> Please remember only the to-be-remembered <span style='color: dodgerblue; font-size: 28px'>O</span> pictures. <br></li><li> Please minimize distractions and stay focused. </li><br><br>Press SPACE to START</div>","32","","","","","","","","","","","","","","","","","","","",""
"html-keyboard-response","48","640577","0.0-3.0-3.0-0.0","y8m57qej0gs5cj6","practice_cue","5f19dbed7881230892a5feb0","5f60e3c0a3b16e07647b2ff9","5f646a6aada2991f5e12a209","false","null","<span style=""color: black; font-size: 48px"">N + M</span>","null","","","","resp_prompt","","","","","","","","","","","","","","","",""
"categorize-image","49","641861","0.0-3.0-3.0-1.0","y8m57qej0gs5cj6","practice_cue","5f19dbed7881230892a5feb0","5f60e3c0a3b16e07647b2ff9","5f646a6aada2991f5e12a209","true","1274.9750000075437","./Stimuli/ImagesPractice/LN72.jpg","83","","","","test","true","N + M","83","","LN","LN72.jpg","forget","old","17","2","practice_forget","left","","","",""
"html-keyboard-response","50","643865","0.0-3.0-3.0-3.0","y8m57qej0gs5cj6","practice_cue","5f19dbed7881230892a5feb0","5f60e3c0a3b16e07647b2ff9","5f646a6aada2991f5e12a209","false","null","<div style=""align-items: center; display: flex; color: darkorange; font-size: 90px""><b>ø</b></div>","null","","","","forget_cue","","","","","","","","","","","","","","","",""
"html-keyboard-response","51","644568","0.0-3.0-3.0-0.1","y8m57qej0gs5cj6","practice_cue","5f19dbed7881230892a5feb0","5f60e3c0a3b16e07647b2ff9","5f646a6aada2991f5e12a209","false","null","<span style=""color: black; font-size: 48px"">M + N</span>","null","","","","resp_prompt","","","","","","","","","","","","","","","",""
"categorize-image","52","645346","0.0-3.0-3.0-1.1","y8m57qej0gs5cj6","practice_cue","5f19dbed7881230892a5feb0","5f60e3c0a3b16e07647b2ff9","5f646a6aada2991f5e12a209","true","769.2800000077114","./Stimuli/ImagesPractice/SM62.jpg","83","","","","test","true","M + N","83","","SM","SM62.jpg","forget","old","18","2","practice_forget","left","","","",""
"html-keyboard-response","53","647349","0.0-3.0-3.0-3.1","y8m57qej0gs5cj6","practice_cue","5f19dbed7881230892a5feb0","5f60e3c0a3b16e07647b2ff9","5f646a6aada2991f5e12a209","false","null","<div style=""align-items: center; display: flex; color: darkorange; font-size: 90px""><b>ø</b></div>","null","","","","forget_cue","","","","","","","","","","","","","","","",""
"html-keyboard-response","54","648051","0.0-3.0-3.0-0.2","y8m57qej0gs5cj6","practice_cue","5f19dbed7881230892a5feb0","5f60e3c0a3b16e07647b2ff9","5f646a6aada2991f5e12a209","false","null","<span style=""color: black; font-size: 48px"">M + N</span>","null","","","","resp_prompt","","","","","","","","","","","","","","","",""
"categorize-image","55","648885","0.0-3.0-3.0-1.2","y8m57qej0gs5cj6","practice_cue","5f19dbed7881230892a5feb0","5f60e3c0a3b16e07647b2ff9","5f646a6aada2991f5e12a209","true","825.749999989057","./Stimuli/ImagesPractice/LM230.jpg","83","","","","test","true","M + N","83","","LM","LM230.jpg","remember","old","19","2","practice_forget","left","","","",""
"html-keyboard-response","56","650888","0.0-3.0-3.0-3.2","y8m57qej0gs5cj6","practice_cue","5f19dbed7881230892a5feb0","5f60e3c0a3b16e07647b2ff9","5f646a6aada2991f5e12a209","false","null","<div style=""align-items: center; display: flex; color: dodgerblue; font-size: 90px""><b>o</b></div>","null","","","","forget_cue","","","","","","","","","","","","","","","",""
"html-keyboard-response","57","651591","0.0-3.0-3.0-0.3","y8m57qej0gs5cj6","practice_cue","5f19dbed7881230892a5feb0","5f60e3c0a3b16e07647b2ff9","5f646a6aada2991f5e12a209","false","null","<span style=""color: black; font-size: 48px"">M + N</span>","null","","","","resp_prompt","","","","","","","","","","","","","","","",""
"categorize-image","58","652614","0.0-3.0-3.0-1.3","y8m57qej0gs5cj6","practice_cue","5f19dbed7881230892a5feb0","5f60e3c0a3b16e07647b2ff9","5f646a6aada2991f5e12a209","true","1015.2600000146776","./Stimuli/ImagesPractice/LM239.jpg","83","","","","test","true","M + N","83","","LM","LM239.jpg","forget","old","20","2","practice_forget","left","","","",""
"html-keyboard-response","59","654617","0.0-3.0-3.0-3.3","y8m57qej0gs5cj6","practice_cue","5f19dbed7881230892a5feb0","5f60e3c0a3b16e07647b2ff9","5f646a6aada2991f5e12a209","false","null","<div style=""align-items: center; display: flex; color: darkorange; font-size: 90px""><b>ø</b></div>","null","","","","forget_cue","","","","","","","","","","","","","","","",""
"html-keyboard-response","60","655319","0.0-3.0-3.0-0.4","y8m57qej0gs5cj6","practice_cue","5f19dbed7881230892a5feb0","5f60e3c0a3b16e07647b2ff9","5f646a6aada2991f5e12a209","false","null","<span style=""color: black; font-size: 48px"">N + M</span>","null","","","","resp_prompt","","","","","","","","","","","","","","","",""
"categorize-image","61","656407","0.0-3.0-3.0-1.4","y8m57qej0gs5cj6","practice_cue","5f19dbed7881230892a5feb0","5f60e3c0a3b16e07647b2ff9","5f646a6aada2991f5e12a209","true","1079.2249999940395","./Stimuli/ImagesPractice/SN222.jpg","76","","","","test","false","N + M","83","","SN","SN222.jpg","remember","old","21","2","practice_forget","right","","","",""
"html-keyboard-response","62","656910","0.0-3.0-3.0-2.4-0.4","y8m57qej0gs5cj6","practice_cue","5f19dbed7881230892a5feb0","5f60e3c0a3b16e07647b2ff9","5f646a6aada2991f5e12a209","false","null","<span style=""color: red; font-size: 48px"">Error!</span>","null","","","","feedback","","","","","","","","","","","","","","","",""
"html-keyboard-response","63","658913","0.0-3.0-3.0-3.4","y8m57qej0gs5cj6","practice_cue","5f19dbed7881230892a5feb0","5f60e3c0a3b16e07647b2ff9","5f646a6aada2991f5e12a209","false","null","<div style=""align-items: center; display: flex; color: dodgerblue; font-size: 90px""><b>o</b></div>","null","","","","forget_cue","","","","","","","","","","","","","","","",""
"html-keyboard-response","64","659616","0.0-3.0-3.0-0.5","y8m57qej0gs5cj6","practice_cue","5f19dbed7881230892a5feb0","5f60e3c0a3b16e07647b2ff9","5f646a6aada2991f5e12a209","false","null","<span style=""color: black; font-size: 48px"">M + N</span>","null","","","","resp_prompt","","","","","","","","","","","","","","","",""
"categorize-image","65","660547","0.0-3.0-3.0-1.5","y8m57qej0gs5cj6","practice_cue","5f19dbed7881230892a5feb0","5f60e3c0a3b16e07647b2ff9","5f646a6aada2991f5e12a209","true","923.1250000011642","./Stimuli/ImagesPractice/LN15.jpg","83","","","","test","false","M + N","76","","LN","LN15.jpg","remember","old","22","2","practice_forget","left","","","",""
"html-keyboard-response","66","661050","0.0-3.0-3.0-2.5-0.5","y8m57qej0gs5cj6","practice_cue","5f19dbed7881230892a5feb0","5f60e3c0a3b16e07647b2ff9","5f646a6aada2991f5e12a209","false","null","<span style=""color: red; font-size: 48px"">Error!</span>","null","","","","feedback","","","","","","","","","","","","","","","",""
"html-keyboard-response","67","663052","0.0-3.0-3.0-3.5","y8m57qej0gs5cj6","practice_cue","5f19dbed7881230892a5feb0","5f60e3c0a3b16e07647b2ff9","5f646a6aada2991f5e12a209","false","null","<div style=""align-items: center; display: flex; color: dodgerblue; font-size: 90px""><b>o</b></div>","null","","","","forget_cue","","","","","","","","","","","","","","","",""
"html-keyboard-response","68","663755","0.0-3.0-3.0-0.6","y8m57qej0gs5cj6","practice_cue","5f19dbed7881230892a5feb0","5f60e3c0a3b16e07647b2ff9","5f646a6aada2991f5e12a209","false","null","<span style=""color: black; font-size: 48px"">N + M</span>","null","","","","resp_prompt","","","","","","","","","","","","","","","",""
"categorize-image","69","664836","0.0-3.0-3.0-1.6","y8m57qej0gs5cj6","practice_cue","5f19dbed7881230892a5feb0","5f60e3c0a3b16e07647b2ff9","5f646a6aada2991f5e12a209","true","1072.9450000217184","./Stimuli/ImagesPractice/SN205.jpg","76","","","","test","false","N + M","83","","SN","SN205.jpg","remember","old","23","2","practice_forget","right","","","",""
"html-keyboard-response","70","665338","0.0-3.0-3.0-2.6-0.6","y8m57qej0gs5cj6","practice_cue","5f19dbed7881230892a5feb0","5f60e3c0a3b16e07647b2ff9","5f646a6aada2991f5e12a209","false","null","<span style=""color: red; font-size: 48px"">Error!</span>","null","","","","feedback","","","","","","","","","","","","","","","",""
"html-keyboard-response","71","667341","0.0-3.0-3.0-3.6","y8m57qej0gs5cj6","practice_cue","5f19dbed7881230892a5feb0","5f60e3c0a3b16e07647b2ff9","5f646a6aada2991f5e12a209","false","null","<div style=""align-items: center; display: flex; color: dodgerblue; font-size: 90px""><b>o</b></div>","null","","","","forget_cue","","","","","","","","","","","","","","","",""
"html-keyboard-response","72","668043","0.0-3.0-3.0-0.7","y8m57qej0gs5cj6","practice_cue","5f19dbed7881230892a5feb0","5f60e3c0a3b16e07647b2ff9","5f646a6aada2991f5e12a209","false","null","<span style=""color: black; font-size: 48px"">N + M</span>","null","","","","resp_prompt","","","","","","","","","","","","","","","",""
"categorize-image","73","669046","0.0-3.0-3.0-1.7","y8m57qej0gs5cj6","practice_cue","5f19dbed7881230892a5feb0","5f60e3c0a3b16e07647b2ff9","5f646a6aada2991f5e12a209","true","995.9249999956228","./Stimuli/ImagesPractice/SN221.jpg","83","","","","test","true","N + M","83","","SN","SN221.jpg","forget","old","24","2","practice_forget","left","","","",""
"html-keyboard-response","74","671049","0.0-3.0-3.0-3.7","y8m57qej0gs5cj6","practice_cue","5f19dbed7881230892a5feb0","5f60e3c0a3b16e07647b2ff9","5f646a6aada2991f5e12a209","false","null","<div style=""align-items: center; display: flex; color: darkorange; font-size: 90px""><b>ø</b></div>","null","","","","forget_cue","","","","","","","","","","","","","","","",""
"html-keyboard-response","75","671752","0.0-3.0-3.0-0.8","y8m57qej0gs5cj6","practice_cue","5f19dbed7881230892a5feb0","5f60e3c0a3b16e07647b2ff9","5f646a6aada2991f5e12a209","false","null","<span style=""color: black; font-size: 48px"">N + M</span>","null","","","","resp_prompt","","","","","","","","","","","","","","","",""
"categorize-image","76","672758","0.0-3.0-3.0-1.8","y8m57qej0gs5cj6","practice_cue","5f19dbed7881230892a5feb0","5f60e3c0a3b16e07647b2ff9","5f646a6aada2991f5e12a209","true","998.5199999937322","./Stimuli/ImagesPractice/SM61.jpg","76","","","","test","true","N + M","76","","SM","SM61.jpg","remember","old","25","2","practice_forget","right","","","",""
"html-keyboard-response","77","674761","0.0-3.0-3.0-3.8","y8m57qej0gs5cj6","practice_cue","5f19dbed7881230892a5feb0","5f60e3c0a3b16e07647b2ff9","5f646a6aada2991f5e12a209","false","null","<div style=""align-items: center; display: flex; color: dodgerblue; font-size: 90px""><b>o</b></div>","null","","","","forget_cue","","","","","","","","","","","","","","","",""
"html-keyboard-response","78","675467","0.0-3.0-3.0-0.9","y8m57qej0gs5cj6","practice_cue","5f19dbed7881230892a5feb0","5f60e3c0a3b16e07647b2ff9","5f646a6aada2991f5e12a209","false","null","<span style=""color: black; font-size: 48px"">M + N</span>","null","","","","resp_prompt","","","","","","","","","","","","","","","",""
"categorize-image","79","676937","0.0-3.0-3.0-1.9","y8m57qej0gs5cj6","practice_cue","5f19dbed7881230892a5feb0","5f60e3c0a3b16e07647b2ff9","5f646a6aada2991f5e12a209","true","1460.8699999807868","./Stimuli/ImagesPractice/SM98.jpg","83","","","","test","true","M + N","83","","SM","SM98.jpg","forget","old","26","2","practice_forget","left","","","",""
"html-keyboard-response","80","678939","0.0-3.0-3.0-3.9","y8m57qej0gs5cj6","practice_cue","5f19dbed7881230892a5feb0","5f60e3c0a3b16e07647b2ff9","5f646a6aada2991f5e12a209","false","null","<div style=""align-items: center; display: flex; color: darkorange; font-size: 90px""><b>ø</b></div>","null","","","","forget_cue","","","","","","","","","","","","","","","",""
"html-keyboard-response","81","679641","0.0-3.0-3.0-0.10","y8m57qej0gs5cj6","practice_cue","5f19dbed7881230892a5feb0","5f60e3c0a3b16e07647b2ff9","5f646a6aada2991f5e12a209","false","null","<span style=""color: black; font-size: 48px"">N + M</span>","null","","","","resp_prompt","","","","","","","","","","","","","","","",""
"categorize-image","82","680611","0.0-3.0-3.0-1.10","y8m57qej0gs5cj6","practice_cue","5f19dbed7881230892a5feb0","5f60e3c0a3b16e07647b2ff9","5f646a6aada2991f5e12a209","true","961.9850000017323","./Stimuli/ImagesPractice/SN76.jpg","83","","","","test","true","N + M","83","","SN","SN76.jpg","forget","old","27","2","practice_forget","left","","","",""
"html-keyboard-response","83","682614","0.0-3.0-3.0-3.10","y8m57qej0gs5cj6","practice_cue","5f19dbed7881230892a5feb0","5f60e3c0a3b16e07647b2ff9","5f646a6aada2991f5e12a209","false","null","<div style=""align-items: center; display: flex; color: darkorange; font-size: 90px""><b>ø</b></div>","null","","","","forget_cue","","","","","","","","","","","","","","","",""
"html-keyboard-response","84","683316","0.0-3.0-3.0-0.11","y8m57qej0gs5cj6","practice_cue","5f19dbed7881230892a5feb0","5f60e3c0a3b16e07647b2ff9","5f646a6aada2991f5e12a209","false","null","<span style=""color: black; font-size: 48px"">N + M</span>","null","","","","resp_prompt","","","","","","","","","","","","","","","",""
"categorize-image","85","684469","0.0-3.0-3.0-1.11","y8m57qej0gs5cj6","practice_cue","5f19dbed7881230892a5feb0","5f60e3c0a3b16e07647b2ff9","5f646a6aada2991f5e12a209","true","1144.8849999869708","./Stimuli/ImagesPractice/SN75.jpg","83","","","","test","true","N + M","83","","SN","SN75.jpg","remember","old","28","2","practice_forget","left","","","",""
"html-keyboard-response","86","686474","0.0-3.0-3.0-3.11","y8m57qej0gs5cj6","practice_cue","5f19dbed7881230892a5feb0","5f60e3c0a3b16e07647b2ff9","5f646a6aada2991f5e12a209","false","null","<div style=""align-items: center; display: flex; color: dodgerblue; font-size: 90px""><b>o</b></div>","null","","","","forget_cue","","","","","","","","","","","","","","","",""
"html-keyboard-response","87","687176","0.0-3.0-3.0-0.12","y8m57qej0gs5cj6","practice_cue","5f19dbed7881230892a5feb0","5f60e3c0a3b16e07647b2ff9","5f646a6aada2991f5e12a209","false","null","<span style=""color: black; font-size: 48px"">M + N</span>","null","","","","resp_prompt","","","","","","","","","","","","","","","",""
"categorize-image","88","689163","0.0-3.0-3.0-1.12","y8m57qej0gs5cj6","practice_cue","5f19dbed7881230892a5feb0","5f60e3c0a3b16e07647b2ff9","5f646a6aada2991f5e12a209","true","1978.6449999955948","./Stimuli/ImagesPractice/LN2.jpg","76","","","","test","true","M + N","76","","LN","LN2.jpg","remember","old","29","2","practice_forget","right","","","",""
"html-keyboard-response","89","691166","0.0-3.0-3.0-3.12","y8m57qej0gs5cj6","practice_cue","5f19dbed7881230892a5feb0","5f60e3c0a3b16e07647b2ff9","5f646a6aada2991f5e12a209","false","null","<div style=""align-items: center; display: flex; color: dodgerblue; font-size: 90px""><b>o</b></div>","null","","","","forget_cue","","","","","","","","","","","","","","","",""
"html-keyboard-response","90","691868","0.0-3.0-3.0-0.13","y8m57qej0gs5cj6","practice_cue","5f19dbed7881230892a5feb0","5f60e3c0a3b16e07647b2ff9","5f646a6aada2991f5e12a209","false","null","<span style=""color: black; font-size: 48px"">M + N</span>","null","","","","resp_prompt","","","","","","","","","","","","","","","",""
"categorize-image","91","693454","0.0-3.0-3.0-1.13","y8m57qej0gs5cj6","practice_cue","5f19dbed7881230892a5feb0","5f60e3c0a3b16e07647b2ff9","5f646a6aada2991f5e12a209","true","1579.1949999984354","./Stimuli/ImagesPractice/SM97.jpg","76","","","","test","false","M + N","83","","SM","SM97.jpg","forget","old","30","2","practice_forget","right","","","",""
"html-keyboard-response","92","693957","0.0-3.0-3.0-2.13-0.13","y8m57qej0gs5cj6","practice_cue","5f19dbed7881230892a5feb0","5f60e3c0a3b16e07647b2ff9","5f646a6aada2991f5e12a209","false","null","<span style=""color: red; font-size: 48px"">Error!</span>","null","","","","feedback","","","","","","","","","","","","","","","",""
"html-keyboard-response","93","695960","0.0-3.0-3.0-3.13","y8m57qej0gs5cj6","practice_cue","5f19dbed7881230892a5feb0","5f60e3c0a3b16e07647b2ff9","5f646a6aada2991f5e12a209","false","null","<div style=""align-items: center; display: flex; color: darkorange; font-size: 90px""><b>ø</b></div>","null","","","","forget_cue","","","","","","","","","","","","","","","",""
"html-keyboard-response","94","696663","0.0-3.0-3.0-0.14","y8m57qej0gs5cj6","practice_cue","5f19dbed7881230892a5feb0","5f60e3c0a3b16e07647b2ff9","5f646a6aada2991f5e12a209","false","null","<span style=""color: black; font-size: 48px"">N + M</span>","null","","","","resp_prompt","","","","","","","","","","","","","","","",""
"categorize-image","95","697845","0.0-3.0-3.0-1.14","y8m57qej0gs5cj6","practice_cue","5f19dbed7881230892a5feb0","5f60e3c0a3b16e07647b2ff9","5f646a6aada2991f5e12a209","true","1173.5899999912363","./Stimuli/ImagesPractice/SM35.jpg","83","","","","test","false","N + M","76","","SM","SM35.jpg","forget","old","31","2","practice_forget","left","","","",""
"html-keyboard-response","96","698347","0.0-3.0-3.0-2.14-0.14","y8m57qej0gs5cj6","practice_cue","5f19dbed7881230892a5feb0","5f60e3c0a3b16e07647b2ff9","5f646a6aada2991f5e12a209","false","null","<span style=""color: red; font-size: 48px"">Error!</span>","null","","","","feedback","","","","","","","","","","","","","","","",""
"html-keyboard-response","97","700350","0.0-3.0-3.0-3.14","y8m57qej0gs5cj6","practice_cue","5f19dbed7881230892a5feb0","5f60e3c0a3b16e07647b2ff9","5f646a6aada2991f5e12a209","false","null","<div style=""align-items: center; display: flex; color: darkorange; font-size: 90px""><b>ø</b></div>","null","","","","forget_cue","","","","","","","","","","","","","","","",""
"html-keyboard-response","98","701053","0.0-3.0-3.0-0.15","y8m57qej0gs5cj6","practice_cue","5f19dbed7881230892a5feb0","5f60e3c0a3b16e07647b2ff9","5f646a6aada2991f5e12a209","false","null","<span style=""color: black; font-size: 48px"">M + N</span>","null","","","","resp_prompt","","","","","","","","","","","","","","","",""
"categorize-image","99","701934","0.0-3.0-3.0-1.15","y8m57qej0gs5cj6","practice_cue","5f19dbed7881230892a5feb0","5f60e3c0a3b16e07647b2ff9","5f646a6aada2991f5e12a209","true","873.4949999779928","./Stimuli/ImagesPractice/LM55.jpg","83","","","","test","true","M + N","83","","LM","LM55.jpg","remember","old","32","2","practice_forget","left","","","",""
"html-keyboard-response","100","703938","0.0-3.0-3.0-3.15","y8m57qej0gs5cj6","practice_cue","5f19dbed7881230892a5feb0","5f60e3c0a3b16e07647b2ff9","5f646a6aada2991f5e12a209","false","null","<div style=""align-items: center; display: flex; color: dodgerblue; font-size: 90px""><b>o</b></div>","null","","","","forget_cue","","","","","","","","","","","","","","","",""
"html-keyboard-response","101","707857","0.0-3.0-4.0","y8m57qej0gs5cj6","break","5f19dbed7881230892a5feb0","5f60e3c0a3b16e07647b2ff9","5f646a6aada2991f5e12a209","false","3916.6450000193436","<p style='font-size: 32px;'>Break</><br><br><br><br><br><p style='font-size: 24px;'>In the last block, you committed 5 errors and did not respond in time on 0 trials.
</p><p style='font-size: 24px;'>Try to respond as fast and accurately as possible in the next block as well! </p><p style='font-size: 24px;'>Press SPACE to continue.</p>","32","","","","","","","","","","","","","","","","","","","",""
"html-keyboard-response","102","746247","0.0-3.0-5.0","y8m57qej0gs5cj6","instructions","5f19dbed7881230892a5feb0","5f60e3c0a3b16e07647b2ff9","5f646a6aada2991f5e12a209","false","38388.289999973495","<div align=left> Now, to practice, we kindly ask you to remember as many of the to-be-remembered pictures<br>of the previous learning phase as possible.<br><br>The pictures you were instructed to remember were the pictures followed by a <span style='color: dodgerblue; font-size: 28px'>O</span>.<br><br>In this memory test phase, you will also see some new pictures.<br>It is your task to remember whether you were presented with this specific picture in this study so far or not.<br>If you recognize an object (you have already seen it in this study), it is an OLD object. <br>If you do not recognize an object (you have NOT seen it in this study), it is a NEW object. <br><strong> Attention</strong>: As already mentioned, <span style='color: darkorange; font-size:28px'>Ø</span>-pictures will <strong>never</strong> appear in this memory test (neither as new objects). <br><br>Press SPACE to continue. </div>","32","","","","","","","","","","","","","","","","","","","",""
"html-keyboard-response","103","774820","0.0-3.0-6.0","y8m57qej0gs5cj6","instructions","5f19dbed7881230892a5feb0","5f60e3c0a3b16e07647b2ff9","5f646a6aada2991f5e12a209","false","28569.510000001173","<div align=left> M and N no longer will appear on the left/right of the fixation cross. <br>Instead there will be a note at the bottom of the left or right side  <br>indicating which key you should press for an old or new object:  <br> <br>Press the <strong>right</strong> key to classify an object as <strong>old</strong> and press the <strong>left</strong>, to classify an object as <strong>new</strong>.<br>Please classify the objects as new/old by again placing your index finger on the 'S' and 'L' keys <br>and press them accordingly.<br><br><strong>Old:</strong> This object has been presented before. <br><strong>New:</strong> This object has <strong>not</strong> been presented.<br><br>Now please put your right and left index fingers on the 'S' and 'L' keys of your keyboard. <br>Please respond as fast and as accurately as possible!<br><br>Press SPACE to continue. </div>","32","","","","","","","","","","","","","","","","","","","",""
"categorize-image","104","777990","0.0-3.0-7.0-0.0","y8m57qej0gs5cj6","practice_recog","5f19dbed7881230892a5feb0","5f60e3c0a3b16e07647b2ff9","5f646a6aada2991f5e12a209","true","2662.8249999776017","./Stimuli/ImagesPractice/SN222.jpg","83","","","","test","true","","83","","SN","SN222.jpg","","old","33","3","practice_recog","left","","","",""
"categorize-image","105","779837","0.0-3.0-7.0-0.1","y8m57qej0gs5cj6","practice_recog","5f19dbed7881230892a5feb0","5f60e3c0a3b16e07647b2ff9","5f646a6aada2991f5e12a209","true","1341.0900000017136","./Stimuli/ImagesPractice/LN4.jpg","76","","","","test","true","","76","","LN","LN4.jpg","","new","34","3","practice_recog","right","","","",""
"categorize-image","106","781628","0.0-3.0-7.0-0.2","y8m57qej0gs5cj6","practice_recog","5f19dbed7881230892a5feb0","5f60e3c0a3b16e07647b2ff9","5f646a6aada2991f5e12a209","true","1287.7399999997579","./Stimuli/ImagesPractice/LN2.jpg","83","","","","test","true","","83","","LN","LN2.jpg","","old","35","3","practice_recog","left","","","",""
"categorize-image","107","783257","0.0-3.0-7.0-0.3","y8m57qej0gs5cj6","practice_recog","5f19dbed7881230892a5feb0","5f60e3c0a3b16e07647b2ff9","5f646a6aada2991f5e12a209","true","1124.790000001667","./Stimuli/ImagesPractice/LM147.jpg","76","","","","test","true","","76","","LM","LM147.jpg","","new","36","3","practice_recog","right","","","",""
"categorize-image","108","784461","0.0-3.0-7.0-0.4","y8m57qej0gs5cj6","practice_recog","5f19dbed7881230892a5feb0","5f60e3c0a3b16e07647b2ff9","5f646a6aada2991f5e12a209","true","698.7150000059046","./Stimuli/ImagesPractice/LM230.jpg","83","","","","test","true","","83","","LM","LM230.jpg","","old","37","3","practice_recog","left","","","",""
"categorize-image","109","786083","0.0-3.0-7.0-0.5","y8m57qej0gs5cj6","practice_recog","5f19dbed7881230892a5feb0","5f60e3c0a3b16e07647b2ff9","5f646a6aada2991f5e12a209","true","1117.7599999937229","./Stimuli/ImagesPractice/LM143.jpg","76","","","","test","true","","76","","LM","LM143.jpg","","new","38","3","practice_recog","right","","","",""
"categorize-image","110","788147","0.0-3.0-7.0-0.6","y8m57qej0gs5cj6","practice_recog","5f19dbed7881230892a5feb0","5f60e3c0a3b16e07647b2ff9","5f646a6aada2991f5e12a209","true","1558.630000014091","./Stimuli/ImagesPractice/SM61.jpg","83","","","","test","true","","83","","SM","SM61.jpg","","old","39","3","practice_recog","left","","","",""
"categorize-image","111","789724","0.0-3.0-7.0-0.7","y8m57qej0gs5cj6","practice_recog","5f19dbed7881230892a5feb0","5f60e3c0a3b16e07647b2ff9","5f646a6aada2991f5e12a209","true","1072.6350000186358","./Stimuli/ImagesPractice/LM224.jpg","76","","","","test","true","","76","","LM","LM224.jpg","","new","40","3","practice_recog","right","","","",""
"categorize-image","112","790932","0.0-3.0-7.0-0.8","y8m57qej0gs5cj6","practice_recog","5f19dbed7881230892a5feb0","5f60e3c0a3b16e07647b2ff9","5f646a6aada2991f5e12a209","true","703.7249999993946","./Stimuli/ImagesPractice/SN75.jpg","83","","","","test","true","","83","","SN","SN75.jpg","","old","41","3","practice_recog","left","","","",""
"categorize-image","113","792521","0.0-3.0-7.0-0.9","y8m57qej0gs5cj6","practice_recog","5f19dbed7881230892a5feb0","5f60e3c0a3b16e07647b2ff9","5f646a6aada2991f5e12a209","true","1084.5599999884143","./Stimuli/ImagesPractice/LN17.jpg","76","","","","test","true","","76","","LN","LN17.jpg","","new","42","3","practice_recog","right","","","",""
"categorize-image","114","795026","0.0-3.0-7.0-0.10","y8m57qej0gs5cj6","practice_recog","5f19dbed7881230892a5feb0","5f60e3c0a3b16e07647b2ff9","5f646a6aada2991f5e12a209","true","2000.6050000083633","./Stimuli/ImagesPractice/LN109.jpg","76","","","","test","true","","76","","LN","LN109.jpg","","new","43","3","practice_recog","right","","","",""
"categorize-image","115","796937","0.0-3.0-7.0-0.11","y8m57qej0gs5cj6","practice_recog","5f19dbed7881230892a5feb0","5f60e3c0a3b16e07647b2ff9","5f646a6aada2991f5e12a209","true","1405.689999985043","./Stimuli/ImagesPractice/LN15.jpg","83","","","","test","true","","83","","LN","LN15.jpg","","old","44","3","practice_recog","left","","","",""
"categorize-image","116","798241","0.0-3.0-7.0-0.12","y8m57qej0gs5cj6","practice_recog","5f19dbed7881230892a5feb0","5f60e3c0a3b16e07647b2ff9","5f646a6aada2991f5e12a209","true","799.6100000164006","./Stimuli/ImagesPractice/SN205.jpg","83","","","","test","true","","83","","SN","SN205.jpg","","old","45","3","practice_recog","left","","","",""
"categorize-image","117","799494","0.0-3.0-7.0-0.13","y8m57qej0gs5cj6","practice_recog","5f19dbed7881230892a5feb0","5f60e3c0a3b16e07647b2ff9","5f646a6aada2991f5e12a209","true","748.1550000084098","./Stimuli/ImagesPractice/LM55.jpg","83","","","","test","true","","83","","LM","LM55.jpg","","old","46","3","practice_recog","left","","","",""
"categorize-image","118","800886","0.0-3.0-7.0-0.14","y8m57qej0gs5cj6","practice_recog","5f19dbed7881230892a5feb0","5f60e3c0a3b16e07647b2ff9","5f646a6aada2991f5e12a209","true","886.4699999976438","./Stimuli/ImagesPractice/SM37.jpg","76","","","","test","true","","76","","SM","SM37.jpg","","new","47","3","practice_recog","right","","","",""
"categorize-image","119","802663","0.0-3.0-7.0-0.15","y8m57qej0gs5cj6","practice_recog","5f19dbed7881230892a5feb0","5f60e3c0a3b16e07647b2ff9","5f646a6aada2991f5e12a209","true","1271.1849999905098","./Stimuli/ImagesPractice/SN220.jpg","76","","","","test","true","","76","","SN","SN220.jpg","","new","48","3","practice_recog","right","","","",""
"html-keyboard-response","120","820779","0.0-3.0-8.0","y8m57qej0gs5cj6","instructions","5f19dbed7881230892a5feb0","5f60e3c0a3b16e07647b2ff9","5f646a6aada2991f5e12a209","false","18113.68000000948","<div align=left> Great!<br><br>Are you ready to continue?<br>If you want to reread the instructions and redo the practice trials, please <br>press „Z“.<br><br>You can proceed when you are ready.<br><br>After the presentation of each object, you will receive an instruction whether to <br>remember or to forget the object.<br>We will test your memory of the following pictures only at the very end of <br>the experiment after all learning blocks are completed. <br><br>Press SPACE to CONTINUE when you are ready. </div>","32","","","","","","","","","","","","","","","","","","","",""
"html-keyboard-response","121","842517","0.0-4.0-0.0","y8m57qej0gs5cj6","instructions","5f19dbed7881230892a5feb0","5f60e3c0a3b16e07647b2ff9","5f646a6aada2991f5e12a209","false","21735.834999999497","<div align=left> The actual experiment is about to start.<br>The practice trials are over!<br><br>Please always respond both fast and accurately!<br><br>Remember: <br> <br><li> Please place your index fingers on the <strong>'S'</strong> and <strong>'L'</strong> keys <br>to respond as fast and accurately as possible.</li><li> Every picture can be classified as either mechanical or non-mechanical.</li><li> If you do not respond in time or commit an error, you will receive a corresponding feedback.<br> Please try to respond as <strong> fast </strong> and as <strong> accurately as possible </strong>.</li><li> Remember the <span style='color: dodgerblue; font-size: 28px'>O</span> pictures. <br></li><li> Please minimize distractions and stay focused. </li><br><br>Press SPACE to START.</div>","32","","","","","","","","","","","","","","","","","","","",""
"html-keyboard-response","122","843221","0.0-4.0-1.0-0.0","y8m57qej0gs5cj6","prime","5f19dbed7881230892a5feb0","5f60e3c0a3b16e07647b2ff9","5f646a6aada2991f5e12a209","false","null","<span style=""color: black; font-size: 48px"">N + M</span>","null","","","","resp_prompt","","","","","","","","","","","","","","","",""
"categorize-image","123","844147","0.0-4.0-1.0-1.0","y8m57qej0gs5cj6","prime","5f19dbed7881230892a5feb0","5f60e3c0a3b16e07647b2ff9","5f646a6aada2991f5e12a209","true","917.650000017602","./Stimuli/SelectedImages/LN/LN150.bmp","76","","","","test","false","N + M","83","switch","LN","LN150.bmp","remember","","49","3","prime1","right","","","",""
"html-keyboard-response","124","844650","0.0-4.0-1.0-2.0-0.0","y8m57qej0gs5cj6","prime","5f19dbed7881230892a5feb0","5f60e3c0a3b16e07647b2ff9","5f646a6aada2991f5e12a209","false","null","<span style=""color: red; font-size: 48px"">Error!</span>","null","","","","feedback","","","","","","","","","","","","","","","",""
"html-keyboard-response","125","846653","0.0-4.0-1.0-3.0","y8m57qej0gs5cj6","prime","5f19dbed7881230892a5feb0","5f60e3c0a3b16e07647b2ff9","5f646a6aada2991f5e12a209","false","null","<div style=""align-items: center; display: flex; color: dodgerblue; font-size: 90px""><b>o</b></div>","null","","","","forget_cue","","","","","","","","","","","","","","","",""
"html-keyboard-response","126","847355","0.0-4.0-1.0-0.1","y8m57qej0gs5cj6","prime","5f19dbed7881230892a5feb0","5f60e3c0a3b16e07647b2ff9","5f646a6aada2991f5e12a209","false","null","<span style=""color: black; font-size: 48px"">M + N</span>","null","","","","resp_prompt","","","","","","","","","","","","","","","",""
"categorize-image","127","848472","0.0-4.0-1.0-1.1","y8m57qej0gs5cj6","prime","5f19dbed7881230892a5feb0","5f60e3c0a3b16e07647b2ff9","5f646a6aada2991f5e12a209","true","1108.4800000244286","./Stimuli/SelectedImages/LN/LN12.bmp","76","","","","test","true","M + N","76","repetition","LN","LN12.bmp","forget","","50","3","prime1","right","","","",""
"html-keyboard-response","128","850474","0.0-4.0-1.0-3.1","y8m57qej0gs5cj6","prime","5f19dbed7881230892a5feb0","5f60e3c0a3b16e07647b2ff9","5f646a6aada2991f5e12a209","false","null","<div style=""align-items: center; display: flex; color: darkorange; font-size: 90px""><b>ø</b></div>","null","","","","forget_cue","","","","","","","","","","","","","","","",""
"html-keyboard-response","129","851177","0.0-4.0-1.0-0.2","y8m57qej0gs5cj6","prime","5f19dbed7881230892a5feb0","5f60e3c0a3b16e07647b2ff9","5f646a6aada2991f5e12a209","false","null","<span style=""color: black; font-size: 48px"">M + N</span>","null","","","","resp_prompt","","","","","","","","","","","","","","","",""
"categorize-image","130","851971","0.0-4.0-1.0-1.2","y8m57qej0gs5cj6","prime","5f19dbed7881230892a5feb0","5f60e3c0a3b16e07647b2ff9","5f646a6aada2991f5e12a209","true","785.8000000123866","./Stimuli/SelectedImages/LM/LM179.bmp","83","","","","test","true","M + N","83","repetition","LM","LM179.bmp","forget","","51","3","prime1","left","","","",""
"html-keyboard-response","131","853974","0.0-4.0-1.0-3.2","y8m57qej0gs5cj6","prime","5f19dbed7881230892a5feb0","5f60e3c0a3b16e07647b2ff9","5f646a6aada2991f5e12a209","false","null","<div style=""align-items: center; display: flex; color: darkorange; font-size: 90px""><b>ø</b></div>","null","","","","forget_cue","","","","","","","","","","","","","","","",""
"html-keyboard-response","132","854677","0.0-4.0-1.0-0.3","y8m57qej0gs5cj6","prime","5f19dbed7881230892a5feb0","5f60e3c0a3b16e07647b2ff9","5f646a6aada2991f5e12a209","false","null","<span style=""color: black; font-size: 48px"">N + M</span>","null","","","","resp_prompt","","","","","","","","","","","","","","","",""
"categorize-image","133","855955","0.0-4.0-1.0-1.3","y8m57qej0gs5cj6","prime","5f19dbed7881230892a5feb0","5f60e3c0a3b16e07647b2ff9","5f646a6aada2991f5e12a209","true","1269.0549999824725","./Stimuli/SelectedImages/SN/SN27.bmp","83","","","","test","true","N + M","83","repetition","SN","SN27.bmp","forget","","52","3","prime1","left","","","",""
"html-keyboard-response","134","857958","0.0-4.0-1.0-3.3","y8m57qej0gs5cj6","prime","5f19dbed7881230892a5feb0","5f60e3c0a3b16e07647b2ff9","5f646a6aada2991f5e12a209","false","null","<div style=""align-items: center; display: flex; color: darkorange; font-size: 90px""><b>ø</b></div>","null","","","","forget_cue","","","","","","","","","","","","","","","",""
"html-keyboard-response","135","858661","0.0-4.0-1.0-0.4","y8m57qej0gs5cj6","prime","5f19dbed7881230892a5feb0","5f60e3c0a3b16e07647b2ff9","5f646a6aada2991f5e12a209","false","null","<span style=""color: black; font-size: 48px"">N + M</span>","null","","","","resp_prompt","","","","","","","","","","","","","","","",""
"categorize-image","136","859597","0.0-4.0-1.0-1.4","y8m57qej0gs5cj6","prime","5f19dbed7881230892a5feb0","5f60e3c0a3b16e07647b2ff9","5f646a6aada2991f5e12a209","true","928.9050000079442","./Stimuli/SelectedImages/LN/LN28.bmp","83","","","","test","true","N + M","83","switch","LN","LN28.bmp","forget","","53","3","prime1","left","","","",""
"html-keyboard-response","137","861601","0.0-4.0-1.0-3.4","y8m57qej0gs5cj6","prime","5f19dbed7881230892a5feb0","5f60e3c0a3b16e07647b2ff9","5f646a6aada2991f5e12a209","false","null","<div style=""align-items: center; display: flex; color: darkorange; font-size: 90px""><b>ø</b></div>","null","","","","forget_cue","","","","","","","","","","","","","","","",""
"html-keyboard-response","138","862303","0.0-4.0-1.0-0.5","y8m57qej0gs5cj6","prime","5f19dbed7881230892a5feb0","5f60e3c0a3b16e07647b2ff9","5f646a6aada2991f5e12a209","false","null","<span style=""color: black; font-size: 48px"">N + M</span>","null","","","","resp_prompt","","","","","","","","","","","","","","","",""
"categorize-image","139","863177","0.0-4.0-1.0-1.5","y8m57qej0gs5cj6","prime","5f19dbed7881230892a5feb0","5f60e3c0a3b16e07647b2ff9","5f646a6aada2991f5e12a209","true","867.3849999904633","./Stimuli/SelectedImages/SN/SN182.bmp","83","","","","test","true","N + M","83","switch","SN","SN182.bmp","remember","","54","3","prime1","left","","","",""
"html-keyboard-response","140","865180","0.0-4.0-1.0-3.5","y8m57qej0gs5cj6","prime","5f19dbed7881230892a5feb0","5f60e3c0a3b16e07647b2ff9","5f646a6aada2991f5e12a209","false","null","<div style=""align-items: center; display: flex; color: dodgerblue; font-size: 90px""><b>o</b></div>","null","","","","forget_cue","","","","","","","","","","","","","","","",""
"html-keyboard-response","141","865884","0.0-4.0-1.0-0.6","y8m57qej0gs5cj6","prime","5f19dbed7881230892a5feb0","5f60e3c0a3b16e07647b2ff9","5f646a6aada2991f5e12a209","false","null","<span style=""color: black; font-size: 48px"">N + M</span>","null","","","","resp_prompt","","","","","","","","","","","","","","","",""
"categorize-image","142","866939","0.0-4.0-1.0-1.6","y8m57qej0gs5cj6","prime","5f19dbed7881230892a5feb0","5f60e3c0a3b16e07647b2ff9","5f646a6aada2991f5e12a209","true","1047.3800000036135","./Stimuli/SelectedImages/LN/LN177.bmp","83","","","","test","true","N + M","83","repetition","LN","LN177.bmp","forget","","55","3","prime1","left","","","",""
"html-keyboard-response","143","868942","0.0-4.0-1.0-3.6","y8m57qej0gs5cj6","prime","5f19dbed7881230892a5feb0","5f60e3c0a3b16e07647b2ff9","5f646a6aada2991f5e12a209","false","null","<div style=""align-items: center; display: flex; color: darkorange; font-size: 90px""><b>ø</b></div>","null","","","","forget_cue","","","","","","","","","","","","","","","",""
"html-keyboard-response","144","869644","0.0-4.0-1.0-0.7","y8m57qej0gs5cj6","prime","5f19dbed7881230892a5feb0","5f60e3c0a3b16e07647b2ff9","5f646a6aada2991f5e12a209","false","null","<span style=""color: black; font-size: 48px"">N + M</span>","null","","","","resp_prompt","","","","","","","","","","","","","","","",""
"categorize-image","145","870611","0.0-4.0-1.0-1.7","y8m57qej0gs5cj6","prime","5f19dbed7881230892a5feb0","5f60e3c0a3b16e07647b2ff9","5f646a6aada2991f5e12a209","true","959.1450000007171","./Stimuli/SelectedImages/SM/SM108.bmp","76","","","","test","true","N + M","76","switch","SM","SM108.bmp","remember","","56","3","prime1","right","","","",""
"html-keyboard-response","146","872614","0.0-4.0-1.0-3.7","y8m57qej0gs5cj6","prime","5f19dbed7881230892a5feb0","5f60e3c0a3b16e07647b2ff9","5f646a6aada2991f5e12a209","false","null","<div style=""align-items: center; display: flex; color: dodgerblue; font-size: 90px""><b>o</b></div>","null","","","","forget_cue","","","","","","","","","","","","","","","",""
"html-keyboard-response","147","873316","0.0-4.0-1.0-0.8","y8m57qej0gs5cj6","prime","5f19dbed7881230892a5feb0","5f60e3c0a3b16e07647b2ff9","5f646a6aada2991f5e12a209","false","null","<span style=""color: black; font-size: 48px"">N + M</span>","null","","","","resp_prompt","","","","","","","","","","","","","","","",""
"categorize-image","148","874153","0.0-4.0-1.0-1.8","y8m57qej0gs5cj6","prime","5f19dbed7881230892a5feb0","5f60e3c0a3b16e07647b2ff9","5f646a6aada2991f5e12a209","true","826.7500000074506","./Stimuli/SelectedImages/LN/LN131.bmp","83","","","","test","true","N + M","83","repetition","LN","LN131.bmp","remember","","57","3","prime1","left","","","",""
"html-keyboard-response","149","876155","0.0-4.0-1.0-3.8","y8m57qej0gs5cj6","prime","5f19dbed7881230892a5feb0","5f60e3c0a3b16e07647b2ff9","5f646a6aada2991f5e12a209","false","null","<div style=""align-items: center; display: flex; color: dodgerblue; font-size: 90px""><b>o</b></div>","null","","","","forget_cue","","","","","","","","","","","","","","","",""
"html-keyboard-response","150","876857","0.0-4.0-1.0-0.9","y8m57qej0gs5cj6","prime","5f19dbed7881230892a5feb0","5f60e3c0a3b16e07647b2ff9","5f646a6aada2991f5e12a209","false","null","<span style=""color: black; font-size: 48px"">M + N</span>","null","","","","resp_prompt","","","","","","","","","","","","","","","",""
"categorize-image","151","877785","0.0-4.0-1.0-1.9","y8m57qej0gs5cj6","prime","5f19dbed7881230892a5feb0","5f60e3c0a3b16e07647b2ff9","5f646a6aada2991f5e12a209","true","919.724999985192","./Stimuli/SelectedImages/SM/SM148.bmp","83","","","","test","true","M + N","83","switch","SM","SM148.bmp","remember","","58","3","prime1","left","","","",""
"html-keyboard-response","152","879786","0.0-4.0-1.0-3.9","y8m57qej0gs5cj6","prime","5f19dbed7881230892a5feb0","5f60e3c0a3b16e07647b2ff9","5f646a6aada2991f5e12a209","false","null","<div style=""align-items: center; display: flex; color: dodgerblue; font-size: 90px""><b>o</b></div>","null","","","","forget_cue","","","","","","","","","","","","","","","",""
"html-keyboard-response","153","880489","0.0-4.0-1.0-0.10","y8m57qej0gs5cj6","prime","5f19dbed7881230892a5feb0","5f60e3c0a3b16e07647b2ff9","5f646a6aada2991f5e12a209","false","null","<span style=""color: black; font-size: 48px"">N + M</span>","null","","","","resp_prompt","","","","","","","","","","","","","","","",""
"categorize-image","154","881599","0.0-4.0-1.0-1.10","y8m57qej0gs5cj6","prime","5f19dbed7881230892a5feb0","5f60e3c0a3b16e07647b2ff9","5f646a6aada2991f5e12a209","true","1103.0350000073668","./Stimuli/SelectedImages/LN/LN111.bmp","83","","","","test","true","N + M","83","switch","LN","LN111.bmp","forget","","59","3","prime1","left","","","",""
"html-keyboard-response","155","883602","0.0-4.0-1.0-3.10","y8m57qej0gs5cj6","prime","5f19dbed7881230892a5feb0","5f60e3c0a3b16e07647b2ff9","5f646a6aada2991f5e12a209","false","null","<div style=""align-items: center; display: flex; color: darkorange; font-size: 90px""><b>ø</b></div>","null","","","","forget_cue","","","","","","","","","","","","","","","",""
"html-keyboard-response","156","884304","0.0-4.0-1.0-0.11","y8m57qej0gs5cj6","prime","5f19dbed7881230892a5feb0","5f60e3c0a3b16e07647b2ff9","5f646a6aada2991f5e12a209","false","null","<span style=""color: black; font-size: 48px"">N + M</span>","null","","","","resp_prompt","","","","","","","","","","","","","","","",""
"categorize-image","157","885436","0.0-4.0-1.0-1.11","y8m57qej0gs5cj6","prime","5f19dbed7881230892a5feb0","5f60e3c0a3b16e07647b2ff9","5f646a6aada2991f5e12a209","true","1123.379999975441","./Stimuli/SelectedImages/LM/LM59.bmp","76","","","","test","true","N + M","76","repetition","LM","LM59.bmp","forget","","60","3","prime1","right","","","",""
"html-keyboard-response","158","887438","0.0-4.0-1.0-3.11","y8m57qej0gs5cj6","prime","5f19dbed7881230892a5feb0","5f60e3c0a3b16e07647b2ff9","5f646a6aada2991f5e12a209","false","null","<div style=""align-items: center; display: flex; color: darkorange; font-size: 90px""><b>ø</b></div>","null","","","","forget_cue","","","","","","","","","","","","","","","",""
"html-keyboard-response","159","888140","0.0-4.0-1.0-0.12","y8m57qej0gs5cj6","prime","5f19dbed7881230892a5feb0","5f60e3c0a3b16e07647b2ff9","5f646a6aada2991f5e12a209","false","null","<span style=""color: black; font-size: 48px"">M + N</span>","null","","","","resp_prompt","","","","","","","","","","","","","","","",""
"categorize-image","160","889634","0.0-4.0-1.0-1.12","y8m57qej0gs5cj6","prime","5f19dbed7881230892a5feb0","5f60e3c0a3b16e07647b2ff9","5f646a6aada2991f5e12a209","true","1487.6600000134204","./Stimuli/SelectedImages/SN/SN64.bmp","76","","","","test","true","M + N","76","switch","SN","SN64.bmp","forget","","61","3","prime1","right","","","",""
"html-keyboard-response","161","891637","0.0-4.0-1.0-3.12","y8m57qej0gs5cj6","prime","5f19dbed7881230892a5feb0","5f60e3c0a3b16e07647b2ff9","5f646a6aada2991f5e12a209","false","null","<div style=""align-items: center; display: flex; color: darkorange; font-size: 90px""><b>ø</b></div>","null","","","","forget_cue","","","","","","","","","","","","","","","",""
"html-keyboard-response","162","892340","0.0-4.0-1.0-0.13","y8m57qej0gs5cj6","prime","5f19dbed7881230892a5feb0","5f60e3c0a3b16e07647b2ff9","5f646a6aada2991f5e12a209","false","null","<span style=""color: black; font-size: 48px"">M + N</span>","null","","","","resp_prompt","","","","","","","","","","","","","","","",""
"categorize-image","163","893007","0.0-4.0-1.0-1.13","y8m57qej0gs5cj6","prime","5f19dbed7881230892a5feb0","5f60e3c0a3b16e07647b2ff9","5f646a6aada2991f5e12a209","true","658.5199999972247","./Stimuli/SelectedImages/LN/LN128.bmp","76","","","","test","true","M + N","76","switch","LN","LN128.bmp","remember","","62","3","prime1","right","","","",""
"html-keyboard-response","164","895010","0.0-4.0-1.0-3.13","y8m57qej0gs5cj6","prime","5f19dbed7881230892a5feb0","5f60e3c0a3b16e07647b2ff9","5f646a6aada2991f5e12a209","false","null","<div style=""align-items: center; display: flex; color: dodgerblue; font-size: 90px""><b>o</b></div>","null","","","","forget_cue","","","","","","","","","","","","","","","",""
"html-keyboard-response","165","895712","0.0-4.0-1.0-0.14","y8m57qej0gs5cj6","prime","5f19dbed7881230892a5feb0","5f60e3c0a3b16e07647b2ff9","5f646a6aada2991f5e12a209","false","null","<span style=""color: black; font-size: 48px"">N + M</span>","null","","","","resp_prompt","","","","","","","","","","","","","","","",""
"categorize-image","166","896779","0.0-4.0-1.0-1.14","y8m57qej0gs5cj6","prime","5f19dbed7881230892a5feb0","5f60e3c0a3b16e07647b2ff9","5f646a6aada2991f5e12a209","true","1058.9549999858718","./Stimuli/SelectedImages/SM/SM184.bmp","76","","","","test","true","N + M","76","switch","SM","SM184.bmp","forget","","63","3","prime1","right","","","",""
"html-keyboard-response","167","898782","0.0-4.0-1.0-3.14","y8m57qej0gs5cj6","prime","5f19dbed7881230892a5feb0","5f60e3c0a3b16e07647b2ff9","5f646a6aada2991f5e12a209","false","null","<div style=""align-items: center; display: flex; color: darkorange; font-size: 90px""><b>ø</b></div>","null","","","","forget_cue","","","","","","","","","","","","","","","",""
"html-keyboard-response","168","899485","0.0-4.0-1.0-0.15","y8m57qej0gs5cj6","prime","5f19dbed7881230892a5feb0","5f60e3c0a3b16e07647b2ff9","5f646a6aada2991f5e12a209","false","null","<span style=""color: black; font-size: 48px"">N + M</span>","null","","","","resp_prompt","","","","","","","","","","","","","","","",""
"categorize-image","169","900586","0.0-4.0-1.0-1.15","y8m57qej0gs5cj6","prime","5f19dbed7881230892a5feb0","5f60e3c0a3b16e07647b2ff9","5f646a6aada2991f5e12a209","true","1092.5999999744818","./Stimuli/SelectedImages/SN/SN111.bmp","83","","","","test","true","N + M","83","repetition","SN","SN111.bmp","remember","","64","3","prime1","left","","","",""
"html-keyboard-response","170","902588","0.0-4.0-1.0-3.15","y8m57qej0gs5cj6","prime","5f19dbed7881230892a5feb0","5f60e3c0a3b16e07647b2ff9","5f646a6aada2991f5e12a209","false","null","<div style=""align-items: center; display: flex; color: dodgerblue; font-size: 90px""><b>o</b></div>","null","","","","forget_cue","","","","","","","","","","","","","","","",""
"html-keyboard-response","171","903291","0.0-4.0-1.0-0.16","y8m57qej0gs5cj6","prime","5f19dbed7881230892a5feb0","5f60e3c0a3b16e07647b2ff9","5f646a6aada2991f5e12a209","false","null","<span style=""color: black; font-size: 48px"">M + N</span>","null","","","","resp_prompt","","","","","","","","","","","","","","","",""
"categorize-image","172","904302","0.0-4.0-1.0-1.16","y8m57qej0gs5cj6","prime","5f19dbed7881230892a5feb0","5f60e3c0a3b16e07647b2ff9","5f646a6aada2991f5e12a209","true","1004.1450000135228","./Stimuli/SelectedImages/LM/LM209.bmp","76","","","","test","false","M + N","83","switch","LM","LM209.bmp","remember","","65","3","prime1","right","","","",""
"html-keyboard-response","173","904804","0.0-4.0-1.0-2.16-0.16","y8m57qej0gs5cj6","prime","5f19dbed7881230892a5feb0","5f60e3c0a3b16e07647b2ff9","5f646a6aada2991f5e12a209","false","null","<span style=""color: red; font-size: 48px"">Error!</span>","null","","","","feedback","","","","","","","","","","","","","","","",""
"html-keyboard-response","174","906808","0.0-4.0-1.0-3.16","y8m57qej0gs5cj6","prime","5f19dbed7881230892a5feb0","5f60e3c0a3b16e07647b2ff9","5f646a6aada2991f5e12a209","false","null","<div style=""align-items: center; display: flex; color: dodgerblue; font-size: 90px""><b>o</b></div>","null","","","","forget_cue","","","","","","","","","","","","","","","",""
"html-keyboard-response","175","907510","0.0-4.0-1.0-0.17","y8m57qej0gs5cj6","prime","5f19dbed7881230892a5feb0","5f60e3c0a3b16e07647b2ff9","5f646a6aada2991f5e12a209","false","null","<span style=""color: black; font-size: 48px"">N + M</span>","null","","","","resp_prompt","","","","","","","","","","","","","","","",""
"categorize-image","176","908366","0.0-4.0-1.0-1.17","y8m57qej0gs5cj6","prime","5f19dbed7881230892a5feb0","5f60e3c0a3b16e07647b2ff9","5f646a6aada2991f5e12a209","true","846.3150000025053","./Stimuli/SelectedImages/SN/SN140.bmp","83","","","","test","true","N + M","83","switch","SN","SN140.bmp","forget","","66","3","prime1","left","","","",""
"html-keyboard-response","177","910369","0.0-4.0-1.0-3.17","y8m57qej0gs5cj6","prime","5f19dbed7881230892a5feb0","5f60e3c0a3b16e07647b2ff9","5f646a6aada2991f5e12a209","false","null","<div style=""align-items: center; display: flex; color: darkorange; font-size: 90px""><b>ø</b></div>","null","","","","forget_cue","","","","","","","","","","","","","","","",""
"html-keyboard-response","178","911071","0.0-4.0-1.0-0.18","y8m57qej0gs5cj6","prime","5f19dbed7881230892a5feb0","5f60e3c0a3b16e07647b2ff9","5f646a6aada2991f5e12a209","false","null","<span style=""color: black; font-size: 48px"">N + M</span>","null","","","","resp_prompt","","","","","","","","","","","","","","","",""
"categorize-image","179","912033","0.0-4.0-1.0-1.18","y8m57qej0gs5cj6","prime","5f19dbed7881230892a5feb0","5f60e3c0a3b16e07647b2ff9","5f646a6aada2991f5e12a209","true","953.9249999797903","./Stimuli/SelectedImages/LN/LN149.bmp","83","","","","test","true","N + M","83","switch","LN","LN149.bmp","remember","","67","3","prime1","left","","","",""
"html-keyboard-response","180","914035","0.0-4.0-1.0-3.18","y8m57qej0gs5cj6","prime","5f19dbed7881230892a5feb0","5f60e3c0a3b16e07647b2ff9","5f646a6aada2991f5e12a209","false","null","<div style=""align-items: center; display: flex; color: dodgerblue; font-size: 90px""><b>o</b></div>","null","","","","forget_cue","","","","","","","","","","","","","","","",""
"html-keyboard-response","181","914738","0.0-4.0-1.0-0.19","y8m57qej0gs5cj6","prime","5f19dbed7881230892a5feb0","5f60e3c0a3b16e07647b2ff9","5f646a6aada2991f5e12a209","false","null","<span style=""color: black; font-size: 48px"">M + N</span>","null","","","","resp_prompt","","","","","","","","","","","","","","","",""
"categorize-image","182","916204","0.0-4.0-1.0-1.19","y8m57qej0gs5cj6","prime","5f19dbed7881230892a5feb0","5f60e3c0a3b16e07647b2ff9","5f646a6aada2991f5e12a209","true","1457.9800000065006","./Stimuli/SelectedImages/LN/LN166.bmp","83","","","","test","false","M + N","76","switch","LN","LN166.bmp","forget","","68","3","prime1","left","","","",""
"html-keyboard-response","183","916707","0.0-4.0-1.0-2.19-0.19","y8m57qej0gs5cj6","prime","5f19dbed7881230892a5feb0","5f60e3c0a3b16e07647b2ff9","5f646a6aada2991f5e12a209","false","null","<span style=""color: red; font-size: 48px"">Error!</span>","null","","","","feedback","","","","","","","","","","","","","","","",""
"html-keyboard-response","184","918710","0.0-4.0-1.0-3.19","y8m57qej0gs5cj6","prime","5f19dbed7881230892a5feb0","5f60e3c0a3b16e07647b2ff9","5f646a6aada2991f5e12a209","false","null","<div style=""align-items: center; display: flex; color: darkorange; font-size: 90px""><b>ø</b></div>","null","","","","forget_cue","","","","","","","","","","","","","","","",""
"html-keyboard-response","185","919413","0.0-4.0-1.0-0.20","y8m57qej0gs5cj6","prime","5f19dbed7881230892a5feb0","5f60e3c0a3b16e07647b2ff9","5f646a6aada2991f5e12a209","false","null","<span style=""color: black; font-size: 48px"">M + N</span>","null","","","","resp_prompt","","","","","","","","","","","","","","","",""
"categorize-image","186","920128","0.0-4.0-1.0-1.20","y8m57qej0gs5cj6","prime","5f19dbed7881230892a5feb0","5f60e3c0a3b16e07647b2ff9","5f646a6aada2991f5e12a209","true","708.1949999846984","./Stimuli/SelectedImages/LM/LM57.bmp","83","","","","test","true","M + N","83","switch","LM","LM57.bmp","forget","","69","3","prime1","left","","","",""
"html-keyboard-response","187","922132","0.0-4.0-1.0-3.20","y8m57qej0gs5cj6","prime","5f19dbed7881230892a5feb0","5f60e3c0a3b16e07647b2ff9","5f646a6aada2991f5e12a209","false","null","<div style=""align-items: center; display: flex; color: darkorange; font-size: 90px""><b>ø</b></div>","null","","","","forget_cue","","","","","","","","","","","","","","","",""
"html-keyboard-response","188","922834","0.0-4.0-1.0-0.21","y8m57qej0gs5cj6","prime","5f19dbed7881230892a5feb0","5f60e3c0a3b16e07647b2ff9","5f646a6aada2991f5e12a209","false","null","<span style=""color: black; font-size: 48px"">N + M</span>","null","","","","resp_prompt","","","","","","","","","","","","","","","",""
"categorize-image","189","923988","0.0-4.0-1.0-1.21","y8m57qej0gs5cj6","prime","5f19dbed7881230892a5feb0","5f60e3c0a3b16e07647b2ff9","5f646a6aada2991f5e12a209","true","1145.9049999830313","./Stimuli/SelectedImages/SN/SN52.bmp","83","","","","test","true","N + M","83","repetition","SN","SN52.bmp","remember","","70","3","prime1","left","","","",""
"html-keyboard-response","190","925990","0.0-4.0-1.0-3.21","y8m57qej0gs5cj6","prime","5f19dbed7881230892a5feb0","5f60e3c0a3b16e07647b2ff9","5f646a6aada2991f5e12a209","false","null","<div style=""align-items: center; display: flex; color: dodgerblue; font-size: 90px""><b>o</b></div>","null","","","","forget_cue","","","","","","","","","","","","","","","",""
"html-keyboard-response","191","926694","0.0-4.0-1.0-0.22","y8m57qej0gs5cj6","prime","5f19dbed7881230892a5feb0","5f60e3c0a3b16e07647b2ff9","5f646a6aada2991f5e12a209","false","null","<span style=""color: black; font-size: 48px"">M + N</span>","null","","","","resp_prompt","","","","","","","","","","","","","","","",""
"categorize-image","192","927758","0.0-4.0-1.0-1.22","y8m57qej0gs5cj6","prime","5f19dbed7881230892a5feb0","5f60e3c0a3b16e07647b2ff9","5f646a6aada2991f5e12a209","true","1056.3050000055227","./Stimuli/SelectedImages/SM/SM128.bmp","83","","","","test","true","M + N","83","switch","SM","SM128.bmp","forget","","71","3","prime1","left","","","",""
"html-keyboard-response","193","929761","0.0-4.0-1.0-3.22","y8m57qej0gs5cj6","prime","5f19dbed7881230892a5feb0","5f60e3c0a3b16e07647b2ff9","5f646a6aada2991f5e12a209","false","null","<div style=""align-items: center; display: flex; color: darkorange; font-size: 90px""><b>ø</b></div>","null","","","","forget_cue","","","","","","","","","","","","","","","",""
"html-keyboard-response","194","930464","0.0-4.0-1.0-0.23","y8m57qej0gs5cj6","prime","5f19dbed7881230892a5feb0","5f60e3c0a3b16e07647b2ff9","5f646a6aada2991f5e12a209","false","null","<span style=""color: black; font-size: 48px"">M + N</span>","null","","","","resp_prompt","","","","","","","","","","","","","","","",""
"categorize-image","195","931525","0.0-4.0-1.0-1.23","y8m57qej0gs5cj6","prime","5f19dbed7881230892a5feb0","5f60e3c0a3b16e07647b2ff9","5f646a6aada2991f5e12a209","true","1053.8749999832362","./Stimuli/SelectedImages/LN/LN13.bmp","76","","","","test","true","M + N","76","repetition","LN","LN13.bmp","remember","","72","3","prime1","right","","","",""
"html-keyboard-response","196","933529","0.0-4.0-1.0-3.23","y8m57qej0gs5cj6","prime","5f19dbed7881230892a5feb0","5f60e3c0a3b16e07647b2ff9","5f646a6aada2991f5e12a209","false","null","<div style=""align-items: center; display: flex; color: dodgerblue; font-size: 90px""><b>o</b></div>","null","","","","forget_cue","","","","","","","","","","","","","","","",""
"html-keyboard-response","197","934232","0.0-4.0-1.0-0.24","y8m57qej0gs5cj6","prime","5f19dbed7881230892a5feb0","5f60e3c0a3b16e07647b2ff9","5f646a6aada2991f5e12a209","false","null","<span style=""color: black; font-size: 48px"">N + M</span>","null","","","","resp_prompt","","","","","","","","","","","","","","","",""
"categorize-image","198","935351","0.0-4.0-1.0-1.24","y8m57qej0gs5cj6","prime","5f19dbed7881230892a5feb0","5f60e3c0a3b16e07647b2ff9","5f646a6aada2991f5e12a209","true","1111.864999984391","./Stimuli/SelectedImages/LM/LM100.bmp","76","","","","test","true","N + M","76","switch","LM","LM100.bmp","forget","","73","3","prime1","right","","","",""
"html-keyboard-response","199","937354","0.0-4.0-1.0-3.24","y8m57qej0gs5cj6","prime","5f19dbed7881230892a5feb0","5f60e3c0a3b16e07647b2ff9","5f646a6aada2991f5e12a209","false","null","<div style=""align-items: center; display: flex; color: darkorange; font-size: 90px""><b>ø</b></div>","null","","","","forget_cue","","","","","","","","","","","","","","","",""
"html-keyboard-response","200","938056","0.0-4.0-1.0-0.25","y8m57qej0gs5cj6","prime","5f19dbed7881230892a5feb0","5f60e3c0a3b16e07647b2ff9","5f646a6aada2991f5e12a209","false","null","<span style=""color: black; font-size: 48px"">N + M</span>","null","","","","resp_prompt","","","","","","","","","","","","","","","",""
"categorize-image","201","939058","0.0-4.0-1.0-1.25","y8m57qej0gs5cj6","prime","5f19dbed7881230892a5feb0","5f60e3c0a3b16e07647b2ff9","5f646a6aada2991f5e12a209","true","994.0500000084285","./Stimuli/SelectedImages/SM/SM205.bmp","76","","","","test","true","N + M","76","repetition","SM","SM205.bmp","forget","","74","3","prime1","right","","","",""
"html-keyboard-response","202","941061","0.0-4.0-1.0-3.25","y8m57qej0gs5cj6","prime","5f19dbed7881230892a5feb0","5f60e3c0a3b16e07647b2ff9","5f646a6aada2991f5e12a209","false","null","<div style=""align-items: center; display: flex; color: darkorange; font-size: 90px""><b>ø</b></div>","null","","","","forget_cue","","","","","","","","","","","","","","","",""
"html-keyboard-response","203","941764","0.0-4.0-1.0-0.26","y8m57qej0gs5cj6","prime","5f19dbed7881230892a5feb0","5f60e3c0a3b16e07647b2ff9","5f646a6aada2991f5e12a209","false","null","<span style=""color: black; font-size: 48px"">M + N</span>","null","","","","resp_prompt","","","","","","","","","","","","","","","",""
"categorize-image","204","942643","0.0-4.0-1.0-1.26","y8m57qej0gs5cj6","prime","5f19dbed7881230892a5feb0","5f60e3c0a3b16e07647b2ff9","5f646a6aada2991f5e12a209","true","871.5349999838509","./Stimuli/SelectedImages/SN/SN60.bmp","76","","","","test","true","M + N","76","repetition","SN","SN60.bmp","remember","","75","3","prime1","right","","","",""
"html-keyboard-response","205","944645","0.0-4.0-1.0-3.26","y8m57qej0gs5cj6","prime","5f19dbed7881230892a5feb0","5f60e3c0a3b16e07647b2ff9","5f646a6aada2991f5e12a209","false","null","<div style=""align-items: center; display: flex; color: dodgerblue; font-size: 90px""><b>o</b></div>","null","","","","forget_cue","","","","","","","","","","","","","","","",""
"html-keyboard-response","206","945347","0.0-4.0-1.0-0.27","y8m57qej0gs5cj6","prime","5f19dbed7881230892a5feb0","5f60e3c0a3b16e07647b2ff9","5f646a6aada2991f5e12a209","false","null","<span style=""color: black; font-size: 48px"">M + N</span>","null","","","","resp_prompt","","","","","","","","","","","","","","","",""
"categorize-image","207","946351","0.0-4.0-1.0-1.27","y8m57qej0gs5cj6","prime","5f19dbed7881230892a5feb0","5f60e3c0a3b16e07647b2ff9","5f646a6aada2991f5e12a209","true","996.3649999990594","./Stimuli/SelectedImages/LM/LM58.bmp","83","","","","test","true","M + N","83","switch","LM","LM58.bmp","remember","","76","3","prime1","left","","","",""
"html-keyboard-response","208","948354","0.0-4.0-1.0-3.27","y8m57qej0gs5cj6","prime","5f19dbed7881230892a5feb0","5f60e3c0a3b16e07647b2ff9","5f646a6aada2991f5e12a209","false","null","<div style=""align-items: center; display: flex; color: dodgerblue; font-size: 90px""><b>o</b></div>","null","","","","forget_cue","","","","","","","","","","","","","","","",""
"html-keyboard-response","209","949056","0.0-4.0-1.0-0.28","y8m57qej0gs5cj6","prime","5f19dbed7881230892a5feb0","5f60e3c0a3b16e07647b2ff9","5f646a6aada2991f5e12a209","false","null","<span style=""color: black; font-size: 48px"">N + M</span>","null","","","","resp_prompt","","","","","","","","","","","","","","","",""
"categorize-image","210","949977","0.0-4.0-1.0-1.28","y8m57qej0gs5cj6","prime","5f19dbed7881230892a5feb0","5f60e3c0a3b16e07647b2ff9","5f646a6aada2991f5e12a209","true","912.9099999845494","./Stimuli/SelectedImages/LM/LM157.bmp","76","","","","test","true","N + M","76","switch","LM","LM157.bmp","remember","","77","3","prime1","right","","","",""
"html-keyboard-response","211","951980","0.0-4.0-1.0-3.28","y8m57qej0gs5cj6","prime","5f19dbed7881230892a5feb0","5f60e3c0a3b16e07647b2ff9","5f646a6aada2991f5e12a209","false","null","<div style=""align-items: center; display: flex; color: dodgerblue; font-size: 90px""><b>o</b></div>","null","","","","forget_cue","","","","","","","","","","","","","","","",""
"html-keyboard-response","212","952681","0.0-4.0-1.0-0.29","y8m57qej0gs5cj6","prime","5f19dbed7881230892a5feb0","5f60e3c0a3b16e07647b2ff9","5f646a6aada2991f5e12a209","false","null","<span style=""color: black; font-size: 48px"">N + M</span>","null","","","","resp_prompt","","","","","","","","","","","","","","","",""
"categorize-image","213","953765","0.0-4.0-1.0-1.29","y8m57qej0gs5cj6","prime","5f19dbed7881230892a5feb0","5f60e3c0a3b16e07647b2ff9","5f646a6aada2991f5e12a209","true","1075.9850000031292","./Stimuli/SelectedImages/SM/SM76.bmp","76","","","","test","true","N + M","76","switch","SM","SM76.bmp","remember","","78","3","prime1","right","","","",""
"html-keyboard-response","214","955768","0.0-4.0-1.0-3.29","y8m57qej0gs5cj6","prime","5f19dbed7881230892a5feb0","5f60e3c0a3b16e07647b2ff9","5f646a6aada2991f5e12a209","false","null","<div style=""align-items: center; display: flex; color: dodgerblue; font-size: 90px""><b>o</b></div>","null","","","","forget_cue","","","","","","","","","","","","","","","",""
"html-keyboard-response","215","956471","0.0-4.0-1.0-0.30","y8m57qej0gs5cj6","prime","5f19dbed7881230892a5feb0","5f60e3c0a3b16e07647b2ff9","5f646a6aada2991f5e12a209","false","null","<span style=""color: black; font-size: 48px"">M + N</span>","null","","","","resp_prompt","","","","","","","","","","","","","","","",""
"categorize-image","216","957444","0.0-4.0-1.0-1.30","y8m57qej0gs5cj6","prime","5f19dbed7881230892a5feb0","5f60e3c0a3b16e07647b2ff9","5f646a6aada2991f5e12a209","true","965.5799999891315","./Stimuli/SelectedImages/SN/SN128.bmp","83","","","","test","false","M + N","76","repetition","SN","SN128.bmp","forget","","79","3","prime1","left","","","",""
"html-keyboard-response","217","957947","0.0-4.0-1.0-2.30-0.30","y8m57qej0gs5cj6","prime","5f19dbed7881230892a5feb0","5f60e3c0a3b16e07647b2ff9","5f646a6aada2991f5e12a209","false","null","<span style=""color: red; font-size: 48px"">Error!</span>","null","","","","feedback","","","","","","","","","","","","","","","",""
"html-keyboard-response","218","959949","0.0-4.0-1.0-3.30","y8m57qej0gs5cj6","prime","5f19dbed7881230892a5feb0","5f60e3c0a3b16e07647b2ff9","5f646a6aada2991f5e12a209","false","null","<div style=""align-items: center; display: flex; color: darkorange; font-size: 90px""><b>ø</b></div>","null","","","","forget_cue","","","","","","","","","","","","","","","",""
"html-keyboard-response","219","960652","0.0-4.0-1.0-0.31","y8m57qej0gs5cj6","prime","5f19dbed7881230892a5feb0","5f60e3c0a3b16e07647b2ff9","5f646a6aada2991f5e12a209","false","null","<span style=""color: black; font-size: 48px"">M + N</span>","null","","","","resp_prompt","","","","","","","","","","","","","","","",""
"categorize-image","220","961349","0.0-4.0-1.0-1.31","y8m57qej0gs5cj6","prime","5f19dbed7881230892a5feb0","5f60e3c0a3b16e07647b2ff9","5f646a6aada2991f5e12a209","true","686.9149999984074","./Stimuli/SelectedImages/SM/SM106.bmp","83","","","","test","true","M + N","83","switch","SM","SM106.bmp","remember","","80","3","prime1","left","","","",""
"html-keyboard-response","221","963352","0.0-4.0-1.0-3.31","y8m57qej0gs5cj6","prime","5f19dbed7881230892a5feb0","5f60e3c0a3b16e07647b2ff9","5f646a6aada2991f5e12a209","false","null","<div style=""align-items: center; display: flex; color: dodgerblue; font-size: 90px""><b>o</b></div>","null","","","","forget_cue","","","","","","","","","","","","","","","",""
"html-keyboard-response","222","964054","0.0-4.0-1.0-0.32","y8m57qej0gs5cj6","prime","5f19dbed7881230892a5feb0","5f60e3c0a3b16e07647b2ff9","5f646a6aada2991f5e12a209","false","null","<span style=""color: black; font-size: 48px"">M + N</span>","null","","","","resp_prompt","","","","","","","","","","","","","","","",""
"categorize-image","223","964867","0.0-4.0-1.0-1.32","y8m57qej0gs5cj6","prime","5f19dbed7881230892a5feb0","5f60e3c0a3b16e07647b2ff9","5f646a6aada2991f5e12a209","true","806.1999999918044","./Stimuli/SelectedImages/LM/LM51.bmp","83","","","","test","true","M + N","83","repetition","LM","LM51.bmp","remember","","81","3","prime1","left","","","",""
"html-keyboard-response","224","966870","0.0-4.0-1.0-3.32","y8m57qej0gs5cj6","prime","5f19dbed7881230892a5feb0","5f60e3c0a3b16e07647b2ff9","5f646a6aada2991f5e12a209","false","null","<div style=""align-items: center; display: flex; color: dodgerblue; font-size: 90px""><b>o</b></div>","null","","","","forget_cue","","","","","","","","","","","","","","","",""
"html-keyboard-response","225","967572","0.0-4.0-1.0-0.33","y8m57qej0gs5cj6","prime","5f19dbed7881230892a5feb0","5f60e3c0a3b16e07647b2ff9","5f646a6aada2991f5e12a209","false","null","<span style=""color: black; font-size: 48px"">M + N</span>","null","","","","resp_prompt","","","","","","","","","","","","","","","",""
"categorize-image","226","968489","0.0-4.0-1.0-1.33","y8m57qej0gs5cj6","prime","5f19dbed7881230892a5feb0","5f60e3c0a3b16e07647b2ff9","5f646a6aada2991f5e12a209","true","908.3249999966938","./Stimuli/SelectedImages/SM/SM207.bmp","83","","","","test","true","M + N","83","repetition","SM","SM207.bmp","remember","","82","3","prime1","left","","","",""
"html-keyboard-response","227","970492","0.0-4.0-1.0-3.33","y8m57qej0gs5cj6","prime","5f19dbed7881230892a5feb0","5f60e3c0a3b16e07647b2ff9","5f646a6aada2991f5e12a209","false","null","<div style=""align-items: center; display: flex; color: dodgerblue; font-size: 90px""><b>o</b></div>","null","","","","forget_cue","","","","","","","","","","","","","","","",""
"html-keyboard-response","228","971194","0.0-4.0-1.0-0.34","y8m57qej0gs5cj6","prime","5f19dbed7881230892a5feb0","5f60e3c0a3b16e07647b2ff9","5f646a6aada2991f5e12a209","false","null","<span style=""color: black; font-size: 48px"">M + N</span>","null","","","","resp_prompt","","","","","","","","","","","","","","","",""
"categorize-image","229","972145","0.0-4.0-1.0-1.34","y8m57qej0gs5cj6","prime","5f19dbed7881230892a5feb0","5f60e3c0a3b16e07647b2ff9","5f646a6aada2991f5e12a209","true","942.9450000170618","./Stimuli/SelectedImages/LM/LM75.bmp","83","","","","test","true","M + N","83","repetition","LM","LM75.bmp","forget","","83","3","prime1","left","","","",""
"html-keyboard-response","230","974147","0.0-4.0-1.0-3.34","y8m57qej0gs5cj6","prime","5f19dbed7881230892a5feb0","5f60e3c0a3b16e07647b2ff9","5f646a6aada2991f5e12a209","false","null","<div style=""align-items: center; display: flex; color: darkorange; font-size: 90px""><b>ø</b></div>","null","","","","forget_cue","","","","","","","","","","","","","","","",""
"html-keyboard-response","231","974850","0.0-4.0-1.0-0.35","y8m57qej0gs5cj6","prime","5f19dbed7881230892a5feb0","5f60e3c0a3b16e07647b2ff9","5f646a6aada2991f5e12a209","false","null","<span style=""color: black; font-size: 48px"">M + N</span>","null","","","","resp_prompt","","","","","","","","","","","","","","","",""
"categorize-image","232","976007","0.0-4.0-1.0-1.35","y8m57qej0gs5cj6","prime","5f19dbed7881230892a5feb0","5f60e3c0a3b16e07647b2ff9","5f646a6aada2991f5e12a209","true","1148.8549999776296","./Stimuli/SelectedImages/LN/LN42.bmp","76","","","","test","true","M + N","76","repetition","LN","LN42.bmp","remember","","84","3","prime1","right","","","",""
"html-keyboard-response","233","978010","0.0-4.0-1.0-3.35","y8m57qej0gs5cj6","prime","5f19dbed7881230892a5feb0","5f60e3c0a3b16e07647b2ff9","5f646a6aada2991f5e12a209","false","null","<div style=""align-items: center; display: flex; color: dodgerblue; font-size: 90px""><b>o</b></div>","null","","","","forget_cue","","","","","","","","","","","","","","","",""
"html-keyboard-response","234","978712","0.0-4.0-1.0-0.36","y8m57qej0gs5cj6","prime","5f19dbed7881230892a5feb0","5f60e3c0a3b16e07647b2ff9","5f646a6aada2991f5e12a209","false","null","<span style=""color: black; font-size: 48px"">N + M</span>","null","","","","resp_prompt","","","","","","","","","","","","","","","",""
"categorize-image","235","979625","0.0-4.0-1.0-1.36","y8m57qej0gs5cj6","prime","5f19dbed7881230892a5feb0","5f60e3c0a3b16e07647b2ff9","5f646a6aada2991f5e12a209","true","905.880000005709","./Stimuli/SelectedImages/LM/LM167.bmp","76","","","","test","true","N + M","76","repetition","LM","LM167.bmp","remember","","85","3","prime1","right","","","",""
"html-keyboard-response","236","981627","0.0-4.0-1.0-3.36","y8m57qej0gs5cj6","prime","5f19dbed7881230892a5feb0","5f60e3c0a3b16e07647b2ff9","5f646a6aada2991f5e12a209","false","null","<div style=""align-items: center; display: flex; color: dodgerblue; font-size: 90px""><b>o</b></div>","null","","","","forget_cue","","","","","","","","","","","","","","","",""
"html-keyboard-response","237","982330","0.0-4.0-1.0-0.37","y8m57qej0gs5cj6","prime","5f19dbed7881230892a5feb0","5f60e3c0a3b16e07647b2ff9","5f646a6aada2991f5e12a209","false","null","<span style=""color: black; font-size: 48px"">M + N</span>","null","","","","resp_prompt","","","","","","","","","","","","","","","",""
"categorize-image","238","983432","0.0-4.0-1.0-1.37","y8m57qej0gs5cj6","prime","5f19dbed7881230892a5feb0","5f60e3c0a3b16e07647b2ff9","5f646a6aada2991f5e12a209","true","1093.8000000023749","./Stimuli/SelectedImages/LN/LN92.bmp","83","","","","test","false","M + N","76","switch","LN","LN92.bmp","forget","","86","3","prime1","left","","","",""
"html-keyboard-response","239","983934","0.0-4.0-1.0-2.37-0.37","y8m57qej0gs5cj6","prime","5f19dbed7881230892a5feb0","5f60e3c0a3b16e07647b2ff9","5f646a6aada2991f5e12a209","false","null","<span style=""color: red; font-size: 48px"">Error!</span>","null","","","","feedback","","","","","","","","","","","","","","","",""
"html-keyboard-response","240","985936","0.0-4.0-1.0-3.37","y8m57qej0gs5cj6","prime","5f19dbed7881230892a5feb0","5f60e3c0a3b16e07647b2ff9","5f646a6aada2991f5e12a209","false","null","<div style=""align-items: center; display: flex; color: darkorange; font-size: 90px""><b>ø</b></div>","null","","","","forget_cue","","","","","","","","","","","","","","","",""
"html-keyboard-response","241","986638","0.0-4.0-1.0-0.38","y8m57qej0gs5cj6","prime","5f19dbed7881230892a5feb0","5f60e3c0a3b16e07647b2ff9","5f646a6aada2991f5e12a209","false","null","<span style=""color: black; font-size: 48px"">N + M</span>","null","","","","resp_prompt","","","","","","","","","","","","","","","",""
"categorize-image","242","987472","0.0-4.0-1.0-1.38","y8m57qej0gs5cj6","prime","5f19dbed7881230892a5feb0","5f60e3c0a3b16e07647b2ff9","5f646a6aada2991f5e12a209","true","825.8250000071712","./Stimuli/SelectedImages/LM/LM216.bmp","76","","","","test","true","N + M","76","switch","LM","LM216.bmp","remember","","87","3","prime1","right","","","",""
"html-keyboard-response","243","989474","0.0-4.0-1.0-3.38","y8m57qej0gs5cj6","prime","5f19dbed7881230892a5feb0","5f60e3c0a3b16e07647b2ff9","5f646a6aada2991f5e12a209","false","null","<div style=""align-items: center; display: flex; color: dodgerblue; font-size: 90px""><b>o</b></div>","null","","","","forget_cue","","","","","","","","","","","","","","","",""
"html-keyboard-response","244","990176","0.0-4.0-1.0-0.39","y8m57qej0gs5cj6","prime","5f19dbed7881230892a5feb0","5f60e3c0a3b16e07647b2ff9","5f646a6aada2991f5e12a209","false","null","<span style=""color: black; font-size: 48px"">N + M</span>","null","","","","resp_prompt","","","","","","","","","","","","","","","",""
"categorize-image","245","990969","0.0-4.0-1.0-1.39","y8m57qej0gs5cj6","prime","5f19dbed7881230892a5feb0","5f60e3c0a3b16e07647b2ff9","5f646a6aada2991f5e12a209","true","786.1400000110734","./Stimuli/SelectedImages/SN/SN49.bmp","83","","","","test","true","N + M","83","switch","SN","SN49.bmp","remember","","88","3","prime1","left","","","",""
"html-keyboard-response","246","992973","0.0-4.0-1.0-3.39","y8m57qej0gs5cj6","prime","5f19dbed7881230892a5feb0","5f60e3c0a3b16e07647b2ff9","5f646a6aada2991f5e12a209","false","null","<div style=""align-items: center; display: flex; color: dodgerblue; font-size: 90px""><b>o</b></div>","null","","","","forget_cue","","","","","","","","","","","","","","","",""
"html-keyboard-response","247","993675","0.0-4.0-1.0-0.40","y8m57qej0gs5cj6","prime","5f19dbed7881230892a5feb0","5f60e3c0a3b16e07647b2ff9","5f646a6aada2991f5e12a209","false","null","<span style=""color: black; font-size: 48px"">M + N</span>","null","","","","resp_prompt","","","","","","","","","","","","","","","",""
"categorize-image","248","995319","0.0-4.0-1.0-1.40","y8m57qej0gs5cj6","prime","5f19dbed7881230892a5feb0","5f60e3c0a3b16e07647b2ff9","5f646a6aada2991f5e12a209","true","1636.400000017602","./Stimuli/SelectedImages/SM/SM200.bmp","76","","","","test","false","M + N","83","repetition","SM","SM200.bmp","forget","","89","3","prime1","right","","","",""
"html-keyboard-response","249","995822","0.0-4.0-1.0-2.40-0.40","y8m57qej0gs5cj6","prime","5f19dbed7881230892a5feb0","5f60e3c0a3b16e07647b2ff9","5f646a6aada2991f5e12a209","false","null","<span style=""color: red; font-size: 48px"">Error!</span>","null","","","","feedback","","","","","","","","","","","","","","","",""
"html-keyboard-response","250","997825","0.0-4.0-1.0-3.40","y8m57qej0gs5cj6","prime","5f19dbed7881230892a5feb0","5f60e3c0a3b16e07647b2ff9","5f646a6aada2991f5e12a209","false","null","<div style=""align-items: center; display: flex; color: darkorange; font-size: 90px""><b>ø</b></div>","null","","","","forget_cue","","","","","","","","","","","","","","","",""
"html-keyboard-response","251","998527","0.0-4.0-1.0-0.41","y8m57qej0gs5cj6","prime","5f19dbed7881230892a5feb0","5f60e3c0a3b16e07647b2ff9","5f646a6aada2991f5e12a209","false","null","<span style=""color: black; font-size: 48px"">N + M</span>","null","","","","resp_prompt","","","","","","","","","","","","","","","",""
"categorize-image","252","999558","0.0-4.0-1.0-1.41","y8m57qej0gs5cj6","prime","5f19dbed7881230892a5feb0","5f60e3c0a3b16e07647b2ff9","5f646a6aada2991f5e12a209","true","1022.7699999813922","./Stimuli/SelectedImages/SN/SN240.bmp","83","","","","test","true","N + M","83","repetition","SN","SN240.bmp","forget","","90","3","prime1","left","","","",""
"html-keyboard-response","253","1001560","0.0-4.0-1.0-3.41","y8m57qej0gs5cj6","prime","5f19dbed7881230892a5feb0","5f60e3c0a3b16e07647b2ff9","5f646a6aada2991f5e12a209","false","null","<div style=""align-items: center; display: flex; color: darkorange; font-size: 90px""><b>ø</b></div>","null","","","","forget_cue","","","","","","","","","","","","","","","",""
