"trial_type","trial_index","time_elapsed","internal_node_id","subject","exp_part","prolific_PID","study_ID","session_ID","use","rt","stimulus","key_press","button_pressed","responses","question_order","trial_part","correct","resp_map","correct_resp","probe_condition","category","image","forget_condition","list","trial_num","block_num","block","response","test_part","n_span","sequence","num_spaces"
"pavlovia","0","3","0.0-0.0","jfcjl3gl19kx5sy","","5c6460995a5e01000129347c","5f60e3c0a3b16e07647b2ff9","5f60ec7129b248010b6de5eb","false","","","","","","","","","","","","","","","","","","","","","","",""
"html-keyboard-response","1","4596","0.0-1.0-0.0-0.0","jfcjl3gl19kx5sy","welcome","5c6460995a5e01000129347c","5f60e3c0a3b16e07647b2ff9","5f60ec7129b248010b6de5eb","false","4589.114999980666","<div align=left>Dear participant, <br> thank you for participating in an online study of the Cognition, Action, and Sustainability Unit of the University of Freiburg! <br> <br>The aim of this study is to examine our ability to remember previously learned information. <br>Our goal is to find out, whether our memory improves, when we only remember information that is relevant to us. <br>The experiment will take about 35 minutes to complete. <br> <br>Please, note that you can only participate in this study if you are using a device with a keyboard (PC, Laptop etc.) <br>and not if you are using a mobile device such as a tablet or smartphone.<br> <br>Press 'SPACE' to proceed to the experiment. </div>","32","","","","","","","","","","","","","","","","","","","",""
"html-keyboard-response","2","8095","0.0-1.0-0.0-1.0","jfcjl3gl19kx5sy","welcome","5c6460995a5e01000129347c","5f60e3c0a3b16e07647b2ff9","5f60ec7129b248010b6de5eb","false","3496.169999940321","<div align=left><strong> Time Course of this experiment: </strong> <br><br> <strong> 1.</strong>  First, please fill in some information regarding your demographic data. <br><br> <strong> 2.</strong>  Next, your task will be to classify everyday objects. <br>In addition, you will be asked to remember certain objects and recall them later. <br>Working on these tasks requires your undivided attention and concentration.<br>It is therefore essential that you eliminate any sources of distraction in your  <br>environment and ensure that you will not be disturbed. <br><br><strong> 3.</strong>  At the end of the experiment, you will be asked to answer a few additional questions. <br> <br><strong> Important:</strong> After finishing the experiment, only close the browser window <br> by clicking on the 'end the experiment'-button when you are asked to do so. <br>Closing the browser window prematurely will make the allocation of your participation credit impossible. <br><br> Press 'SPACE' to start the experiment. </div>","32","","","","","","","","","","","","","","","","","","","",""
"html-button-response","3","10287","0.0-1.0-0.0-2.0","jfcjl3gl19kx5sy","welcome","5c6460995a5e01000129347c","5f60e3c0a3b16e07647b2ff9","5f60ec7129b248010b6de5eb","true","2190.74999995064","<div align=left><strong> Informed consent </strong>  <br>The aim of our research is to better understand human behavior and mental processes. <br>In the following study your behavior (e.g. choices, reaction times) will be studied. <br> <br><strong> Voluntariness and Anonymity </strong> <br>Your participation in this study is  <strong> voluntary</strong>.<br>You may withdraw your consent to participate at any time without providing a reason for doing so and without fear of prejudice. <br><br>As no personal data will be collected, <strong>your data and your person cannot be connected after data collection</strong> – the data-set is anonymous. <br>Respectively, deletion of your data will not be possible after data collection has been completed, as we cannot retrace your data-set.<br>The results and anonymized data collected in this study will be published as a scientific publication. <br>This will happen in an <strong>anonymized format</strong>, so that no data can be traced back to a specific person. <br> <br>The anonymized data of this study will be made available to other researchers and/or in a data archive on the Internet as a means of transparency and to enable subsequent re-use. By doing so, this study follows the recommendations of the Deutsche Forschungsgemeinschaft (DFG, German Research Foundation) and Deutsche Gesellschaft für Psychologie (DGPS, German Psychological Society) regarding quality assurance in research.<br>If you have any questions now or after the experiment, please contact our team (experiments@cs.uni-freiburg.de).<br><br><br>I hereby declare, that I understand the above described conditions of participation and I agree to participate under these conditions. <br><br> </div>","","0","","","","","","","","","","","","","","","","","","",""
"html-keyboard-response","4","21714","0.0-1.0-0.0-3.0","jfcjl3gl19kx5sy","welcome","5c6460995a5e01000129347c","5f60e3c0a3b16e07647b2ff9","5f60ec7129b248010b6de5eb","false","11423.990000039339","<div align=left><strong> General information concerning the experiment </strong>  <br> <br>Please follow the instructions:<ol> <li><strong> Do not leave this tab (your browser window) during the experiment and do not reload this tab! </strong>  <br>If you do switch tabs/windows during the experiment (to check your mail or visit another website, for example), <br>the experiment will end automatically and you will <strong>not receive credit</strong> for your participation. <br>Repeated participation or resumption of the experiment is impossible.</li> <br><li>Please close all other programs for the duration of your participation. </li> <br><li>Please mute or turn off your phone and put it out of your reach. </li> <br><li>Please also take off any disturbing accessories (such as wristwatches, bracelets, etc.). </li> <br><li>If you have music playing in the background, please turn it off now. </li> <br></ol>Thank you! <br>Press 'SPACE' to continue. </div>","32","","","","","","","","","","","","","","","","","","","",""
"survey-text","5","25021","0.0-1.0-1.0-0.0","jfcjl3gl19kx5sy","demographics","5c6460995a5e01000129347c","5f60e3c0a3b16e07647b2ff9","5f60ec7129b248010b6de5eb","true","3290.760000003502","","","","{""age"":""23""}","","","","","","","","","","","","","","","","","",""
"survey-multi-choice","6","35994","0.0-1.0-1.0-1.0","jfcjl3gl19kx5sy","demographics","5c6460995a5e01000129347c","5f60e3c0a3b16e07647b2ff9","5f60ec7129b248010b6de5eb","true","10970.480000018142","","","","{""gender"":""female"",""school"":""others"",""education"":""Completed university degree or equivalent""}","[0,1,2]","","","","","","","","","","","","","","","","",""
"html-keyboard-response","7","38009","0.0-1.0-2.0","jfcjl3gl19kx5sy","instructions","5c6460995a5e01000129347c","5f60e3c0a3b16e07647b2ff9","5f60ec7129b248010b6de5eb","false","2012.7700000302866","<div align=left> The experiment is now about to start: <br> <br>In the following part, you will be presented pictures of everyday objects. <br>Your first task is to <strong>classify these objects. </strong> <br> <br> You will classify them either as mechanical or non-mechanical objects. <br> <br>Objects that include any kind of technical mechanism (for example, wheels, switches, levers, <br> electronic components) fall under the category of <strong>mechanical</strong> objects. <br>Only objects without any kind of technical mechanism should be classified as <strong>non-mechanical</strong>. <br><br>Press 'SPACE' to continue. </div>","32","","","","","","","","","","","","","","","","","","","",""
"html-keyboard-response","8","71994","0.0-2.0-0.0","jfcjl3gl19kx5sy","instructions","5c6460995a5e01000129347c","5f60e3c0a3b16e07647b2ff9","5f60ec7129b248010b6de5eb","false","33982.17500001192","<div align=justify>You will classify the objects using the <strong>'S'</strong> and the <strong>'L'</strong> keys on your keyboard.<br>For doing so, please place your <strong>left index finger</strong> on the <strong>'S'</strong> key and place your <strong>right index finger</strong> on the <strong>'L'</strong> key. <br><br> Each trial starts with an instruction, indicating which key ('S'/'L') you need to press to classify <br>the object as mechanical (letter M) or non-mechanical (letter N).<br>The instruction <strong>M + N</strong> indicates that, in the current trial, by pressing the left key ('S') you classify the displayed object as mechanical (M) <br> and by pressing the right key ('L') you classify the object as non-mechanical (N). <br>The instruction <strong>N + M</strong> on the other hand indicates that by pressing the left key ('S') you classify the displayed object as non-mechanical (N) <br> and by pressing the right key ('L') you classify the object as mechanical (M). <br><br>Please press the key corresponding to the correct classification as fast as possible as soon as the object is displayed and try to avoid making mistakes.<br>If you do not respond within a 2 second window, a corresponding feedback will be displayed and the next trial will start.<br> The experiment is divided into multiple blocks to give you the opportunity to take a break after each block. <br>First, you can now practice this task. <br><br>Please place your <strong>LEFT INDEX FINGER</strong> on the 'S' key and your <strong>RIGHT INDEX FINGER</strong> on the 'L' key now. <br><br>Press SPACE to continue.</div>","32","","","","","","","","","","","","","","","","","","","",""
"html-keyboard-response","9","76801","0.0-2.0-1.0","jfcjl3gl19kx5sy","instructions","5c6460995a5e01000129347c","5f60e3c0a3b16e07647b2ff9","5f60ec7129b248010b6de5eb","false","4803.644999978133","<div align=left> You will now have time to practice this task.<br><br>Remember: <br> <br><li>Please place your index fingers on the <strong>'S'</strong> and <strong>'L'</strong> keys <br>to respond as fast and accurately as possible.</li><li>Every picture can be classified as either mechanical or non-mechanical.</li><li>If you do not respond in time or commit an error, you will receive a corresponding feedback. </li><li> Please try to respond as <strong> fast </strong> and as <strong> accurately as possible </strong> .<br><li>To ensure optimal results, please minimize distractions and stay focused. </li><br><br>Press SPACE to continue.</div>","32","","","","","","","","","","","","","","","","","","","",""
"html-keyboard-response","10","77519","0.0-2.0-2.0-0.0","jfcjl3gl19kx5sy","practice_no_cue","5c6460995a5e01000129347c","5f60e3c0a3b16e07647b2ff9","5f60ec7129b248010b6de5eb","false","null","<span style=""color: black; font-size: 48px"">N + M</span>","null","","","","resp_prompt","","","","","","","","","","","","","","","",""
"categorize-image","11","79169","0.0-2.0-2.0-1.0","jfcjl3gl19kx5sy","practice_no_cue","5c6460995a5e01000129347c","5f60e3c0a3b16e07647b2ff9","5f60ec7129b248010b6de5eb","true","1131.3800000352785","./Stimuli/ImagesPractice/LN17.jpg","83","","","","test","true","N + M","83","","LN","LN17.jpg","forget","old","1","1","start","left","","","",""
"html-keyboard-response","12","79874","0.0-2.0-2.0-0.1","jfcjl3gl19kx5sy","practice_no_cue","5c6460995a5e01000129347c","5f60e3c0a3b16e07647b2ff9","5f60ec7129b248010b6de5eb","false","null","<span style=""color: black; font-size: 48px"">M + N</span>","null","","","","resp_prompt","","","","","","","","","","","","","","","",""
"categorize-image","13","80514","0.0-2.0-2.0-1.1","jfcjl3gl19kx5sy","practice_no_cue","5c6460995a5e01000129347c","5f60e3c0a3b16e07647b2ff9","5f60ec7129b248010b6de5eb","true","123.80499998107553","./Stimuli/ImagesPractice/LN109.jpg","76","","","","test","true","M + N","76","","LN","LN109.jpg","forget","old","2","1","start","right","","","",""
"html-keyboard-response","14","81217","0.0-2.0-2.0-0.2","jfcjl3gl19kx5sy","practice_no_cue","5c6460995a5e01000129347c","5f60e3c0a3b16e07647b2ff9","5f60ec7129b248010b6de5eb","false","null","<span style=""color: black; font-size: 48px"">M + N</span>","null","","","","resp_prompt","","","","","","","","","","","","","","","",""
"categorize-image","15","81949","0.0-2.0-2.0-1.2","jfcjl3gl19kx5sy","practice_no_cue","5c6460995a5e01000129347c","5f60e3c0a3b16e07647b2ff9","5f60ec7129b248010b6de5eb","true","220.5499999690801","./Stimuli/ImagesPractice/LM147.jpg","76","","","","test","false","M + N","83","","LM","LM147.jpg","remember","old","3","1","start","right","","","",""
"html-keyboard-response","16","82663","0.0-2.0-2.0-0.3","jfcjl3gl19kx5sy","practice_no_cue","5c6460995a5e01000129347c","5f60e3c0a3b16e07647b2ff9","5f60ec7129b248010b6de5eb","false","null","<span style=""color: black; font-size: 48px"">N + M</span>","null","","","","resp_prompt","","","","","","","","","","","","","","","",""
"categorize-image","17","83194","0.0-2.0-2.0-1.3","jfcjl3gl19kx5sy","practice_no_cue","5c6460995a5e01000129347c","5f60e3c0a3b16e07647b2ff9","5f60ec7129b248010b6de5eb","true","18.954999977722764","./Stimuli/ImagesPractice/SM62.jpg","83","","","","test","false","N + M","76","","SM","SM62.jpg","forget","old","4","1","start","left","","","",""
"html-keyboard-response","18","83917","0.0-2.0-2.0-0.4","jfcjl3gl19kx5sy","practice_no_cue","5c6460995a5e01000129347c","5f60e3c0a3b16e07647b2ff9","5f60ec7129b248010b6de5eb","false","null","<span style=""color: black; font-size: 48px"">N + M</span>","null","","","","resp_prompt","","","","","","","","","","","","","","","",""
"categorize-image","19","85039","0.0-2.0-2.0-1.4","jfcjl3gl19kx5sy","practice_no_cue","5c6460995a5e01000129347c","5f60e3c0a3b16e07647b2ff9","5f60ec7129b248010b6de5eb","true","616.6149999480695","./Stimuli/ImagesPractice/SM98.jpg","76","","","","test","true","N + M","76","","SM","SM98.jpg","forget","old","5","1","start","right","","","",""
"html-keyboard-response","20","85754","0.0-2.0-2.0-0.5","jfcjl3gl19kx5sy","practice_no_cue","5c6460995a5e01000129347c","5f60e3c0a3b16e07647b2ff9","5f60ec7129b248010b6de5eb","false","null","<span style=""color: black; font-size: 48px"">M + N</span>","null","","","","resp_prompt","","","","","","","","","","","","","","","",""
"categorize-image","21","86687","0.0-2.0-2.0-1.5","jfcjl3gl19kx5sy","practice_no_cue","5c6460995a5e01000129347c","5f60e3c0a3b16e07647b2ff9","5f60ec7129b248010b6de5eb","true","420.4700000118464","./Stimuli/ImagesPractice/LM55.jpg","83","","","","test","true","M + N","83","","LM","LM55.jpg","forget","old","6","1","start","left","","","",""
"html-keyboard-response","22","87393","0.0-2.0-2.0-0.6","jfcjl3gl19kx5sy","practice_no_cue","5c6460995a5e01000129347c","5f60e3c0a3b16e07647b2ff9","5f60ec7129b248010b6de5eb","false","null","<span style=""color: black; font-size: 48px"">N + M</span>","null","","","","resp_prompt","","","","","","","","","","","","","","","",""
"categorize-image","23","88280","0.0-2.0-2.0-1.6","jfcjl3gl19kx5sy","practice_no_cue","5c6460995a5e01000129347c","5f60e3c0a3b16e07647b2ff9","5f60ec7129b248010b6de5eb","true","373.0000000214204","./Stimuli/ImagesPractice/SM61.jpg","76","","","","test","true","N + M","76","","SM","SM61.jpg","remember","old","7","1","start","right","","","",""
"html-keyboard-response","24","88982","0.0-2.0-2.0-0.7","jfcjl3gl19kx5sy","practice_no_cue","5c6460995a5e01000129347c","5f60e3c0a3b16e07647b2ff9","5f60ec7129b248010b6de5eb","false","null","<span style=""color: black; font-size: 48px"">M + N</span>","null","","","","resp_prompt","","","","","","","","","","","","","","","",""
"categorize-image","25","89966","0.0-2.0-2.0-1.7","jfcjl3gl19kx5sy","practice_no_cue","5c6460995a5e01000129347c","5f60e3c0a3b16e07647b2ff9","5f60ec7129b248010b6de5eb","true","479.68999994918704","./Stimuli/ImagesPractice/SN76.jpg","76","","","","test","true","M + N","76","","SN","SN76.jpg","forget","old","8","1","start","right","","","",""
"html-keyboard-response","26","90683","0.0-2.0-2.0-0.8","jfcjl3gl19kx5sy","practice_no_cue","5c6460995a5e01000129347c","5f60e3c0a3b16e07647b2ff9","5f60ec7129b248010b6de5eb","false","null","<span style=""color: black; font-size: 48px"">N + M</span>","null","","","","resp_prompt","","","","","","","","","","","","","","","",""
"categorize-image","27","91427","0.0-2.0-2.0-1.8","jfcjl3gl19kx5sy","practice_no_cue","5c6460995a5e01000129347c","5f60e3c0a3b16e07647b2ff9","5f60ec7129b248010b6de5eb","true","234.83000008855015","./Stimuli/ImagesPractice/SM97.jpg","83","","","","test","false","N + M","76","","SM","SM97.jpg","remember","old","9","1","start","left","","","",""
"html-keyboard-response","28","92145","0.0-2.0-2.0-0.9","jfcjl3gl19kx5sy","practice_no_cue","5c6460995a5e01000129347c","5f60e3c0a3b16e07647b2ff9","5f60ec7129b248010b6de5eb","false","null","<span style=""color: black; font-size: 48px"">N + M</span>","null","","","","resp_prompt","","","","","","","","","","","","","","","",""
"categorize-image","29","93175","0.0-2.0-2.0-1.9","jfcjl3gl19kx5sy","practice_no_cue","5c6460995a5e01000129347c","5f60e3c0a3b16e07647b2ff9","5f60ec7129b248010b6de5eb","true","525.8049999829382","./Stimuli/ImagesPractice/SN220.jpg","76","","","","test","false","N + M","83","","SN","SN220.jpg","forget","old","10","1","start","right","","","",""
"html-keyboard-response","30","93893","0.0-2.0-2.0-0.10","jfcjl3gl19kx5sy","practice_no_cue","5c6460995a5e01000129347c","5f60e3c0a3b16e07647b2ff9","5f60ec7129b248010b6de5eb","false","null","<span style=""color: black; font-size: 48px"">M + N</span>","null","","","","resp_prompt","","","","","","","","","","","","","","","",""
"categorize-image","31","95230","0.0-2.0-2.0-1.10","jfcjl3gl19kx5sy","practice_no_cue","5c6460995a5e01000129347c","5f60e3c0a3b16e07647b2ff9","5f60ec7129b248010b6de5eb","true","826.340000028722","./Stimuli/ImagesPractice/SM35.jpg","76","","","","test","false","M + N","83","","SM","SM35.jpg","remember","old","11","1","start","right","","","",""
"html-keyboard-response","32","95934","0.0-2.0-2.0-0.11","jfcjl3gl19kx5sy","practice_no_cue","5c6460995a5e01000129347c","5f60e3c0a3b16e07647b2ff9","5f60ec7129b248010b6de5eb","false","null","<span style=""color: black; font-size: 48px"">M + N</span>","null","","","","resp_prompt","","","","","","","","","","","","","","","",""
"categorize-image","33","97102","0.0-2.0-2.0-1.11","jfcjl3gl19kx5sy","practice_no_cue","5c6460995a5e01000129347c","5f60e3c0a3b16e07647b2ff9","5f60ec7129b248010b6de5eb","true","655.7799999136478","./Stimuli/ImagesPractice/SN221.jpg","83","","","","test","false","M + N","76","","SN","SN221.jpg","remember","old","12","1","start","left","","","",""
"html-keyboard-response","34","97819","0.0-2.0-2.0-0.12","jfcjl3gl19kx5sy","practice_no_cue","5c6460995a5e01000129347c","5f60e3c0a3b16e07647b2ff9","5f60ec7129b248010b6de5eb","false","null","<span style=""color: black; font-size: 48px"">M + N</span>","null","","","","resp_prompt","","","","","","","","","","","","","","","",""
"categorize-image","35","98521","0.0-2.0-2.0-1.12","jfcjl3gl19kx5sy","practice_no_cue","5c6460995a5e01000129347c","5f60e3c0a3b16e07647b2ff9","5f60ec7129b248010b6de5eb","true","186.32000009529293","./Stimuli/ImagesPractice/SN75.jpg","83","","","","test","false","M + N","76","","SN","SN75.jpg","forget","old","13","1","start","left","","","",""
"html-keyboard-response","36","99224","0.0-2.0-2.0-0.13","jfcjl3gl19kx5sy","practice_no_cue","5c6460995a5e01000129347c","5f60e3c0a3b16e07647b2ff9","5f60ec7129b248010b6de5eb","false","null","<span style=""color: black; font-size: 48px"">N + M</span>","null","","","","resp_prompt","","","","","","","","","","","","","","","",""
"categorize-image","37","99755","0.0-2.0-2.0-1.13","jfcjl3gl19kx5sy","practice_no_cue","5c6460995a5e01000129347c","5f60e3c0a3b16e07647b2ff9","5f60ec7129b248010b6de5eb","true","13.870000024326146","./Stimuli/ImagesPractice/LN2.jpg","76","","","","test","false","N + M","83","","LN","LN2.jpg","remember","old","14","1","start","right","","","",""
"html-keyboard-response","38","100470","0.0-2.0-2.0-0.14","jfcjl3gl19kx5sy","practice_no_cue","5c6460995a5e01000129347c","5f60e3c0a3b16e07647b2ff9","5f60ec7129b248010b6de5eb","false","null","<span style=""color: black; font-size: 48px"">M + N</span>","null","","","","resp_prompt","","","","","","","","","","","","","","","",""
"categorize-image","39","101599","0.0-2.0-2.0-1.14","jfcjl3gl19kx5sy","practice_no_cue","5c6460995a5e01000129347c","5f60e3c0a3b16e07647b2ff9","5f60ec7129b248010b6de5eb","true","622.1349999541417","./Stimuli/ImagesPractice/LM239.jpg","76","","","","test","false","M + N","83","","LM","LM239.jpg","remember","old","15","1","start","right","","","",""
"html-keyboard-response","40","102304","0.0-2.0-2.0-0.15","jfcjl3gl19kx5sy","practice_no_cue","5c6460995a5e01000129347c","5f60e3c0a3b16e07647b2ff9","5f60ec7129b248010b6de5eb","false","null","<span style=""color: black; font-size: 48px"">N + M</span>","null","","","","resp_prompt","","","","","","","","","","","","","","","",""
"categorize-image","41","103036","0.0-2.0-2.0-1.15","jfcjl3gl19kx5sy","practice_no_cue","5c6460995a5e01000129347c","5f60e3c0a3b16e07647b2ff9","5f60ec7129b248010b6de5eb","true","221.56000009272248","./Stimuli/ImagesPractice/LN72.jpg","76","","","","test","false","N + M","83","","LN","LN72.jpg","remember","old","16","1","start","right","","","",""
"html-keyboard-response","42","111258","0.0-2.0-3.0","jfcjl3gl19kx5sy","break","5c6460995a5e01000129347c","5f60e3c0a3b16e07647b2ff9","5f60ec7129b248010b6de5eb","false","8214.709999971092","<p style='font-size: 32px;'>Break</><br><br><br><br><br><p style='font-size: 24px;'>In the last block, you committed 10 errors and did not respond in time on 0 trials.
</p><p style='font-size: 24px;'>Try to respond as fast and accurately as possible in the next block as well! </p><p style='font-size: 24px;'>Press SPACE to continue.</p>","32","","","","","","","","","","","","","","","","","","","",""
"html-keyboard-response","43","115497","0.0-2.0-4.0","jfcjl3gl19kx5sy","instructions","5c6460995a5e01000129347c","5f60e3c0a3b16e07647b2ff9","5f60ec7129b248010b6de5eb","false","4235.6549999676645","<div align=left> Great!<br><br>Are you ready to continue?<br><br>If you want to reread the instructions and redo the practice trials, <br>please press „Z“. <br><br>Press SPACE to CONTINUE with the experiment when you are ready. </div>","32","","","","","","","","","","","","","","","","","","","",""
"html-keyboard-response","44","125247","0.0-3.0-0.0","jfcjl3gl19kx5sy","instructions","5c6460995a5e01000129347c","5f60e3c0a3b16e07647b2ff9","5f60ec7129b248010b6de5eb","false","9746.979999938048","<div align=left>Great!<br> <strong>Attention</strong>! You will now receive a second, additional task! <br><br>To this point it was you <strong>first task</strong> to correctly <strong>classify objects</strong>. <br><br>As mentioned in the beginning, we aim to examine how well humans can remember previously learned information.<br>We would like to find out whether our memory improves if we only remember information that is relevant to us. <br><br>Therefore, your <strong>second task</strong> will be to <strong>remember</strong> the pictures you are to categorize. <br> After the learning phase, there will be a memory test phase, in which you will be asked to indicate whether you have seen a picture before or not. <br>Some, but not all pictures shown in the learning phase will appear in the memory test phase.<br>After classifying a picture, you will be told whether you should remember it for the memory test phase or not. <br>Thus, some pictures can be forgotten, whereas others have to be remembered. <br><br>Note: From now on, feedback will only be displayed if you responded incorrectly or not in time.<br><br>Press SPACE to continue.</div>","32","","","","","","","","","","","","","","","","","","","",""
"html-keyboard-response","45","131121","0.0-3.0-1.0","jfcjl3gl19kx5sy","instructions","5c6460995a5e01000129347c","5f60e3c0a3b16e07647b2ff9","5f60ec7129b248010b6de5eb","false","5872.435000026599","<div align=left>In the following part, you will thus have to remember only some pictures. <br>Immediately after seeing and classifying the picture, a symbol will be displayed, indicating whether you should remember or forget the previous picture. <br><br>A <span style='color: dodgerblue; font-size: 28px'>O</span> indicates REMEMBER. That means, you have to remember this picture, because it will be tested later. <br><br>A <span style='color: darkorange; font-size:28px'>Ø</span> indicates FORGET. You do not have to remember this picture. <br><br> As you will have to remember a lot of pictures, it will be hard for you to remember all of them. <br>It will put you at an advantage if you instantly forget the pictures you are not asked to remember. <br> This will make it easier for you to remember the pictures that will be tested afterwards. <br><br>Press SPACE to continue.</div>","32","","","","","","","","","","","","","","","","","","","",""
"html-keyboard-response","46","133832","0.0-3.0-2.0","jfcjl3gl19kx5sy","instructions","5c6460995a5e01000129347c","5f60e3c0a3b16e07647b2ff9","5f60ec7129b248010b6de5eb","false","2708.284999942407","<div align=left> Now you have the chance to practice both tasks together.<br><br>Remember: <br> <br><li>Please place your index fingers on the <strong>'S'</strong> and <strong>'L'</strong> keys <br>to respond as fast and accurately as possible.</li><li>Every picture can be classified as either mechanical or non-mechanical.</li><li>If you do not respond in time or commit an error, you will receive a corresponding feedback. <br>Please try to respond as <strong> fast </strong> and as <strong> accurately as possible </strong>.</li><li> Please remember only the to-be-remembered <span style='color: dodgerblue; font-size: 28px'>O</span> pictures. <br></li><li> Please minimize distractions and stay focused. </li><br><br>Press SPACE to START</div>","32","","","","","","","","","","","","","","","","","","","",""
"html-keyboard-response","47","134546","0.0-3.0-3.0-0.0","jfcjl3gl19kx5sy","practice_cue","5c6460995a5e01000129347c","5f60e3c0a3b16e07647b2ff9","5f60ec7129b248010b6de5eb","false","null","<span style=""color: black; font-size: 48px"">N + M</span>","null","","","","resp_prompt","","","","","","","","","","","","","","","",""
"categorize-image","48","134989","0.0-3.0-3.0-1.0","jfcjl3gl19kx5sy","practice_cue","5c6460995a5e01000129347c","5f60e3c0a3b16e07647b2ff9","5f60ec7129b248010b6de5eb","true","435.204999987036","./Stimuli/ImagesPractice/SM97.jpg","83","","","","test","false","N + M","76","","SM","SM97.jpg","remember","old","17","2","practice_forget","left","","","",""
"html-keyboard-response","49","135494","0.0-3.0-3.0-2.0-0.0","jfcjl3gl19kx5sy","practice_cue","5c6460995a5e01000129347c","5f60e3c0a3b16e07647b2ff9","5f60ec7129b248010b6de5eb","false","null","<span style=""color: red; font-size: 48px"">Error!</span>","null","","","","feedback","","","","","","","","","","","","","","","",""
"html-keyboard-response","50","137511","0.0-3.0-3.0-3.0","jfcjl3gl19kx5sy","practice_cue","5c6460995a5e01000129347c","5f60e3c0a3b16e07647b2ff9","5f60ec7129b248010b6de5eb","false","null","<div style=""align-items: center; display: flex; color: dodgerblue; font-size: 90px""><b>o</b></div>","null","","","","forget_cue","","","","","","","","","","","","","","","",""
"html-keyboard-response","51","138218","0.0-3.0-3.0-0.1","jfcjl3gl19kx5sy","practice_cue","5c6460995a5e01000129347c","5f60e3c0a3b16e07647b2ff9","5f60ec7129b248010b6de5eb","false","null","<span style=""color: black; font-size: 48px"">M + N</span>","null","","","","resp_prompt","","","","","","","","","","","","","","","",""
"categorize-image","52","138996","0.0-3.0-3.0-1.1","jfcjl3gl19kx5sy","practice_cue","5c6460995a5e01000129347c","5f60e3c0a3b16e07647b2ff9","5f60ec7129b248010b6de5eb","true","768.9750000135973","./Stimuli/ImagesPractice/LM239.jpg","76","","","","test","false","M + N","83","","LM","LM239.jpg","remember","old","18","2","practice_forget","right","","","",""
"html-keyboard-response","53","139501","0.0-3.0-3.0-2.1-0.1","jfcjl3gl19kx5sy","practice_cue","5c6460995a5e01000129347c","5f60e3c0a3b16e07647b2ff9","5f60ec7129b248010b6de5eb","false","null","<span style=""color: red; font-size: 48px"">Error!</span>","null","","","","feedback","","","","","","","","","","","","","","","",""
"html-keyboard-response","54","141506","0.0-3.0-3.0-3.1","jfcjl3gl19kx5sy","practice_cue","5c6460995a5e01000129347c","5f60e3c0a3b16e07647b2ff9","5f60ec7129b248010b6de5eb","false","null","<div style=""align-items: center; display: flex; color: dodgerblue; font-size: 90px""><b>o</b></div>","null","","","","forget_cue","","","","","","","","","","","","","","","",""
"html-keyboard-response","55","142213","0.0-3.0-3.0-0.2","jfcjl3gl19kx5sy","practice_cue","5c6460995a5e01000129347c","5f60e3c0a3b16e07647b2ff9","5f60ec7129b248010b6de5eb","false","null","<span style=""color: black; font-size: 48px"">N + M</span>","null","","","","resp_prompt","","","","","","","","","","","","","","","",""
"categorize-image","56","142883","0.0-3.0-3.0-1.2","jfcjl3gl19kx5sy","practice_cue","5c6460995a5e01000129347c","5f60e3c0a3b16e07647b2ff9","5f60ec7129b248010b6de5eb","true","663.0850000074133","./Stimuli/ImagesPractice/SM62.jpg","76","","","","test","true","N + M","76","","SM","SM62.jpg","forget","old","19","2","practice_forget","right","","","",""
"html-keyboard-response","57","144899","0.0-3.0-3.0-3.2","jfcjl3gl19kx5sy","practice_cue","5c6460995a5e01000129347c","5f60e3c0a3b16e07647b2ff9","5f60ec7129b248010b6de5eb","false","null","<div style=""align-items: center; display: flex; color: darkorange; font-size: 90px""><b>ø</b></div>","null","","","","forget_cue","","","","","","","","","","","","","","","",""
"html-keyboard-response","58","145613","0.0-3.0-3.0-0.3","jfcjl3gl19kx5sy","practice_cue","5c6460995a5e01000129347c","5f60e3c0a3b16e07647b2ff9","5f60ec7129b248010b6de5eb","false","null","<span style=""color: black; font-size: 48px"">M + N</span>","null","","","","resp_prompt","","","","","","","","","","","","","","","",""
"categorize-image","59","145741","0.0-3.0-3.0-1.3","jfcjl3gl19kx5sy","practice_cue","5c6460995a5e01000129347c","5f60e3c0a3b16e07647b2ff9","5f60ec7129b248010b6de5eb","true","119.72999991849065","./Stimuli/ImagesPractice/LM55.jpg","83","","","","test","true","M + N","83","","LM","LM55.jpg","forget","old","20","2","practice_forget","left","","","",""
"html-keyboard-response","60","147749","0.0-3.0-3.0-3.3","jfcjl3gl19kx5sy","practice_cue","5c6460995a5e01000129347c","5f60e3c0a3b16e07647b2ff9","5f60ec7129b248010b6de5eb","false","null","<div style=""align-items: center; display: flex; color: darkorange; font-size: 90px""><b>ø</b></div>","null","","","","forget_cue","","","","","","","","","","","","","","","",""
"html-keyboard-response","61","148452","0.0-3.0-3.0-0.4","jfcjl3gl19kx5sy","practice_cue","5c6460995a5e01000129347c","5f60e3c0a3b16e07647b2ff9","5f60ec7129b248010b6de5eb","false","null","<span style=""color: black; font-size: 48px"">M + N</span>","null","","","","resp_prompt","","","","","","","","","","","","","","","",""
"categorize-image","62","149021","0.0-3.0-3.0-1.4","jfcjl3gl19kx5sy","practice_cue","5c6460995a5e01000129347c","5f60e3c0a3b16e07647b2ff9","5f60ec7129b248010b6de5eb","true","561.1500000813976","./Stimuli/ImagesPractice/SN75.jpg","76","","","","test","true","M + N","76","","SN","SN75.jpg","forget","old","21","2","practice_forget","right","","","",""
"html-keyboard-response","63","151023","0.0-3.0-3.0-3.4","jfcjl3gl19kx5sy","practice_cue","5c6460995a5e01000129347c","5f60e3c0a3b16e07647b2ff9","5f60ec7129b248010b6de5eb","false","null","<div style=""align-items: center; display: flex; color: darkorange; font-size: 90px""><b>ø</b></div>","null","","","","forget_cue","","","","","","","","","","","","","","","",""
"html-keyboard-response","64","151731","0.0-3.0-3.0-0.5","jfcjl3gl19kx5sy","practice_cue","5c6460995a5e01000129347c","5f60e3c0a3b16e07647b2ff9","5f60ec7129b248010b6de5eb","false","null","<span style=""color: black; font-size: 48px"">N + M</span>","null","","","","resp_prompt","","","","","","","","","","","","","","","",""
"categorize-image","65","151834","0.0-3.0-3.0-1.5","jfcjl3gl19kx5sy","practice_cue","5c6460995a5e01000129347c","5f60e3c0a3b16e07647b2ff9","5f60ec7129b248010b6de5eb","true","97.5849999813363","./Stimuli/ImagesPractice/LN72.jpg","76","","","","test","false","N + M","83","","LN","LN72.jpg","remember","old","22","2","practice_forget","right","","","",""
"html-keyboard-response","66","152341","0.0-3.0-3.0-2.5-0.5","jfcjl3gl19kx5sy","practice_cue","5c6460995a5e01000129347c","5f60e3c0a3b16e07647b2ff9","5f60ec7129b248010b6de5eb","false","null","<span style=""color: red; font-size: 48px"">Error!</span>","null","","","","feedback","","","","","","","","","","","","","","","",""
"html-keyboard-response","67","154355","0.0-3.0-3.0-3.5","jfcjl3gl19kx5sy","practice_cue","5c6460995a5e01000129347c","5f60e3c0a3b16e07647b2ff9","5f60ec7129b248010b6de5eb","false","null","<div style=""align-items: center; display: flex; color: dodgerblue; font-size: 90px""><b>o</b></div>","null","","","","forget_cue","","","","","","","","","","","","","","","",""
"html-keyboard-response","68","155071","0.0-3.0-3.0-0.6","jfcjl3gl19kx5sy","practice_cue","5c6460995a5e01000129347c","5f60e3c0a3b16e07647b2ff9","5f60ec7129b248010b6de5eb","false","null","<span style=""color: black; font-size: 48px"">M + N</span>","null","","","","resp_prompt","","","","","","","","","","","","","","","",""
"categorize-image","69","155139","0.0-3.0-3.0-1.6","jfcjl3gl19kx5sy","practice_cue","5c6460995a5e01000129347c","5f60e3c0a3b16e07647b2ff9","5f60ec7129b248010b6de5eb","true","61.20500003453344","./Stimuli/ImagesPractice/SN76.jpg","76","","","","test","true","M + N","76","","SN","SN76.jpg","forget","old","23","2","practice_forget","right","","","",""
"html-keyboard-response","70","157147","0.0-3.0-3.0-3.6","jfcjl3gl19kx5sy","practice_cue","5c6460995a5e01000129347c","5f60e3c0a3b16e07647b2ff9","5f60ec7129b248010b6de5eb","false","null","<div style=""align-items: center; display: flex; color: darkorange; font-size: 90px""><b>ø</b></div>","null","","","","forget_cue","","","","","","","","","","","","","","","",""
"html-keyboard-response","71","157862","0.0-3.0-3.0-0.7","jfcjl3gl19kx5sy","practice_cue","5c6460995a5e01000129347c","5f60e3c0a3b16e07647b2ff9","5f60ec7129b248010b6de5eb","false","null","<span style=""color: black; font-size: 48px"">M + N</span>","null","","","","resp_prompt","","","","","","","","","","","","","","","",""
"categorize-image","72","157938","0.0-3.0-3.0-1.7","jfcjl3gl19kx5sy","practice_cue","5c6460995a5e01000129347c","5f60e3c0a3b16e07647b2ff9","5f60ec7129b248010b6de5eb","true","71.51999999769032","./Stimuli/ImagesPractice/SM35.jpg","83","","","","test","true","M + N","83","","SM","SM35.jpg","remember","old","24","2","practice_forget","left","","","",""
"html-keyboard-response","73","159949","0.0-3.0-3.0-3.7","jfcjl3gl19kx5sy","practice_cue","5c6460995a5e01000129347c","5f60e3c0a3b16e07647b2ff9","5f60ec7129b248010b6de5eb","false","null","<div style=""align-items: center; display: flex; color: dodgerblue; font-size: 90px""><b>o</b></div>","null","","","","forget_cue","","","","","","","","","","","","","","","",""
"html-keyboard-response","74","160664","0.0-3.0-3.0-0.8","jfcjl3gl19kx5sy","practice_cue","5c6460995a5e01000129347c","5f60e3c0a3b16e07647b2ff9","5f60ec7129b248010b6de5eb","false","null","<span style=""color: black; font-size: 48px"">M + N</span>","null","","","","resp_prompt","","","","","","","","","","","","","","","",""
"categorize-image","75","160697","0.0-3.0-3.0-1.8","jfcjl3gl19kx5sy","practice_cue","5c6460995a5e01000129347c","5f60e3c0a3b16e07647b2ff9","5f60ec7129b248010b6de5eb","true","28.95499998703599","./Stimuli/ImagesPractice/LM147.jpg","83","","","","test","true","M + N","83","","LM","LM147.jpg","remember","old","25","2","practice_forget","left","","","",""
"html-keyboard-response","76","162702","0.0-3.0-3.0-3.8","jfcjl3gl19kx5sy","practice_cue","5c6460995a5e01000129347c","5f60e3c0a3b16e07647b2ff9","5f60ec7129b248010b6de5eb","false","null","<div style=""align-items: center; display: flex; color: dodgerblue; font-size: 90px""><b>o</b></div>","null","","","","forget_cue","","","","","","","","","","","","","","","",""
"html-keyboard-response","77","163404","0.0-3.0-3.0-0.9","jfcjl3gl19kx5sy","practice_cue","5c6460995a5e01000129347c","5f60e3c0a3b16e07647b2ff9","5f60ec7129b248010b6de5eb","false","null","<span style=""color: black; font-size: 48px"">N + M</span>","null","","","","resp_prompt","","","","","","","","","","","","","","","",""
"categorize-image","78","163872","0.0-3.0-3.0-1.9","jfcjl3gl19kx5sy","practice_cue","5c6460995a5e01000129347c","5f60e3c0a3b16e07647b2ff9","5f60ec7129b248010b6de5eb","true","464.62500002235174","./Stimuli/ImagesPractice/LN2.jpg","76","","","","test","false","N + M","83","","LN","LN2.jpg","remember","old","26","2","practice_forget","right","","","",""
"html-keyboard-response","79","164380","0.0-3.0-3.0-2.9-0.9","jfcjl3gl19kx5sy","practice_cue","5c6460995a5e01000129347c","5f60e3c0a3b16e07647b2ff9","5f60ec7129b248010b6de5eb","false","null","<span style=""color: red; font-size: 48px"">Error!</span>","null","","","","feedback","","","","","","","","","","","","","","","",""
"html-keyboard-response","80","166387","0.0-3.0-3.0-3.9","jfcjl3gl19kx5sy","practice_cue","5c6460995a5e01000129347c","5f60e3c0a3b16e07647b2ff9","5f60ec7129b248010b6de5eb","false","null","<div style=""align-items: center; display: flex; color: dodgerblue; font-size: 90px""><b>o</b></div>","null","","","","forget_cue","","","","","","","","","","","","","","","",""
"html-keyboard-response","81","167104","0.0-3.0-3.0-0.10","jfcjl3gl19kx5sy","practice_cue","5c6460995a5e01000129347c","5f60e3c0a3b16e07647b2ff9","5f60ec7129b248010b6de5eb","false","null","<span style=""color: black; font-size: 48px"">M + N</span>","null","","","","resp_prompt","","","","","","","","","","","","","","","",""
"categorize-image","82","167526","0.0-3.0-3.0-1.10","jfcjl3gl19kx5sy","practice_cue","5c6460995a5e01000129347c","5f60e3c0a3b16e07647b2ff9","5f60ec7129b248010b6de5eb","true","415.9399999771267","./Stimuli/ImagesPractice/LN109.jpg","83","","","","test","false","M + N","76","","LN","LN109.jpg","forget","old","27","2","practice_forget","left","","","",""
"html-keyboard-response","83","168042","0.0-3.0-3.0-2.10-0.10","jfcjl3gl19kx5sy","practice_cue","5c6460995a5e01000129347c","5f60e3c0a3b16e07647b2ff9","5f60ec7129b248010b6de5eb","false","null","<span style=""color: red; font-size: 48px"">Error!</span>","null","","","","feedback","","","","","","","","","","","","","","","",""
"html-keyboard-response","84","170054","0.0-3.0-3.0-3.10","jfcjl3gl19kx5sy","practice_cue","5c6460995a5e01000129347c","5f60e3c0a3b16e07647b2ff9","5f60ec7129b248010b6de5eb","false","null","<div style=""align-items: center; display: flex; color: darkorange; font-size: 90px""><b>ø</b></div>","null","","","","forget_cue","","","","","","","","","","","","","","","",""
"html-keyboard-response","85","170756","0.0-3.0-3.0-0.11","jfcjl3gl19kx5sy","practice_cue","5c6460995a5e01000129347c","5f60e3c0a3b16e07647b2ff9","5f60ec7129b248010b6de5eb","false","null","<span style=""color: black; font-size: 48px"">N + M</span>","null","","","","resp_prompt","","","","","","","","","","","","","","","",""
"categorize-image","86","171485","0.0-3.0-3.0-1.11","jfcjl3gl19kx5sy","practice_cue","5c6460995a5e01000129347c","5f60e3c0a3b16e07647b2ff9","5f60ec7129b248010b6de5eb","true","720.6800000276417","./Stimuli/ImagesPractice/SN220.jpg","76","","","","test","false","N + M","83","","SN","SN220.jpg","forget","old","28","2","practice_forget","right","","","",""
"html-keyboard-response","87","171991","0.0-3.0-3.0-2.11-0.11","jfcjl3gl19kx5sy","practice_cue","5c6460995a5e01000129347c","5f60e3c0a3b16e07647b2ff9","5f60ec7129b248010b6de5eb","false","null","<span style=""color: red; font-size: 48px"">Error!</span>","null","","","","feedback","","","","","","","","","","","","","","","",""
"html-keyboard-response","88","174004","0.0-3.0-3.0-3.11","jfcjl3gl19kx5sy","practice_cue","5c6460995a5e01000129347c","5f60e3c0a3b16e07647b2ff9","5f60ec7129b248010b6de5eb","false","null","<div style=""align-items: center; display: flex; color: darkorange; font-size: 90px""><b>ø</b></div>","null","","","","forget_cue","","","","","","","","","","","","","","","",""
"html-keyboard-response","89","174718","0.0-3.0-3.0-0.12","jfcjl3gl19kx5sy","practice_cue","5c6460995a5e01000129347c","5f60e3c0a3b16e07647b2ff9","5f60ec7129b248010b6de5eb","false","null","<span style=""color: black; font-size: 48px"">N + M</span>","null","","","","resp_prompt","","","","","","","","","","","","","","","",""
"categorize-image","90","175413","0.0-3.0-3.0-1.12","jfcjl3gl19kx5sy","practice_cue","5c6460995a5e01000129347c","5f60e3c0a3b16e07647b2ff9","5f60ec7129b248010b6de5eb","true","685.6799999950454","./Stimuli/ImagesPractice/LN17.jpg","76","","","","test","false","N + M","83","","LN","LN17.jpg","forget","old","29","2","practice_forget","right","","","",""
"html-keyboard-response","91","175920","0.0-3.0-3.0-2.12-0.12","jfcjl3gl19kx5sy","practice_cue","5c6460995a5e01000129347c","5f60e3c0a3b16e07647b2ff9","5f60ec7129b248010b6de5eb","false","null","<span style=""color: red; font-size: 48px"">Error!</span>","null","","","","feedback","","","","","","","","","","","","","","","",""
"html-keyboard-response","92","177931","0.0-3.0-3.0-3.12","jfcjl3gl19kx5sy","practice_cue","5c6460995a5e01000129347c","5f60e3c0a3b16e07647b2ff9","5f60ec7129b248010b6de5eb","false","null","<div style=""align-items: center; display: flex; color: darkorange; font-size: 90px""><b>ø</b></div>","null","","","","forget_cue","","","","","","","","","","","","","","","",""
"html-keyboard-response","93","178647","0.0-3.0-3.0-0.13","jfcjl3gl19kx5sy","practice_cue","5c6460995a5e01000129347c","5f60e3c0a3b16e07647b2ff9","5f60ec7129b248010b6de5eb","false","null","<span style=""color: black; font-size: 48px"">N + M</span>","null","","","","resp_prompt","","","","","","","","","","","","","","","",""
"categorize-image","94","179333","0.0-3.0-3.0-1.13","jfcjl3gl19kx5sy","practice_cue","5c6460995a5e01000129347c","5f60e3c0a3b16e07647b2ff9","5f60ec7129b248010b6de5eb","true","680.129999993369","./Stimuli/ImagesPractice/SM98.jpg","83","","","","test","false","N + M","76","","SM","SM98.jpg","forget","old","30","2","practice_forget","left","","","",""
"html-keyboard-response","95","179849","0.0-3.0-3.0-2.13-0.13","jfcjl3gl19kx5sy","practice_cue","5c6460995a5e01000129347c","5f60e3c0a3b16e07647b2ff9","5f60ec7129b248010b6de5eb","false","null","<span style=""color: red; font-size: 48px"">Error!</span>","null","","","","feedback","","","","","","","","","","","","","","","",""
"html-keyboard-response","96","181861","0.0-3.0-3.0-3.13","jfcjl3gl19kx5sy","practice_cue","5c6460995a5e01000129347c","5f60e3c0a3b16e07647b2ff9","5f60ec7129b248010b6de5eb","false","null","<div style=""align-items: center; display: flex; color: darkorange; font-size: 90px""><b>ø</b></div>","null","","","","forget_cue","","","","","","","","","","","","","","","",""
"html-keyboard-response","97","182567","0.0-3.0-3.0-0.14","jfcjl3gl19kx5sy","practice_cue","5c6460995a5e01000129347c","5f60e3c0a3b16e07647b2ff9","5f60ec7129b248010b6de5eb","false","null","<span style=""color: black; font-size: 48px"">M + N</span>","null","","","","resp_prompt","","","","","","","","","","","","","","","",""
"categorize-image","98","183541","0.0-3.0-3.0-1.14","jfcjl3gl19kx5sy","practice_cue","5c6460995a5e01000129347c","5f60e3c0a3b16e07647b2ff9","5f60ec7129b248010b6de5eb","true","965.5599999241531","./Stimuli/ImagesPractice/SN221.jpg","76","","","","test","true","M + N","76","","SN","SN221.jpg","remember","old","31","2","practice_forget","right","","","",""
"html-keyboard-response","99","185559","0.0-3.0-3.0-3.14","jfcjl3gl19kx5sy","practice_cue","5c6460995a5e01000129347c","5f60e3c0a3b16e07647b2ff9","5f60ec7129b248010b6de5eb","false","null","<div style=""align-items: center; display: flex; color: dodgerblue; font-size: 90px""><b>o</b></div>","null","","","","forget_cue","","","","","","","","","","","","","","","",""
"html-keyboard-response","100","186262","0.0-3.0-3.0-0.15","jfcjl3gl19kx5sy","practice_cue","5c6460995a5e01000129347c","5f60e3c0a3b16e07647b2ff9","5f60ec7129b248010b6de5eb","false","null","<span style=""color: black; font-size: 48px"">N + M</span>","null","","","","resp_prompt","","","","","","","","","","","","","","","",""
"categorize-image","101","187105","0.0-3.0-3.0-1.15","jfcjl3gl19kx5sy","practice_cue","5c6460995a5e01000129347c","5f60e3c0a3b16e07647b2ff9","5f60ec7129b248010b6de5eb","true","837.4499999918044","./Stimuli/ImagesPractice/SM61.jpg","83","","","","test","false","N + M","76","","SM","SM61.jpg","remember","old","32","2","practice_forget","left","","","",""
"html-keyboard-response","102","187609","0.0-3.0-3.0-2.15-0.15","jfcjl3gl19kx5sy","practice_cue","5c6460995a5e01000129347c","5f60e3c0a3b16e07647b2ff9","5f60ec7129b248010b6de5eb","false","null","<span style=""color: red; font-size: 48px"">Error!</span>","null","","","","feedback","","","","","","","","","","","","","","","",""
"html-keyboard-response","103","189616","0.0-3.0-3.0-3.15","jfcjl3gl19kx5sy","practice_cue","5c6460995a5e01000129347c","5f60e3c0a3b16e07647b2ff9","5f60ec7129b248010b6de5eb","false","null","<div style=""align-items: center; display: flex; color: dodgerblue; font-size: 90px""><b>o</b></div>","null","","","","forget_cue","","","","","","","","","","","","","","","",""
"html-keyboard-response","104","195328","0.0-3.0-4.0","jfcjl3gl19kx5sy","break","5c6460995a5e01000129347c","5f60e3c0a3b16e07647b2ff9","5f60ec7129b248010b6de5eb","false","5706.2900000019","<p style='font-size: 32px;'>Break</><br><br><br><br><br><p style='font-size: 24px;'>In the last block, you committed 9 errors and did not respond in time on 0 trials.
</p><p style='font-size: 24px;'>Try to respond as fast and accurately as possible in the next block as well! </p><p style='font-size: 24px;'>Press SPACE to continue.</p>","32","","","","","","","","","","","","","","","","","","","",""
"html-keyboard-response","105","205265","0.0-3.0-5.0","jfcjl3gl19kx5sy","instructions","5c6460995a5e01000129347c","5f60e3c0a3b16e07647b2ff9","5f60ec7129b248010b6de5eb","false","9933.639999944717","<div align=left> Now, to practice, we kindly ask you to remember as many of the to-be-remembered pictures<br>of the previous learning phase as possible.<br><br>The pictures you were instructed to remember were the pictures followed by a <span style='color: dodgerblue; font-size: 28px'>O</span>.<br><br>In this memory test phase, you will also see some new pictures.<br>It is your task to remember whether you were presented with this specific picture in this study so far or not.<br>If you recognize an object (you have already seen it in this study), it is an OLD object. <br>If you do not recognize an object (you have NOT seen it in this study), it is a NEW object. <br><strong> Attention</strong>: As already mentioned, <span style='color: darkorange; font-size:28px'>Ø</span>-pictures will <strong>never</strong> appear in this memory test (neither as new objects). <br><br>Press SPACE to continue. </div>","32","","","","","","","","","","","","","","","","","","","",""
"html-keyboard-response","106","238009","0.0-3.0-6.0","jfcjl3gl19kx5sy","instructions","5c6460995a5e01000129347c","5f60e3c0a3b16e07647b2ff9","5f60ec7129b248010b6de5eb","false","32739.784999983385","<div align=left> M and N no longer will appear on the left/right of the fixation cross. <br>Instead there will be a note at the bottom of the left or right side  <br>indicating which key you should press for an old or new object:  <br> <br>Press the <strong>right</strong> key to classify an object as <strong>old</strong> and press the <strong>left</strong>, to classify an object as <strong>new</strong>.<br>Please classify the objects as new/old by again placing your index finger on the 'S' and 'L' keys <br>and press them accordingly.<br><br><strong>Old:</strong> This object has been presented before. <br><strong>New:</strong> This object has <strong>not</strong> been presented.<br><br>Now please put your right and left index fingers on the 'S' and 'L' keys of your keyboard. <br>Please respond as fast and as accurately as possible!<br><br>Press SPACE to continue. </div>","32","","","","","","","","","","","","","","","","","","","",""
"categorize-image","107","240195","0.0-3.0-7.0-0.0","jfcjl3gl19kx5sy","practice_recog","5c6460995a5e01000129347c","5f60e3c0a3b16e07647b2ff9","5f60ec7129b248010b6de5eb","true","1664.1850000014529","./Stimuli/ImagesPractice/LN72.jpg","76","","","","test","true","","76","","LN","LN72.jpg","","old","33","3","practice_recog","right","","","",""
"categorize-image","108","241780","0.0-3.0-7.0-0.1","jfcjl3gl19kx5sy","practice_recog","5c6460995a5e01000129347c","5f60e3c0a3b16e07647b2ff9","5f60ec7129b248010b6de5eb","true","1072.745000012219","./Stimuli/ImagesPractice/SM35.jpg","83","","","","test","false","","76","","SM","SM35.jpg","","old","34","3","practice_recog","left","","","",""
"categorize-image","109","243186","0.0-3.0-7.0-0.2","jfcjl3gl19kx5sy","practice_recog","5c6460995a5e01000129347c","5f60e3c0a3b16e07647b2ff9","5f60ec7129b248010b6de5eb","true","895.2200000640005","./Stimuli/ImagesPractice/LM230.jpg","76","","","","test","false","","83","","LM","LM230.jpg","","new","35","3","practice_recog","right","","","",""
"categorize-image","110","244543","0.0-3.0-7.0-0.3","jfcjl3gl19kx5sy","practice_recog","5c6460995a5e01000129347c","5f60e3c0a3b16e07647b2ff9","5f60ec7129b248010b6de5eb","true","842.3350000521168","./Stimuli/ImagesPractice/SM97.jpg","76","","","","test","true","","76","","SM","SM97.jpg","","old","36","3","practice_recog","right","","","",""
"categorize-image","111","245790","0.0-3.0-7.0-0.4","jfcjl3gl19kx5sy","practice_recog","5c6460995a5e01000129347c","5f60e3c0a3b16e07647b2ff9","5f60ec7129b248010b6de5eb","true","733.0249999649823","./Stimuli/ImagesPractice/LM147.jpg","76","","","","test","true","","76","","LM","LM147.jpg","","old","37","3","practice_recog","right","","","",""
"categorize-image","112","247368","0.0-3.0-7.0-0.5","jfcjl3gl19kx5sy","practice_recog","5c6460995a5e01000129347c","5f60e3c0a3b16e07647b2ff9","5f60ec7129b248010b6de5eb","true","1062.8249999135733","./Stimuli/ImagesPractice/LM143.jpg","76","","","","test","false","","83","","LM","LM143.jpg","","new","38","3","practice_recog","right","","","",""
"categorize-image","113","248539","0.0-3.0-7.0-0.6","jfcjl3gl19kx5sy","practice_recog","5c6460995a5e01000129347c","5f60e3c0a3b16e07647b2ff9","5f60ec7129b248010b6de5eb","true","652.9150001006201","./Stimuli/ImagesPractice/SM61.jpg","76","","","","test","true","","76","","SM","SM61.jpg","","old","39","3","practice_recog","right","","","",""
"categorize-image","114","249962","0.0-3.0-7.0-0.7","jfcjl3gl19kx5sy","practice_recog","5c6460995a5e01000129347c","5f60e3c0a3b16e07647b2ff9","5f60ec7129b248010b6de5eb","true","913.4499999927357","./Stimuli/ImagesPractice/LN4.jpg","83","","","","test","true","","83","","LN","LN4.jpg","","new","40","3","practice_recog","left","","","",""
"categorize-image","115","251133","0.0-3.0-7.0-0.8","jfcjl3gl19kx5sy","practice_recog","5c6460995a5e01000129347c","5f60e3c0a3b16e07647b2ff9","5f60ec7129b248010b6de5eb","true","658.629999961704","./Stimuli/ImagesPractice/SN205.jpg","83","","","","test","true","","83","","SN","SN205.jpg","","new","41","3","practice_recog","left","","","",""
"categorize-image","116","252361","0.0-3.0-7.0-0.9","jfcjl3gl19kx5sy","practice_recog","5c6460995a5e01000129347c","5f60e3c0a3b16e07647b2ff9","5f60ec7129b248010b6de5eb","true","720.4599999822676","./Stimuli/ImagesPractice/LN2.jpg","76","","","","test","true","","76","","LN","LN2.jpg","","old","42","3","practice_recog","right","","","",""
"categorize-image","117","253633","0.0-3.0-7.0-0.10","jfcjl3gl19kx5sy","practice_recog","5c6460995a5e01000129347c","5f60e3c0a3b16e07647b2ff9","5f60ec7129b248010b6de5eb","true","762.8049999475479","./Stimuli/ImagesPractice/LM239.jpg","76","","","","test","true","","76","","LM","LM239.jpg","","old","43","3","practice_recog","right","","","",""
"categorize-image","118","255058","0.0-3.0-7.0-0.11","jfcjl3gl19kx5sy","practice_recog","5c6460995a5e01000129347c","5f60e3c0a3b16e07647b2ff9","5f60ec7129b248010b6de5eb","true","915.2900000335649","./Stimuli/ImagesPractice/LN15.jpg","83","","","","test","true","","83","","LN","LN15.jpg","","new","44","3","practice_recog","left","","","",""
"categorize-image","119","256401","0.0-3.0-7.0-0.12","jfcjl3gl19kx5sy","practice_recog","5c6460995a5e01000129347c","5f60e3c0a3b16e07647b2ff9","5f60ec7129b248010b6de5eb","true","823.7250000238419","./Stimuli/ImagesPractice/LM224.jpg","76","","","","test","false","","83","","LM","LM224.jpg","","new","45","3","practice_recog","right","","","",""
"categorize-image","120","258126","0.0-3.0-7.0-0.13","jfcjl3gl19kx5sy","practice_recog","5c6460995a5e01000129347c","5f60e3c0a3b16e07647b2ff9","5f60ec7129b248010b6de5eb","true","1212.7049999544397","./Stimuli/ImagesPractice/SN221.jpg","76","","","","test","true","","76","","SN","SN221.jpg","","old","46","3","practice_recog","right","","","",""
"categorize-image","121","259547","0.0-3.0-7.0-0.14","jfcjl3gl19kx5sy","practice_recog","5c6460995a5e01000129347c","5f60e3c0a3b16e07647b2ff9","5f60ec7129b248010b6de5eb","true","904.6150000067428","./Stimuli/ImagesPractice/SM37.jpg","83","","","","test","true","","83","","SM","SM37.jpg","","new","47","3","practice_recog","left","","","",""
"categorize-image","122","260719","0.0-3.0-7.0-0.15","jfcjl3gl19kx5sy","practice_recog","5c6460995a5e01000129347c","5f60e3c0a3b16e07647b2ff9","5f60ec7129b248010b6de5eb","true","665.6399999046698","./Stimuli/ImagesPractice/SN222.jpg","83","","","","test","true","","83","","SN","SN222.jpg","","new","48","3","practice_recog","left","","","",""
"html-keyboard-response","123","264656","0.0-3.0-8.0","jfcjl3gl19kx5sy","instructions","5c6460995a5e01000129347c","5f60e3c0a3b16e07647b2ff9","5f60ec7129b248010b6de5eb","false","3934.9599999841303","<div align=left> Great!<br><br>Are you ready to continue?<br>If you want to reread the instructions and redo the practice trials, please <br>press „Z“.<br><br>You can proceed when you are ready.<br><br>After the presentation of each object, you will receive an instruction whether to <br>remember or to forget the object.<br>We will test your memory of the following pictures only at the very end of <br>the experiment after all learning blocks are completed. <br><br>Press SPACE to CONTINUE when you are ready. </div>","32","","","","","","","","","","","","","","","","","","","",""
"html-keyboard-response","124","268361","0.0-4.0-0.0","jfcjl3gl19kx5sy","instructions","5c6460995a5e01000129347c","5f60e3c0a3b16e07647b2ff9","5f60ec7129b248010b6de5eb","false","3702.8799999970943","<div align=left> The actual experiment is about to start.<br>The practice trials are over!<br><br>Please always respond both fast and accurately!<br><br>Remember: <br> <br><li> Please place your index fingers on the <strong>'S'</strong> and <strong>'L'</strong> keys <br>to respond as fast and accurately as possible.</li><li> Every picture can be classified as either mechanical or non-mechanical.</li><li> If you do not respond in time or commit an error, you will receive a corresponding feedback.<br> Please try to respond as <strong> fast </strong> and as <strong> accurately as possible </strong>.</li><li> Remember the <span style='color: dodgerblue; font-size: 28px'>O</span> pictures. <br></li><li> Please minimize distractions and stay focused. </li><br><br>Press SPACE to START.</div>","32","","","","","","","","","","","","","","","","","","","",""
"html-keyboard-response","125","269071","0.0-4.0-1.0-0.0","jfcjl3gl19kx5sy","prime","5c6460995a5e01000129347c","5f60e3c0a3b16e07647b2ff9","5f60ec7129b248010b6de5eb","false","null","<span style=""color: black; font-size: 48px"">N + M</span>","null","","","","resp_prompt","","","","","","","","","","","","","","","",""
"categorize-image","126","270478","0.0-4.0-1.0-1.0","jfcjl3gl19kx5sy","prime","5c6460995a5e01000129347c","5f60e3c0a3b16e07647b2ff9","5f60ec7129b248010b6de5eb","true","1400.359999970533","./Stimuli/SelectedImages/SM/SM195.bmp","76","","","","test","true","N + M","76","switch","SM","SM195.bmp","forget","","49","3","prime1","right","","","",""
"html-keyboard-response","127","272495","0.0-4.0-1.0-3.0","jfcjl3gl19kx5sy","prime","5c6460995a5e01000129347c","5f60e3c0a3b16e07647b2ff9","5f60ec7129b248010b6de5eb","false","null","<div style=""align-items: center; display: flex; color: darkorange; font-size: 90px""><b>ø</b></div>","null","","","","forget_cue","","","","","","","","","","","","","","","",""
"html-keyboard-response","128","273205","0.0-4.0-1.0-0.1","jfcjl3gl19kx5sy","prime","5c6460995a5e01000129347c","5f60e3c0a3b16e07647b2ff9","5f60ec7129b248010b6de5eb","false","null","<span style=""color: black; font-size: 48px"">M + N</span>","null","","","","resp_prompt","","","","","","","","","","","","","","","",""
"categorize-image","129","275222","0.0-4.0-1.0-1.1","jfcjl3gl19kx5sy","prime","5c6460995a5e01000129347c","5f60e3c0a3b16e07647b2ff9","5f60ec7129b248010b6de5eb","true","null","./Stimuli/SelectedImages/LN/LN59.bmp","null","","","","test","false","M + N","76","switch","LN","LN59.bmp","remember","","50","3","prime1","too_slow","","","",""
"html-keyboard-response","130","275731","0.0-4.0-1.0-2.1-0.1","jfcjl3gl19kx5sy","prime","5c6460995a5e01000129347c","5f60e3c0a3b16e07647b2ff9","5f60ec7129b248010b6de5eb","false","null","<span style=""color: red; font-size: 48px"">Too slow!</span>","null","","","","feedback","","","","","","","","","","","","","","","",""
"html-keyboard-response","131","277744","0.0-4.0-1.0-3.1","jfcjl3gl19kx5sy","prime","5c6460995a5e01000129347c","5f60e3c0a3b16e07647b2ff9","5f60ec7129b248010b6de5eb","false","null","<div style=""align-items: center; display: flex; color: dodgerblue; font-size: 90px""><b>o</b></div>","null","","","","forget_cue","","","","","","","","","","","","","","","",""
"html-keyboard-response","132","278451","0.0-4.0-1.0-0.2","jfcjl3gl19kx5sy","prime","5c6460995a5e01000129347c","5f60e3c0a3b16e07647b2ff9","5f60ec7129b248010b6de5eb","false","null","<span style=""color: black; font-size: 48px"">M + N</span>","null","","","","resp_prompt","","","","","","","","","","","","","","","",""
"categorize-image","133","279622","0.0-4.0-1.0-1.2","jfcjl3gl19kx5sy","prime","5c6460995a5e01000129347c","5f60e3c0a3b16e07647b2ff9","5f60ec7129b248010b6de5eb","true","1163.5600000154227","./Stimuli/SelectedImages/SM/SM108.bmp","83","","","","test","true","M + N","83","repetition","SM","SM108.bmp","forget","","51","3","prime1","left","","","",""
"html-keyboard-response","134","281629","0.0-4.0-1.0-3.2","jfcjl3gl19kx5sy","prime","5c6460995a5e01000129347c","5f60e3c0a3b16e07647b2ff9","5f60ec7129b248010b6de5eb","false","null","<div style=""align-items: center; display: flex; color: darkorange; font-size: 90px""><b>ø</b></div>","null","","","","forget_cue","","","","","","","","","","","","","","","",""
"html-keyboard-response","135","282337","0.0-4.0-1.0-0.3","jfcjl3gl19kx5sy","prime","5c6460995a5e01000129347c","5f60e3c0a3b16e07647b2ff9","5f60ec7129b248010b6de5eb","false","null","<span style=""color: black; font-size: 48px"">M + N</span>","null","","","","resp_prompt","","","","","","","","","","","","","","","",""
"categorize-image","136","282998","0.0-4.0-1.0-1.3","jfcjl3gl19kx5sy","prime","5c6460995a5e01000129347c","5f60e3c0a3b16e07647b2ff9","5f60ec7129b248010b6de5eb","true","654.2500000214204","./Stimuli/SelectedImages/LM/LM235.bmp","83","","","","test","true","M + N","83","repetition","LM","LM235.bmp","forget","","52","3","prime1","left","","","",""
"html-keyboard-response","137","285004","0.0-4.0-1.0-3.3","jfcjl3gl19kx5sy","prime","5c6460995a5e01000129347c","5f60e3c0a3b16e07647b2ff9","5f60ec7129b248010b6de5eb","false","null","<div style=""align-items: center; display: flex; color: darkorange; font-size: 90px""><b>ø</b></div>","null","","","","forget_cue","","","","","","","","","","","","","","","",""
"html-keyboard-response","138","285717","0.0-4.0-1.0-0.4","jfcjl3gl19kx5sy","prime","5c6460995a5e01000129347c","5f60e3c0a3b16e07647b2ff9","5f60ec7129b248010b6de5eb","false","null","<span style=""color: black; font-size: 48px"">N + M</span>","null","","","","resp_prompt","","","","","","","","","","","","","","","",""
"categorize-image","139","286413","0.0-4.0-1.0-1.4","jfcjl3gl19kx5sy","prime","5c6460995a5e01000129347c","5f60e3c0a3b16e07647b2ff9","5f60ec7129b248010b6de5eb","true","688.9199999859557","./Stimuli/SelectedImages/LM/LM129.bmp","83","","","","test","false","N + M","76","switch","LM","LM129.bmp","forget","","53","3","prime1","left","","","",""
"html-keyboard-response","140","286922","0.0-4.0-1.0-2.4-0.4","jfcjl3gl19kx5sy","prime","5c6460995a5e01000129347c","5f60e3c0a3b16e07647b2ff9","5f60ec7129b248010b6de5eb","false","null","<span style=""color: red; font-size: 48px"">Error!</span>","null","","","","feedback","","","","","","","","","","","","","","","",""
"html-keyboard-response","141","288932","0.0-4.0-1.0-3.4","jfcjl3gl19kx5sy","prime","5c6460995a5e01000129347c","5f60e3c0a3b16e07647b2ff9","5f60ec7129b248010b6de5eb","false","null","<div style=""align-items: center; display: flex; color: darkorange; font-size: 90px""><b>ø</b></div>","null","","","","forget_cue","","","","","","","","","","","","","","","",""
"html-keyboard-response","142","289643","0.0-4.0-1.0-0.5","jfcjl3gl19kx5sy","prime","5c6460995a5e01000129347c","5f60e3c0a3b16e07647b2ff9","5f60ec7129b248010b6de5eb","false","null","<span style=""color: black; font-size: 48px"">N + M</span>","null","","","","resp_prompt","","","","","","","","","","","","","","","",""
"categorize-image","143","290242","0.0-4.0-1.0-1.5","jfcjl3gl19kx5sy","prime","5c6460995a5e01000129347c","5f60e3c0a3b16e07647b2ff9","5f60ec7129b248010b6de5eb","true","593.445000005886","./Stimuli/SelectedImages/LN/LN149.bmp","76","","","","test","false","N + M","83","repetition","LN","LN149.bmp","remember","","54","3","prime1","right","","","",""
"html-keyboard-response","144","290760","0.0-4.0-1.0-2.5-0.5","jfcjl3gl19kx5sy","prime","5c6460995a5e01000129347c","5f60e3c0a3b16e07647b2ff9","5f60ec7129b248010b6de5eb","false","null","<span style=""color: red; font-size: 48px"">Error!</span>","null","","","","feedback","","","","","","","","","","","","","","","",""
"html-keyboard-response","145","292775","0.0-4.0-1.0-3.5","jfcjl3gl19kx5sy","prime","5c6460995a5e01000129347c","5f60e3c0a3b16e07647b2ff9","5f60ec7129b248010b6de5eb","false","null","<div style=""align-items: center; display: flex; color: dodgerblue; font-size: 90px""><b>o</b></div>","null","","","","forget_cue","","","","","","","","","","","","","","","",""
"html-keyboard-response","146","293484","0.0-4.0-1.0-0.6","jfcjl3gl19kx5sy","prime","5c6460995a5e01000129347c","5f60e3c0a3b16e07647b2ff9","5f60ec7129b248010b6de5eb","false","null","<span style=""color: black; font-size: 48px"">N + M</span>","null","","","","resp_prompt","","","","","","","","","","","","","","","",""
"categorize-image","147","293974","0.0-4.0-1.0-1.6","jfcjl3gl19kx5sy","prime","5c6460995a5e01000129347c","5f60e3c0a3b16e07647b2ff9","5f60ec7129b248010b6de5eb","true","482.62000002432615","./Stimuli/SelectedImages/SM/SM200.bmp","83","","","","test","false","N + M","76","repetition","SM","SM200.bmp","remember","","55","3","prime1","left","","","",""
"html-keyboard-response","148","294484","0.0-4.0-1.0-2.6-0.6","jfcjl3gl19kx5sy","prime","5c6460995a5e01000129347c","5f60e3c0a3b16e07647b2ff9","5f60ec7129b248010b6de5eb","false","null","<span style=""color: red; font-size: 48px"">Error!</span>","null","","","","feedback","","","","","","","","","","","","","","","",""
"html-keyboard-response","149","296493","0.0-4.0-1.0-3.6","jfcjl3gl19kx5sy","prime","5c6460995a5e01000129347c","5f60e3c0a3b16e07647b2ff9","5f60ec7129b248010b6de5eb","false","null","<div style=""align-items: center; display: flex; color: dodgerblue; font-size: 90px""><b>o</b></div>","null","","","","forget_cue","","","","","","","","","","","","","","","",""
"html-keyboard-response","150","297208","0.0-4.0-1.0-0.7","jfcjl3gl19kx5sy","prime","5c6460995a5e01000129347c","5f60e3c0a3b16e07647b2ff9","5f60ec7129b248010b6de5eb","false","null","<span style=""color: black; font-size: 48px"">M + N</span>","null","","","","resp_prompt","","","","","","","","","","","","","","","",""
"categorize-image","151","297394","0.0-4.0-1.0-1.7","jfcjl3gl19kx5sy","prime","5c6460995a5e01000129347c","5f60e3c0a3b16e07647b2ff9","5f60ec7129b248010b6de5eb","true","179.80000004172325","./Stimuli/SelectedImages/SM/SM184.bmp","83","","","","test","true","M + N","83","switch","SM","SM184.bmp","remember","","56","3","prime1","left","","","",""
"html-keyboard-response","152","299408","0.0-4.0-1.0-3.7","jfcjl3gl19kx5sy","prime","5c6460995a5e01000129347c","5f60e3c0a3b16e07647b2ff9","5f60ec7129b248010b6de5eb","false","null","<div style=""align-items: center; display: flex; color: dodgerblue; font-size: 90px""><b>o</b></div>","null","","","","forget_cue","","","","","","","","","","","","","","","",""
"html-keyboard-response","153","300111","0.0-4.0-1.0-0.8","jfcjl3gl19kx5sy","prime","5c6460995a5e01000129347c","5f60e3c0a3b16e07647b2ff9","5f60ec7129b248010b6de5eb","false","null","<span style=""color: black; font-size: 48px"">N + M</span>","null","","","","resp_prompt","","","","","","","","","","","","","","","",""
"categorize-image","154","300850","0.0-4.0-1.0-1.8","jfcjl3gl19kx5sy","prime","5c6460995a5e01000129347c","5f60e3c0a3b16e07647b2ff9","5f60ec7129b248010b6de5eb","true","734.6050000051036","./Stimuli/SelectedImages/LM/LM75.bmp","83","","","","test","false","N + M","76","switch","LM","LM75.bmp","forget","","57","3","prime1","left","","","",""
"html-keyboard-response","155","301360","0.0-4.0-1.0-2.8-0.8","jfcjl3gl19kx5sy","prime","5c6460995a5e01000129347c","5f60e3c0a3b16e07647b2ff9","5f60ec7129b248010b6de5eb","false","null","<span style=""color: red; font-size: 48px"">Error!</span>","null","","","","feedback","","","","","","","","","","","","","","","",""
"html-keyboard-response","156","303362","0.0-4.0-1.0-3.8","jfcjl3gl19kx5sy","prime","5c6460995a5e01000129347c","5f60e3c0a3b16e07647b2ff9","5f60ec7129b248010b6de5eb","false","null","<div style=""align-items: center; display: flex; color: darkorange; font-size: 90px""><b>ø</b></div>","null","","","","forget_cue","","","","","","","","","","","","","","","",""
"html-keyboard-response","157","304079","0.0-4.0-1.0-0.9","jfcjl3gl19kx5sy","prime","5c6460995a5e01000129347c","5f60e3c0a3b16e07647b2ff9","5f60ec7129b248010b6de5eb","false","null","<span style=""color: black; font-size: 48px"">M + N</span>","null","","","","resp_prompt","","","","","","","","","","","","","","","",""
"categorize-image","158","304999","0.0-4.0-1.0-1.9","jfcjl3gl19kx5sy","prime","5c6460995a5e01000129347c","5f60e3c0a3b16e07647b2ff9","5f60ec7129b248010b6de5eb","true","913.5699999751523","./Stimuli/SelectedImages/SN/SN187.bmp","76","","","","test","true","M + N","76","repetition","SN","SN187.bmp","forget","","58","3","prime1","right","","","",""
"html-keyboard-response","159","307014","0.0-4.0-1.0-3.9","jfcjl3gl19kx5sy","prime","5c6460995a5e01000129347c","5f60e3c0a3b16e07647b2ff9","5f60ec7129b248010b6de5eb","false","null","<div style=""align-items: center; display: flex; color: darkorange; font-size: 90px""><b>ø</b></div>","null","","","","forget_cue","","","","","","","","","","","","","","","",""
"html-keyboard-response","160","307730","0.0-4.0-1.0-0.10","jfcjl3gl19kx5sy","prime","5c6460995a5e01000129347c","5f60e3c0a3b16e07647b2ff9","5f60ec7129b248010b6de5eb","false","null","<span style=""color: black; font-size: 48px"">M + N</span>","null","","","","resp_prompt","","","","","","","","","","","","","","","",""
"categorize-image","161","308361","0.0-4.0-1.0-1.10","jfcjl3gl19kx5sy","prime","5c6460995a5e01000129347c","5f60e3c0a3b16e07647b2ff9","5f60ec7129b248010b6de5eb","true","624.5599999092519","./Stimuli/SelectedImages/LN/LN92.bmp","76","","","","test","true","M + N","76","switch","LN","LN92.bmp","forget","","59","3","prime1","right","","","",""
"html-keyboard-response","162","310364","0.0-4.0-1.0-3.10","jfcjl3gl19kx5sy","prime","5c6460995a5e01000129347c","5f60e3c0a3b16e07647b2ff9","5f60ec7129b248010b6de5eb","false","null","<div style=""align-items: center; display: flex; color: darkorange; font-size: 90px""><b>ø</b></div>","null","","","","forget_cue","","","","","","","","","","","","","","","",""
"html-keyboard-response","163","311067","0.0-4.0-1.0-0.11","jfcjl3gl19kx5sy","prime","5c6460995a5e01000129347c","5f60e3c0a3b16e07647b2ff9","5f60ec7129b248010b6de5eb","false","null","<span style=""color: black; font-size: 48px"">N + M</span>","null","","","","resp_prompt","","","","","","","","","","","","","","","",""
"categorize-image","164","312197","0.0-4.0-1.0-1.11","jfcjl3gl19kx5sy","prime","5c6460995a5e01000129347c","5f60e3c0a3b16e07647b2ff9","5f60ec7129b248010b6de5eb","true","1122.7500000968575","./Stimuli/SelectedImages/SN/SN27.bmp","76","","","","test","false","N + M","83","switch","SN","SN27.bmp","forget","","60","3","prime1","right","","","",""
"html-keyboard-response","165","312707","0.0-4.0-1.0-2.11-0.11","jfcjl3gl19kx5sy","prime","5c6460995a5e01000129347c","5f60e3c0a3b16e07647b2ff9","5f60ec7129b248010b6de5eb","false","null","<span style=""color: red; font-size: 48px"">Error!</span>","null","","","","feedback","","","","","","","","","","","","","","","",""
"html-keyboard-response","166","314716","0.0-4.0-1.0-3.11","jfcjl3gl19kx5sy","prime","5c6460995a5e01000129347c","5f60e3c0a3b16e07647b2ff9","5f60ec7129b248010b6de5eb","false","null","<div style=""align-items: center; display: flex; color: darkorange; font-size: 90px""><b>ø</b></div>","null","","","","forget_cue","","","","","","","","","","","","","","","",""
"html-keyboard-response","167","315421","0.0-4.0-1.0-0.12","jfcjl3gl19kx5sy","prime","5c6460995a5e01000129347c","5f60e3c0a3b16e07647b2ff9","5f60ec7129b248010b6de5eb","false","null","<span style=""color: black; font-size: 48px"">M + N</span>","null","","","","resp_prompt","","","","","","","","","","","","","","","",""
"categorize-image","168","315942","0.0-4.0-1.0-1.12","jfcjl3gl19kx5sy","prime","5c6460995a5e01000129347c","5f60e3c0a3b16e07647b2ff9","5f60ec7129b248010b6de5eb","true","509.554999996908","./Stimuli/SelectedImages/LN/LN101.bmp","83","","","","test","false","M + N","76","repetition","LN","LN101.bmp","remember","","61","3","prime1","left","","","",""
"html-keyboard-response","169","316449","0.0-4.0-1.0-2.12-0.12","jfcjl3gl19kx5sy","prime","5c6460995a5e01000129347c","5f60e3c0a3b16e07647b2ff9","5f60ec7129b248010b6de5eb","false","null","<span style=""color: red; font-size: 48px"">Error!</span>","null","","","","feedback","","","","","","","","","","","","","","","",""
"html-keyboard-response","170","318465","0.0-4.0-1.0-3.12","jfcjl3gl19kx5sy","prime","5c6460995a5e01000129347c","5f60e3c0a3b16e07647b2ff9","5f60ec7129b248010b6de5eb","false","null","<div style=""align-items: center; display: flex; color: dodgerblue; font-size: 90px""><b>o</b></div>","null","","","","forget_cue","","","","","","","","","","","","","","","",""
"html-keyboard-response","171","319182","0.0-4.0-1.0-0.13","jfcjl3gl19kx5sy","prime","5c6460995a5e01000129347c","5f60e3c0a3b16e07647b2ff9","5f60ec7129b248010b6de5eb","false","null","<span style=""color: black; font-size: 48px"">N + M</span>","null","","","","resp_prompt","","","","","","","","","","","","","","","",""
"categorize-image","172","319380","0.0-4.0-1.0-1.13","jfcjl3gl19kx5sy","prime","5c6460995a5e01000129347c","5f60e3c0a3b16e07647b2ff9","5f60ec7129b248010b6de5eb","true","190.42500003706664","./Stimuli/SelectedImages/LM/LM51.bmp","76","","","","test","true","N + M","76","repetition","LM","LM51.bmp","forget","","62","3","prime1","right","","","",""
"html-keyboard-response","173","321391","0.0-4.0-1.0-3.13","jfcjl3gl19kx5sy","prime","5c6460995a5e01000129347c","5f60e3c0a3b16e07647b2ff9","5f60ec7129b248010b6de5eb","false","null","<div style=""align-items: center; display: flex; color: darkorange; font-size: 90px""><b>ø</b></div>","null","","","","forget_cue","","","","","","","","","","","","","","","",""
"html-keyboard-response","174","322095","0.0-4.0-1.0-0.14","jfcjl3gl19kx5sy","prime","5c6460995a5e01000129347c","5f60e3c0a3b16e07647b2ff9","5f60ec7129b248010b6de5eb","false","null","<span style=""color: black; font-size: 48px"">N + M</span>","null","","","","resp_prompt","","","","","","","","","","","","","","","",""
"categorize-image","175","322733","0.0-4.0-1.0-1.14","jfcjl3gl19kx5sy","prime","5c6460995a5e01000129347c","5f60e3c0a3b16e07647b2ff9","5f60ec7129b248010b6de5eb","true","631.1149999964982","./Stimuli/SelectedImages/SM/SM76.bmp","83","","","","test","false","N + M","76","switch","SM","SM76.bmp","forget","","63","3","prime1","left","","","",""
"html-keyboard-response","176","323236","0.0-4.0-1.0-2.14-0.14","jfcjl3gl19kx5sy","prime","5c6460995a5e01000129347c","5f60e3c0a3b16e07647b2ff9","5f60ec7129b248010b6de5eb","false","null","<span style=""color: red; font-size: 48px"">Error!</span>","null","","","","feedback","","","","","","","","","","","","","","","",""
"html-keyboard-response","177","325244","0.0-4.0-1.0-3.14","jfcjl3gl19kx5sy","prime","5c6460995a5e01000129347c","5f60e3c0a3b16e07647b2ff9","5f60ec7129b248010b6de5eb","false","null","<div style=""align-items: center; display: flex; color: darkorange; font-size: 90px""><b>ø</b></div>","null","","","","forget_cue","","","","","","","","","","","","","","","",""
"html-keyboard-response","178","325961","0.0-4.0-1.0-0.15","jfcjl3gl19kx5sy","prime","5c6460995a5e01000129347c","5f60e3c0a3b16e07647b2ff9","5f60ec7129b248010b6de5eb","false","null","<span style=""color: black; font-size: 48px"">M + N</span>","null","","","","resp_prompt","","","","","","","","","","","","","","","",""
"categorize-image","179","326365","0.0-4.0-1.0-1.15","jfcjl3gl19kx5sy","prime","5c6460995a5e01000129347c","5f60e3c0a3b16e07647b2ff9","5f60ec7129b248010b6de5eb","true","395.6499999621883","./Stimuli/SelectedImages/LM/LM100.bmp","76","","","","test","false","M + N","83","repetition","LM","LM100.bmp","remember","","64","3","prime1","right","","","",""
"html-keyboard-response","180","326882","0.0-4.0-1.0-2.15-0.15","jfcjl3gl19kx5sy","prime","5c6460995a5e01000129347c","5f60e3c0a3b16e07647b2ff9","5f60ec7129b248010b6de5eb","false","null","<span style=""color: red; font-size: 48px"">Error!</span>","null","","","","feedback","","","","","","","","","","","","","","","",""
"html-keyboard-response","181","328898","0.0-4.0-1.0-3.15","jfcjl3gl19kx5sy","prime","5c6460995a5e01000129347c","5f60e3c0a3b16e07647b2ff9","5f60ec7129b248010b6de5eb","false","null","<div style=""align-items: center; display: flex; color: dodgerblue; font-size: 90px""><b>o</b></div>","null","","","","forget_cue","","","","","","","","","","","","","","","",""
"html-keyboard-response","182","329604","0.0-4.0-1.0-0.16","jfcjl3gl19kx5sy","prime","5c6460995a5e01000129347c","5f60e3c0a3b16e07647b2ff9","5f60ec7129b248010b6de5eb","false","null","<span style=""color: black; font-size: 48px"">N + M</span>","null","","","","resp_prompt","","","","","","","","","","","","","","","",""
"categorize-image","183","329833","0.0-4.0-1.0-1.16","jfcjl3gl19kx5sy","prime","5c6460995a5e01000129347c","5f60e3c0a3b16e07647b2ff9","5f60ec7129b248010b6de5eb","true","223.28500007279217","./Stimuli/SelectedImages/SM/SM128.bmp","83","","","","test","false","N + M","76","switch","SM","SM128.bmp","remember","","65","3","prime1","left","","","",""
"html-keyboard-response","184","330344","0.0-4.0-1.0-2.16-0.16","jfcjl3gl19kx5sy","prime","5c6460995a5e01000129347c","5f60e3c0a3b16e07647b2ff9","5f60ec7129b248010b6de5eb","false","null","<span style=""color: red; font-size: 48px"">Error!</span>","null","","","","feedback","","","","","","","","","","","","","","","",""
"html-keyboard-response","185","332351","0.0-4.0-1.0-3.16","jfcjl3gl19kx5sy","prime","5c6460995a5e01000129347c","5f60e3c0a3b16e07647b2ff9","5f60ec7129b248010b6de5eb","false","null","<div style=""align-items: center; display: flex; color: dodgerblue; font-size: 90px""><b>o</b></div>","null","","","","forget_cue","","","","","","","","","","","","","","","",""
"html-keyboard-response","186","333069","0.0-4.0-1.0-0.17","jfcjl3gl19kx5sy","prime","5c6460995a5e01000129347c","5f60e3c0a3b16e07647b2ff9","5f60ec7129b248010b6de5eb","false","null","<span style=""color: black; font-size: 48px"">N + M</span>","null","","","","resp_prompt","","","","","","","","","","","","","","","",""
"categorize-image","187","333524","0.0-4.0-1.0-1.17","jfcjl3gl19kx5sy","prime","5c6460995a5e01000129347c","5f60e3c0a3b16e07647b2ff9","5f60ec7129b248010b6de5eb","true","446.7599999625236","./Stimuli/SelectedImages/SN/SN179.bmp","83","","","","test","true","N + M","83","repetition","SN","SN179.bmp","forget","","66","3","prime1","left","","","",""
"html-keyboard-response","188","335536","0.0-4.0-1.0-3.17","jfcjl3gl19kx5sy","prime","5c6460995a5e01000129347c","5f60e3c0a3b16e07647b2ff9","5f60ec7129b248010b6de5eb","false","null","<div style=""align-items: center; display: flex; color: darkorange; font-size: 90px""><b>ø</b></div>","null","","","","forget_cue","","","","","","","","","","","","","","","",""
"html-keyboard-response","189","336251","0.0-4.0-1.0-0.18","jfcjl3gl19kx5sy","prime","5c6460995a5e01000129347c","5f60e3c0a3b16e07647b2ff9","5f60ec7129b248010b6de5eb","false","null","<span style=""color: black; font-size: 48px"">M + N</span>","null","","","","resp_prompt","","","","","","","","","","","","","","","",""
"categorize-image","190","336784","0.0-4.0-1.0-1.18","jfcjl3gl19kx5sy","prime","5c6460995a5e01000129347c","5f60e3c0a3b16e07647b2ff9","5f60ec7129b248010b6de5eb","true","525.8100000210106","./Stimuli/SelectedImages/SM/SM74.bmp","83","","","","test","true","M + N","83","repetition","SM","SM74.bmp","forget","","67","3","prime1","left","","","",""
"html-keyboard-response","191","338797","0.0-4.0-1.0-3.18","jfcjl3gl19kx5sy","prime","5c6460995a5e01000129347c","5f60e3c0a3b16e07647b2ff9","5f60ec7129b248010b6de5eb","false","null","<div style=""align-items: center; display: flex; color: darkorange; font-size: 90px""><b>ø</b></div>","null","","","","forget_cue","","","","","","","","","","","","","","","",""
"html-keyboard-response","192","339500","0.0-4.0-1.0-0.19","jfcjl3gl19kx5sy","prime","5c6460995a5e01000129347c","5f60e3c0a3b16e07647b2ff9","5f60ec7129b248010b6de5eb","false","null","<span style=""color: black; font-size: 48px"">N + M</span>","null","","","","resp_prompt","","","","","","","","","","","","","","","",""
"categorize-image","193","339934","0.0-4.0-1.0-1.19","jfcjl3gl19kx5sy","prime","5c6460995a5e01000129347c","5f60e3c0a3b16e07647b2ff9","5f60ec7129b248010b6de5eb","true","425.8299999637529","./Stimuli/SelectedImages/SN/SN181.bmp","76","","","","test","false","N + M","83","switch","SN","SN181.bmp","forget","","68","3","prime1","right","","","",""
"html-keyboard-response","194","340438","0.0-4.0-1.0-2.19-0.19","jfcjl3gl19kx5sy","prime","5c6460995a5e01000129347c","5f60e3c0a3b16e07647b2ff9","5f60ec7129b248010b6de5eb","false","null","<span style=""color: red; font-size: 48px"">Error!</span>","null","","","","feedback","","","","","","","","","","","","","","","",""
"html-keyboard-response","195","342452","0.0-4.0-1.0-3.19","jfcjl3gl19kx5sy","prime","5c6460995a5e01000129347c","5f60e3c0a3b16e07647b2ff9","5f60ec7129b248010b6de5eb","false","null","<div style=""align-items: center; display: flex; color: darkorange; font-size: 90px""><b>ø</b></div>","null","","","","forget_cue","","","","","","","","","","","","","","","",""
"html-keyboard-response","196","343165","0.0-4.0-1.0-0.20","jfcjl3gl19kx5sy","prime","5c6460995a5e01000129347c","5f60e3c0a3b16e07647b2ff9","5f60ec7129b248010b6de5eb","false","null","<span style=""color: black; font-size: 48px"">N + M</span>","null","","","","resp_prompt","","","","","","","","","","","","","","","",""
"categorize-image","197","343721","0.0-4.0-1.0-1.20","jfcjl3gl19kx5sy","prime","5c6460995a5e01000129347c","5f60e3c0a3b16e07647b2ff9","5f60ec7129b248010b6de5eb","true","550.5600000033155","./Stimuli/SelectedImages/SN/SN52.bmp","83","","","","test","true","N + M","83","switch","SN","SN52.bmp","remember","","69","3","prime1","left","","","",""
"html-keyboard-response","198","345727","0.0-4.0-1.0-3.20","jfcjl3gl19kx5sy","prime","5c6460995a5e01000129347c","5f60e3c0a3b16e07647b2ff9","5f60ec7129b248010b6de5eb","false","null","<div style=""align-items: center; display: flex; color: dodgerblue; font-size: 90px""><b>o</b></div>","null","","","","forget_cue","","","","","","","","","","","","","","","",""
"html-keyboard-response","199","346436","0.0-4.0-1.0-0.21","jfcjl3gl19kx5sy","prime","5c6460995a5e01000129347c","5f60e3c0a3b16e07647b2ff9","5f60ec7129b248010b6de5eb","false","null","<span style=""color: black; font-size: 48px"">N + M</span>","null","","","","resp_prompt","","","","","","","","","","","","","","","",""
"categorize-image","200","347014","0.0-4.0-1.0-1.21","jfcjl3gl19kx5sy","prime","5c6460995a5e01000129347c","5f60e3c0a3b16e07647b2ff9","5f60ec7129b248010b6de5eb","true","570.3949999297038","./Stimuli/SelectedImages/SM/SM24.bmp","83","","","","test","false","N + M","76","switch","SM","SM24.bmp","remember","","70","3","prime1","left","","","",""
"html-keyboard-response","201","347527","0.0-4.0-1.0-2.21-0.21","jfcjl3gl19kx5sy","prime","5c6460995a5e01000129347c","5f60e3c0a3b16e07647b2ff9","5f60ec7129b248010b6de5eb","false","null","<span style=""color: red; font-size: 48px"">Error!</span>","null","","","","feedback","","","","","","","","","","","","","","","",""
"html-keyboard-response","202","349530","0.0-4.0-1.0-3.21","jfcjl3gl19kx5sy","prime","5c6460995a5e01000129347c","5f60e3c0a3b16e07647b2ff9","5f60ec7129b248010b6de5eb","false","null","<div style=""align-items: center; display: flex; color: dodgerblue; font-size: 90px""><b>o</b></div>","null","","","","forget_cue","","","","","","","","","","","","","","","",""
"html-keyboard-response","203","350234","0.0-4.0-1.0-0.22","jfcjl3gl19kx5sy","prime","5c6460995a5e01000129347c","5f60e3c0a3b16e07647b2ff9","5f60ec7129b248010b6de5eb","false","null","<span style=""color: black; font-size: 48px"">N + M</span>","null","","","","resp_prompt","","","","","","","","","","","","","","","",""
"categorize-image","204","350733","0.0-4.0-1.0-1.22","jfcjl3gl19kx5sy","prime","5c6460995a5e01000129347c","5f60e3c0a3b16e07647b2ff9","5f60ec7129b248010b6de5eb","true","491.0300000337884","./Stimuli/SelectedImages/LN/LN131.bmp","76","","","","test","false","N + M","83","switch","LN","LN131.bmp","remember","","71","3","prime1","right","","","",""
"html-keyboard-response","205","351246","0.0-4.0-1.0-2.22-0.22","jfcjl3gl19kx5sy","prime","5c6460995a5e01000129347c","5f60e3c0a3b16e07647b2ff9","5f60ec7129b248010b6de5eb","false","null","<span style=""color: red; font-size: 48px"">Error!</span>","null","","","","feedback","","","","","","","","","","","","","","","",""
"html-keyboard-response","206","353255","0.0-4.0-1.0-3.22","jfcjl3gl19kx5sy","prime","5c6460995a5e01000129347c","5f60e3c0a3b16e07647b2ff9","5f60ec7129b248010b6de5eb","false","null","<div style=""align-items: center; display: flex; color: dodgerblue; font-size: 90px""><b>o</b></div>","null","","","","forget_cue","","","","","","","","","","","","","","","",""
"html-keyboard-response","207","353971","0.0-4.0-1.0-0.23","jfcjl3gl19kx5sy","prime","5c6460995a5e01000129347c","5f60e3c0a3b16e07647b2ff9","5f60ec7129b248010b6de5eb","false","null","<span style=""color: black; font-size: 48px"">M + N</span>","null","","","","resp_prompt","","","","","","","","","","","","","","","",""
"categorize-image","208","354321","0.0-4.0-1.0-1.23","jfcjl3gl19kx5sy","prime","5c6460995a5e01000129347c","5f60e3c0a3b16e07647b2ff9","5f60ec7129b248010b6de5eb","true","344.3350000306964","./Stimuli/SelectedImages/SN/SN111.bmp","83","","","","test","false","M + N","76","repetition","SN","SN111.bmp","remember","","72","3","prime1","left","","","",""
"html-keyboard-response","209","354829","0.0-4.0-1.0-2.23-0.23","jfcjl3gl19kx5sy","prime","5c6460995a5e01000129347c","5f60e3c0a3b16e07647b2ff9","5f60ec7129b248010b6de5eb","false","null","<span style=""color: red; font-size: 48px"">Error!</span>","null","","","","feedback","","","","","","","","","","","","","","","",""
"html-keyboard-response","210","356844","0.0-4.0-1.0-3.23","jfcjl3gl19kx5sy","prime","5c6460995a5e01000129347c","5f60e3c0a3b16e07647b2ff9","5f60ec7129b248010b6de5eb","false","null","<div style=""align-items: center; display: flex; color: dodgerblue; font-size: 90px""><b>o</b></div>","null","","","","forget_cue","","","","","","","","","","","","","","","",""
"html-keyboard-response","211","357547","0.0-4.0-1.0-0.24","jfcjl3gl19kx5sy","prime","5c6460995a5e01000129347c","5f60e3c0a3b16e07647b2ff9","5f60ec7129b248010b6de5eb","false","null","<span style=""color: black; font-size: 48px"">N + M</span>","null","","","","resp_prompt","","","","","","","","","","","","","","","",""
"categorize-image","212","357929","0.0-4.0-1.0-1.24","jfcjl3gl19kx5sy","prime","5c6460995a5e01000129347c","5f60e3c0a3b16e07647b2ff9","5f60ec7129b248010b6de5eb","true","375.93500001821667","./Stimuli/SelectedImages/LN/LN150.bmp","83","","","","test","true","N + M","83","switch","LN","LN150.bmp","forget","","73","3","prime1","left","","","",""
"html-keyboard-response","213","359934","0.0-4.0-1.0-3.24","jfcjl3gl19kx5sy","prime","5c6460995a5e01000129347c","5f60e3c0a3b16e07647b2ff9","5f60ec7129b248010b6de5eb","false","null","<div style=""align-items: center; display: flex; color: darkorange; font-size: 90px""><b>ø</b></div>","null","","","","forget_cue","","","","","","","","","","","","","","","",""
"html-keyboard-response","214","360636","0.0-4.0-1.0-0.25","jfcjl3gl19kx5sy","prime","5c6460995a5e01000129347c","5f60e3c0a3b16e07647b2ff9","5f60ec7129b248010b6de5eb","false","null","<span style=""color: black; font-size: 48px"">M + N</span>","null","","","","resp_prompt","","","","","","","","","","","","","","","",""
"categorize-image","215","361700","0.0-4.0-1.0-1.25","jfcjl3gl19kx5sy","prime","5c6460995a5e01000129347c","5f60e3c0a3b16e07647b2ff9","5f60ec7129b248010b6de5eb","true","1056.2649999046698","./Stimuli/SelectedImages/LM/LM57.bmp","83","","","","test","true","M + N","83","switch","LM","LM57.bmp","forget","","74","3","prime1","left","","","",""
"html-keyboard-response","216","363717","0.0-4.0-1.0-3.25","jfcjl3gl19kx5sy","prime","5c6460995a5e01000129347c","5f60e3c0a3b16e07647b2ff9","5f60ec7129b248010b6de5eb","false","null","<div style=""align-items: center; display: flex; color: darkorange; font-size: 90px""><b>ø</b></div>","null","","","","forget_cue","","","","","","","","","","","","","","","",""
"html-keyboard-response","217","364433","0.0-4.0-1.0-0.26","jfcjl3gl19kx5sy","prime","5c6460995a5e01000129347c","5f60e3c0a3b16e07647b2ff9","5f60ec7129b248010b6de5eb","false","null","<span style=""color: black; font-size: 48px"">M + N</span>","null","","","","resp_prompt","","","","","","","","","","","","","","","",""
"categorize-image","218","364693","0.0-4.0-1.0-1.26","jfcjl3gl19kx5sy","prime","5c6460995a5e01000129347c","5f60e3c0a3b16e07647b2ff9","5f60ec7129b248010b6de5eb","true","252.28499993681908","./Stimuli/SelectedImages/LN/LN28.bmp","76","","","","test","true","M + N","76","repetition","LN","LN28.bmp","forget","","75","3","prime1","right","","","",""
"html-keyboard-response","219","366713","0.0-4.0-1.0-3.26","jfcjl3gl19kx5sy","prime","5c6460995a5e01000129347c","5f60e3c0a3b16e07647b2ff9","5f60ec7129b248010b6de5eb","false","null","<div style=""align-items: center; display: flex; color: darkorange; font-size: 90px""><b>ø</b></div>","null","","","","forget_cue","","","","","","","","","","","","","","","",""
"html-keyboard-response","220","367428","0.0-4.0-1.0-0.27","jfcjl3gl19kx5sy","prime","5c6460995a5e01000129347c","5f60e3c0a3b16e07647b2ff9","5f60ec7129b248010b6de5eb","false","null","<span style=""color: black; font-size: 48px"">N + M</span>","null","","","","resp_prompt","","","","","","","","","","","","","","","",""
"categorize-image","221","367926","0.0-4.0-1.0-1.27","jfcjl3gl19kx5sy","prime","5c6460995a5e01000129347c","5f60e3c0a3b16e07647b2ff9","5f60ec7129b248010b6de5eb","true","488.04500000551343","./Stimuli/SelectedImages/LN/LN166.bmp","83","","","","test","true","N + M","83","repetition","LN","LN166.bmp","remember","","76","3","prime1","left","","","",""
"html-keyboard-response","222","369938","0.0-4.0-1.0-3.27","jfcjl3gl19kx5sy","prime","5c6460995a5e01000129347c","5f60e3c0a3b16e07647b2ff9","5f60ec7129b248010b6de5eb","false","null","<div style=""align-items: center; display: flex; color: dodgerblue; font-size: 90px""><b>o</b></div>","null","","","","forget_cue","","","","","","","","","","","","","","","",""
"html-keyboard-response","223","370652","0.0-4.0-1.0-0.28","jfcjl3gl19kx5sy","prime","5c6460995a5e01000129347c","5f60e3c0a3b16e07647b2ff9","5f60ec7129b248010b6de5eb","false","null","<span style=""color: black; font-size: 48px"">M + N</span>","null","","","","resp_prompt","","","","","","","","","","","","","","","",""
"categorize-image","224","370932","0.0-4.0-1.0-1.28","jfcjl3gl19kx5sy","prime","5c6460995a5e01000129347c","5f60e3c0a3b16e07647b2ff9","5f60ec7129b248010b6de5eb","true","272.2249999642372","./Stimuli/SelectedImages/SN/SN49.bmp","76","","","","test","true","M + N","76","switch","SN","SN49.bmp","remember","","77","3","prime1","right","","","",""
"html-keyboard-response","225","372943","0.0-4.0-1.0-3.28","jfcjl3gl19kx5sy","prime","5c6460995a5e01000129347c","5f60e3c0a3b16e07647b2ff9","5f60ec7129b248010b6de5eb","false","null","<div style=""align-items: center; display: flex; color: dodgerblue; font-size: 90px""><b>o</b></div>","null","","","","forget_cue","","","","","","","","","","","","","","","",""
"html-keyboard-response","226","373647","0.0-4.0-1.0-0.29","jfcjl3gl19kx5sy","prime","5c6460995a5e01000129347c","5f60e3c0a3b16e07647b2ff9","5f60ec7129b248010b6de5eb","false","null","<span style=""color: black; font-size: 48px"">N + M</span>","null","","","","resp_prompt","","","","","","","","","","","","","","","",""
"categorize-image","227","373982","0.0-4.0-1.0-1.29","jfcjl3gl19kx5sy","prime","5c6460995a5e01000129347c","5f60e3c0a3b16e07647b2ff9","5f60ec7129b248010b6de5eb","true","326.86500006821007","./Stimuli/SelectedImages/LM/LM209.bmp","76","","","","test","true","N + M","76","repetition","LM","LM209.bmp","remember","","78","3","prime1","right","","","",""
"html-keyboard-response","228","375988","0.0-4.0-1.0-3.29","jfcjl3gl19kx5sy","prime","5c6460995a5e01000129347c","5f60e3c0a3b16e07647b2ff9","5f60ec7129b248010b6de5eb","false","null","<div style=""align-items: center; display: flex; color: dodgerblue; font-size: 90px""><b>o</b></div>","null","","","","forget_cue","","","","","","","","","","","","","","","",""
"html-keyboard-response","229","376692","0.0-4.0-1.0-0.30","jfcjl3gl19kx5sy","prime","5c6460995a5e01000129347c","5f60e3c0a3b16e07647b2ff9","5f60ec7129b248010b6de5eb","false","null","<span style=""color: black; font-size: 48px"">M + N</span>","null","","","","resp_prompt","","","","","","","","","","","","","","","",""
"categorize-image","230","376787","0.0-4.0-1.0-1.30","jfcjl3gl19kx5sy","prime","5c6460995a5e01000129347c","5f60e3c0a3b16e07647b2ff9","5f60ec7129b248010b6de5eb","true","87.7049999544397","./Stimuli/SelectedImages/LN/LN9.bmp","83","","","","test","false","M + N","76","repetition","LN","LN9.bmp","remember","","79","3","prime1","left","","","",""
"html-keyboard-response","231","377302","0.0-4.0-1.0-2.30-0.30","jfcjl3gl19kx5sy","prime","5c6460995a5e01000129347c","5f60e3c0a3b16e07647b2ff9","5f60ec7129b248010b6de5eb","false","null","<span style=""color: red; font-size: 48px"">Error!</span>","null","","","","feedback","","","","","","","","","","","","","","","",""
"html-keyboard-response","232","379316","0.0-4.0-1.0-3.30","jfcjl3gl19kx5sy","prime","5c6460995a5e01000129347c","5f60e3c0a3b16e07647b2ff9","5f60ec7129b248010b6de5eb","false","null","<div style=""align-items: center; display: flex; color: dodgerblue; font-size: 90px""><b>o</b></div>","null","","","","forget_cue","","","","","","","","","","","","","","","",""
"html-keyboard-response","233","380021","0.0-4.0-1.0-0.31","jfcjl3gl19kx5sy","prime","5c6460995a5e01000129347c","5f60e3c0a3b16e07647b2ff9","5f60ec7129b248010b6de5eb","false","null","<span style=""color: black; font-size: 48px"">M + N</span>","null","","","","resp_prompt","","","","","","","","","","","","","","","",""
"categorize-image","234","380413","0.0-4.0-1.0-1.31","jfcjl3gl19kx5sy","prime","5c6460995a5e01000129347c","5f60e3c0a3b16e07647b2ff9","5f60ec7129b248010b6de5eb","true","385.2999999653548","./Stimuli/SelectedImages/LN/LN82.bmp","76","","","","test","true","M + N","76","repetition","LN","LN82.bmp","forget","","80","3","prime1","right","","","",""
"html-keyboard-response","235","382430","0.0-4.0-1.0-3.31","jfcjl3gl19kx5sy","prime","5c6460995a5e01000129347c","5f60e3c0a3b16e07647b2ff9","5f60ec7129b248010b6de5eb","false","null","<div style=""align-items: center; display: flex; color: darkorange; font-size: 90px""><b>ø</b></div>","null","","","","forget_cue","","","","","","","","","","","","","","","",""
"html-keyboard-response","236","383147","0.0-4.0-1.0-0.32","jfcjl3gl19kx5sy","prime","5c6460995a5e01000129347c","5f60e3c0a3b16e07647b2ff9","5f60ec7129b248010b6de5eb","false","null","<span style=""color: black; font-size: 48px"">M + N</span>","null","","","","resp_prompt","","","","","","","","","","","","","","","",""
"categorize-image","237","383405","0.0-4.0-1.0-1.32","jfcjl3gl19kx5sy","prime","5c6460995a5e01000129347c","5f60e3c0a3b16e07647b2ff9","5f60ec7129b248010b6de5eb","true","251.11499999184161","./Stimuli/SelectedImages/LN/LN42.bmp","83","","","","test","false","M + N","76","switch","LN","LN42.bmp","forget","","81","3","prime1","left","","","",""
"html-keyboard-response","238","383920","0.0-4.0-1.0-2.32-0.32","jfcjl3gl19kx5sy","prime","5c6460995a5e01000129347c","5f60e3c0a3b16e07647b2ff9","5f60ec7129b248010b6de5eb","false","null","<span style=""color: red; font-size: 48px"">Error!</span>","null","","","","feedback","","","","","","","","","","","","","","","",""
"html-keyboard-response","239","385926","0.0-4.0-1.0-3.32","jfcjl3gl19kx5sy","prime","5c6460995a5e01000129347c","5f60e3c0a3b16e07647b2ff9","5f60ec7129b248010b6de5eb","false","null","<div style=""align-items: center; display: flex; color: darkorange; font-size: 90px""><b>ø</b></div>","null","","","","forget_cue","","","","","","","","","","","","","","","",""
"html-keyboard-response","240","386633","0.0-4.0-1.0-0.33","jfcjl3gl19kx5sy","prime","5c6460995a5e01000129347c","5f60e3c0a3b16e07647b2ff9","5f60ec7129b248010b6de5eb","false","null","<span style=""color: black; font-size: 48px"">N + M</span>","null","","","","resp_prompt","","","","","","","","","","","","","","","",""
"categorize-image","241","386965","0.0-4.0-1.0-1.33","jfcjl3gl19kx5sy","prime","5c6460995a5e01000129347c","5f60e3c0a3b16e07647b2ff9","5f60ec7129b248010b6de5eb","true","325.4799999995157","./Stimuli/SelectedImages/SN/SN140.bmp","76","","","","test","false","N + M","83","repetition","SN","SN140.bmp","remember","","82","3","prime1","right","","","",""
"html-keyboard-response","242","387477","0.0-4.0-1.0-2.33-0.33","jfcjl3gl19kx5sy","prime","5c6460995a5e01000129347c","5f60e3c0a3b16e07647b2ff9","5f60ec7129b248010b6de5eb","false","null","<span style=""color: red; font-size: 48px"">Error!</span>","null","","","","feedback","","","","","","","","","","","","","","","",""
"html-keyboard-response","243","389487","0.0-4.0-1.0-3.33","jfcjl3gl19kx5sy","prime","5c6460995a5e01000129347c","5f60e3c0a3b16e07647b2ff9","5f60ec7129b248010b6de5eb","false","null","<div style=""align-items: center; display: flex; color: dodgerblue; font-size: 90px""><b>o</b></div>","null","","","","forget_cue","","","","","","","","","","","","","","","",""
"html-keyboard-response","244","390195","0.0-4.0-1.0-0.34","jfcjl3gl19kx5sy","prime","5c6460995a5e01000129347c","5f60e3c0a3b16e07647b2ff9","5f60ec7129b248010b6de5eb","false","null","<span style=""color: black; font-size: 48px"">M + N</span>","null","","","","resp_prompt","","","","","","","","","","","","","","","",""
"categorize-image","245","390533","0.0-4.0-1.0-1.34","jfcjl3gl19kx5sy","prime","5c6460995a5e01000129347c","5f60e3c0a3b16e07647b2ff9","5f60ec7129b248010b6de5eb","true","330.5549999931827","./Stimuli/SelectedImages/LM/LM58.bmp","76","","","","test","false","M + N","83","repetition","LM","LM58.bmp","remember","","83","3","prime1","right","","","",""
"html-keyboard-response","246","391054","0.0-4.0-1.0-2.34-0.34","jfcjl3gl19kx5sy","prime","5c6460995a5e01000129347c","5f60e3c0a3b16e07647b2ff9","5f60ec7129b248010b6de5eb","false","null","<span style=""color: red; font-size: 48px"">Error!</span>","null","","","","feedback","","","","","","","","","","","","","","","",""
"html-keyboard-response","247","393071","0.0-4.0-1.0-3.34","jfcjl3gl19kx5sy","prime","5c6460995a5e01000129347c","5f60e3c0a3b16e07647b2ff9","5f60ec7129b248010b6de5eb","false","null","<div style=""align-items: center; display: flex; color: dodgerblue; font-size: 90px""><b>o</b></div>","null","","","","forget_cue","","","","","","","","","","","","","","","",""
"html-keyboard-response","248","393798","0.0-4.0-1.0-0.35","jfcjl3gl19kx5sy","prime","5c6460995a5e01000129347c","5f60e3c0a3b16e07647b2ff9","5f60ec7129b248010b6de5eb","false","null","<span style=""color: black; font-size: 48px"">M + N</span>","null","","","","resp_prompt","","","","","","","","","","","","","","","",""
"categorize-image","249","394421","0.0-4.0-1.0-1.35","jfcjl3gl19kx5sy","prime","5c6460995a5e01000129347c","5f60e3c0a3b16e07647b2ff9","5f60ec7129b248010b6de5eb","true","616.3899999810383","./Stimuli/SelectedImages/SM/SM73.bmp","76","","","","test","false","M + N","83","repetition","SM","SM73.bmp","remember","","84","3","prime1","right","","","",""
"html-keyboard-response","250","394933","0.0-4.0-1.0-2.35-0.35","jfcjl3gl19kx5sy","prime","5c6460995a5e01000129347c","5f60e3c0a3b16e07647b2ff9","5f60ec7129b248010b6de5eb","false","null","<span style=""color: red; font-size: 48px"">Error!</span>","null","","","","feedback","","","","","","","","","","","","","","","",""
"html-keyboard-response","251","396949","0.0-4.0-1.0-3.35","jfcjl3gl19kx5sy","prime","5c6460995a5e01000129347c","5f60e3c0a3b16e07647b2ff9","5f60ec7129b248010b6de5eb","false","null","<div style=""align-items: center; display: flex; color: dodgerblue; font-size: 90px""><b>o</b></div>","null","","","","forget_cue","","","","","","","","","","","","","","","",""
"html-keyboard-response","252","397654","0.0-4.0-1.0-0.36","jfcjl3gl19kx5sy","prime","5c6460995a5e01000129347c","5f60e3c0a3b16e07647b2ff9","5f60ec7129b248010b6de5eb","false","null","<span style=""color: black; font-size: 48px"">M + N</span>","null","","","","resp_prompt","","","","","","","","","","","","","","","",""
"categorize-image","253","398006","0.0-4.0-1.0-1.36","jfcjl3gl19kx5sy","prime","5c6460995a5e01000129347c","5f60e3c0a3b16e07647b2ff9","5f60ec7129b248010b6de5eb","true","346.2600000202656","./Stimuli/SelectedImages/SM/SM148.bmp","83","","","","test","true","M + N","83","switch","SM","SM148.bmp","forget","","85","3","prime1","left","","","",""
"html-keyboard-response","254","400034","0.0-4.0-1.0-3.36","jfcjl3gl19kx5sy","prime","5c6460995a5e01000129347c","5f60e3c0a3b16e07647b2ff9","5f60ec7129b248010b6de5eb","false","null","<div style=""align-items: center; display: flex; color: darkorange; font-size: 90px""><b>ø</b></div>","null","","","","forget_cue","","","","","","","","","","","","","","","",""
