"trial_type","trial_index","time_elapsed","internal_node_id","subject","exp_part","prolific_PID","study_ID","session_ID","use","rt","stimulus","key_press","button_pressed","responses","question_order","trial_part","correct","resp_map","correct_resp","probe_condition","category","image","forget_condition","list","trial_num","block_num","block","response","test_part","n_span","sequence","num_spaces"
"pavlovia","0","4","0.0-0.0","n9fpgdzmucovrdy","","5f1d266c6f7d7f62a219fade","5f60e3c0a3b16e07647b2ff9","5f638037b0ce07060778fad8","false","","","","","","","","","","","","","","","","","","","","","","",""
"html-keyboard-response","1","14960","0.0-1.0-0.0-0.0","n9fpgdzmucovrdy","welcome","5f1d266c6f7d7f62a219fade","5f60e3c0a3b16e07647b2ff9","5f638037b0ce07060778fad8","false","14953.44500002102","<div align=left>Dear participant, <br> thank you for participating in an online study of the Cognition, Action, and Sustainability Unit of the University of Freiburg! <br> <br>The aim of this study is to examine our ability to remember previously learned information. <br>Our goal is to find out, whether our memory improves, when we only remember information that is relevant to us. <br>The experiment will take about 35 minutes to complete. <br> <br>Please, note that you can only participate in this study if you are using a device with a keyboard (PC, Laptop etc.) <br>and not if you are using a mobile device such as a tablet or smartphone.<br> <br>Press 'SPACE' to proceed to the experiment. </div>","32","","","","","","","","","","","","","","","","","","","",""
"html-keyboard-response","2","40943","0.0-1.0-0.0-1.0","n9fpgdzmucovrdy","welcome","5f1d266c6f7d7f62a219fade","5f60e3c0a3b16e07647b2ff9","5f638037b0ce07060778fad8","false","25981.15500001586","<div align=left><strong> Time Course of this experiment: </strong> <br><br> <strong> 1.</strong>  First, please fill in some information regarding your demographic data. <br><br> <strong> 2.</strong>  Next, your task will be to classify everyday objects. <br>In addition, you will be asked to remember certain objects and recall them later. <br>Working on these tasks requires your undivided attention and concentration.<br>It is therefore essential that you eliminate any sources of distraction in your  <br>environment and ensure that you will not be disturbed. <br><br><strong> 3.</strong>  At the end of the experiment, you will be asked to answer a few additional questions. <br> <br><strong> Important:</strong> After finishing the experiment, only close the browser window <br> by clicking on the 'end the experiment'-button when you are asked to do so. <br>Closing the browser window prematurely will make the allocation of your participation credit impossible. <br><br> Press 'SPACE' to start the experiment. </div>","32","","","","","","","","","","","","","","","","","","","",""
"html-button-response","3","54509","0.0-1.0-0.0-2.0","n9fpgdzmucovrdy","welcome","5f1d266c6f7d7f62a219fade","5f60e3c0a3b16e07647b2ff9","5f638037b0ce07060778fad8","true","13564.699999988079","<div align=left><strong> Informed consent </strong>  <br>The aim of our research is to better understand human behavior and mental processes. <br>In the following study your behavior (e.g. choices, reaction times) will be studied. <br> <br><strong> Voluntariness and Anonymity </strong> <br>Your participation in this study is  <strong> voluntary</strong>.<br>You may withdraw your consent to participate at any time without providing a reason for doing so and without fear of prejudice. <br><br>As no personal data will be collected, <strong>your data and your person cannot be connected after data collection</strong> – the data-set is anonymous. <br>Respectively, deletion of your data will not be possible after data collection has been completed, as we cannot retrace your data-set.<br>The results and anonymized data collected in this study will be published as a scientific publication. <br>This will happen in an <strong>anonymized format</strong>, so that no data can be traced back to a specific person. <br> <br>The anonymized data of this study will be made available to other researchers and/or in a data archive on the Internet as a means of transparency and to enable subsequent re-use. By doing so, this study follows the recommendations of the Deutsche Forschungsgemeinschaft (DFG, German Research Foundation) and Deutsche Gesellschaft für Psychologie (DGPS, German Psychological Society) regarding quality assurance in research.<br>If you have any questions now or after the experiment, please contact our team (experiments@cs.uni-freiburg.de).<br><br><br>I hereby declare, that I understand the above described conditions of participation and I agree to participate under these conditions. <br><br> </div>","","0","","","","","","","","","","","","","","","","","","",""
"html-keyboard-response","4","77567","0.0-1.0-0.0-3.0","n9fpgdzmucovrdy","welcome","5f1d266c6f7d7f62a219fade","5f60e3c0a3b16e07647b2ff9","5f638037b0ce07060778fad8","false","23056.104999996023","<div align=left><strong> General information concerning the experiment </strong>  <br> <br>Please follow the instructions:<ol> <li><strong> Do not leave this tab (your browser window) during the experiment and do not reload this tab! </strong>  <br>If you do switch tabs/windows during the experiment (to check your mail or visit another website, for example), <br>the experiment will end automatically and you will <strong>not receive credit</strong> for your participation. <br>Repeated participation or resumption of the experiment is impossible.</li> <br><li>Please close all other programs for the duration of your participation. </li> <br><li>Please mute or turn off your phone and put it out of your reach. </li> <br><li>Please also take off any disturbing accessories (such as wristwatches, bracelets, etc.). </li> <br><li>If you have music playing in the background, please turn it off now. </li> <br></ol>Thank you! <br>Press 'SPACE' to continue. </div>","32","","","","","","","","","","","","","","","","","","","",""
"survey-text","5","82909","0.0-1.0-1.0-0.0","n9fpgdzmucovrdy","demographics","5f1d266c6f7d7f62a219fade","5f60e3c0a3b16e07647b2ff9","5f638037b0ce07060778fad8","true","5337.005000008503","","","","{""age"":""38""}","","","","","","","","","","","","","","","","","",""
"survey-multi-choice","6","115176","0.0-1.0-1.0-1.0","n9fpgdzmucovrdy","demographics","5f1d266c6f7d7f62a219fade","5f60e3c0a3b16e07647b2ff9","5f638037b0ce07060778fad8","true","32265.240000007907","","","","{""gender"":""male"",""school"":""others"",""education"":""other""}","[0,1,2]","","","","","","","","","","","","","","","","",""
"html-keyboard-response","7","135535","0.0-1.0-2.0","n9fpgdzmucovrdy","instructions","5f1d266c6f7d7f62a219fade","5f60e3c0a3b16e07647b2ff9","5f638037b0ce07060778fad8","false","20356.735000008484","<div align=left> The experiment is now about to start: <br> <br>In the following part, you will be presented pictures of everyday objects. <br>Your first task is to <strong>classify these objects. </strong> <br> <br> You will classify them either as mechanical or non-mechanical objects. <br> <br>Objects that include any kind of technical mechanism (for example, wheels, switches, levers, <br> electronic components) fall under the category of <strong>mechanical</strong> objects. <br>Only objects without any kind of technical mechanism should be classified as <strong>non-mechanical</strong>. <br><br>Press 'SPACE' to continue. </div>","32","","","","","","","","","","","","","","","","","","","",""
"html-keyboard-response","8","182286","0.0-2.0-0.0","n9fpgdzmucovrdy","instructions","5f1d266c6f7d7f62a219fade","5f60e3c0a3b16e07647b2ff9","5f638037b0ce07060778fad8","false","46749.91499999305","<div align=justify>You will classify the objects using the <strong>'S'</strong> and the <strong>'L'</strong> keys on your keyboard.<br>For doing so, please place your <strong>left index finger</strong> on the <strong>'S'</strong> key and place your <strong>right index finger</strong> on the <strong>'L'</strong> key. <br><br> Each trial starts with an instruction, indicating which key ('S'/'L') you need to press to classify <br>the object as mechanical (letter M) or non-mechanical (letter N).<br>The instruction <strong>M + N</strong> indicates that, in the current trial, by pressing the left key ('S') you classify the displayed object as mechanical (M) <br> and by pressing the right key ('L') you classify the object as non-mechanical (N). <br>The instruction <strong>N + M</strong> on the other hand indicates that by pressing the left key ('S') you classify the displayed object as non-mechanical (N) <br> and by pressing the right key ('L') you classify the object as mechanical (M). <br><br>Please press the key corresponding to the correct classification as fast as possible as soon as the object is displayed and try to avoid making mistakes.<br>If you do not respond within a 2 second window, a corresponding feedback will be displayed and the next trial will start.<br> The experiment is divided into multiple blocks to give you the opportunity to take a break after each block. <br>First, you can now practice this task. <br><br>Please place your <strong>LEFT INDEX FINGER</strong> on the 'S' key and your <strong>RIGHT INDEX FINGER</strong> on the 'L' key now. <br><br>Press SPACE to continue.</div>","32","","","","","","","","","","","","","","","","","","","",""
"html-keyboard-response","9","189150","0.0-2.0-1.0","n9fpgdzmucovrdy","instructions","5f1d266c6f7d7f62a219fade","5f60e3c0a3b16e07647b2ff9","5f638037b0ce07060778fad8","false","6862.2099999920465","<div align=left> You will now have time to practice this task.<br><br>Remember: <br> <br><li>Please place your index fingers on the <strong>'S'</strong> and <strong>'L'</strong> keys <br>to respond as fast and accurately as possible.</li><li>Every picture can be classified as either mechanical or non-mechanical.</li><li>If you do not respond in time or commit an error, you will receive a corresponding feedback. </li><li> Please try to respond as <strong> fast </strong> and as <strong> accurately as possible </strong> .<br><li>To ensure optimal results, please minimize distractions and stay focused. </li><br><br>Press SPACE to continue.</div>","32","","","","","","","","","","","","","","","","","","","",""
"html-keyboard-response","10","189852","0.0-2.0-2.0-0.0","n9fpgdzmucovrdy","practice_no_cue","5f1d266c6f7d7f62a219fade","5f60e3c0a3b16e07647b2ff9","5f638037b0ce07060778fad8","false","null","<span style=""color: black; font-size: 48px"">M + N</span>","null","","","","resp_prompt","","","","","","","","","","","","","","","",""
"categorize-image","11","191947","0.0-2.0-2.0-1.0","n9fpgdzmucovrdy","practice_no_cue","5f1d266c6f7d7f62a219fade","5f60e3c0a3b16e07647b2ff9","5f638037b0ce07060778fad8","true","1592.3400000028778","./Stimuli/ImagesPractice/SN76.jpg","76","","","","test","true","M + N","76","","SN","SN76.jpg","remember","old","1","1","start","right","","","",""
"html-keyboard-response","12","192649","0.0-2.0-2.0-0.1","n9fpgdzmucovrdy","practice_no_cue","5f1d266c6f7d7f62a219fade","5f60e3c0a3b16e07647b2ff9","5f638037b0ce07060778fad8","false","null","<span style=""color: black; font-size: 48px"">M + N</span>","null","","","","resp_prompt","","","","","","","","","","","","","","","",""
"categorize-image","13","195115","0.0-2.0-2.0-1.1","n9fpgdzmucovrdy","practice_no_cue","5f1d266c6f7d7f62a219fade","5f60e3c0a3b16e07647b2ff9","5f638037b0ce07060778fad8","true","1963.8299999933224","./Stimuli/ImagesPractice/SN222.jpg","76","","","","test","true","M + N","76","","SN","SN222.jpg","forget","old","2","1","start","right","","","",""
"html-keyboard-response","14","195816","0.0-2.0-2.0-0.2","n9fpgdzmucovrdy","practice_no_cue","5f1d266c6f7d7f62a219fade","5f60e3c0a3b16e07647b2ff9","5f638037b0ce07060778fad8","false","null","<span style=""color: black; font-size: 48px"">M + N</span>","null","","","","resp_prompt","","","","","","","","","","","","","","","",""
"categorize-image","15","197626","0.0-2.0-2.0-1.2","n9fpgdzmucovrdy","practice_no_cue","5f1d266c6f7d7f62a219fade","5f60e3c0a3b16e07647b2ff9","5f638037b0ce07060778fad8","true","1308.2850000064354","./Stimuli/ImagesPractice/SM62.jpg","83","","","","test","true","M + N","83","","SM","SM62.jpg","forget","old","3","1","start","left","","","",""
"html-keyboard-response","16","198327","0.0-2.0-2.0-0.3","n9fpgdzmucovrdy","practice_no_cue","5f1d266c6f7d7f62a219fade","5f60e3c0a3b16e07647b2ff9","5f638037b0ce07060778fad8","false","null","<span style=""color: black; font-size: 48px"">M + N</span>","null","","","","resp_prompt","","","","","","","","","","","","","","","",""
"categorize-image","17","199866","0.0-2.0-2.0-1.3","n9fpgdzmucovrdy","practice_no_cue","5f1d266c6f7d7f62a219fade","5f60e3c0a3b16e07647b2ff9","5f638037b0ce07060778fad8","true","1036.9300000020303","./Stimuli/ImagesPractice/SN205.jpg","83","","","","test","false","M + N","76","","SN","SN205.jpg","forget","old","4","1","start","left","","","",""
"html-keyboard-response","18","200567","0.0-2.0-2.0-0.4","n9fpgdzmucovrdy","practice_no_cue","5f1d266c6f7d7f62a219fade","5f60e3c0a3b16e07647b2ff9","5f638037b0ce07060778fad8","false","null","<span style=""color: black; font-size: 48px"">N + M</span>","null","","","","resp_prompt","","","","","","","","","","","","","","","",""
"categorize-image","19","202290","0.0-2.0-2.0-1.4","n9fpgdzmucovrdy","practice_no_cue","5f1d266c6f7d7f62a219fade","5f60e3c0a3b16e07647b2ff9","5f638037b0ce07060778fad8","true","1220.9299999813084","./Stimuli/ImagesPractice/SM35.jpg","76","","","","test","true","N + M","76","","SM","SM35.jpg","remember","old","5","1","start","right","","","",""
"html-keyboard-response","20","202992","0.0-2.0-2.0-0.5","n9fpgdzmucovrdy","practice_no_cue","5f1d266c6f7d7f62a219fade","5f60e3c0a3b16e07647b2ff9","5f638037b0ce07060778fad8","false","null","<span style=""color: black; font-size: 48px"">N + M</span>","null","","","","resp_prompt","","","","","","","","","","","","","","","",""
"categorize-image","21","204491","0.0-2.0-2.0-1.5","n9fpgdzmucovrdy","practice_no_cue","5f1d266c6f7d7f62a219fade","5f60e3c0a3b16e07647b2ff9","5f638037b0ce07060778fad8","true","996.885000000475","./Stimuli/ImagesPractice/SM61.jpg","76","","","","test","true","N + M","76","","SM","SM61.jpg","remember","old","6","1","start","right","","","",""
"html-keyboard-response","22","205192","0.0-2.0-2.0-0.6","n9fpgdzmucovrdy","practice_no_cue","5f1d266c6f7d7f62a219fade","5f60e3c0a3b16e07647b2ff9","5f638037b0ce07060778fad8","false","null","<span style=""color: black; font-size: 48px"">N + M</span>","null","","","","resp_prompt","","","","","","","","","","","","","","","",""
"categorize-image","23","206587","0.0-2.0-2.0-1.6","n9fpgdzmucovrdy","practice_no_cue","5f1d266c6f7d7f62a219fade","5f60e3c0a3b16e07647b2ff9","5f638037b0ce07060778fad8","true","893.0600000021514","./Stimuli/ImagesPractice/LN72.jpg","83","","","","test","true","N + M","83","","LN","LN72.jpg","forget","old","7","1","start","left","","","",""
"html-keyboard-response","24","207288","0.0-2.0-2.0-0.7","n9fpgdzmucovrdy","practice_no_cue","5f1d266c6f7d7f62a219fade","5f60e3c0a3b16e07647b2ff9","5f638037b0ce07060778fad8","false","null","<span style=""color: black; font-size: 48px"">N + M</span>","null","","","","resp_prompt","","","","","","","","","","","","","","","",""
"categorize-image","25","208530","0.0-2.0-2.0-1.7","n9fpgdzmucovrdy","practice_no_cue","5f1d266c6f7d7f62a219fade","5f60e3c0a3b16e07647b2ff9","5f638037b0ce07060778fad8","true","740.5699999944773","./Stimuli/ImagesPractice/LM55.jpg","76","","","","test","true","N + M","76","","LM","LM55.jpg","remember","old","8","1","start","right","","","",""
"html-keyboard-response","26","209232","0.0-2.0-2.0-0.8","n9fpgdzmucovrdy","practice_no_cue","5f1d266c6f7d7f62a219fade","5f60e3c0a3b16e07647b2ff9","5f638037b0ce07060778fad8","false","null","<span style=""color: black; font-size: 48px"">M + N</span>","null","","","","resp_prompt","","","","","","","","","","","","","","","",""
"categorize-image","27","210506","0.0-2.0-2.0-1.8","n9fpgdzmucovrdy","practice_no_cue","5f1d266c6f7d7f62a219fade","5f60e3c0a3b16e07647b2ff9","5f638037b0ce07060778fad8","true","773.0000000155997","./Stimuli/ImagesPractice/LM143.jpg","83","","","","test","true","M + N","83","","LM","LM143.jpg","remember","old","9","1","start","left","","","",""
"html-keyboard-response","28","211207","0.0-2.0-2.0-0.9","n9fpgdzmucovrdy","practice_no_cue","5f1d266c6f7d7f62a219fade","5f60e3c0a3b16e07647b2ff9","5f638037b0ce07060778fad8","false","null","<span style=""color: black; font-size: 48px"">N + M</span>","null","","","","resp_prompt","","","","","","","","","","","","","","","",""
"categorize-image","29","212459","0.0-2.0-2.0-1.9","n9fpgdzmucovrdy","practice_no_cue","5f1d266c6f7d7f62a219fade","5f60e3c0a3b16e07647b2ff9","5f638037b0ce07060778fad8","true","749.4449999940116","./Stimuli/ImagesPractice/SN220.jpg","83","","","","test","true","N + M","83","","SN","SN220.jpg","forget","old","10","1","start","left","","","",""
"html-keyboard-response","30","213160","0.0-2.0-2.0-0.10","n9fpgdzmucovrdy","practice_no_cue","5f1d266c6f7d7f62a219fade","5f60e3c0a3b16e07647b2ff9","5f638037b0ce07060778fad8","false","null","<span style=""color: black; font-size: 48px"">N + M</span>","null","","","","resp_prompt","","","","","","","","","","","","","","","",""
"categorize-image","31","214691","0.0-2.0-2.0-1.10","n9fpgdzmucovrdy","practice_no_cue","5f1d266c6f7d7f62a219fade","5f60e3c0a3b16e07647b2ff9","5f638037b0ce07060778fad8","true","1029.2349999945145","./Stimuli/ImagesPractice/LN4.jpg","83","","","","test","true","N + M","83","","LN","LN4.jpg","forget","old","11","1","start","left","","","",""
"html-keyboard-response","32","215392","0.0-2.0-2.0-0.11","n9fpgdzmucovrdy","practice_no_cue","5f1d266c6f7d7f62a219fade","5f60e3c0a3b16e07647b2ff9","5f638037b0ce07060778fad8","false","null","<span style=""color: black; font-size: 48px"">M + N</span>","null","","","","resp_prompt","","","","","","","","","","","","","","","",""
"categorize-image","33","217603","0.0-2.0-2.0-1.11","n9fpgdzmucovrdy","practice_no_cue","5f1d266c6f7d7f62a219fade","5f60e3c0a3b16e07647b2ff9","5f638037b0ce07060778fad8","true","1709.644999995362","./Stimuli/ImagesPractice/LM224.jpg","83","","","","test","true","M + N","83","","LM","LM224.jpg","remember","old","12","1","start","left","","","",""
"html-keyboard-response","34","218304","0.0-2.0-2.0-0.12","n9fpgdzmucovrdy","practice_no_cue","5f1d266c6f7d7f62a219fade","5f60e3c0a3b16e07647b2ff9","5f638037b0ce07060778fad8","false","null","<span style=""color: black; font-size: 48px"">N + M</span>","null","","","","resp_prompt","","","","","","","","","","","","","","","",""
"categorize-image","35","219659","0.0-2.0-2.0-1.12","n9fpgdzmucovrdy","practice_no_cue","5f1d266c6f7d7f62a219fade","5f60e3c0a3b16e07647b2ff9","5f638037b0ce07060778fad8","true","852.7400000020862","./Stimuli/ImagesPractice/LN2.jpg","83","","","","test","true","N + M","83","","LN","LN2.jpg","remember","old","13","1","start","left","","","",""
"html-keyboard-response","36","220360","0.0-2.0-2.0-0.13","n9fpgdzmucovrdy","practice_no_cue","5f1d266c6f7d7f62a219fade","5f60e3c0a3b16e07647b2ff9","5f638037b0ce07060778fad8","false","null","<span style=""color: black; font-size: 48px"">M + N</span>","null","","","","resp_prompt","","","","","","","","","","","","","","","",""
"categorize-image","37","222227","0.0-2.0-2.0-1.13","n9fpgdzmucovrdy","practice_no_cue","5f1d266c6f7d7f62a219fade","5f60e3c0a3b16e07647b2ff9","5f638037b0ce07060778fad8","true","1364.8799999791663","./Stimuli/ImagesPractice/SN75.jpg","76","","","","test","true","M + N","76","","SN","SN75.jpg","remember","old","14","1","start","right","","","",""
"html-keyboard-response","38","222928","0.0-2.0-2.0-0.14","n9fpgdzmucovrdy","practice_no_cue","5f1d266c6f7d7f62a219fade","5f60e3c0a3b16e07647b2ff9","5f638037b0ce07060778fad8","false","null","<span style=""color: black; font-size: 48px"">M + N</span>","null","","","","resp_prompt","","","","","","","","","","","","","","","",""
"categorize-image","39","224610","0.0-2.0-2.0-1.14","n9fpgdzmucovrdy","practice_no_cue","5f1d266c6f7d7f62a219fade","5f60e3c0a3b16e07647b2ff9","5f638037b0ce07060778fad8","true","1180.449999985285","./Stimuli/ImagesPractice/LN109.jpg","83","","","","test","false","M + N","76","","LN","LN109.jpg","forget","old","15","1","start","left","","","",""
"html-keyboard-response","40","225311","0.0-2.0-2.0-0.15","n9fpgdzmucovrdy","practice_no_cue","5f1d266c6f7d7f62a219fade","5f60e3c0a3b16e07647b2ff9","5f638037b0ce07060778fad8","false","null","<span style=""color: black; font-size: 48px"">N + M</span>","null","","","","resp_prompt","","","","","","","","","","","","","","","",""
"categorize-image","41","226642","0.0-2.0-2.0-1.15","n9fpgdzmucovrdy","practice_no_cue","5f1d266c6f7d7f62a219fade","5f60e3c0a3b16e07647b2ff9","5f638037b0ce07060778fad8","true","829.4800000148825","./Stimuli/ImagesPractice/SM37.jpg","76","","","","test","true","N + M","76","","SM","SM37.jpg","forget","old","16","1","start","right","","","",""
"html-keyboard-response","42","232342","0.0-2.0-3.0","n9fpgdzmucovrdy","break","5f1d266c6f7d7f62a219fade","5f60e3c0a3b16e07647b2ff9","5f638037b0ce07060778fad8","false","5698.190000024624","<p style='font-size: 32px;'>Break</><br><br><br><br><br><p style='font-size: 24px;'>In the last block, you committed 2 errors and did not respond in time on 0 trials.
</p><p style='font-size: 24px;'>Try to respond as fast and accurately as possible in the next block as well! </p><p style='font-size: 24px;'>Press SPACE to continue.</p>","32","","","","","","","","","","","","","","","","","","","",""
"html-keyboard-response","43","238901","0.0-2.0-4.0","n9fpgdzmucovrdy","instructions","5f1d266c6f7d7f62a219fade","5f60e3c0a3b16e07647b2ff9","5f638037b0ce07060778fad8","false","6558.460000000196","<div align=left> Great!<br><br>Are you ready to continue?<br><br>If you want to reread the instructions and redo the practice trials, <br>please press „Z“. <br><br>Press SPACE to CONTINUE with the experiment when you are ready. </div>","32","","","","","","","","","","","","","","","","","","","",""
"html-keyboard-response","44","278350","0.0-3.0-0.0","n9fpgdzmucovrdy","instructions","5f1d266c6f7d7f62a219fade","5f60e3c0a3b16e07647b2ff9","5f638037b0ce07060778fad8","false","39446.45000001765","<div align=left>Great!<br> <strong>Attention</strong>! You will now receive a second, additional task! <br><br>To this point it was you <strong>first task</strong> to correctly <strong>classify objects</strong>. <br><br>As mentioned in the beginning, we aim to examine how well humans can remember previously learned information.<br>We would like to find out whether our memory improves if we only remember information that is relevant to us. <br><br>Therefore, your <strong>second task</strong> will be to <strong>remember</strong> the pictures you are to categorize. <br> After the learning phase, there will be a memory test phase, in which you will be asked to indicate whether you have seen a picture before or not. <br>Some, but not all pictures shown in the learning phase will appear in the memory test phase.<br>After classifying a picture, you will be told whether you should remember it for the memory test phase or not. <br>Thus, some pictures can be forgotten, whereas others have to be remembered. <br><br>Note: From now on, feedback will only be displayed if you responded incorrectly or not in time.<br><br>Press SPACE to continue.</div>","32","","","","","","","","","","","","","","","","","","","",""
"html-keyboard-response","45","291413","0.0-3.0-1.0","n9fpgdzmucovrdy","instructions","5f1d266c6f7d7f62a219fade","5f60e3c0a3b16e07647b2ff9","5f638037b0ce07060778fad8","false","13062.714999978198","<div align=left>In the following part, you will thus have to remember only some pictures. <br>Immediately after seeing and classifying the picture, a symbol will be displayed, indicating whether you should remember or forget the previous picture. <br><br>A <span style='color: dodgerblue; font-size: 28px'>O</span> indicates REMEMBER. That means, you have to remember this picture, because it will be tested later. <br><br>A <span style='color: darkorange; font-size:28px'>Ø</span> indicates FORGET. You do not have to remember this picture. <br><br> As you will have to remember a lot of pictures, it will be hard for you to remember all of them. <br>It will put you at an advantage if you instantly forget the pictures you are not asked to remember. <br> This will make it easier for you to remember the pictures that will be tested afterwards. <br><br>Press SPACE to continue.</div>","32","","","","","","","","","","","","","","","","","","","",""
"html-keyboard-response","46","302469","0.0-3.0-2.0","n9fpgdzmucovrdy","instructions","5f1d266c6f7d7f62a219fade","5f60e3c0a3b16e07647b2ff9","5f638037b0ce07060778fad8","false","11055.205000011483","<div align=left> Now you have the chance to practice both tasks together.<br><br>Remember: <br> <br><li>Please place your index fingers on the <strong>'S'</strong> and <strong>'L'</strong> keys <br>to respond as fast and accurately as possible.</li><li>Every picture can be classified as either mechanical or non-mechanical.</li><li>If you do not respond in time or commit an error, you will receive a corresponding feedback. <br>Please try to respond as <strong> fast </strong> and as <strong> accurately as possible </strong>.</li><li> Please remember only the to-be-remembered <span style='color: dodgerblue; font-size: 28px'>O</span> pictures. <br></li><li> Please minimize distractions and stay focused. </li><br><br>Press SPACE to START</div>","32","","","","","","","","","","","","","","","","","","","",""
"html-keyboard-response","47","303171","0.0-3.0-3.0-0.0","n9fpgdzmucovrdy","practice_cue","5f1d266c6f7d7f62a219fade","5f60e3c0a3b16e07647b2ff9","5f638037b0ce07060778fad8","false","null","<span style=""color: black; font-size: 48px"">N + M</span>","null","","","","resp_prompt","","","","","","","","","","","","","","","",""
"categorize-image","48","303878","0.0-3.0-3.0-1.0","n9fpgdzmucovrdy","practice_cue","5f1d266c6f7d7f62a219fade","5f60e3c0a3b16e07647b2ff9","5f638037b0ce07060778fad8","true","704.4049999967683","./Stimuli/ImagesPractice/LN4.jpg","83","","","","test","true","N + M","83","","LN","LN4.jpg","forget","old","17","2","practice_forget","left","","","",""
"html-keyboard-response","49","305879","0.0-3.0-3.0-3.0","n9fpgdzmucovrdy","practice_cue","5f1d266c6f7d7f62a219fade","5f60e3c0a3b16e07647b2ff9","5f638037b0ce07060778fad8","false","null","<div style=""align-items: center; display: flex; color: darkorange; font-size: 90px""><b>ø</b></div>","null","","","","forget_cue","","","","","","","","","","","","","","","",""
"html-keyboard-response","50","306580","0.0-3.0-3.0-0.1","n9fpgdzmucovrdy","practice_cue","5f1d266c6f7d7f62a219fade","5f60e3c0a3b16e07647b2ff9","5f638037b0ce07060778fad8","false","null","<span style=""color: black; font-size: 48px"">M + N</span>","null","","","","resp_prompt","","","","","","","","","","","","","","","",""
"categorize-image","51","307670","0.0-3.0-3.0-1.1","n9fpgdzmucovrdy","practice_cue","5f1d266c6f7d7f62a219fade","5f60e3c0a3b16e07647b2ff9","5f638037b0ce07060778fad8","true","1087.1549999865238","./Stimuli/ImagesPractice/SN205.jpg","76","","","","test","true","M + N","76","","SN","SN205.jpg","forget","old","18","2","practice_forget","right","","","",""
"html-keyboard-response","52","309672","0.0-3.0-3.0-3.1","n9fpgdzmucovrdy","practice_cue","5f1d266c6f7d7f62a219fade","5f60e3c0a3b16e07647b2ff9","5f638037b0ce07060778fad8","false","null","<div style=""align-items: center; display: flex; color: darkorange; font-size: 90px""><b>ø</b></div>","null","","","","forget_cue","","","","","","","","","","","","","","","",""
"html-keyboard-response","53","310373","0.0-3.0-3.0-0.2","n9fpgdzmucovrdy","practice_cue","5f1d266c6f7d7f62a219fade","5f60e3c0a3b16e07647b2ff9","5f638037b0ce07060778fad8","false","null","<span style=""color: black; font-size: 48px"">N + M</span>","null","","","","resp_prompt","","","","","","","","","","","","","","","",""
"categorize-image","54","311094","0.0-3.0-3.0-1.2","n9fpgdzmucovrdy","practice_cue","5f1d266c6f7d7f62a219fade","5f60e3c0a3b16e07647b2ff9","5f638037b0ce07060778fad8","true","719.1799999854993","./Stimuli/ImagesPractice/LM55.jpg","76","","","","test","true","N + M","76","","LM","LM55.jpg","remember","old","19","2","practice_forget","right","","","",""
"html-keyboard-response","55","313096","0.0-3.0-3.0-3.2","n9fpgdzmucovrdy","practice_cue","5f1d266c6f7d7f62a219fade","5f60e3c0a3b16e07647b2ff9","5f638037b0ce07060778fad8","false","null","<div style=""align-items: center; display: flex; color: dodgerblue; font-size: 90px""><b>o</b></div>","null","","","","forget_cue","","","","","","","","","","","","","","","",""
"html-keyboard-response","56","313797","0.0-3.0-3.0-0.3","n9fpgdzmucovrdy","practice_cue","5f1d266c6f7d7f62a219fade","5f60e3c0a3b16e07647b2ff9","5f638037b0ce07060778fad8","false","null","<span style=""color: black; font-size: 48px"">N + M</span>","null","","","","resp_prompt","","","","","","","","","","","","","","","",""
"categorize-image","57","314382","0.0-3.0-3.0-1.3","n9fpgdzmucovrdy","practice_cue","5f1d266c6f7d7f62a219fade","5f60e3c0a3b16e07647b2ff9","5f638037b0ce07060778fad8","true","583.0049999931362","./Stimuli/ImagesPractice/SM37.jpg","76","","","","test","true","N + M","76","","SM","SM37.jpg","forget","old","20","2","practice_forget","right","","","",""
"html-keyboard-response","58","316384","0.0-3.0-3.0-3.3","n9fpgdzmucovrdy","practice_cue","5f1d266c6f7d7f62a219fade","5f60e3c0a3b16e07647b2ff9","5f638037b0ce07060778fad8","false","null","<div style=""align-items: center; display: flex; color: darkorange; font-size: 90px""><b>ø</b></div>","null","","","","forget_cue","","","","","","","","","","","","","","","",""
"html-keyboard-response","59","317085","0.0-3.0-3.0-0.4","n9fpgdzmucovrdy","practice_cue","5f1d266c6f7d7f62a219fade","5f60e3c0a3b16e07647b2ff9","5f638037b0ce07060778fad8","false","null","<span style=""color: black; font-size: 48px"">M + N</span>","null","","","","resp_prompt","","","","","","","","","","","","","","","",""
"categorize-image","60","317718","0.0-3.0-3.0-1.4","n9fpgdzmucovrdy","practice_cue","5f1d266c6f7d7f62a219fade","5f60e3c0a3b16e07647b2ff9","5f638037b0ce07060778fad8","true","630.5950000241864","./Stimuli/ImagesPractice/LM224.jpg","83","","","","test","true","M + N","83","","LM","LM224.jpg","remember","old","21","2","practice_forget","left","","","",""
"html-keyboard-response","61","319719","0.0-3.0-3.0-3.4","n9fpgdzmucovrdy","practice_cue","5f1d266c6f7d7f62a219fade","5f60e3c0a3b16e07647b2ff9","5f638037b0ce07060778fad8","false","null","<div style=""align-items: center; display: flex; color: dodgerblue; font-size: 90px""><b>o</b></div>","null","","","","forget_cue","","","","","","","","","","","","","","","",""
"html-keyboard-response","62","320420","0.0-3.0-3.0-0.5","n9fpgdzmucovrdy","practice_cue","5f1d266c6f7d7f62a219fade","5f60e3c0a3b16e07647b2ff9","5f638037b0ce07060778fad8","false","null","<span style=""color: black; font-size: 48px"">N + M</span>","null","","","","resp_prompt","","","","","","","","","","","","","","","",""
"categorize-image","63","321422","0.0-3.0-3.0-1.5","n9fpgdzmucovrdy","practice_cue","5f1d266c6f7d7f62a219fade","5f60e3c0a3b16e07647b2ff9","5f638037b0ce07060778fad8","true","999.5349999808241","./Stimuli/ImagesPractice/LN72.jpg","83","","","","test","true","N + M","83","","LN","LN72.jpg","forget","old","22","2","practice_forget","left","","","",""
"html-keyboard-response","64","323424","0.0-3.0-3.0-3.5","n9fpgdzmucovrdy","practice_cue","5f1d266c6f7d7f62a219fade","5f60e3c0a3b16e07647b2ff9","5f638037b0ce07060778fad8","false","null","<div style=""align-items: center; display: flex; color: darkorange; font-size: 90px""><b>ø</b></div>","null","","","","forget_cue","","","","","","","","","","","","","","","",""
"html-keyboard-response","65","324125","0.0-3.0-3.0-0.6","n9fpgdzmucovrdy","practice_cue","5f1d266c6f7d7f62a219fade","5f60e3c0a3b16e07647b2ff9","5f638037b0ce07060778fad8","false","null","<span style=""color: black; font-size: 48px"">N + M</span>","null","","","","resp_prompt","","","","","","","","","","","","","","","",""
"categorize-image","66","324615","0.0-3.0-3.0-1.6","n9fpgdzmucovrdy","practice_cue","5f1d266c6f7d7f62a219fade","5f60e3c0a3b16e07647b2ff9","5f638037b0ce07060778fad8","true","487.17500001657754","./Stimuli/ImagesPractice/SM35.jpg","76","","","","test","true","N + M","76","","SM","SM35.jpg","remember","old","23","2","practice_forget","right","","","",""
"html-keyboard-response","67","326616","0.0-3.0-3.0-3.6","n9fpgdzmucovrdy","practice_cue","5f1d266c6f7d7f62a219fade","5f60e3c0a3b16e07647b2ff9","5f638037b0ce07060778fad8","false","null","<div style=""align-items: center; display: flex; color: dodgerblue; font-size: 90px""><b>o</b></div>","null","","","","forget_cue","","","","","","","","","","","","","","","",""
"html-keyboard-response","68","327317","0.0-3.0-3.0-0.7","n9fpgdzmucovrdy","practice_cue","5f1d266c6f7d7f62a219fade","5f60e3c0a3b16e07647b2ff9","5f638037b0ce07060778fad8","false","null","<span style=""color: black; font-size: 48px"">N + M</span>","null","","","","resp_prompt","","","","","","","","","","","","","","","",""
"categorize-image","69","328015","0.0-3.0-3.0-1.7","n9fpgdzmucovrdy","practice_cue","5f1d266c6f7d7f62a219fade","5f60e3c0a3b16e07647b2ff9","5f638037b0ce07060778fad8","true","694.7899999795482","./Stimuli/ImagesPractice/SM61.jpg","76","","","","test","true","N + M","76","","SM","SM61.jpg","remember","old","24","2","practice_forget","right","","","",""
"html-keyboard-response","70","330016","0.0-3.0-3.0-3.7","n9fpgdzmucovrdy","practice_cue","5f1d266c6f7d7f62a219fade","5f60e3c0a3b16e07647b2ff9","5f638037b0ce07060778fad8","false","null","<div style=""align-items: center; display: flex; color: dodgerblue; font-size: 90px""><b>o</b></div>","null","","","","forget_cue","","","","","","","","","","","","","","","",""
"html-keyboard-response","71","330717","0.0-3.0-3.0-0.8","n9fpgdzmucovrdy","practice_cue","5f1d266c6f7d7f62a219fade","5f60e3c0a3b16e07647b2ff9","5f638037b0ce07060778fad8","false","null","<span style=""color: black; font-size: 48px"">M + N</span>","null","","","","resp_prompt","","","","","","","","","","","","","","","",""
"categorize-image","72","331575","0.0-3.0-3.0-1.8","n9fpgdzmucovrdy","practice_cue","5f1d266c6f7d7f62a219fade","5f60e3c0a3b16e07647b2ff9","5f638037b0ce07060778fad8","true","854.6149999892805","./Stimuli/ImagesPractice/SN75.jpg","83","","","","test","false","M + N","76","","SN","SN75.jpg","remember","old","25","2","practice_forget","left","","","",""
"html-keyboard-response","73","332075","0.0-3.0-3.0-2.8-0.8","n9fpgdzmucovrdy","practice_cue","5f1d266c6f7d7f62a219fade","5f60e3c0a3b16e07647b2ff9","5f638037b0ce07060778fad8","false","null","<span style=""color: red; font-size: 48px"">Error!</span>","null","","","","feedback","","","","","","","","","","","","","","","",""
"html-keyboard-response","74","334077","0.0-3.0-3.0-3.8","n9fpgdzmucovrdy","practice_cue","5f1d266c6f7d7f62a219fade","5f60e3c0a3b16e07647b2ff9","5f638037b0ce07060778fad8","false","null","<div style=""align-items: center; display: flex; color: dodgerblue; font-size: 90px""><b>o</b></div>","null","","","","forget_cue","","","","","","","","","","","","","","","",""
"html-keyboard-response","75","334778","0.0-3.0-3.0-0.9","n9fpgdzmucovrdy","practice_cue","5f1d266c6f7d7f62a219fade","5f60e3c0a3b16e07647b2ff9","5f638037b0ce07060778fad8","false","null","<span style=""color: black; font-size: 48px"">N + M</span>","null","","","","resp_prompt","","","","","","","","","","","","","","","",""
"categorize-image","76","335359","0.0-3.0-3.0-1.9","n9fpgdzmucovrdy","practice_cue","5f1d266c6f7d7f62a219fade","5f60e3c0a3b16e07647b2ff9","5f638037b0ce07060778fad8","true","578.5500000056345","./Stimuli/ImagesPractice/SN220.jpg","83","","","","test","true","N + M","83","","SN","SN220.jpg","forget","old","26","2","practice_forget","left","","","",""
"html-keyboard-response","77","337361","0.0-3.0-3.0-3.9","n9fpgdzmucovrdy","practice_cue","5f1d266c6f7d7f62a219fade","5f60e3c0a3b16e07647b2ff9","5f638037b0ce07060778fad8","false","null","<div style=""align-items: center; display: flex; color: darkorange; font-size: 90px""><b>ø</b></div>","null","","","","forget_cue","","","","","","","","","","","","","","","",""
"html-keyboard-response","78","338063","0.0-3.0-3.0-0.10","n9fpgdzmucovrdy","practice_cue","5f1d266c6f7d7f62a219fade","5f60e3c0a3b16e07647b2ff9","5f638037b0ce07060778fad8","false","null","<span style=""color: black; font-size: 48px"">M + N</span>","null","","","","resp_prompt","","","","","","","","","","","","","","","",""
"categorize-image","79","338646","0.0-3.0-3.0-1.10","n9fpgdzmucovrdy","practice_cue","5f1d266c6f7d7f62a219fade","5f60e3c0a3b16e07647b2ff9","5f638037b0ce07060778fad8","true","581.384999997681","./Stimuli/ImagesPractice/LM143.jpg","83","","","","test","true","M + N","83","","LM","LM143.jpg","remember","old","27","2","practice_forget","left","","","",""
"html-keyboard-response","80","340648","0.0-3.0-3.0-3.10","n9fpgdzmucovrdy","practice_cue","5f1d266c6f7d7f62a219fade","5f60e3c0a3b16e07647b2ff9","5f638037b0ce07060778fad8","false","null","<div style=""align-items: center; display: flex; color: dodgerblue; font-size: 90px""><b>o</b></div>","null","","","","forget_cue","","","","","","","","","","","","","","","",""
"html-keyboard-response","81","341349","0.0-3.0-3.0-0.11","n9fpgdzmucovrdy","practice_cue","5f1d266c6f7d7f62a219fade","5f60e3c0a3b16e07647b2ff9","5f638037b0ce07060778fad8","false","null","<span style=""color: black; font-size: 48px"">N + M</span>","null","","","","resp_prompt","","","","","","","","","","","","","","","",""
"categorize-image","82","342191","0.0-3.0-3.0-1.11","n9fpgdzmucovrdy","practice_cue","5f1d266c6f7d7f62a219fade","5f60e3c0a3b16e07647b2ff9","5f638037b0ce07060778fad8","true","838.949999975739","./Stimuli/ImagesPractice/LN2.jpg","83","","","","test","true","N + M","83","","LN","LN2.jpg","remember","old","28","2","practice_forget","left","","","",""
"html-keyboard-response","83","344192","0.0-3.0-3.0-3.11","n9fpgdzmucovrdy","practice_cue","5f1d266c6f7d7f62a219fade","5f60e3c0a3b16e07647b2ff9","5f638037b0ce07060778fad8","false","null","<div style=""align-items: center; display: flex; color: dodgerblue; font-size: 90px""><b>o</b></div>","null","","","","forget_cue","","","","","","","","","","","","","","","",""
"html-keyboard-response","84","344893","0.0-3.0-3.0-0.12","n9fpgdzmucovrdy","practice_cue","5f1d266c6f7d7f62a219fade","5f60e3c0a3b16e07647b2ff9","5f638037b0ce07060778fad8","false","null","<span style=""color: black; font-size: 48px"">M + N</span>","null","","","","resp_prompt","","","","","","","","","","","","","","","",""
"categorize-image","85","345959","0.0-3.0-3.0-1.12","n9fpgdzmucovrdy","practice_cue","5f1d266c6f7d7f62a219fade","5f60e3c0a3b16e07647b2ff9","5f638037b0ce07060778fad8","true","1063.045000017155","./Stimuli/ImagesPractice/SN222.jpg","76","","","","test","true","M + N","76","","SN","SN222.jpg","forget","old","29","2","practice_forget","right","","","",""
"html-keyboard-response","86","347960","0.0-3.0-3.0-3.12","n9fpgdzmucovrdy","practice_cue","5f1d266c6f7d7f62a219fade","5f60e3c0a3b16e07647b2ff9","5f638037b0ce07060778fad8","false","null","<div style=""align-items: center; display: flex; color: darkorange; font-size: 90px""><b>ø</b></div>","null","","","","forget_cue","","","","","","","","","","","","","","","",""
"html-keyboard-response","87","348661","0.0-3.0-3.0-0.13","n9fpgdzmucovrdy","practice_cue","5f1d266c6f7d7f62a219fade","5f60e3c0a3b16e07647b2ff9","5f638037b0ce07060778fad8","false","null","<span style=""color: black; font-size: 48px"">M + N</span>","null","","","","resp_prompt","","","","","","","","","","","","","","","",""
"categorize-image","88","349790","0.0-3.0-3.0-1.13","n9fpgdzmucovrdy","practice_cue","5f1d266c6f7d7f62a219fade","5f60e3c0a3b16e07647b2ff9","5f638037b0ce07060778fad8","true","1126.4800000062678","./Stimuli/ImagesPractice/LN109.jpg","76","","","","test","true","M + N","76","","LN","LN109.jpg","forget","old","30","2","practice_forget","right","","","",""
"html-keyboard-response","89","351791","0.0-3.0-3.0-3.13","n9fpgdzmucovrdy","practice_cue","5f1d266c6f7d7f62a219fade","5f60e3c0a3b16e07647b2ff9","5f638037b0ce07060778fad8","false","null","<div style=""align-items: center; display: flex; color: darkorange; font-size: 90px""><b>ø</b></div>","null","","","","forget_cue","","","","","","","","","","","","","","","",""
"html-keyboard-response","90","352492","0.0-3.0-3.0-0.14","n9fpgdzmucovrdy","practice_cue","5f1d266c6f7d7f62a219fade","5f60e3c0a3b16e07647b2ff9","5f638037b0ce07060778fad8","false","null","<span style=""color: black; font-size: 48px"">M + N</span>","null","","","","resp_prompt","","","","","","","","","","","","","","","",""
"categorize-image","91","353286","0.0-3.0-3.0-1.14","n9fpgdzmucovrdy","practice_cue","5f1d266c6f7d7f62a219fade","5f60e3c0a3b16e07647b2ff9","5f638037b0ce07060778fad8","true","791.2200000137091","./Stimuli/ImagesPractice/SN76.jpg","76","","","","test","true","M + N","76","","SN","SN76.jpg","remember","old","31","2","practice_forget","right","","","",""
"html-keyboard-response","92","355287","0.0-3.0-3.0-3.14","n9fpgdzmucovrdy","practice_cue","5f1d266c6f7d7f62a219fade","5f60e3c0a3b16e07647b2ff9","5f638037b0ce07060778fad8","false","null","<div style=""align-items: center; display: flex; color: dodgerblue; font-size: 90px""><b>o</b></div>","null","","","","forget_cue","","","","","","","","","","","","","","","",""
"html-keyboard-response","93","355988","0.0-3.0-3.0-0.15","n9fpgdzmucovrdy","practice_cue","5f1d266c6f7d7f62a219fade","5f60e3c0a3b16e07647b2ff9","5f638037b0ce07060778fad8","false","null","<span style=""color: black; font-size: 48px"">M + N</span>","null","","","","resp_prompt","","","","","","","","","","","","","","","",""
"categorize-image","94","356558","0.0-3.0-3.0-1.15","n9fpgdzmucovrdy","practice_cue","5f1d266c6f7d7f62a219fade","5f60e3c0a3b16e07647b2ff9","5f638037b0ce07060778fad8","true","567.5999999803025","./Stimuli/ImagesPractice/SM62.jpg","83","","","","test","true","M + N","83","","SM","SM62.jpg","forget","old","32","2","practice_forget","left","","","",""
"html-keyboard-response","95","358560","0.0-3.0-3.0-3.15","n9fpgdzmucovrdy","practice_cue","5f1d266c6f7d7f62a219fade","5f60e3c0a3b16e07647b2ff9","5f638037b0ce07060778fad8","false","null","<div style=""align-items: center; display: flex; color: darkorange; font-size: 90px""><b>ø</b></div>","null","","","","forget_cue","","","","","","","","","","","","","","","",""
"html-keyboard-response","96","364252","0.0-3.0-4.0","n9fpgdzmucovrdy","break","5f1d266c6f7d7f62a219fade","5f60e3c0a3b16e07647b2ff9","5f638037b0ce07060778fad8","false","5691.8100000184495","<p style='font-size: 32px;'>Break</><br><br><br><br><br><p style='font-size: 24px;'>In the last block, you committed 1 errors and did not respond in time on 0 trials.
</p><p style='font-size: 24px;'>Try to respond as fast and accurately as possible in the next block as well! </p><p style='font-size: 24px;'>Press SPACE to continue.</p>","32","","","","","","","","","","","","","","","","","","","",""
"html-keyboard-response","97","382061","0.0-3.0-5.0","n9fpgdzmucovrdy","instructions","5f1d266c6f7d7f62a219fade","5f60e3c0a3b16e07647b2ff9","5f638037b0ce07060778fad8","false","17807.159999996657","<div align=left> Now, to practice, we kindly ask you to remember as many of the to-be-remembered pictures<br>of the previous learning phase as possible.<br><br>The pictures you were instructed to remember were the pictures followed by a <span style='color: dodgerblue; font-size: 28px'>O</span>.<br><br>In this memory test phase, you will also see some new pictures.<br>It is your task to remember whether you were presented with this specific picture in this study so far or not.<br>If you recognize an object (you have already seen it in this study), it is an OLD object. <br>If you do not recognize an object (you have NOT seen it in this study), it is a NEW object. <br><strong> Attention</strong>: As already mentioned, <span style='color: darkorange; font-size:28px'>Ø</span>-pictures will <strong>never</strong> appear in this memory test (neither as new objects). <br><br>Press SPACE to continue. </div>","32","","","","","","","","","","","","","","","","","","","",""
"html-keyboard-response","98","407165","0.0-3.0-6.0","n9fpgdzmucovrdy","instructions","5f1d266c6f7d7f62a219fade","5f60e3c0a3b16e07647b2ff9","5f638037b0ce07060778fad8","false","25102.335000003222","<div align=left> M and N no longer will appear on the left/right of the fixation cross. <br>Instead there will be a note at the bottom of the left or right side  <br>indicating which key you should press for an old or new object:  <br> <br>Press the <strong>right</strong> key to classify an object as <strong>old</strong> and press the <strong>left</strong>, to classify an object as <strong>new</strong>.<br>Please classify the objects as new/old by again placing your index finger on the 'S' and 'L' keys <br>and press them accordingly.<br><br><strong>Old:</strong> This object has been presented before. <br><strong>New:</strong> This object has <strong>not</strong> been presented.<br><br>Now please put your right and left index fingers on the 'S' and 'L' keys of your keyboard. <br>Please respond as fast and as accurately as possible!<br><br>Press SPACE to continue. </div>","32","","","","","","","","","","","","","","","","","","","",""
"categorize-image","99","409001","0.0-3.0-7.0-0.0","n9fpgdzmucovrdy","practice_recog","5f1d266c6f7d7f62a219fade","5f60e3c0a3b16e07647b2ff9","5f638037b0ce07060778fad8","true","1333.7950000131968","./Stimuli/ImagesPractice/LN2.jpg","76","","","","test","true","","76","","LN","LN2.jpg","","old","33","3","practice_recog","right","","","",""
"categorize-image","100","410242","0.0-3.0-7.0-0.1","n9fpgdzmucovrdy","practice_recog","5f1d266c6f7d7f62a219fade","5f60e3c0a3b16e07647b2ff9","5f638037b0ce07060778fad8","true","738.4900000179186","./Stimuli/ImagesPractice/LM224.jpg","76","","","","test","true","","76","","LM","LM224.jpg","","old","34","3","practice_recog","right","","","",""
"categorize-image","101","411441","0.0-3.0-7.0-0.2","n9fpgdzmucovrdy","practice_recog","5f1d266c6f7d7f62a219fade","5f60e3c0a3b16e07647b2ff9","5f638037b0ce07060778fad8","true","697.4649999756366","./Stimuli/ImagesPractice/SM61.jpg","76","","","","test","true","","76","","SM","SM61.jpg","","old","35","3","practice_recog","right","","","",""
"categorize-image","102","412609","0.0-3.0-7.0-0.3","n9fpgdzmucovrdy","practice_recog","5f1d266c6f7d7f62a219fade","5f60e3c0a3b16e07647b2ff9","5f638037b0ce07060778fad8","true","666.4400000008754","./Stimuli/ImagesPractice/SM98.jpg","83","","","","test","true","","83","","SM","SM98.jpg","","new","36","3","practice_recog","left","","","",""
"categorize-image","103","413849","0.0-3.0-7.0-0.4","n9fpgdzmucovrdy","practice_recog","5f1d266c6f7d7f62a219fade","5f60e3c0a3b16e07647b2ff9","5f638037b0ce07060778fad8","true","738.2100000104401","./Stimuli/ImagesPractice/SM35.jpg","76","","","","test","true","","76","","SM","SM35.jpg","","old","37","3","practice_recog","right","","","",""
"categorize-image","104","415153","0.0-3.0-7.0-0.5","n9fpgdzmucovrdy","practice_recog","5f1d266c6f7d7f62a219fade","5f60e3c0a3b16e07647b2ff9","5f638037b0ce07060778fad8","true","802.2099999943748","./Stimuli/ImagesPractice/LN15.jpg","83","","","","test","true","","83","","LN","LN15.jpg","","new","38","3","practice_recog","left","","","",""
"categorize-image","105","416425","0.0-3.0-7.0-0.6","n9fpgdzmucovrdy","practice_recog","5f1d266c6f7d7f62a219fade","5f60e3c0a3b16e07647b2ff9","5f638037b0ce07060778fad8","true","770.1749999832828","./Stimuli/ImagesPractice/LM143.jpg","76","","","","test","true","","76","","LM","LM143.jpg","","old","39","3","practice_recog","right","","","",""
"categorize-image","106","417945","0.0-3.0-7.0-0.7","n9fpgdzmucovrdy","practice_recog","5f1d266c6f7d7f62a219fade","5f60e3c0a3b16e07647b2ff9","5f638037b0ce07060778fad8","true","1018.5099999944214","./Stimuli/ImagesPractice/LM239.jpg","83","","","","test","true","","83","","LM","LM239.jpg","","new","40","3","practice_recog","left","","","",""
"categorize-image","107","419329","0.0-3.0-7.0-0.8","n9fpgdzmucovrdy","practice_recog","5f1d266c6f7d7f62a219fade","5f60e3c0a3b16e07647b2ff9","5f638037b0ce07060778fad8","true","882.1550000284333","./Stimuli/ImagesPractice/LM230.jpg","83","","","","test","true","","83","","LM","LM230.jpg","","new","41","3","practice_recog","left","","","",""
"categorize-image","108","420553","0.0-3.0-7.0-0.9","n9fpgdzmucovrdy","practice_recog","5f1d266c6f7d7f62a219fade","5f60e3c0a3b16e07647b2ff9","5f638037b0ce07060778fad8","true","721.8550000106916","./Stimuli/ImagesPractice/LM55.jpg","76","","","","test","true","","76","","LM","LM55.jpg","","old","42","3","practice_recog","right","","","",""
"categorize-image","109","421889","0.0-3.0-7.0-0.10","n9fpgdzmucovrdy","practice_recog","5f1d266c6f7d7f62a219fade","5f60e3c0a3b16e07647b2ff9","5f638037b0ce07060778fad8","true","833.8099999818951","./Stimuli/ImagesPractice/LM147.jpg","83","","","","test","true","","83","","LM","LM147.jpg","","new","43","3","practice_recog","left","","","",""
"categorize-image","110","423033","0.0-3.0-7.0-0.11","n9fpgdzmucovrdy","practice_recog","5f1d266c6f7d7f62a219fade","5f60e3c0a3b16e07647b2ff9","5f638037b0ce07060778fad8","true","641.6349999781232","./Stimuli/ImagesPractice/LN17.jpg","83","","","","test","true","","83","","LN","LN17.jpg","","new","44","3","practice_recog","left","","","",""
"categorize-image","111","424305","0.0-3.0-7.0-0.12","n9fpgdzmucovrdy","practice_recog","5f1d266c6f7d7f62a219fade","5f60e3c0a3b16e07647b2ff9","5f638037b0ce07060778fad8","true","769.6699999796692","./Stimuli/ImagesPractice/SN75.jpg","83","","","","test","false","","76","","SN","SN75.jpg","","old","45","3","practice_recog","left","","","",""
"categorize-image","112","426912","0.0-3.0-7.0-0.13","n9fpgdzmucovrdy","practice_recog","5f1d266c6f7d7f62a219fade","5f60e3c0a3b16e07647b2ff9","5f638037b0ce07060778fad8","true","2105.665000010049","./Stimuli/ImagesPractice/SN221.jpg","83","","","","test","true","","83","","SN","SN221.jpg","","new","46","3","practice_recog","left","","","",""
"categorize-image","113","428545","0.0-3.0-7.0-0.14","n9fpgdzmucovrdy","practice_recog","5f1d266c6f7d7f62a219fade","5f60e3c0a3b16e07647b2ff9","5f638037b0ce07060778fad8","true","1130.8549999957904","./Stimuli/ImagesPractice/SM97.jpg","83","","","","test","true","","83","","SM","SM97.jpg","","new","47","3","practice_recog","left","","","",""
"categorize-image","114","429913","0.0-3.0-7.0-0.15","n9fpgdzmucovrdy","practice_recog","5f1d266c6f7d7f62a219fade","5f60e3c0a3b16e07647b2ff9","5f638037b0ce07060778fad8","true","865.3899999917485","./Stimuli/ImagesPractice/SN76.jpg","76","","","","test","true","","76","","SN","SN76.jpg","","old","48","3","practice_recog","right","","","",""
"html-keyboard-response","115","452061","0.0-3.0-8.0","n9fpgdzmucovrdy","instructions","5f1d266c6f7d7f62a219fade","5f60e3c0a3b16e07647b2ff9","5f638037b0ce07060778fad8","false","22146.584999980405","<div align=left> Great!<br><br>Are you ready to continue?<br>If you want to reread the instructions and redo the practice trials, please <br>press „Z“.<br><br>You can proceed when you are ready.<br><br>After the presentation of each object, you will receive an instruction whether to <br>remember or to forget the object.<br>We will test your memory of the following pictures only at the very end of <br>the experiment after all learning blocks are completed. <br><br>Press SPACE to CONTINUE when you are ready. </div>","32","","","","","","","","","","","","","","","","","","","",""
"html-keyboard-response","116","474300","0.0-4.0-0.0","n9fpgdzmucovrdy","instructions","5f1d266c6f7d7f62a219fade","5f60e3c0a3b16e07647b2ff9","5f638037b0ce07060778fad8","false","22238.610000000335","<div align=left> The actual experiment is about to start.<br>The practice trials are over!<br><br>Please always respond both fast and accurately!<br><br>Remember: <br> <br><li> Please place your index fingers on the <strong>'S'</strong> and <strong>'L'</strong> keys <br>to respond as fast and accurately as possible.</li><li> Every picture can be classified as either mechanical or non-mechanical.</li><li> If you do not respond in time or commit an error, you will receive a corresponding feedback.<br> Please try to respond as <strong> fast </strong> and as <strong> accurately as possible </strong>.</li><li> Remember the <span style='color: dodgerblue; font-size: 28px'>O</span> pictures. <br></li><li> Please minimize distractions and stay focused. </li><br><br>Press SPACE to START.</div>","32","","","","","","","","","","","","","","","","","","","",""
"html-keyboard-response","117","475002","0.0-4.0-1.0-0.0","n9fpgdzmucovrdy","prime","5f1d266c6f7d7f62a219fade","5f60e3c0a3b16e07647b2ff9","5f638037b0ce07060778fad8","false","null","<span style=""color: black; font-size: 48px"">M + N</span>","null","","","","resp_prompt","","","","","","","","","","","","","","","",""
"categorize-image","118","476637","0.0-4.0-1.0-1.0","n9fpgdzmucovrdy","prime","5f1d266c6f7d7f62a219fade","5f60e3c0a3b16e07647b2ff9","5f638037b0ce07060778fad8","true","1632.0100000011735","./Stimuli/SelectedImages/SN/SN182.bmp","76","","","","test","true","M + N","76","repetition","SN","SN182.bmp","forget","","49","3","prime1","right","","","",""
"html-keyboard-response","119","478638","0.0-4.0-1.0-3.0","n9fpgdzmucovrdy","prime","5f1d266c6f7d7f62a219fade","5f60e3c0a3b16e07647b2ff9","5f638037b0ce07060778fad8","false","null","<div style=""align-items: center; display: flex; color: darkorange; font-size: 90px""><b>ø</b></div>","null","","","","forget_cue","","","","","","","","","","","","","","","",""
"html-keyboard-response","120","479339","0.0-4.0-1.0-0.1","n9fpgdzmucovrdy","prime","5f1d266c6f7d7f62a219fade","5f60e3c0a3b16e07647b2ff9","5f638037b0ce07060778fad8","false","null","<span style=""color: black; font-size: 48px"">M + N</span>","null","","","","resp_prompt","","","","","","","","","","","","","","","",""
"categorize-image","121","480205","0.0-4.0-1.0-1.1","n9fpgdzmucovrdy","prime","5f1d266c6f7d7f62a219fade","5f60e3c0a3b16e07647b2ff9","5f638037b0ce07060778fad8","true","863.069999992149","./Stimuli/SelectedImages/LM/LM150.bmp","83","","","","test","true","M + N","83","switch","LM","LM150.bmp","forget","","50","3","prime1","left","","","",""
"html-keyboard-response","122","482207","0.0-4.0-1.0-3.1","n9fpgdzmucovrdy","prime","5f1d266c6f7d7f62a219fade","5f60e3c0a3b16e07647b2ff9","5f638037b0ce07060778fad8","false","null","<div style=""align-items: center; display: flex; color: darkorange; font-size: 90px""><b>ø</b></div>","null","","","","forget_cue","","","","","","","","","","","","","","","",""
"html-keyboard-response","123","482908","0.0-4.0-1.0-0.2","n9fpgdzmucovrdy","prime","5f1d266c6f7d7f62a219fade","5f60e3c0a3b16e07647b2ff9","5f638037b0ce07060778fad8","false","null","<span style=""color: black; font-size: 48px"">N + M</span>","null","","","","resp_prompt","","","","","","","","","","","","","","","",""
"categorize-image","124","483629","0.0-4.0-1.0-1.2","n9fpgdzmucovrdy","prime","5f1d266c6f7d7f62a219fade","5f60e3c0a3b16e07647b2ff9","5f638037b0ce07060778fad8","true","718.8650000025518","./Stimuli/SelectedImages/SN/SN18.bmp","83","","","","test","true","N + M","83","repetition","SN","SN18.bmp","remember","","51","3","prime1","left","","","",""
"html-keyboard-response","125","485631","0.0-4.0-1.0-3.2","n9fpgdzmucovrdy","prime","5f1d266c6f7d7f62a219fade","5f60e3c0a3b16e07647b2ff9","5f638037b0ce07060778fad8","false","null","<div style=""align-items: center; display: flex; color: dodgerblue; font-size: 90px""><b>o</b></div>","null","","","","forget_cue","","","","","","","","","","","","","","","",""
"html-keyboard-response","126","486332","0.0-4.0-1.0-0.3","n9fpgdzmucovrdy","prime","5f1d266c6f7d7f62a219fade","5f60e3c0a3b16e07647b2ff9","5f638037b0ce07060778fad8","false","null","<span style=""color: black; font-size: 48px"">M + N</span>","null","","","","resp_prompt","","","","","","","","","","","","","","","",""
"categorize-image","127","487277","0.0-4.0-1.0-1.3","n9fpgdzmucovrdy","prime","5f1d266c6f7d7f62a219fade","5f60e3c0a3b16e07647b2ff9","5f638037b0ce07060778fad8","true","943.0949999950826","./Stimuli/SelectedImages/SM/SM17.bmp","83","","","","test","true","M + N","83","switch","SM","SM17.bmp","remember","","52","3","prime1","left","","","",""
"html-keyboard-response","128","489279","0.0-4.0-1.0-3.3","n9fpgdzmucovrdy","prime","5f1d266c6f7d7f62a219fade","5f60e3c0a3b16e07647b2ff9","5f638037b0ce07060778fad8","false","null","<div style=""align-items: center; display: flex; color: dodgerblue; font-size: 90px""><b>o</b></div>","null","","","","forget_cue","","","","","","","","","","","","","","","",""
"html-keyboard-response","129","489980","0.0-4.0-1.0-0.4","n9fpgdzmucovrdy","prime","5f1d266c6f7d7f62a219fade","5f60e3c0a3b16e07647b2ff9","5f638037b0ce07060778fad8","false","null","<span style=""color: black; font-size: 48px"">N + M</span>","null","","","","resp_prompt","","","","","","","","","","","","","","","",""
"categorize-image","130","490517","0.0-4.0-1.0-1.4","n9fpgdzmucovrdy","prime","5f1d266c6f7d7f62a219fade","5f60e3c0a3b16e07647b2ff9","5f638037b0ce07060778fad8","true","534.4500000064727","./Stimuli/SelectedImages/LM/LM100.bmp","76","","","","test","true","N + M","76","switch","LM","LM100.bmp","forget","","53","3","prime1","right","","","",""
"html-keyboard-response","131","492518","0.0-4.0-1.0-3.4","n9fpgdzmucovrdy","prime","5f1d266c6f7d7f62a219fade","5f60e3c0a3b16e07647b2ff9","5f638037b0ce07060778fad8","false","null","<div style=""align-items: center; display: flex; color: darkorange; font-size: 90px""><b>ø</b></div>","null","","","","forget_cue","","","","","","","","","","","","","","","",""
"html-keyboard-response","132","493219","0.0-4.0-1.0-0.5","n9fpgdzmucovrdy","prime","5f1d266c6f7d7f62a219fade","5f60e3c0a3b16e07647b2ff9","5f638037b0ce07060778fad8","false","null","<span style=""color: black; font-size: 48px"">M + N</span>","null","","","","resp_prompt","","","","","","","","","","","","","","","",""
"categorize-image","133","493997","0.0-4.0-1.0-1.5","n9fpgdzmucovrdy","prime","5f1d266c6f7d7f62a219fade","5f60e3c0a3b16e07647b2ff9","5f638037b0ce07060778fad8","true","775.0800000212621","./Stimuli/SelectedImages/SN/SN179.bmp","76","","","","test","true","M + N","76","switch","SN","SN179.bmp","forget","","54","3","prime1","right","","","",""
"html-keyboard-response","134","495998","0.0-4.0-1.0-3.5","n9fpgdzmucovrdy","prime","5f1d266c6f7d7f62a219fade","5f60e3c0a3b16e07647b2ff9","5f638037b0ce07060778fad8","false","null","<div style=""align-items: center; display: flex; color: darkorange; font-size: 90px""><b>ø</b></div>","null","","","","forget_cue","","","","","","","","","","","","","","","",""
"html-keyboard-response","135","496699","0.0-4.0-1.0-0.6","n9fpgdzmucovrdy","prime","5f1d266c6f7d7f62a219fade","5f60e3c0a3b16e07647b2ff9","5f638037b0ce07060778fad8","false","null","<span style=""color: black; font-size: 48px"">M + N</span>","null","","","","resp_prompt","","","","","","","","","","","","","","","",""
"categorize-image","136","497261","0.0-4.0-1.0-1.6","n9fpgdzmucovrdy","prime","5f1d266c6f7d7f62a219fade","5f60e3c0a3b16e07647b2ff9","5f638037b0ce07060778fad8","true","558.8649999990594","./Stimuli/SelectedImages/LM/LM167.bmp","83","","","","test","true","M + N","83","switch","LM","LM167.bmp","remember","","55","3","prime1","left","","","",""
"html-keyboard-response","137","499262","0.0-4.0-1.0-3.6","n9fpgdzmucovrdy","prime","5f1d266c6f7d7f62a219fade","5f60e3c0a3b16e07647b2ff9","5f638037b0ce07060778fad8","false","null","<div style=""align-items: center; display: flex; color: dodgerblue; font-size: 90px""><b>o</b></div>","null","","","","forget_cue","","","","","","","","","","","","","","","",""
"html-keyboard-response","138","499963","0.0-4.0-1.0-0.7","n9fpgdzmucovrdy","prime","5f1d266c6f7d7f62a219fade","5f60e3c0a3b16e07647b2ff9","5f638037b0ce07060778fad8","false","null","<span style=""color: black; font-size: 48px"">M + N</span>","null","","","","resp_prompt","","","","","","","","","","","","","","","",""
"categorize-image","139","500549","0.0-4.0-1.0-1.7","n9fpgdzmucovrdy","prime","5f1d266c6f7d7f62a219fade","5f60e3c0a3b16e07647b2ff9","5f638037b0ce07060778fad8","true","583.4599999943748","./Stimuli/SelectedImages/SM/SM195.bmp","83","","","","test","true","M + N","83","repetition","SM","SM195.bmp","forget","","56","3","prime1","left","","","",""
"html-keyboard-response","140","502550","0.0-4.0-1.0-3.7","n9fpgdzmucovrdy","prime","5f1d266c6f7d7f62a219fade","5f60e3c0a3b16e07647b2ff9","5f638037b0ce07060778fad8","false","null","<div style=""align-items: center; display: flex; color: darkorange; font-size: 90px""><b>ø</b></div>","null","","","","forget_cue","","","","","","","","","","","","","","","",""
"html-keyboard-response","141","503252","0.0-4.0-1.0-0.8","n9fpgdzmucovrdy","prime","5f1d266c6f7d7f62a219fade","5f60e3c0a3b16e07647b2ff9","5f638037b0ce07060778fad8","false","null","<span style=""color: black; font-size: 48px"">N + M</span>","null","","","","resp_prompt","","","","","","","","","","","","","","","",""
"categorize-image","142","503933","0.0-4.0-1.0-1.8","n9fpgdzmucovrdy","prime","5f1d266c6f7d7f62a219fade","5f60e3c0a3b16e07647b2ff9","5f638037b0ce07060778fad8","true","678.4650000045076","./Stimuli/SelectedImages/LM/LM129.bmp","76","","","","test","true","N + M","76","repetition","LM","LM129.bmp","remember","","57","3","prime1","right","","","",""
"html-keyboard-response","143","505934","0.0-4.0-1.0-3.8","n9fpgdzmucovrdy","prime","5f1d266c6f7d7f62a219fade","5f60e3c0a3b16e07647b2ff9","5f638037b0ce07060778fad8","false","null","<div style=""align-items: center; display: flex; color: dodgerblue; font-size: 90px""><b>o</b></div>","null","","","","forget_cue","","","","","","","","","","","","","","","",""
"html-keyboard-response","144","506636","0.0-4.0-1.0-0.9","n9fpgdzmucovrdy","prime","5f1d266c6f7d7f62a219fade","5f60e3c0a3b16e07647b2ff9","5f638037b0ce07060778fad8","false","null","<span style=""color: black; font-size: 48px"">N + M</span>","null","","","","resp_prompt","","","","","","","","","","","","","","","",""
"categorize-image","145","507214","0.0-4.0-1.0-1.9","n9fpgdzmucovrdy","prime","5f1d266c6f7d7f62a219fade","5f60e3c0a3b16e07647b2ff9","5f638037b0ce07060778fad8","true","575.0150000094436","./Stimuli/SelectedImages/LN/LN111.bmp","83","","","","test","true","N + M","83","repetition","LN","LN111.bmp","forget","","58","3","prime1","left","","","",""
"html-keyboard-response","146","509215","0.0-4.0-1.0-3.9","n9fpgdzmucovrdy","prime","5f1d266c6f7d7f62a219fade","5f60e3c0a3b16e07647b2ff9","5f638037b0ce07060778fad8","false","null","<div style=""align-items: center; display: flex; color: darkorange; font-size: 90px""><b>ø</b></div>","null","","","","forget_cue","","","","","","","","","","","","","","","",""
"html-keyboard-response","147","509916","0.0-4.0-1.0-0.10","n9fpgdzmucovrdy","prime","5f1d266c6f7d7f62a219fade","5f60e3c0a3b16e07647b2ff9","5f638037b0ce07060778fad8","false","null","<span style=""color: black; font-size: 48px"">N + M</span>","null","","","","resp_prompt","","","","","","","","","","","","","","","",""
"categorize-image","148","510718","0.0-4.0-1.0-1.10","n9fpgdzmucovrdy","prime","5f1d266c6f7d7f62a219fade","5f60e3c0a3b16e07647b2ff9","5f638037b0ce07060778fad8","true","799.76500000339","./Stimuli/SelectedImages/SN/SN64.bmp","83","","","","test","true","N + M","83","repetition","SN","SN64.bmp","remember","","59","3","prime1","left","","","",""
"html-keyboard-response","149","512719","0.0-4.0-1.0-3.10","n9fpgdzmucovrdy","prime","5f1d266c6f7d7f62a219fade","5f60e3c0a3b16e07647b2ff9","5f638037b0ce07060778fad8","false","null","<div style=""align-items: center; display: flex; color: dodgerblue; font-size: 90px""><b>o</b></div>","null","","","","forget_cue","","","","","","","","","","","","","","","",""
"html-keyboard-response","150","513420","0.0-4.0-1.0-0.11","n9fpgdzmucovrdy","prime","5f1d266c6f7d7f62a219fade","5f60e3c0a3b16e07647b2ff9","5f638037b0ce07060778fad8","false","null","<span style=""color: black; font-size: 48px"">M + N</span>","null","","","","resp_prompt","","","","","","","","","","","","","","","",""
"categorize-image","151","514526","0.0-4.0-1.0-1.11","n9fpgdzmucovrdy","prime","5f1d266c6f7d7f62a219fade","5f60e3c0a3b16e07647b2ff9","5f638037b0ce07060778fad8","true","1102.9449999914505","./Stimuli/SelectedImages/LM/LM75.bmp","83","","","","test","true","M + N","83","switch","LM","LM75.bmp","remember","","60","3","prime1","left","","","",""
"html-keyboard-response","152","516527","0.0-4.0-1.0-3.11","n9fpgdzmucovrdy","prime","5f1d266c6f7d7f62a219fade","5f60e3c0a3b16e07647b2ff9","5f638037b0ce07060778fad8","false","null","<div style=""align-items: center; display: flex; color: dodgerblue; font-size: 90px""><b>o</b></div>","null","","","","forget_cue","","","","","","","","","","","","","","","",""
"html-keyboard-response","153","517228","0.0-4.0-1.0-0.12","n9fpgdzmucovrdy","prime","5f1d266c6f7d7f62a219fade","5f60e3c0a3b16e07647b2ff9","5f638037b0ce07060778fad8","false","null","<span style=""color: black; font-size: 48px"">N + M</span>","null","","","","resp_prompt","","","","","","","","","","","","","","","",""
"categorize-image","154","517805","0.0-4.0-1.0-1.12","n9fpgdzmucovrdy","prime","5f1d266c6f7d7f62a219fade","5f60e3c0a3b16e07647b2ff9","5f638037b0ce07060778fad8","true","574.430000007851","./Stimuli/SelectedImages/LN/LN128.bmp","83","","","","test","true","N + M","83","repetition","LN","LN128.bmp","remember","","61","3","prime1","left","","","",""
"html-keyboard-response","155","519806","0.0-4.0-1.0-3.12","n9fpgdzmucovrdy","prime","5f1d266c6f7d7f62a219fade","5f60e3c0a3b16e07647b2ff9","5f638037b0ce07060778fad8","false","null","<div style=""align-items: center; display: flex; color: dodgerblue; font-size: 90px""><b>o</b></div>","null","","","","forget_cue","","","","","","","","","","","","","","","",""
"html-keyboard-response","156","520507","0.0-4.0-1.0-0.13","n9fpgdzmucovrdy","prime","5f1d266c6f7d7f62a219fade","5f60e3c0a3b16e07647b2ff9","5f638037b0ce07060778fad8","false","null","<span style=""color: black; font-size: 48px"">M + N</span>","null","","","","resp_prompt","","","","","","","","","","","","","","","",""
"categorize-image","157","521437","0.0-4.0-1.0-1.13","n9fpgdzmucovrdy","prime","5f1d266c6f7d7f62a219fade","5f60e3c0a3b16e07647b2ff9","5f638037b0ce07060778fad8","true","927.8549999871757","./Stimuli/SelectedImages/SM/SM24.bmp","83","","","","test","true","M + N","83","repetition","SM","SM24.bmp","forget","","62","3","prime1","left","","","",""
"html-keyboard-response","158","523438","0.0-4.0-1.0-3.13","n9fpgdzmucovrdy","prime","5f1d266c6f7d7f62a219fade","5f60e3c0a3b16e07647b2ff9","5f638037b0ce07060778fad8","false","null","<div style=""align-items: center; display: flex; color: darkorange; font-size: 90px""><b>ø</b></div>","null","","","","forget_cue","","","","","","","","","","","","","","","",""
"html-keyboard-response","159","524139","0.0-4.0-1.0-0.14","n9fpgdzmucovrdy","prime","5f1d266c6f7d7f62a219fade","5f60e3c0a3b16e07647b2ff9","5f638037b0ce07060778fad8","false","null","<span style=""color: black; font-size: 48px"">N + M</span>","null","","","","resp_prompt","","","","","","","","","","","","","","","",""
"categorize-image","160","524789","0.0-4.0-1.0-1.14","n9fpgdzmucovrdy","prime","5f1d266c6f7d7f62a219fade","5f60e3c0a3b16e07647b2ff9","5f638037b0ce07060778fad8","true","647.4950000119861","./Stimuli/SelectedImages/LN/LN42.bmp","83","","","","test","true","N + M","83","repetition","LN","LN42.bmp","forget","","63","3","prime1","left","","","",""
"html-keyboard-response","161","526790","0.0-4.0-1.0-3.14","n9fpgdzmucovrdy","prime","5f1d266c6f7d7f62a219fade","5f60e3c0a3b16e07647b2ff9","5f638037b0ce07060778fad8","false","null","<div style=""align-items: center; display: flex; color: darkorange; font-size: 90px""><b>ø</b></div>","null","","","","forget_cue","","","","","","","","","","","","","","","",""
"html-keyboard-response","162","527491","0.0-4.0-1.0-0.15","n9fpgdzmucovrdy","prime","5f1d266c6f7d7f62a219fade","5f60e3c0a3b16e07647b2ff9","5f638037b0ce07060778fad8","false","null","<span style=""color: black; font-size: 48px"">M + N</span>","null","","","","resp_prompt","","","","","","","","","","","","","","","",""
"categorize-image","163","529498","0.0-4.0-1.0-1.15","n9fpgdzmucovrdy","prime","5f1d266c6f7d7f62a219fade","5f60e3c0a3b16e07647b2ff9","5f638037b0ce07060778fad8","true","null","./Stimuli/SelectedImages/LM/LM209.bmp","null","","","","test","false","M + N","83","switch","LM","LM209.bmp","forget","","64","3","prime1","too_slow","","","",""
"html-keyboard-response","164","529999","0.0-4.0-1.0-2.15-0.15","n9fpgdzmucovrdy","prime","5f1d266c6f7d7f62a219fade","5f60e3c0a3b16e07647b2ff9","5f638037b0ce07060778fad8","false","null","<span style=""color: red; font-size: 48px"">Too slow!</span>","null","","","","feedback","","","","","","","","","","","","","","","",""
"html-keyboard-response","165","532001","0.0-4.0-1.0-3.15","n9fpgdzmucovrdy","prime","5f1d266c6f7d7f62a219fade","5f60e3c0a3b16e07647b2ff9","5f638037b0ce07060778fad8","false","null","<div style=""align-items: center; display: flex; color: darkorange; font-size: 90px""><b>ø</b></div>","null","","","","forget_cue","","","","","","","","","","","","","","","",""
"html-keyboard-response","166","532702","0.0-4.0-1.0-0.16","n9fpgdzmucovrdy","prime","5f1d266c6f7d7f62a219fade","5f60e3c0a3b16e07647b2ff9","5f638037b0ce07060778fad8","false","null","<span style=""color: black; font-size: 48px"">M + N</span>","null","","","","resp_prompt","","","","","","","","","","","","","","","",""
"categorize-image","167","533757","0.0-4.0-1.0-1.16","n9fpgdzmucovrdy","prime","5f1d266c6f7d7f62a219fade","5f60e3c0a3b16e07647b2ff9","5f638037b0ce07060778fad8","true","1053.0150000122376","./Stimuli/SelectedImages/SM/SM213.bmp","76","","","","test","false","M + N","83","switch","SM","SM213.bmp","forget","","65","3","prime1","right","","","",""
"html-keyboard-response","168","534259","0.0-4.0-1.0-2.16-0.16","n9fpgdzmucovrdy","prime","5f1d266c6f7d7f62a219fade","5f60e3c0a3b16e07647b2ff9","5f638037b0ce07060778fad8","false","null","<span style=""color: red; font-size: 48px"">Error!</span>","null","","","","feedback","","","","","","","","","","","","","","","",""
"html-keyboard-response","169","536260","0.0-4.0-1.0-3.16","n9fpgdzmucovrdy","prime","5f1d266c6f7d7f62a219fade","5f60e3c0a3b16e07647b2ff9","5f638037b0ce07060778fad8","false","null","<div style=""align-items: center; display: flex; color: darkorange; font-size: 90px""><b>ø</b></div>","null","","","","forget_cue","","","","","","","","","","","","","","","",""
"html-keyboard-response","170","536961","0.0-4.0-1.0-0.17","n9fpgdzmucovrdy","prime","5f1d266c6f7d7f62a219fade","5f60e3c0a3b16e07647b2ff9","5f638037b0ce07060778fad8","false","null","<span style=""color: black; font-size: 48px"">M + N</span>","null","","","","resp_prompt","","","","","","","","","","","","","","","",""
"categorize-image","171","537501","0.0-4.0-1.0-1.17","n9fpgdzmucovrdy","prime","5f1d266c6f7d7f62a219fade","5f60e3c0a3b16e07647b2ff9","5f638037b0ce07060778fad8","true","537.3949999921024","./Stimuli/SelectedImages/LM/LM179.bmp","83","","","","test","true","M + N","83","repetition","LM","LM179.bmp","forget","","66","3","prime1","left","","","",""
"html-keyboard-response","172","539502","0.0-4.0-1.0-3.17","n9fpgdzmucovrdy","prime","5f1d266c6f7d7f62a219fade","5f60e3c0a3b16e07647b2ff9","5f638037b0ce07060778fad8","false","null","<div style=""align-items: center; display: flex; color: darkorange; font-size: 90px""><b>ø</b></div>","null","","","","forget_cue","","","","","","","","","","","","","","","",""
"html-keyboard-response","173","540203","0.0-4.0-1.0-0.18","n9fpgdzmucovrdy","prime","5f1d266c6f7d7f62a219fade","5f60e3c0a3b16e07647b2ff9","5f638037b0ce07060778fad8","false","null","<span style=""color: black; font-size: 48px"">M + N</span>","null","","","","resp_prompt","","","","","","","","","","","","","","","",""
"categorize-image","174","540701","0.0-4.0-1.0-1.18","n9fpgdzmucovrdy","prime","5f1d266c6f7d7f62a219fade","5f60e3c0a3b16e07647b2ff9","5f638037b0ce07060778fad8","true","495.26999998488463","./Stimuli/SelectedImages/LN/LN28.bmp","76","","","","test","true","M + N","76","repetition","LN","LN28.bmp","forget","","67","3","prime1","right","","","",""
"html-keyboard-response","175","542702","0.0-4.0-1.0-3.18","n9fpgdzmucovrdy","prime","5f1d266c6f7d7f62a219fade","5f60e3c0a3b16e07647b2ff9","5f638037b0ce07060778fad8","false","null","<div style=""align-items: center; display: flex; color: darkorange; font-size: 90px""><b>ø</b></div>","null","","","","forget_cue","","","","","","","","","","","","","","","",""
"html-keyboard-response","176","543403","0.0-4.0-1.0-0.19","n9fpgdzmucovrdy","prime","5f1d266c6f7d7f62a219fade","5f60e3c0a3b16e07647b2ff9","5f638037b0ce07060778fad8","false","null","<span style=""color: black; font-size: 48px"">N + M</span>","null","","","","resp_prompt","","","","","","","","","","","","","","","",""
"categorize-image","177","543957","0.0-4.0-1.0-1.19","n9fpgdzmucovrdy","prime","5f1d266c6f7d7f62a219fade","5f60e3c0a3b16e07647b2ff9","5f638037b0ce07060778fad8","true","551.4149999944493","./Stimuli/SelectedImages/SM/SM74.bmp","76","","","","test","true","N + M","76","switch","SM","SM74.bmp","forget","","68","3","prime1","right","","","",""
"html-keyboard-response","178","545958","0.0-4.0-1.0-3.19","n9fpgdzmucovrdy","prime","5f1d266c6f7d7f62a219fade","5f60e3c0a3b16e07647b2ff9","5f638037b0ce07060778fad8","false","null","<div style=""align-items: center; display: flex; color: darkorange; font-size: 90px""><b>ø</b></div>","null","","","","forget_cue","","","","","","","","","","","","","","","",""
"html-keyboard-response","179","546659","0.0-4.0-1.0-0.20","n9fpgdzmucovrdy","prime","5f1d266c6f7d7f62a219fade","5f60e3c0a3b16e07647b2ff9","5f638037b0ce07060778fad8","false","null","<span style=""color: black; font-size: 48px"">N + M</span>","null","","","","resp_prompt","","","","","","","","","","","","","","","",""
"categorize-image","180","547181","0.0-4.0-1.0-1.20","n9fpgdzmucovrdy","prime","5f1d266c6f7d7f62a219fade","5f60e3c0a3b16e07647b2ff9","5f638037b0ce07060778fad8","true","518.7899999727961","./Stimuli/SelectedImages/SM/SM205.bmp","76","","","","test","true","N + M","76","switch","SM","SM205.bmp","remember","","69","3","prime1","right","","","",""
"html-keyboard-response","181","549181","0.0-4.0-1.0-3.20","n9fpgdzmucovrdy","prime","5f1d266c6f7d7f62a219fade","5f60e3c0a3b16e07647b2ff9","5f638037b0ce07060778fad8","false","null","<div style=""align-items: center; display: flex; color: dodgerblue; font-size: 90px""><b>o</b></div>","null","","","","forget_cue","","","","","","","","","","","","","","","",""
"html-keyboard-response","182","549882","0.0-4.0-1.0-0.21","n9fpgdzmucovrdy","prime","5f1d266c6f7d7f62a219fade","5f60e3c0a3b16e07647b2ff9","5f638037b0ce07060778fad8","false","null","<span style=""color: black; font-size: 48px"">N + M</span>","null","","","","resp_prompt","","","","","","","","","","","","","","","",""
"categorize-image","183","551237","0.0-4.0-1.0-1.21","n9fpgdzmucovrdy","prime","5f1d266c6f7d7f62a219fade","5f60e3c0a3b16e07647b2ff9","5f638037b0ce07060778fad8","true","1351.6850000014529","./Stimuli/SelectedImages/LM/LM59.bmp","76","","","","test","true","N + M","76","repetition","LM","LM59.bmp","forget","","70","3","prime1","right","","","",""
"html-keyboard-response","184","553238","0.0-4.0-1.0-3.21","n9fpgdzmucovrdy","prime","5f1d266c6f7d7f62a219fade","5f60e3c0a3b16e07647b2ff9","5f638037b0ce07060778fad8","false","null","<div style=""align-items: center; display: flex; color: darkorange; font-size: 90px""><b>ø</b></div>","null","","","","forget_cue","","","","","","","","","","","","","","","",""
"html-keyboard-response","185","553939","0.0-4.0-1.0-0.22","n9fpgdzmucovrdy","prime","5f1d266c6f7d7f62a219fade","5f60e3c0a3b16e07647b2ff9","5f638037b0ce07060778fad8","false","null","<span style=""color: black; font-size: 48px"">N + M</span>","null","","","","resp_prompt","","","","","","","","","","","","","","","",""
"categorize-image","186","554365","0.0-4.0-1.0-1.22","n9fpgdzmucovrdy","prime","5f1d266c6f7d7f62a219fade","5f60e3c0a3b16e07647b2ff9","5f638037b0ce07060778fad8","true","423.8300000142772","./Stimuli/SelectedImages/LM/LM51.bmp","76","","","","test","true","N + M","76","repetition","LM","LM51.bmp","forget","","71","3","prime1","right","","","",""
"html-keyboard-response","187","556367","0.0-4.0-1.0-3.22","n9fpgdzmucovrdy","prime","5f1d266c6f7d7f62a219fade","5f60e3c0a3b16e07647b2ff9","5f638037b0ce07060778fad8","false","null","<div style=""align-items: center; display: flex; color: darkorange; font-size: 90px""><b>ø</b></div>","null","","","","forget_cue","","","","","","","","","","","","","","","",""
"html-keyboard-response","188","557068","0.0-4.0-1.0-0.23","n9fpgdzmucovrdy","prime","5f1d266c6f7d7f62a219fade","5f60e3c0a3b16e07647b2ff9","5f638037b0ce07060778fad8","false","null","<span style=""color: black; font-size: 48px"">M + N</span>","null","","","","resp_prompt","","","","","","","","","","","","","","","",""
"categorize-image","189","557876","0.0-4.0-1.0-1.23","n9fpgdzmucovrdy","prime","5f1d266c6f7d7f62a219fade","5f60e3c0a3b16e07647b2ff9","5f638037b0ce07060778fad8","true","805.9500000090338","./Stimuli/SelectedImages/SN/SN128.bmp","76","","","","test","true","M + N","76","switch","SN","SN128.bmp","remember","","72","3","prime1","right","","","",""
"html-keyboard-response","190","559878","0.0-4.0-1.0-3.23","n9fpgdzmucovrdy","prime","5f1d266c6f7d7f62a219fade","5f60e3c0a3b16e07647b2ff9","5f638037b0ce07060778fad8","false","null","<div style=""align-items: center; display: flex; color: dodgerblue; font-size: 90px""><b>o</b></div>","null","","","","forget_cue","","","","","","","","","","","","","","","",""
"html-keyboard-response","191","560579","0.0-4.0-1.0-0.24","n9fpgdzmucovrdy","prime","5f1d266c6f7d7f62a219fade","5f60e3c0a3b16e07647b2ff9","5f638037b0ce07060778fad8","false","null","<span style=""color: black; font-size: 48px"">N + M</span>","null","","","","resp_prompt","","","","","","","","","","","","","","","",""
"categorize-image","192","561404","0.0-4.0-1.0-1.24","n9fpgdzmucovrdy","prime","5f1d266c6f7d7f62a219fade","5f60e3c0a3b16e07647b2ff9","5f638037b0ce07060778fad8","true","822.8499999968335","./Stimuli/SelectedImages/SN/SN111.bmp","83","","","","test","true","N + M","83","switch","SN","SN111.bmp","remember","","73","3","prime1","left","","","",""
"html-keyboard-response","193","563406","0.0-4.0-1.0-3.24","n9fpgdzmucovrdy","prime","5f1d266c6f7d7f62a219fade","5f60e3c0a3b16e07647b2ff9","5f638037b0ce07060778fad8","false","null","<div style=""align-items: center; display: flex; color: dodgerblue; font-size: 90px""><b>o</b></div>","null","","","","forget_cue","","","","","","","","","","","","","","","",""
"html-keyboard-response","194","564107","0.0-4.0-1.0-0.25","n9fpgdzmucovrdy","prime","5f1d266c6f7d7f62a219fade","5f60e3c0a3b16e07647b2ff9","5f638037b0ce07060778fad8","false","null","<span style=""color: black; font-size: 48px"">N + M</span>","null","","","","resp_prompt","","","","","","","","","","","","","","","",""
"categorize-image","195","564669","0.0-4.0-1.0-1.25","n9fpgdzmucovrdy","prime","5f1d266c6f7d7f62a219fade","5f60e3c0a3b16e07647b2ff9","5f638037b0ce07060778fad8","true","560.2599999983795","./Stimuli/SelectedImages/LM/LM103.bmp","76","","","","test","true","N + M","76","repetition","LM","LM103.bmp","remember","","74","3","prime1","right","","","",""
"html-keyboard-response","196","566671","0.0-4.0-1.0-3.25","n9fpgdzmucovrdy","prime","5f1d266c6f7d7f62a219fade","5f60e3c0a3b16e07647b2ff9","5f638037b0ce07060778fad8","false","null","<div style=""align-items: center; display: flex; color: dodgerblue; font-size: 90px""><b>o</b></div>","null","","","","forget_cue","","","","","","","","","","","","","","","",""
"html-keyboard-response","197","567372","0.0-4.0-1.0-0.26","n9fpgdzmucovrdy","prime","5f1d266c6f7d7f62a219fade","5f60e3c0a3b16e07647b2ff9","5f638037b0ce07060778fad8","false","null","<span style=""color: black; font-size: 48px"">M + N</span>","null","","","","resp_prompt","","","","","","","","","","","","","","","",""
"categorize-image","198","567901","0.0-4.0-1.0-1.26","n9fpgdzmucovrdy","prime","5f1d266c6f7d7f62a219fade","5f60e3c0a3b16e07647b2ff9","5f638037b0ce07060778fad8","true","526.2649999931455","./Stimuli/SelectedImages/LM/LM216.bmp","83","","","","test","true","M + N","83","repetition","LM","LM216.bmp","remember","","75","3","prime1","left","","","",""
"html-keyboard-response","199","569902","0.0-4.0-1.0-3.26","n9fpgdzmucovrdy","prime","5f1d266c6f7d7f62a219fade","5f60e3c0a3b16e07647b2ff9","5f638037b0ce07060778fad8","false","null","<div style=""align-items: center; display: flex; color: dodgerblue; font-size: 90px""><b>o</b></div>","null","","","","forget_cue","","","","","","","","","","","","","","","",""
"html-keyboard-response","200","570603","0.0-4.0-1.0-0.27","n9fpgdzmucovrdy","prime","5f1d266c6f7d7f62a219fade","5f60e3c0a3b16e07647b2ff9","5f638037b0ce07060778fad8","false","null","<span style=""color: black; font-size: 48px"">N + M</span>","null","","","","resp_prompt","","","","","","","","","","","","","","","",""
"categorize-image","201","571205","0.0-4.0-1.0-1.27","n9fpgdzmucovrdy","prime","5f1d266c6f7d7f62a219fade","5f60e3c0a3b16e07647b2ff9","5f638037b0ce07060778fad8","true","599.0549999987707","./Stimuli/SelectedImages/LN/LN12.bmp","83","","","","test","true","N + M","83","switch","LN","LN12.bmp","forget","","76","3","prime1","left","","","",""
"html-keyboard-response","202","573206","0.0-4.0-1.0-3.27","n9fpgdzmucovrdy","prime","5f1d266c6f7d7f62a219fade","5f60e3c0a3b16e07647b2ff9","5f638037b0ce07060778fad8","false","null","<div style=""align-items: center; display: flex; color: darkorange; font-size: 90px""><b>ø</b></div>","null","","","","forget_cue","","","","","","","","","","","","","","","",""
"html-keyboard-response","203","573907","0.0-4.0-1.0-0.28","n9fpgdzmucovrdy","prime","5f1d266c6f7d7f62a219fade","5f60e3c0a3b16e07647b2ff9","5f638037b0ce07060778fad8","false","null","<span style=""color: black; font-size: 48px"">N + M</span>","null","","","","resp_prompt","","","","","","","","","","","","","","","",""
"categorize-image","204","574509","0.0-4.0-1.0-1.28","n9fpgdzmucovrdy","prime","5f1d266c6f7d7f62a219fade","5f60e3c0a3b16e07647b2ff9","5f638037b0ce07060778fad8","true","599.0500000189058","./Stimuli/SelectedImages/LM/LM48.bmp","76","","","","test","true","N + M","76","switch","LM","LM48.bmp","remember","","77","3","prime1","right","","","",""
"html-keyboard-response","205","576510","0.0-4.0-1.0-3.28","n9fpgdzmucovrdy","prime","5f1d266c6f7d7f62a219fade","5f60e3c0a3b16e07647b2ff9","5f638037b0ce07060778fad8","false","null","<div style=""align-items: center; display: flex; color: dodgerblue; font-size: 90px""><b>o</b></div>","null","","","","forget_cue","","","","","","","","","","","","","","","",""
"html-keyboard-response","206","577211","0.0-4.0-1.0-0.29","n9fpgdzmucovrdy","prime","5f1d266c6f7d7f62a219fade","5f60e3c0a3b16e07647b2ff9","5f638037b0ce07060778fad8","false","null","<span style=""color: black; font-size: 48px"">N + M</span>","null","","","","resp_prompt","","","","","","","","","","","","","","","",""
"categorize-image","207","577821","0.0-4.0-1.0-1.29","n9fpgdzmucovrdy","prime","5f1d266c6f7d7f62a219fade","5f60e3c0a3b16e07647b2ff9","5f638037b0ce07060778fad8","true","607.0550000004005","./Stimuli/SelectedImages/LN/LN149.bmp","83","","","","test","true","N + M","83","switch","LN","LN149.bmp","remember","","78","3","prime1","left","","","",""
"html-keyboard-response","208","579822","0.0-4.0-1.0-3.29","n9fpgdzmucovrdy","prime","5f1d266c6f7d7f62a219fade","5f60e3c0a3b16e07647b2ff9","5f638037b0ce07060778fad8","false","null","<div style=""align-items: center; display: flex; color: dodgerblue; font-size: 90px""><b>o</b></div>","null","","","","forget_cue","","","","","","","","","","","","","","","",""
"html-keyboard-response","209","580523","0.0-4.0-1.0-0.30","n9fpgdzmucovrdy","prime","5f1d266c6f7d7f62a219fade","5f60e3c0a3b16e07647b2ff9","5f638037b0ce07060778fad8","false","null","<span style=""color: black; font-size: 48px"">N + M</span>","null","","","","resp_prompt","","","","","","","","","","","","","","","",""
"categorize-image","210","581037","0.0-4.0-1.0-1.30","n9fpgdzmucovrdy","prime","5f1d266c6f7d7f62a219fade","5f60e3c0a3b16e07647b2ff9","5f638037b0ce07060778fad8","true","510.5700000131037","./Stimuli/SelectedImages/LN/LN177.bmp","83","","","","test","true","N + M","83","switch","LN","LN177.bmp","forget","","79","3","prime1","left","","","",""
"html-keyboard-response","211","583038","0.0-4.0-1.0-3.30","n9fpgdzmucovrdy","prime","5f1d266c6f7d7f62a219fade","5f60e3c0a3b16e07647b2ff9","5f638037b0ce07060778fad8","false","null","<div style=""align-items: center; display: flex; color: darkorange; font-size: 90px""><b>ø</b></div>","null","","","","forget_cue","","","","","","","","","","","","","","","",""
"html-keyboard-response","212","583739","0.0-4.0-1.0-0.31","n9fpgdzmucovrdy","prime","5f1d266c6f7d7f62a219fade","5f60e3c0a3b16e07647b2ff9","5f638037b0ce07060778fad8","false","null","<span style=""color: black; font-size: 48px"">M + N</span>","null","","","","resp_prompt","","","","","","","","","","","","","","","",""
"categorize-image","213","584261","0.0-4.0-1.0-1.31","n9fpgdzmucovrdy","prime","5f1d266c6f7d7f62a219fade","5f60e3c0a3b16e07647b2ff9","5f638037b0ce07060778fad8","true","519.4250000058673","./Stimuli/SelectedImages/LN/LN101.bmp","76","","","","test","true","M + N","76","switch","LN","LN101.bmp","forget","","80","3","prime1","right","","","",""
"html-keyboard-response","214","586262","0.0-4.0-1.0-3.31","n9fpgdzmucovrdy","prime","5f1d266c6f7d7f62a219fade","5f60e3c0a3b16e07647b2ff9","5f638037b0ce07060778fad8","false","null","<div style=""align-items: center; display: flex; color: darkorange; font-size: 90px""><b>ø</b></div>","null","","","","forget_cue","","","","","","","","","","","","","","","",""
"html-keyboard-response","215","586963","0.0-4.0-1.0-0.32","n9fpgdzmucovrdy","prime","5f1d266c6f7d7f62a219fade","5f60e3c0a3b16e07647b2ff9","5f638037b0ce07060778fad8","false","null","<span style=""color: black; font-size: 48px"">N + M</span>","null","","","","resp_prompt","","","","","","","","","","","","","","","",""
"categorize-image","216","587669","0.0-4.0-1.0-1.32","n9fpgdzmucovrdy","prime","5f1d266c6f7d7f62a219fade","5f60e3c0a3b16e07647b2ff9","5f638037b0ce07060778fad8","true","703.0300000042189","./Stimuli/SelectedImages/SM/SM78.bmp","76","","","","test","true","N + M","76","repetition","SM","SM78.bmp","forget","","81","3","prime1","right","","","",""
"html-keyboard-response","217","589670","0.0-4.0-1.0-3.32","n9fpgdzmucovrdy","prime","5f1d266c6f7d7f62a219fade","5f60e3c0a3b16e07647b2ff9","5f638037b0ce07060778fad8","false","null","<div style=""align-items: center; display: flex; color: darkorange; font-size: 90px""><b>ø</b></div>","null","","","","forget_cue","","","","","","","","","","","","","","","",""
"html-keyboard-response","218","590371","0.0-4.0-1.0-0.33","n9fpgdzmucovrdy","prime","5f1d266c6f7d7f62a219fade","5f60e3c0a3b16e07647b2ff9","5f638037b0ce07060778fad8","false","null","<span style=""color: black; font-size: 48px"">N + M</span>","null","","","","resp_prompt","","","","","","","","","","","","","","","",""
"categorize-image","219","590909","0.0-4.0-1.0-1.33","n9fpgdzmucovrdy","prime","5f1d266c6f7d7f62a219fade","5f60e3c0a3b16e07647b2ff9","5f638037b0ce07060778fad8","true","535.4799999913666","./Stimuli/SelectedImages/LN/LN13.bmp","83","","","","test","true","N + M","83","switch","LN","LN13.bmp","remember","","82","3","prime1","left","","","",""
"html-keyboard-response","220","592910","0.0-4.0-1.0-3.33","n9fpgdzmucovrdy","prime","5f1d266c6f7d7f62a219fade","5f60e3c0a3b16e07647b2ff9","5f638037b0ce07060778fad8","false","null","<div style=""align-items: center; display: flex; color: dodgerblue; font-size: 90px""><b>o</b></div>","null","","","","forget_cue","","","","","","","","","","","","","","","",""
"html-keyboard-response","221","593611","0.0-4.0-1.0-0.34","n9fpgdzmucovrdy","prime","5f1d266c6f7d7f62a219fade","5f60e3c0a3b16e07647b2ff9","5f638037b0ce07060778fad8","false","null","<span style=""color: black; font-size: 48px"">M + N</span>","null","","","","resp_prompt","","","","","","","","","","","","","","","",""
"categorize-image","222","594172","0.0-4.0-1.0-1.34","n9fpgdzmucovrdy","prime","5f1d266c6f7d7f62a219fade","5f60e3c0a3b16e07647b2ff9","5f638037b0ce07060778fad8","true","558.8400000124238","./Stimuli/SelectedImages/SM/SM207.bmp","83","","","","test","true","M + N","83","repetition","SM","SM207.bmp","remember","","83","3","prime1","left","","","",""
"html-keyboard-response","223","596173","0.0-4.0-1.0-3.34","n9fpgdzmucovrdy","prime","5f1d266c6f7d7f62a219fade","5f60e3c0a3b16e07647b2ff9","5f638037b0ce07060778fad8","false","null","<div style=""align-items: center; display: flex; color: dodgerblue; font-size: 90px""><b>o</b></div>","null","","","","forget_cue","","","","","","","","","","","","","","","",""
"html-keyboard-response","224","596874","0.0-4.0-1.0-0.35","n9fpgdzmucovrdy","prime","5f1d266c6f7d7f62a219fade","5f60e3c0a3b16e07647b2ff9","5f638037b0ce07060778fad8","false","null","<span style=""color: black; font-size: 48px"">N + M</span>","null","","","","resp_prompt","","","","","","","","","","","","","","","",""
"categorize-image","225","597476","0.0-4.0-1.0-1.35","n9fpgdzmucovrdy","prime","5f1d266c6f7d7f62a219fade","5f60e3c0a3b16e07647b2ff9","5f638037b0ce07060778fad8","true","599.3400000152178","./Stimuli/SelectedImages/SN/SN60.bmp","83","","","","test","true","N + M","83","repetition","SN","SN60.bmp","forget","","84","3","prime1","left","","","",""
"html-keyboard-response","226","599477","0.0-4.0-1.0-3.35","n9fpgdzmucovrdy","prime","5f1d266c6f7d7f62a219fade","5f60e3c0a3b16e07647b2ff9","5f638037b0ce07060778fad8","false","null","<div style=""align-items: center; display: flex; color: darkorange; font-size: 90px""><b>ø</b></div>","null","","","","forget_cue","","","","","","","","","","","","","","","",""
"html-keyboard-response","227","600178","0.0-4.0-1.0-0.36","n9fpgdzmucovrdy","prime","5f1d266c6f7d7f62a219fade","5f60e3c0a3b16e07647b2ff9","5f638037b0ce07060778fad8","false","null","<span style=""color: black; font-size: 48px"">M + N</span>","null","","","","resp_prompt","","","","","","","","","","","","","","","",""
"categorize-image","228","600908","0.0-4.0-1.0-1.36","n9fpgdzmucovrdy","prime","5f1d266c6f7d7f62a219fade","5f60e3c0a3b16e07647b2ff9","5f638037b0ce07060778fad8","true","727.5200000149198","./Stimuli/SelectedImages/SM/SM73.bmp","83","","","","test","true","M + N","83","switch","SM","SM73.bmp","forget","","85","3","prime1","left","","","",""
"html-keyboard-response","229","602909","0.0-4.0-1.0-3.36","n9fpgdzmucovrdy","prime","5f1d266c6f7d7f62a219fade","5f60e3c0a3b16e07647b2ff9","5f638037b0ce07060778fad8","false","null","<div style=""align-items: center; display: flex; color: darkorange; font-size: 90px""><b>ø</b></div>","null","","","","forget_cue","","","","","","","","","","","","","","","",""
"html-keyboard-response","230","603610","0.0-4.0-1.0-0.37","n9fpgdzmucovrdy","prime","5f1d266c6f7d7f62a219fade","5f60e3c0a3b16e07647b2ff9","5f638037b0ce07060778fad8","false","null","<span style=""color: black; font-size: 48px"">M + N</span>","null","","","","resp_prompt","","","","","","","","","","","","","","","",""
"categorize-image","231","604165","0.0-4.0-1.0-1.37","n9fpgdzmucovrdy","prime","5f1d266c6f7d7f62a219fade","5f60e3c0a3b16e07647b2ff9","5f638037b0ce07060778fad8","true","551.4600000169594","./Stimuli/SelectedImages/LN/LN166.bmp","76","","","","test","true","M + N","76","repetition","LN","LN166.bmp","forget","","86","3","prime1","right","","","",""
"html-keyboard-response","232","606166","0.0-4.0-1.0-3.37","n9fpgdzmucovrdy","prime","5f1d266c6f7d7f62a219fade","5f60e3c0a3b16e07647b2ff9","5f638037b0ce07060778fad8","false","null","<div style=""align-items: center; display: flex; color: darkorange; font-size: 90px""><b>ø</b></div>","null","","","","forget_cue","","","","","","","","","","","","","","","",""
"html-keyboard-response","233","606867","0.0-4.0-1.0-0.38","n9fpgdzmucovrdy","prime","5f1d266c6f7d7f62a219fade","5f60e3c0a3b16e07647b2ff9","5f638037b0ce07060778fad8","false","null","<span style=""color: black; font-size: 48px"">N + M</span>","null","","","","resp_prompt","","","","","","","","","","","","","","","",""
"categorize-image","234","607420","0.0-4.0-1.0-1.38","n9fpgdzmucovrdy","prime","5f1d266c6f7d7f62a219fade","5f60e3c0a3b16e07647b2ff9","5f638037b0ce07060778fad8","true","550.7599999837112","./Stimuli/SelectedImages/LN/LN9.bmp","83","","","","test","true","N + M","83","repetition","LN","LN9.bmp","remember","","87","3","prime1","left","","","",""
"html-keyboard-response","235","609421","0.0-4.0-1.0-3.38","n9fpgdzmucovrdy","prime","5f1d266c6f7d7f62a219fade","5f60e3c0a3b16e07647b2ff9","5f638037b0ce07060778fad8","false","null","<div style=""align-items: center; display: flex; color: dodgerblue; font-size: 90px""><b>o</b></div>","null","","","","forget_cue","","","","","","","","","","","","","","","",""
"html-keyboard-response","236","610122","0.0-4.0-1.0-0.39","n9fpgdzmucovrdy","prime","5f1d266c6f7d7f62a219fade","5f60e3c0a3b16e07647b2ff9","5f638037b0ce07060778fad8","false","null","<span style=""color: black; font-size: 48px"">M + N</span>","null","","","","resp_prompt","","","","","","","","","","","","","","","",""
"categorize-image","237","610596","0.0-4.0-1.0-1.39","n9fpgdzmucovrdy","prime","5f1d266c6f7d7f62a219fade","5f60e3c0a3b16e07647b2ff9","5f638037b0ce07060778fad8","true","471.70999998343177","./Stimuli/SelectedImages/SN/SN27.bmp","76","","","","test","true","M + N","76","switch","SN","SN27.bmp","remember","","88","3","prime1","right","","","",""
"html-keyboard-response","238","612597","0.0-4.0-1.0-3.39","n9fpgdzmucovrdy","prime","5f1d266c6f7d7f62a219fade","5f60e3c0a3b16e07647b2ff9","5f638037b0ce07060778fad8","false","null","<div style=""align-items: center; display: flex; color: dodgerblue; font-size: 90px""><b>o</b></div>","null","","","","forget_cue","","","","","","","","","","","","","","","",""
"html-keyboard-response","239","613298","0.0-4.0-1.0-0.40","n9fpgdzmucovrdy","prime","5f1d266c6f7d7f62a219fade","5f60e3c0a3b16e07647b2ff9","5f638037b0ce07060778fad8","false","null","<span style=""color: black; font-size: 48px"">M + N</span>","null","","","","resp_prompt","","","","","","","","","","","","","","","",""
"categorize-image","240","613972","0.0-4.0-1.0-1.40","n9fpgdzmucovrdy","prime","5f1d266c6f7d7f62a219fade","5f60e3c0a3b16e07647b2ff9","5f638037b0ce07060778fad8","true","671.3999999919906","./Stimuli/SelectedImages/LN/LN59.bmp","76","","","","test","true","M + N","76","switch","LN","LN59.bmp","remember","","89","3","prime1","right","","","",""
"html-keyboard-response","241","615973","0.0-4.0-1.0-3.40","n9fpgdzmucovrdy","prime","5f1d266c6f7d7f62a219fade","5f60e3c0a3b16e07647b2ff9","5f638037b0ce07060778fad8","false","null","<div style=""align-items: center; display: flex; color: dodgerblue; font-size: 90px""><b>o</b></div>","null","","","","forget_cue","","","","","","","","","","","","","","","",""
"html-keyboard-response","242","616674","0.0-4.0-1.0-0.41","n9fpgdzmucovrdy","prime","5f1d266c6f7d7f62a219fade","5f60e3c0a3b16e07647b2ff9","5f638037b0ce07060778fad8","false","null","<span style=""color: black; font-size: 48px"">M + N</span>","null","","","","resp_prompt","","","","","","","","","","","","","","","",""
"categorize-image","243","617661","0.0-4.0-1.0-1.41","n9fpgdzmucovrdy","prime","5f1d266c6f7d7f62a219fade","5f60e3c0a3b16e07647b2ff9","5f638037b0ce07060778fad8","true","983.7249999982305","./Stimuli/SelectedImages/LN/LN82.bmp","83","","","","test","false","M + N","76","switch","LN","LN82.bmp","forget","","90","3","prime1","left","","","",""
"html-keyboard-response","244","618162","0.0-4.0-1.0-2.41-0.41","n9fpgdzmucovrdy","prime","5f1d266c6f7d7f62a219fade","5f60e3c0a3b16e07647b2ff9","5f638037b0ce07060778fad8","false","null","<span style=""color: red; font-size: 48px"">Error!</span>","null","","","","feedback","","","","","","","","","","","","","","","",""
"html-keyboard-response","245","620163","0.0-4.0-1.0-3.41","n9fpgdzmucovrdy","prime","5f1d266c6f7d7f62a219fade","5f60e3c0a3b16e07647b2ff9","5f638037b0ce07060778fad8","false","null","<div style=""align-items: center; display: flex; color: darkorange; font-size: 90px""><b>ø</b></div>","null","","","","forget_cue","","","","","","","","","","","","","","","",""
"html-keyboard-response","246","620864","0.0-4.0-1.0-0.42","n9fpgdzmucovrdy","prime","5f1d266c6f7d7f62a219fade","5f60e3c0a3b16e07647b2ff9","5f638037b0ce07060778fad8","false","null","<span style=""color: black; font-size: 48px"">M + N</span>","null","","","","resp_prompt","","","","","","","","","","","","","","","",""
"categorize-image","247","621748","0.0-4.0-1.0-1.42","n9fpgdzmucovrdy","prime","5f1d266c6f7d7f62a219fade","5f60e3c0a3b16e07647b2ff9","5f638037b0ce07060778fad8","true","880.9849999961443","./Stimuli/SelectedImages/SN/SN52.bmp","76","","","","test","true","M + N","76","repetition","SN","SN52.bmp","remember","","91","3","prime1","right","","","",""
"html-keyboard-response","248","623750","0.0-4.0-1.0-3.42","n9fpgdzmucovrdy","prime","5f1d266c6f7d7f62a219fade","5f60e3c0a3b16e07647b2ff9","5f638037b0ce07060778fad8","false","null","<div style=""align-items: center; display: flex; color: dodgerblue; font-size: 90px""><b>o</b></div>","null","","","","forget_cue","","","","","","","","","","","","","","","",""
"html-keyboard-response","249","624451","0.0-4.0-1.0-0.43","n9fpgdzmucovrdy","prime","5f1d266c6f7d7f62a219fade","5f60e3c0a3b16e07647b2ff9","5f638037b0ce07060778fad8","false","null","<span style=""color: black; font-size: 48px"">M + N</span>","null","","","","resp_prompt","","","","","","","","","","","","","","","",""
"categorize-image","250","625133","0.0-4.0-1.0-1.43","n9fpgdzmucovrdy","prime","5f1d266c6f7d7f62a219fade","5f60e3c0a3b16e07647b2ff9","5f638037b0ce07060778fad8","true","678.7650000187568","./Stimuli/SelectedImages/SM/SM106.bmp","83","","","","test","true","M + N","83","repetition","SM","SM106.bmp","remember","","92","3","prime1","left","","","",""
"html-keyboard-response","251","627133","0.0-4.0-1.0-3.43","n9fpgdzmucovrdy","prime","5f1d266c6f7d7f62a219fade","5f60e3c0a3b16e07647b2ff9","5f638037b0ce07060778fad8","false","null","<div style=""align-items: center; display: flex; color: dodgerblue; font-size: 90px""><b>o</b></div>","null","","","","forget_cue","","","","","","","","","","","","","","","",""
"html-keyboard-response","252","627834","0.0-4.0-1.0-0.44","n9fpgdzmucovrdy","prime","5f1d266c6f7d7f62a219fade","5f60e3c0a3b16e07647b2ff9","5f638037b0ce07060778fad8","false","null","<span style=""color: black; font-size: 48px"">M + N</span>","null","","","","resp_prompt","","","","","","","","","","","","","","","",""
