"trial_type","trial_index","time_elapsed","internal_node_id","subject","exp_part","prolific_PID","study_ID","session_ID","use","rt","stimulus","key_press","button_pressed","responses","question_order","trial_part","correct","resp_map","correct_resp","probe_condition","category","image","forget_condition","list","trial_num","block_num","block","response","test_part","n_span","sequence","num_spaces"
"pavlovia","0","9","0.0-0.0","vgwmyqvss6v1dqd","","5d02bcfe4f34fa00160c90e7","5f60e3c0a3b16e07647b2ff9","5f60edf962d5bf0169e48bb7","false","","","","","","","","","","","","","","","","","","","","","","",""
"html-keyboard-response","1","4538","0.0-1.0-0.0-0.0","vgwmyqvss6v1dqd","welcome","5d02bcfe4f34fa00160c90e7","5f60e3c0a3b16e07647b2ff9","5f60edf962d5bf0169e48bb7","false","4525.079999992158","<div align=left>Dear participant, <br> thank you for participating in an online study of the Cognition, Action, and Sustainability Unit of the University of Freiburg! <br> <br>The aim of this study is to examine our ability to remember previously learned information. <br>Our goal is to find out, whether our memory improves, when we only remember information that is relevant to us. <br>The experiment will take about 35 minutes to complete. <br> <br>Please, note that you can only participate in this study if you are using a device with a keyboard (PC, Laptop etc.) <br>and not if you are using a mobile device such as a tablet or smartphone.<br> <br>Press 'SPACE' to proceed to the experiment. </div>","32","","","","","","","","","","","","","","","","","","","",""
"html-keyboard-response","2","15038","0.0-1.0-0.0-1.0","vgwmyqvss6v1dqd","welcome","5d02bcfe4f34fa00160c90e7","5f60e3c0a3b16e07647b2ff9","5f60edf962d5bf0169e48bb7","false","10497.08499998087","<div align=left><strong> Time Course of this experiment: </strong> <br><br> <strong> 1.</strong>  First, please fill in some information regarding your demographic data. <br><br> <strong> 2.</strong>  Next, your task will be to classify everyday objects. <br>In addition, you will be asked to remember certain objects and recall them later. <br>Working on these tasks requires your undivided attention and concentration.<br>It is therefore essential that you eliminate any sources of distraction in your  <br>environment and ensure that you will not be disturbed. <br><br><strong> 3.</strong>  At the end of the experiment, you will be asked to answer a few additional questions. <br> <br><strong> Important:</strong> After finishing the experiment, only close the browser window <br> by clicking on the 'end the experiment'-button when you are asked to do so. <br>Closing the browser window prematurely will make the allocation of your participation credit impossible. <br><br> Press 'SPACE' to start the experiment. </div>","32","","","","","","","","","","","","","","","","","","","",""
"html-button-response","3","18608","0.0-1.0-0.0-2.0","vgwmyqvss6v1dqd","welcome","5d02bcfe4f34fa00160c90e7","5f60e3c0a3b16e07647b2ff9","5f60edf962d5bf0169e48bb7","true","3567.3449999885634","<div align=left><strong> Informed consent </strong>  <br>The aim of our research is to better understand human behavior and mental processes. <br>In the following study your behavior (e.g. choices, reaction times) will be studied. <br> <br><strong> Voluntariness and Anonymity </strong> <br>Your participation in this study is  <strong> voluntary</strong>.<br>You may withdraw your consent to participate at any time without providing a reason for doing so and without fear of prejudice. <br><br>As no personal data will be collected, <strong>your data and your person cannot be connected after data collection</strong> – the data-set is anonymous. <br>Respectively, deletion of your data will not be possible after data collection has been completed, as we cannot retrace your data-set.<br>The results and anonymized data collected in this study will be published as a scientific publication. <br>This will happen in an <strong>anonymized format</strong>, so that no data can be traced back to a specific person. <br> <br>The anonymized data of this study will be made available to other researchers and/or in a data archive on the Internet as a means of transparency and to enable subsequent re-use. By doing so, this study follows the recommendations of the Deutsche Forschungsgemeinschaft (DFG, German Research Foundation) and Deutsche Gesellschaft für Psychologie (DGPS, German Psychological Society) regarding quality assurance in research.<br>If you have any questions now or after the experiment, please contact our team (experiments@cs.uni-freiburg.de).<br><br><br>I hereby declare, that I understand the above described conditions of participation and I agree to participate under these conditions. <br><br> </div>","","0","","","","","","","","","","","","","","","","","","",""
"html-keyboard-response","4","31418","0.0-1.0-0.0-3.0","vgwmyqvss6v1dqd","welcome","5d02bcfe4f34fa00160c90e7","5f60e3c0a3b16e07647b2ff9","5f60edf962d5bf0169e48bb7","false","12806.164999987232","<div align=left><strong> General information concerning the experiment </strong>  <br> <br>Please follow the instructions:<ol> <li><strong> Do not leave this tab (your browser window) during the experiment and do not reload this tab! </strong>  <br>If you do switch tabs/windows during the experiment (to check your mail or visit another website, for example), <br>the experiment will end automatically and you will <strong>not receive credit</strong> for your participation. <br>Repeated participation or resumption of the experiment is impossible.</li> <br><li>Please close all other programs for the duration of your participation. </li> <br><li>Please mute or turn off your phone and put it out of your reach. </li> <br><li>Please also take off any disturbing accessories (such as wristwatches, bracelets, etc.). </li> <br><li>If you have music playing in the background, please turn it off now. </li> <br></ol>Thank you! <br>Press 'SPACE' to continue. </div>","32","","","","","","","","","","","","","","","","","","","",""
"survey-text","5","35259","0.0-1.0-1.0-0.0","vgwmyqvss6v1dqd","demographics","5d02bcfe4f34fa00160c90e7","5f60e3c0a3b16e07647b2ff9","5f60edf962d5bf0169e48bb7","true","3831.269999995129","","","","{""age"":""19""}","","","","","","","","","","","","","","","","","",""
"survey-multi-choice","6","50883","0.0-1.0-1.0-1.0","vgwmyqvss6v1dqd","demographics","5d02bcfe4f34fa00160c90e7","5f60e3c0a3b16e07647b2ff9","5f60edf962d5bf0169e48bb7","true","15620.46000000555","","","","{""gender"":""female"",""school"":""high school"",""education"":""Still in training/ university""}","[0,1,2]","","","","","","","","","","","","","","","","",""
"survey-text","7","66856","0.0-1.0-1.0-2.0-0.0","vgwmyqvss6v1dqd","demographics","5d02bcfe4f34fa00160c90e7","5f60e3c0a3b16e07647b2ff9","5f60edf962d5bf0169e48bb7","true","15954.934999987017","","","","{""education_text"":""BSc Biomedical Science with a Year in Industry""}","","","","","","","","","","","","","","","","","",""
"html-keyboard-response","8","74227","0.0-1.0-2.0","vgwmyqvss6v1dqd","instructions","5d02bcfe4f34fa00160c90e7","5f60e3c0a3b16e07647b2ff9","5f60edf962d5bf0169e48bb7","false","7368.914999999106","<div align=left> The experiment is now about to start: <br> <br>In the following part, you will be presented pictures of everyday objects. <br>Your first task is to <strong>classify these objects. </strong> <br> <br> You will classify them either as mechanical or non-mechanical objects. <br> <br>Objects that include any kind of technical mechanism (for example, wheels, switches, levers, <br> electronic components) fall under the category of <strong>mechanical</strong> objects. <br>Only objects without any kind of technical mechanism should be classified as <strong>non-mechanical</strong>. <br><br>Press 'SPACE' to continue. </div>","32","","","","","","","","","","","","","","","","","","","",""
"html-keyboard-response","9","91365","0.0-2.0-0.0","vgwmyqvss6v1dqd","instructions","5d02bcfe4f34fa00160c90e7","5f60e3c0a3b16e07647b2ff9","5f60edf962d5bf0169e48bb7","false","17135.9850000008","<div align=justify>You will classify the objects using the <strong>'S'</strong> and the <strong>'L'</strong> keys on your keyboard.<br>For doing so, please place your <strong>left index finger</strong> on the <strong>'S'</strong> key and place your <strong>right index finger</strong> on the <strong>'L'</strong> key. <br><br> Each trial starts with an instruction, indicating which key ('S'/'L') you need to press to classify <br>the object as mechanical (letter M) or non-mechanical (letter N).<br>The instruction <strong>M + N</strong> indicates that, in the current trial, by pressing the left key ('S') you classify the displayed object as mechanical (M) <br> and by pressing the right key ('L') you classify the object as non-mechanical (N). <br>The instruction <strong>N + M</strong> on the other hand indicates that by pressing the left key ('S') you classify the displayed object as non-mechanical (N) <br> and by pressing the right key ('L') you classify the object as mechanical (M). <br><br>Please press the key corresponding to the correct classification as fast as possible as soon as the object is displayed and try to avoid making mistakes.<br>If you do not respond within a 2 second window, a corresponding feedback will be displayed and the next trial will start.<br> The experiment is divided into multiple blocks to give you the opportunity to take a break after each block. <br>First, you can now practice this task. <br><br>Please place your <strong>LEFT INDEX FINGER</strong> on the 'S' key and your <strong>RIGHT INDEX FINGER</strong> on the 'L' key now. <br><br>Press SPACE to continue.</div>","32","","","","","","","","","","","","","","","","","","","",""
"html-keyboard-response","10","96651","0.0-2.0-1.0","vgwmyqvss6v1dqd","instructions","5d02bcfe4f34fa00160c90e7","5f60e3c0a3b16e07647b2ff9","5f60edf962d5bf0169e48bb7","false","5284.885000000941","<div align=left> You will now have time to practice this task.<br><br>Remember: <br> <br><li>Please place your index fingers on the <strong>'S'</strong> and <strong>'L'</strong> keys <br>to respond as fast and accurately as possible.</li><li>Every picture can be classified as either mechanical or non-mechanical.</li><li>If you do not respond in time or commit an error, you will receive a corresponding feedback. </li><li> Please try to respond as <strong> fast </strong> and as <strong> accurately as possible </strong> .<br><li>To ensure optimal results, please minimize distractions and stay focused. </li><br><br>Press SPACE to continue.</div>","32","","","","","","","","","","","","","","","","","","","",""
"html-keyboard-response","11","97355","0.0-2.0-2.0-0.0","vgwmyqvss6v1dqd","practice_no_cue","5d02bcfe4f34fa00160c90e7","5f60e3c0a3b16e07647b2ff9","5f60edf962d5bf0169e48bb7","false","null","<span style=""color: black; font-size: 48px"">N + M</span>","null","","","","resp_prompt","","","","","","","","","","","","","","","",""
"categorize-image","12","99860","0.0-2.0-2.0-1.0","vgwmyqvss6v1dqd","practice_no_cue","5d02bcfe4f34fa00160c90e7","5f60e3c0a3b16e07647b2ff9","5f60edf962d5bf0169e48bb7","true","null","./Stimuli/ImagesPractice/SM61.jpg","null","","","","test","false","N + M","76","","SM","SM61.jpg","remember","old","1","1","start","too_slow","","","",""
"html-keyboard-response","13","100563","0.0-2.0-2.0-0.1","vgwmyqvss6v1dqd","practice_no_cue","5d02bcfe4f34fa00160c90e7","5f60e3c0a3b16e07647b2ff9","5f60edf962d5bf0169e48bb7","false","null","<span style=""color: black; font-size: 48px"">N + M</span>","null","","","","resp_prompt","","","","","","","","","","","","","","","",""
"categorize-image","14","101755","0.0-2.0-2.0-1.1","vgwmyqvss6v1dqd","practice_no_cue","5d02bcfe4f34fa00160c90e7","5f60e3c0a3b16e07647b2ff9","5f60edf962d5bf0169e48bb7","true","689.2850000003818","./Stimuli/ImagesPractice/SM98.jpg","83","","","","test","false","N + M","76","","SM","SM98.jpg","forget","old","2","1","start","left","","","",""
"html-keyboard-response","15","102458","0.0-2.0-2.0-0.2","vgwmyqvss6v1dqd","practice_no_cue","5d02bcfe4f34fa00160c90e7","5f60e3c0a3b16e07647b2ff9","5f60edf962d5bf0169e48bb7","false","null","<span style=""color: black; font-size: 48px"">N + M</span>","null","","","","resp_prompt","","","","","","","","","","","","","","","",""
"categorize-image","16","103663","0.0-2.0-2.0-1.2","vgwmyqvss6v1dqd","practice_no_cue","5d02bcfe4f34fa00160c90e7","5f60e3c0a3b16e07647b2ff9","5f60edf962d5bf0169e48bb7","true","701.8849999876693","./Stimuli/ImagesPractice/LM230.jpg","83","","","","test","false","N + M","76","","LM","LM230.jpg","forget","old","3","1","start","left","","","",""
"html-keyboard-response","17","104365","0.0-2.0-2.0-0.3","vgwmyqvss6v1dqd","practice_no_cue","5d02bcfe4f34fa00160c90e7","5f60e3c0a3b16e07647b2ff9","5f60edf962d5bf0169e48bb7","false","null","<span style=""color: black; font-size: 48px"">M + N</span>","null","","","","resp_prompt","","","","","","","","","","","","","","","",""
"categorize-image","18","105840","0.0-2.0-2.0-1.3","vgwmyqvss6v1dqd","practice_no_cue","5d02bcfe4f34fa00160c90e7","5f60e3c0a3b16e07647b2ff9","5f60edf962d5bf0169e48bb7","true","972.0350000134204","./Stimuli/ImagesPractice/LM224.jpg","76","","","","test","false","M + N","83","","LM","LM224.jpg","forget","old","4","1","start","right","","","",""
"html-keyboard-response","19","106542","0.0-2.0-2.0-0.4","vgwmyqvss6v1dqd","practice_no_cue","5d02bcfe4f34fa00160c90e7","5f60e3c0a3b16e07647b2ff9","5f60edf962d5bf0169e48bb7","false","null","<span style=""color: black; font-size: 48px"">N + M</span>","null","","","","resp_prompt","","","","","","","","","","","","","","","",""
"categorize-image","20","107591","0.0-2.0-2.0-1.4","vgwmyqvss6v1dqd","practice_no_cue","5d02bcfe4f34fa00160c90e7","5f60e3c0a3b16e07647b2ff9","5f60edf962d5bf0169e48bb7","true","546.0850000090431","./Stimuli/ImagesPractice/LN2.jpg","76","","","","test","false","N + M","83","","LN","LN2.jpg","remember","old","5","1","start","right","","","",""
"html-keyboard-response","21","108294","0.0-2.0-2.0-0.5","vgwmyqvss6v1dqd","practice_no_cue","5d02bcfe4f34fa00160c90e7","5f60e3c0a3b16e07647b2ff9","5f60edf962d5bf0169e48bb7","false","null","<span style=""color: black; font-size: 48px"">N + M</span>","null","","","","resp_prompt","","","","","","","","","","","","","","","",""
"categorize-image","22","109852","0.0-2.0-2.0-1.5","vgwmyqvss6v1dqd","practice_no_cue","5d02bcfe4f34fa00160c90e7","5f60e3c0a3b16e07647b2ff9","5f60edf962d5bf0169e48bb7","true","1055.5700000259094","./Stimuli/ImagesPractice/LN109.jpg","76","","","","test","false","N + M","83","","LN","LN109.jpg","forget","old","6","1","start","right","","","",""
"html-keyboard-response","23","110555","0.0-2.0-2.0-0.6","vgwmyqvss6v1dqd","practice_no_cue","5d02bcfe4f34fa00160c90e7","5f60e3c0a3b16e07647b2ff9","5f60edf962d5bf0169e48bb7","false","null","<span style=""color: black; font-size: 48px"">N + M</span>","null","","","","resp_prompt","","","","","","","","","","","","","","","",""
"categorize-image","24","113060","0.0-2.0-2.0-1.6","vgwmyqvss6v1dqd","practice_no_cue","5d02bcfe4f34fa00160c90e7","5f60e3c0a3b16e07647b2ff9","5f60edf962d5bf0169e48bb7","true","null","./Stimuli/ImagesPractice/LN15.jpg","null","","","","test","false","N + M","83","","LN","LN15.jpg","forget","old","7","1","start","too_slow","","","",""
"html-keyboard-response","25","113762","0.0-2.0-2.0-0.7","vgwmyqvss6v1dqd","practice_no_cue","5d02bcfe4f34fa00160c90e7","5f60e3c0a3b16e07647b2ff9","5f60edf962d5bf0169e48bb7","false","null","<span style=""color: black; font-size: 48px"">M + N</span>","null","","","","resp_prompt","","","","","","","","","","","","","","","",""
"categorize-image","26","115131","0.0-2.0-2.0-1.7","vgwmyqvss6v1dqd","practice_no_cue","5d02bcfe4f34fa00160c90e7","5f60e3c0a3b16e07647b2ff9","5f60edf962d5bf0169e48bb7","true","861.8200000200886","./Stimuli/ImagesPractice/SN220.jpg","76","","","","test","true","M + N","76","","SN","SN220.jpg","remember","old","8","1","start","right","","","",""
"html-keyboard-response","27","115833","0.0-2.0-2.0-0.8","vgwmyqvss6v1dqd","practice_no_cue","5d02bcfe4f34fa00160c90e7","5f60e3c0a3b16e07647b2ff9","5f60edf962d5bf0169e48bb7","false","null","<span style=""color: black; font-size: 48px"">M + N</span>","null","","","","resp_prompt","","","","","","","","","","","","","","","",""
"categorize-image","28","116927","0.0-2.0-2.0-1.8","vgwmyqvss6v1dqd","practice_no_cue","5d02bcfe4f34fa00160c90e7","5f60e3c0a3b16e07647b2ff9","5f60edf962d5bf0169e48bb7","true","590.7199999783188","./Stimuli/ImagesPractice/SN222.jpg","76","","","","test","true","M + N","76","","SN","SN222.jpg","forget","old","9","1","start","right","","","",""
"html-keyboard-response","29","117628","0.0-2.0-2.0-0.9","vgwmyqvss6v1dqd","practice_no_cue","5d02bcfe4f34fa00160c90e7","5f60e3c0a3b16e07647b2ff9","5f60edf962d5bf0169e48bb7","false","null","<span style=""color: black; font-size: 48px"">M + N</span>","null","","","","resp_prompt","","","","","","","","","","","","","","","",""
"categorize-image","30","119165","0.0-2.0-2.0-1.9","vgwmyqvss6v1dqd","practice_no_cue","5d02bcfe4f34fa00160c90e7","5f60e3c0a3b16e07647b2ff9","5f60edf962d5bf0169e48bb7","true","1032.8799999842886","./Stimuli/ImagesPractice/SN76.jpg","76","","","","test","true","M + N","76","","SN","SN76.jpg","remember","old","10","1","start","right","","","",""
"html-keyboard-response","31","119867","0.0-2.0-2.0-0.10","vgwmyqvss6v1dqd","practice_no_cue","5d02bcfe4f34fa00160c90e7","5f60e3c0a3b16e07647b2ff9","5f60edf962d5bf0169e48bb7","false","null","<span style=""color: black; font-size: 48px"">N + M</span>","null","","","","resp_prompt","","","","","","","","","","","","","","","",""
"categorize-image","32","121285","0.0-2.0-2.0-1.10","vgwmyqvss6v1dqd","practice_no_cue","5d02bcfe4f34fa00160c90e7","5f60e3c0a3b16e07647b2ff9","5f60edf962d5bf0169e48bb7","true","915.6550000188872","./Stimuli/ImagesPractice/SM35.jpg","76","","","","test","true","N + M","76","","SM","SM35.jpg","remember","old","11","1","start","right","","","",""
"html-keyboard-response","33","121987","0.0-2.0-2.0-0.11","vgwmyqvss6v1dqd","practice_no_cue","5d02bcfe4f34fa00160c90e7","5f60e3c0a3b16e07647b2ff9","5f60edf962d5bf0169e48bb7","false","null","<span style=""color: black; font-size: 48px"">M + N</span>","null","","","","resp_prompt","","","","","","","","","","","","","","","",""
"categorize-image","34","123382","0.0-2.0-2.0-1.11","vgwmyqvss6v1dqd","practice_no_cue","5d02bcfe4f34fa00160c90e7","5f60e3c0a3b16e07647b2ff9","5f60edf962d5bf0169e48bb7","true","892.5899999740068","./Stimuli/ImagesPractice/LM239.jpg","83","","","","test","true","M + N","83","","LM","LM239.jpg","forget","old","12","1","start","left","","","",""
"html-keyboard-response","35","124084","0.0-2.0-2.0-0.12","vgwmyqvss6v1dqd","practice_no_cue","5d02bcfe4f34fa00160c90e7","5f60e3c0a3b16e07647b2ff9","5f60edf962d5bf0169e48bb7","false","null","<span style=""color: black; font-size: 48px"">M + N</span>","null","","","","resp_prompt","","","","","","","","","","","","","","","",""
"categorize-image","36","125154","0.0-2.0-2.0-1.12","vgwmyqvss6v1dqd","practice_no_cue","5d02bcfe4f34fa00160c90e7","5f60e3c0a3b16e07647b2ff9","5f60edf962d5bf0169e48bb7","true","565.7449999998789","./Stimuli/ImagesPractice/SN75.jpg","83","","","","test","false","M + N","76","","SN","SN75.jpg","remember","old","13","1","start","left","","","",""
"html-keyboard-response","37","125856","0.0-2.0-2.0-0.13","vgwmyqvss6v1dqd","practice_no_cue","5d02bcfe4f34fa00160c90e7","5f60e3c0a3b16e07647b2ff9","5f60edf962d5bf0169e48bb7","false","null","<span style=""color: black; font-size: 48px"">M + N</span>","null","","","","resp_prompt","","","","","","","","","","","","","","","",""
"categorize-image","38","127110","0.0-2.0-2.0-1.13","vgwmyqvss6v1dqd","practice_no_cue","5d02bcfe4f34fa00160c90e7","5f60e3c0a3b16e07647b2ff9","5f60edf962d5bf0169e48bb7","true","749.180000013439","./Stimuli/ImagesPractice/LN4.jpg","76","","","","test","true","M + N","76","","LN","LN4.jpg","remember","old","14","1","start","right","","","",""
"html-keyboard-response","39","127813","0.0-2.0-2.0-0.14","vgwmyqvss6v1dqd","practice_no_cue","5d02bcfe4f34fa00160c90e7","5f60e3c0a3b16e07647b2ff9","5f60edf962d5bf0169e48bb7","false","null","<span style=""color: black; font-size: 48px"">N + M</span>","null","","","","resp_prompt","","","","","","","","","","","","","","","",""
"categorize-image","40","129356","0.0-2.0-2.0-1.14","vgwmyqvss6v1dqd","practice_no_cue","5d02bcfe4f34fa00160c90e7","5f60e3c0a3b16e07647b2ff9","5f60edf962d5bf0169e48bb7","true","1038.4349999949336","./Stimuli/ImagesPractice/SM37.jpg","83","","","","test","false","N + M","76","","SM","SM37.jpg","remember","old","15","1","start","left","","","",""
"html-keyboard-response","41","130058","0.0-2.0-2.0-0.15","vgwmyqvss6v1dqd","practice_no_cue","5d02bcfe4f34fa00160c90e7","5f60e3c0a3b16e07647b2ff9","5f60edf962d5bf0169e48bb7","false","null","<span style=""color: black; font-size: 48px"">M + N</span>","null","","","","resp_prompt","","","","","","","","","","","","","","","",""
"categorize-image","42","131460","0.0-2.0-2.0-1.15","vgwmyqvss6v1dqd","practice_no_cue","5d02bcfe4f34fa00160c90e7","5f60e3c0a3b16e07647b2ff9","5f60edf962d5bf0169e48bb7","true","898.2700000051409","./Stimuli/ImagesPractice/SN205.jpg","76","","","","test","true","M + N","76","","SN","SN205.jpg","forget","old","16","1","start","right","","","",""
"html-keyboard-response","43","137644","0.0-2.0-3.0","vgwmyqvss6v1dqd","break","5d02bcfe4f34fa00160c90e7","5f60e3c0a3b16e07647b2ff9","5f60edf962d5bf0169e48bb7","false","6181.429999996908","<p style='font-size: 32px;'>Break</><br><br><br><br><br><p style='font-size: 24px;'>In the last block, you committed 7 errors and did not respond in time on 2 trials.
</p><p style='font-size: 24px;'>Try to respond as fast and accurately as possible in the next block as well! </p><p style='font-size: 24px;'>Press SPACE to continue.</p>","32","","","","","","","","","","","","","","","","","","","",""
"html-keyboard-response","44","139909","0.0-2.0-4.0","vgwmyqvss6v1dqd","instructions","5d02bcfe4f34fa00160c90e7","5f60e3c0a3b16e07647b2ff9","5f60edf962d5bf0169e48bb7","false","2261.96499998332","<div align=left> Great!<br><br>Are you ready to continue?<br><br>If you want to reread the instructions and redo the practice trials, <br>please press „Z“. <br><br>Press SPACE to CONTINUE with the experiment when you are ready. </div>","32","","","","","","","","","","","","","","","","","","","",""
"html-keyboard-response","45","154921","0.0-3.0-0.0","vgwmyqvss6v1dqd","instructions","5d02bcfe4f34fa00160c90e7","5f60e3c0a3b16e07647b2ff9","5f60edf962d5bf0169e48bb7","false","15010.520000010729","<div align=left>Great!<br> <strong>Attention</strong>! You will now receive a second, additional task! <br><br>To this point it was you <strong>first task</strong> to correctly <strong>classify objects</strong>. <br><br>As mentioned in the beginning, we aim to examine how well humans can remember previously learned information.<br>We would like to find out whether our memory improves if we only remember information that is relevant to us. <br><br>Therefore, your <strong>second task</strong> will be to <strong>remember</strong> the pictures you are to categorize. <br> After the learning phase, there will be a memory test phase, in which you will be asked to indicate whether you have seen a picture before or not. <br>Some, but not all pictures shown in the learning phase will appear in the memory test phase.<br>After classifying a picture, you will be told whether you should remember it for the memory test phase or not. <br>Thus, some pictures can be forgotten, whereas others have to be remembered. <br><br>Note: From now on, feedback will only be displayed if you responded incorrectly or not in time.<br><br>Press SPACE to continue.</div>","32","","","","","","","","","","","","","","","","","","","",""
"html-keyboard-response","46","167318","0.0-3.0-1.0","vgwmyqvss6v1dqd","instructions","5d02bcfe4f34fa00160c90e7","5f60e3c0a3b16e07647b2ff9","5f60edf962d5bf0169e48bb7","false","12394.404999999097","<div align=left>In the following part, you will thus have to remember only some pictures. <br>Immediately after seeing and classifying the picture, a symbol will be displayed, indicating whether you should remember or forget the previous picture. <br><br>A <span style='color: dodgerblue; font-size: 28px'>O</span> indicates REMEMBER. That means, you have to remember this picture, because it will be tested later. <br><br>A <span style='color: darkorange; font-size:28px'>Ø</span> indicates FORGET. You do not have to remember this picture. <br><br> As you will have to remember a lot of pictures, it will be hard for you to remember all of them. <br>It will put you at an advantage if you instantly forget the pictures you are not asked to remember. <br> This will make it easier for you to remember the pictures that will be tested afterwards. <br><br>Press SPACE to continue.</div>","32","","","","","","","","","","","","","","","","","","","",""
"html-keyboard-response","47","171808","0.0-3.0-2.0","vgwmyqvss6v1dqd","instructions","5d02bcfe4f34fa00160c90e7","5f60e3c0a3b16e07647b2ff9","5f60edf962d5bf0169e48bb7","false","4488.314999995055","<div align=left> Now you have the chance to practice both tasks together.<br><br>Remember: <br> <br><li>Please place your index fingers on the <strong>'S'</strong> and <strong>'L'</strong> keys <br>to respond as fast and accurately as possible.</li><li>Every picture can be classified as either mechanical or non-mechanical.</li><li>If you do not respond in time or commit an error, you will receive a corresponding feedback. <br>Please try to respond as <strong> fast </strong> and as <strong> accurately as possible </strong>.</li><li> Please remember only the to-be-remembered <span style='color: dodgerblue; font-size: 28px'>O</span> pictures. <br></li><li> Please minimize distractions and stay focused. </li><br><br>Press SPACE to START</div>","32","","","","","","","","","","","","","","","","","","","",""
"html-keyboard-response","48","172511","0.0-3.0-3.0-0.0","vgwmyqvss6v1dqd","practice_cue","5d02bcfe4f34fa00160c90e7","5f60e3c0a3b16e07647b2ff9","5f60edf962d5bf0169e48bb7","false","null","<span style=""color: black; font-size: 48px"">M + N</span>","null","","","","resp_prompt","","","","","","","","","","","","","","","",""
"categorize-image","49","173063","0.0-3.0-3.0-1.0","vgwmyqvss6v1dqd","practice_cue","5d02bcfe4f34fa00160c90e7","5f60e3c0a3b16e07647b2ff9","5f60edf962d5bf0169e48bb7","true","545.20500000217","./Stimuli/ImagesPractice/SN76.jpg","76","","","","test","true","M + N","76","","SN","SN76.jpg","remember","old","17","2","practice_forget","right","","","",""
"html-keyboard-response","50","175068","0.0-3.0-3.0-3.0","vgwmyqvss6v1dqd","practice_cue","5d02bcfe4f34fa00160c90e7","5f60e3c0a3b16e07647b2ff9","5f60edf962d5bf0169e48bb7","false","null","<div style=""align-items: center; display: flex; color: dodgerblue; font-size: 90px""><b>o</b></div>","null","","","","forget_cue","","","","","","","","","","","","","","","",""
"html-keyboard-response","51","175770","0.0-3.0-3.0-0.1","vgwmyqvss6v1dqd","practice_cue","5d02bcfe4f34fa00160c90e7","5f60e3c0a3b16e07647b2ff9","5f60edf962d5bf0169e48bb7","false","null","<span style=""color: black; font-size: 48px"">M + N</span>","null","","","","resp_prompt","","","","","","","","","","","","","","","",""
"categorize-image","52","176536","0.0-3.0-3.0-1.1","vgwmyqvss6v1dqd","practice_cue","5d02bcfe4f34fa00160c90e7","5f60e3c0a3b16e07647b2ff9","5f60edf962d5bf0169e48bb7","true","760.6000000087079","./Stimuli/ImagesPractice/LM239.jpg","76","","","","test","false","M + N","83","","LM","LM239.jpg","forget","old","18","2","practice_forget","right","","","",""
"html-keyboard-response","53","177039","0.0-3.0-3.0-2.1-0.1","vgwmyqvss6v1dqd","practice_cue","5d02bcfe4f34fa00160c90e7","5f60e3c0a3b16e07647b2ff9","5f60edf962d5bf0169e48bb7","false","null","<span style=""color: red; font-size: 48px"">Error!</span>","null","","","","feedback","","","","","","","","","","","","","","","",""
"html-keyboard-response","54","179042","0.0-3.0-3.0-3.1","vgwmyqvss6v1dqd","practice_cue","5d02bcfe4f34fa00160c90e7","5f60e3c0a3b16e07647b2ff9","5f60edf962d5bf0169e48bb7","false","null","<div style=""align-items: center; display: flex; color: darkorange; font-size: 90px""><b>ø</b></div>","null","","","","forget_cue","","","","","","","","","","","","","","","",""
"html-keyboard-response","55","179744","0.0-3.0-3.0-0.2","vgwmyqvss6v1dqd","practice_cue","5d02bcfe4f34fa00160c90e7","5f60e3c0a3b16e07647b2ff9","5f60edf962d5bf0169e48bb7","false","null","<span style=""color: black; font-size: 48px"">N + M</span>","null","","","","resp_prompt","","","","","","","","","","","","","","","",""
"categorize-image","56","180610","0.0-3.0-3.0-1.2","vgwmyqvss6v1dqd","practice_cue","5d02bcfe4f34fa00160c90e7","5f60e3c0a3b16e07647b2ff9","5f60edf962d5bf0169e48bb7","true","859.7200000076555","./Stimuli/ImagesPractice/SM35.jpg","83","","","","test","false","N + M","76","","SM","SM35.jpg","remember","old","19","2","practice_forget","left","","","",""
"html-keyboard-response","57","181114","0.0-3.0-3.0-2.2-0.2","vgwmyqvss6v1dqd","practice_cue","5d02bcfe4f34fa00160c90e7","5f60e3c0a3b16e07647b2ff9","5f60edf962d5bf0169e48bb7","false","null","<span style=""color: red; font-size: 48px"">Error!</span>","null","","","","feedback","","","","","","","","","","","","","","","",""
"html-keyboard-response","58","183115","0.0-3.0-3.0-3.2","vgwmyqvss6v1dqd","practice_cue","5d02bcfe4f34fa00160c90e7","5f60e3c0a3b16e07647b2ff9","5f60edf962d5bf0169e48bb7","false","null","<div style=""align-items: center; display: flex; color: dodgerblue; font-size: 90px""><b>o</b></div>","null","","","","forget_cue","","","","","","","","","","","","","","","",""
"html-keyboard-response","59","183818","0.0-3.0-3.0-0.3","vgwmyqvss6v1dqd","practice_cue","5d02bcfe4f34fa00160c90e7","5f60e3c0a3b16e07647b2ff9","5f60edf962d5bf0169e48bb7","false","null","<span style=""color: black; font-size: 48px"">N + M</span>","null","","","","resp_prompt","","","","","","","","","","","","","","","",""
"categorize-image","60","184527","0.0-3.0-3.0-1.3","vgwmyqvss6v1dqd","practice_cue","5d02bcfe4f34fa00160c90e7","5f60e3c0a3b16e07647b2ff9","5f60edf962d5bf0169e48bb7","true","704.8399999912363","./Stimuli/ImagesPractice/LN2.jpg","83","","","","test","true","N + M","83","","LN","LN2.jpg","remember","old","20","2","practice_forget","left","","","",""
"html-keyboard-response","61","186529","0.0-3.0-3.0-3.3","vgwmyqvss6v1dqd","practice_cue","5d02bcfe4f34fa00160c90e7","5f60e3c0a3b16e07647b2ff9","5f60edf962d5bf0169e48bb7","false","null","<div style=""align-items: center; display: flex; color: dodgerblue; font-size: 90px""><b>o</b></div>","null","","","","forget_cue","","","","","","","","","","","","","","","",""
"html-keyboard-response","62","187232","0.0-3.0-3.0-0.4","vgwmyqvss6v1dqd","practice_cue","5d02bcfe4f34fa00160c90e7","5f60e3c0a3b16e07647b2ff9","5f60edf962d5bf0169e48bb7","false","null","<span style=""color: black; font-size: 48px"">N + M</span>","null","","","","resp_prompt","","","","","","","","","","","","","","","",""
"categorize-image","63","187826","0.0-3.0-3.0-1.4","vgwmyqvss6v1dqd","practice_cue","5d02bcfe4f34fa00160c90e7","5f60e3c0a3b16e07647b2ff9","5f60edf962d5bf0169e48bb7","true","588.4000000078231","./Stimuli/ImagesPractice/LN109.jpg","83","","","","test","true","N + M","83","","LN","LN109.jpg","forget","old","21","2","practice_forget","left","","","",""
"html-keyboard-response","64","189829","0.0-3.0-3.0-3.4","vgwmyqvss6v1dqd","practice_cue","5d02bcfe4f34fa00160c90e7","5f60e3c0a3b16e07647b2ff9","5f60edf962d5bf0169e48bb7","false","null","<div style=""align-items: center; display: flex; color: darkorange; font-size: 90px""><b>ø</b></div>","null","","","","forget_cue","","","","","","","","","","","","","","","",""
"html-keyboard-response","65","190530","0.0-3.0-3.0-0.5","vgwmyqvss6v1dqd","practice_cue","5d02bcfe4f34fa00160c90e7","5f60e3c0a3b16e07647b2ff9","5f60edf962d5bf0169e48bb7","false","null","<span style=""color: black; font-size: 48px"">N + M</span>","null","","","","resp_prompt","","","","","","","","","","","","","","","",""
"categorize-image","66","191360","0.0-3.0-3.0-1.5","vgwmyqvss6v1dqd","practice_cue","5d02bcfe4f34fa00160c90e7","5f60e3c0a3b16e07647b2ff9","5f60edf962d5bf0169e48bb7","true","824.125000013737","./Stimuli/ImagesPractice/SM98.jpg","76","","","","test","true","N + M","76","","SM","SM98.jpg","forget","old","22","2","practice_forget","right","","","",""
"html-keyboard-response","67","193363","0.0-3.0-3.0-3.5","vgwmyqvss6v1dqd","practice_cue","5d02bcfe4f34fa00160c90e7","5f60e3c0a3b16e07647b2ff9","5f60edf962d5bf0169e48bb7","false","null","<div style=""align-items: center; display: flex; color: darkorange; font-size: 90px""><b>ø</b></div>","null","","","","forget_cue","","","","","","","","","","","","","","","",""
"html-keyboard-response","68","194065","0.0-3.0-3.0-0.6","vgwmyqvss6v1dqd","practice_cue","5d02bcfe4f34fa00160c90e7","5f60e3c0a3b16e07647b2ff9","5f60edf962d5bf0169e48bb7","false","null","<span style=""color: black; font-size: 48px"">M + N</span>","null","","","","resp_prompt","","","","","","","","","","","","","","","",""
"categorize-image","69","194717","0.0-3.0-3.0-1.6","vgwmyqvss6v1dqd","practice_cue","5d02bcfe4f34fa00160c90e7","5f60e3c0a3b16e07647b2ff9","5f60edf962d5bf0169e48bb7","true","644.8749999981374","./Stimuli/ImagesPractice/LM224.jpg","83","","","","test","true","M + N","83","","LM","LM224.jpg","forget","old","23","2","practice_forget","left","","","",""
"html-keyboard-response","70","196720","0.0-3.0-3.0-3.6","vgwmyqvss6v1dqd","practice_cue","5d02bcfe4f34fa00160c90e7","5f60e3c0a3b16e07647b2ff9","5f60edf962d5bf0169e48bb7","false","null","<div style=""align-items: center; display: flex; color: darkorange; font-size: 90px""><b>ø</b></div>","null","","","","forget_cue","","","","","","","","","","","","","","","",""
"html-keyboard-response","71","197421","0.0-3.0-3.0-0.7","vgwmyqvss6v1dqd","practice_cue","5d02bcfe4f34fa00160c90e7","5f60e3c0a3b16e07647b2ff9","5f60edf962d5bf0169e48bb7","false","null","<span style=""color: black; font-size: 48px"">N + M</span>","null","","","","resp_prompt","","","","","","","","","","","","","","","",""
"categorize-image","72","198043","0.0-3.0-3.0-1.7","vgwmyqvss6v1dqd","practice_cue","5d02bcfe4f34fa00160c90e7","5f60e3c0a3b16e07647b2ff9","5f60edf962d5bf0169e48bb7","true","615.8649999997579","./Stimuli/ImagesPractice/LM230.jpg","83","","","","test","false","N + M","76","","LM","LM230.jpg","forget","old","24","2","practice_forget","left","","","",""
"html-keyboard-response","73","198546","0.0-3.0-3.0-2.7-0.7","vgwmyqvss6v1dqd","practice_cue","5d02bcfe4f34fa00160c90e7","5f60e3c0a3b16e07647b2ff9","5f60edf962d5bf0169e48bb7","false","null","<span style=""color: red; font-size: 48px"">Error!</span>","null","","","","feedback","","","","","","","","","","","","","","","",""
"html-keyboard-response","74","200548","0.0-3.0-3.0-3.7","vgwmyqvss6v1dqd","practice_cue","5d02bcfe4f34fa00160c90e7","5f60e3c0a3b16e07647b2ff9","5f60edf962d5bf0169e48bb7","false","null","<div style=""align-items: center; display: flex; color: darkorange; font-size: 90px""><b>ø</b></div>","null","","","","forget_cue","","","","","","","","","","","","","","","",""
"html-keyboard-response","75","201250","0.0-3.0-3.0-0.8","vgwmyqvss6v1dqd","practice_cue","5d02bcfe4f34fa00160c90e7","5f60e3c0a3b16e07647b2ff9","5f60edf962d5bf0169e48bb7","false","null","<span style=""color: black; font-size: 48px"">M + N</span>","null","","","","resp_prompt","","","","","","","","","","","","","","","",""
"categorize-image","76","201831","0.0-3.0-3.0-1.8","vgwmyqvss6v1dqd","practice_cue","5d02bcfe4f34fa00160c90e7","5f60e3c0a3b16e07647b2ff9","5f60edf962d5bf0169e48bb7","true","575.1999999920372","./Stimuli/ImagesPractice/SN222.jpg","76","","","","test","true","M + N","76","","SN","SN222.jpg","forget","old","25","2","practice_forget","right","","","",""
"html-keyboard-response","77","203833","0.0-3.0-3.0-3.8","vgwmyqvss6v1dqd","practice_cue","5d02bcfe4f34fa00160c90e7","5f60e3c0a3b16e07647b2ff9","5f60edf962d5bf0169e48bb7","false","null","<div style=""align-items: center; display: flex; color: darkorange; font-size: 90px""><b>ø</b></div>","null","","","","forget_cue","","","","","","","","","","","","","","","",""
"html-keyboard-response","78","204539","0.0-3.0-3.0-0.9","vgwmyqvss6v1dqd","practice_cue","5d02bcfe4f34fa00160c90e7","5f60e3c0a3b16e07647b2ff9","5f60edf962d5bf0169e48bb7","false","null","<span style=""color: black; font-size: 48px"">N + M</span>","null","","","","resp_prompt","","","","","","","","","","","","","","","",""
"categorize-image","79","204936","0.0-3.0-3.0-1.9","vgwmyqvss6v1dqd","practice_cue","5d02bcfe4f34fa00160c90e7","5f60e3c0a3b16e07647b2ff9","5f60edf962d5bf0169e48bb7","true","391.39500001329","./Stimuli/ImagesPractice/SM37.jpg","83","","","","test","false","N + M","76","","SM","SM37.jpg","remember","old","26","2","practice_forget","left","","","",""
"html-keyboard-response","80","205438","0.0-3.0-3.0-2.9-0.9","vgwmyqvss6v1dqd","practice_cue","5d02bcfe4f34fa00160c90e7","5f60e3c0a3b16e07647b2ff9","5f60edf962d5bf0169e48bb7","false","null","<span style=""color: red; font-size: 48px"">Error!</span>","null","","","","feedback","","","","","","","","","","","","","","","",""
"html-keyboard-response","81","207440","0.0-3.0-3.0-3.9","vgwmyqvss6v1dqd","practice_cue","5d02bcfe4f34fa00160c90e7","5f60e3c0a3b16e07647b2ff9","5f60edf962d5bf0169e48bb7","false","null","<div style=""align-items: center; display: flex; color: dodgerblue; font-size: 90px""><b>o</b></div>","null","","","","forget_cue","","","","","","","","","","","","","","","",""
"html-keyboard-response","82","208142","0.0-3.0-3.0-0.10","vgwmyqvss6v1dqd","practice_cue","5d02bcfe4f34fa00160c90e7","5f60e3c0a3b16e07647b2ff9","5f60edf962d5bf0169e48bb7","false","null","<span style=""color: black; font-size: 48px"">M + N</span>","null","","","","resp_prompt","","","","","","","","","","","","","","","",""
"categorize-image","83","208719","0.0-3.0-3.0-1.10","vgwmyqvss6v1dqd","practice_cue","5d02bcfe4f34fa00160c90e7","5f60e3c0a3b16e07647b2ff9","5f60edf962d5bf0169e48bb7","true","570.7899999979418","./Stimuli/ImagesPractice/SN220.jpg","76","","","","test","true","M + N","76","","SN","SN220.jpg","remember","old","27","2","practice_forget","right","","","",""
"html-keyboard-response","84","210722","0.0-3.0-3.0-3.10","vgwmyqvss6v1dqd","practice_cue","5d02bcfe4f34fa00160c90e7","5f60e3c0a3b16e07647b2ff9","5f60edf962d5bf0169e48bb7","false","null","<div style=""align-items: center; display: flex; color: dodgerblue; font-size: 90px""><b>o</b></div>","null","","","","forget_cue","","","","","","","","","","","","","","","",""
"html-keyboard-response","85","211423","0.0-3.0-3.0-0.11","vgwmyqvss6v1dqd","practice_cue","5d02bcfe4f34fa00160c90e7","5f60e3c0a3b16e07647b2ff9","5f60edf962d5bf0169e48bb7","false","null","<span style=""color: black; font-size: 48px"">M + N</span>","null","","","","resp_prompt","","","","","","","","","","","","","","","",""
"categorize-image","86","212008","0.0-3.0-3.0-1.11","vgwmyqvss6v1dqd","practice_cue","5d02bcfe4f34fa00160c90e7","5f60e3c0a3b16e07647b2ff9","5f60edf962d5bf0169e48bb7","true","578.4050000074785","./Stimuli/ImagesPractice/SN75.jpg","76","","","","test","true","M + N","76","","SN","SN75.jpg","remember","old","28","2","practice_forget","right","","","",""
"html-keyboard-response","87","214011","0.0-3.0-3.0-3.11","vgwmyqvss6v1dqd","practice_cue","5d02bcfe4f34fa00160c90e7","5f60e3c0a3b16e07647b2ff9","5f60edf962d5bf0169e48bb7","false","null","<div style=""align-items: center; display: flex; color: dodgerblue; font-size: 90px""><b>o</b></div>","null","","","","forget_cue","","","","","","","","","","","","","","","",""
"html-keyboard-response","88","214713","0.0-3.0-3.0-0.12","vgwmyqvss6v1dqd","practice_cue","5d02bcfe4f34fa00160c90e7","5f60e3c0a3b16e07647b2ff9","5f60edf962d5bf0169e48bb7","false","null","<span style=""color: black; font-size: 48px"">M + N</span>","null","","","","resp_prompt","","","","","","","","","","","","","","","",""
"categorize-image","89","215404","0.0-3.0-3.0-1.12","vgwmyqvss6v1dqd","practice_cue","5d02bcfe4f34fa00160c90e7","5f60e3c0a3b16e07647b2ff9","5f60edf962d5bf0169e48bb7","true","685.9300000069197","./Stimuli/ImagesPractice/LN4.jpg","76","","","","test","true","M + N","76","","LN","LN4.jpg","remember","old","29","2","practice_forget","right","","","",""
"html-keyboard-response","90","217407","0.0-3.0-3.0-3.12","vgwmyqvss6v1dqd","practice_cue","5d02bcfe4f34fa00160c90e7","5f60e3c0a3b16e07647b2ff9","5f60edf962d5bf0169e48bb7","false","null","<div style=""align-items: center; display: flex; color: dodgerblue; font-size: 90px""><b>o</b></div>","null","","","","forget_cue","","","","","","","","","","","","","","","",""
"html-keyboard-response","91","218109","0.0-3.0-3.0-0.13","vgwmyqvss6v1dqd","practice_cue","5d02bcfe4f34fa00160c90e7","5f60e3c0a3b16e07647b2ff9","5f60edf962d5bf0169e48bb7","false","null","<span style=""color: black; font-size: 48px"">N + M</span>","null","","","","resp_prompt","","","","","","","","","","","","","","","",""
"categorize-image","92","218647","0.0-3.0-3.0-1.13","vgwmyqvss6v1dqd","practice_cue","5d02bcfe4f34fa00160c90e7","5f60e3c0a3b16e07647b2ff9","5f60edf962d5bf0169e48bb7","true","531.3549999846146","./Stimuli/ImagesPractice/LN15.jpg","83","","","","test","true","N + M","83","","LN","LN15.jpg","forget","old","30","2","practice_forget","left","","","",""
"html-keyboard-response","93","220650","0.0-3.0-3.0-3.13","vgwmyqvss6v1dqd","practice_cue","5d02bcfe4f34fa00160c90e7","5f60e3c0a3b16e07647b2ff9","5f60edf962d5bf0169e48bb7","false","null","<div style=""align-items: center; display: flex; color: darkorange; font-size: 90px""><b>ø</b></div>","null","","","","forget_cue","","","","","","","","","","","","","","","",""
"html-keyboard-response","94","221352","0.0-3.0-3.0-0.14","vgwmyqvss6v1dqd","practice_cue","5d02bcfe4f34fa00160c90e7","5f60e3c0a3b16e07647b2ff9","5f60edf962d5bf0169e48bb7","false","null","<span style=""color: black; font-size: 48px"">N + M</span>","null","","","","resp_prompt","","","","","","","","","","","","","","","",""
"categorize-image","95","222280","0.0-3.0-3.0-1.14","vgwmyqvss6v1dqd","practice_cue","5d02bcfe4f34fa00160c90e7","5f60e3c0a3b16e07647b2ff9","5f60edf962d5bf0169e48bb7","true","922.8899999870919","./Stimuli/ImagesPractice/SM61.jpg","83","","","","test","false","N + M","76","","SM","SM61.jpg","remember","old","31","2","practice_forget","left","","","",""
"html-keyboard-response","96","222783","0.0-3.0-3.0-2.14-0.14","vgwmyqvss6v1dqd","practice_cue","5d02bcfe4f34fa00160c90e7","5f60e3c0a3b16e07647b2ff9","5f60edf962d5bf0169e48bb7","false","null","<span style=""color: red; font-size: 48px"">Error!</span>","null","","","","feedback","","","","","","","","","","","","","","","",""
"html-keyboard-response","97","224785","0.0-3.0-3.0-3.14","vgwmyqvss6v1dqd","practice_cue","5d02bcfe4f34fa00160c90e7","5f60e3c0a3b16e07647b2ff9","5f60edf962d5bf0169e48bb7","false","null","<div style=""align-items: center; display: flex; color: dodgerblue; font-size: 90px""><b>o</b></div>","null","","","","forget_cue","","","","","","","","","","","","","","","",""
"html-keyboard-response","98","225487","0.0-3.0-3.0-0.15","vgwmyqvss6v1dqd","practice_cue","5d02bcfe4f34fa00160c90e7","5f60e3c0a3b16e07647b2ff9","5f60edf962d5bf0169e48bb7","false","null","<span style=""color: black; font-size: 48px"">M + N</span>","null","","","","resp_prompt","","","","","","","","","","","","","","","",""
"categorize-image","99","226266","0.0-3.0-3.0-1.15","vgwmyqvss6v1dqd","practice_cue","5d02bcfe4f34fa00160c90e7","5f60e3c0a3b16e07647b2ff9","5f60edf962d5bf0169e48bb7","true","773.285000002943","./Stimuli/ImagesPractice/SN205.jpg","83","","","","test","false","M + N","76","","SN","SN205.jpg","forget","old","32","2","practice_forget","left","","","",""
"html-keyboard-response","100","226770","0.0-3.0-3.0-2.15-0.15","vgwmyqvss6v1dqd","practice_cue","5d02bcfe4f34fa00160c90e7","5f60e3c0a3b16e07647b2ff9","5f60edf962d5bf0169e48bb7","false","null","<span style=""color: red; font-size: 48px"">Error!</span>","null","","","","feedback","","","","","","","","","","","","","","","",""
"html-keyboard-response","101","228773","0.0-3.0-3.0-3.15","vgwmyqvss6v1dqd","practice_cue","5d02bcfe4f34fa00160c90e7","5f60e3c0a3b16e07647b2ff9","5f60edf962d5bf0169e48bb7","false","null","<div style=""align-items: center; display: flex; color: darkorange; font-size: 90px""><b>ø</b></div>","null","","","","forget_cue","","","","","","","","","","","","","","","",""
"html-keyboard-response","102","230580","0.0-3.0-4.0","vgwmyqvss6v1dqd","break","5d02bcfe4f34fa00160c90e7","5f60e3c0a3b16e07647b2ff9","5f60edf962d5bf0169e48bb7","false","1804.9649999884423","<p style='font-size: 32px;'>Break</><br><br><br><br><br><p style='font-size: 24px;'>In the last block, you committed 6 errors and did not respond in time on 0 trials.
</p><p style='font-size: 24px;'>Try to respond as fast and accurately as possible in the next block as well! </p><p style='font-size: 24px;'>Press SPACE to continue.</p>","32","","","","","","","","","","","","","","","","","","","",""
"html-keyboard-response","103","240517","0.0-3.0-5.0","vgwmyqvss6v1dqd","instructions","5d02bcfe4f34fa00160c90e7","5f60e3c0a3b16e07647b2ff9","5f60edf962d5bf0169e48bb7","false","9934.885000024224","<div align=left> Now, to practice, we kindly ask you to remember as many of the to-be-remembered pictures<br>of the previous learning phase as possible.<br><br>The pictures you were instructed to remember were the pictures followed by a <span style='color: dodgerblue; font-size: 28px'>O</span>.<br><br>In this memory test phase, you will also see some new pictures.<br>It is your task to remember whether you were presented with this specific picture in this study so far or not.<br>If you recognize an object (you have already seen it in this study), it is an OLD object. <br>If you do not recognize an object (you have NOT seen it in this study), it is a NEW object. <br><strong> Attention</strong>: As already mentioned, <span style='color: darkorange; font-size:28px'>Ø</span>-pictures will <strong>never</strong> appear in this memory test (neither as new objects). <br><br>Press SPACE to continue. </div>","32","","","","","","","","","","","","","","","","","","","",""
"html-keyboard-response","104","249992","0.0-3.0-6.0","vgwmyqvss6v1dqd","instructions","5d02bcfe4f34fa00160c90e7","5f60e3c0a3b16e07647b2ff9","5f60edf962d5bf0169e48bb7","false","9473.094999993918","<div align=left> M and N no longer will appear on the left/right of the fixation cross. <br>Instead there will be a note at the bottom of the left or right side  <br>indicating which key you should press for an old or new object:  <br> <br>Press the <strong>right</strong> key to classify an object as <strong>old</strong> and press the <strong>left</strong>, to classify an object as <strong>new</strong>.<br>Please classify the objects as new/old by again placing your index finger on the 'S' and 'L' keys <br>and press them accordingly.<br><br><strong>Old:</strong> This object has been presented before. <br><strong>New:</strong> This object has <strong>not</strong> been presented.<br><br>Now please put your right and left index fingers on the 'S' and 'L' keys of your keyboard. <br>Please respond as fast and as accurately as possible!<br><br>Press SPACE to continue. </div>","32","","","","","","","","","","","","","","","","","","","",""
"categorize-image","105","251481","0.0-3.0-7.0-0.0","vgwmyqvss6v1dqd","practice_recog","5d02bcfe4f34fa00160c90e7","5f60e3c0a3b16e07647b2ff9","5f60edf962d5bf0169e48bb7","true","983.4850000042934","./Stimuli/ImagesPractice/LN72.jpg","76","","","","test","false","","83","","LN","LN72.jpg","","new","33","3","practice_recog","right","","","",""
"categorize-image","106","252845","0.0-3.0-7.0-0.1","vgwmyqvss6v1dqd","practice_recog","5d02bcfe4f34fa00160c90e7","5f60e3c0a3b16e07647b2ff9","5f60edf962d5bf0169e48bb7","true","860.3200000070501","./Stimuli/ImagesPractice/LN2.jpg","76","","","","test","true","","76","","LN","LN2.jpg","","old","34","3","practice_recog","right","","","",""
"categorize-image","107","254154","0.0-3.0-7.0-0.2","vgwmyqvss6v1dqd","practice_recog","5d02bcfe4f34fa00160c90e7","5f60e3c0a3b16e07647b2ff9","5f60edf962d5bf0169e48bb7","true","805.8249999885447","./Stimuli/ImagesPractice/SM62.jpg","83","","","","test","true","","83","","SM","SM62.jpg","","new","35","3","practice_recog","left","","","",""
"categorize-image","108","255346","0.0-3.0-7.0-0.3","vgwmyqvss6v1dqd","practice_recog","5d02bcfe4f34fa00160c90e7","5f60e3c0a3b16e07647b2ff9","5f60edf962d5bf0169e48bb7","true","687.8900000010617","./Stimuli/ImagesPractice/LM143.jpg","83","","","","test","true","","83","","LM","LM143.jpg","","new","36","3","practice_recog","left","","","",""
"categorize-image","109","256476","0.0-3.0-7.0-0.4","vgwmyqvss6v1dqd","practice_recog","5d02bcfe4f34fa00160c90e7","5f60e3c0a3b16e07647b2ff9","5f60edf962d5bf0169e48bb7","true","625.930000009248","./Stimuli/ImagesPractice/SM37.jpg","76","","","","test","true","","76","","SM","SM37.jpg","","old","37","3","practice_recog","right","","","",""
"categorize-image","110","257622","0.0-3.0-7.0-0.5","vgwmyqvss6v1dqd","practice_recog","5d02bcfe4f34fa00160c90e7","5f60e3c0a3b16e07647b2ff9","5f60edf962d5bf0169e48bb7","true","642.3049999866635","./Stimuli/ImagesPractice/SN220.jpg","76","","","","test","true","","76","","SN","SN220.jpg","","old","38","3","practice_recog","right","","","",""
"categorize-image","111","258698","0.0-3.0-7.0-0.6","vgwmyqvss6v1dqd","practice_recog","5d02bcfe4f34fa00160c90e7","5f60e3c0a3b16e07647b2ff9","5f60edf962d5bf0169e48bb7","true","572.600000014063","./Stimuli/ImagesPractice/LM55.jpg","83","","","","test","true","","83","","LM","LM55.jpg","","new","39","3","practice_recog","left","","","",""
"categorize-image","112","259809","0.0-3.0-7.0-0.7","vgwmyqvss6v1dqd","practice_recog","5d02bcfe4f34fa00160c90e7","5f60e3c0a3b16e07647b2ff9","5f60edf962d5bf0169e48bb7","true","607.2850000055041","./Stimuli/ImagesPractice/SM97.jpg","83","","","","test","true","","83","","SM","SM97.jpg","","new","40","3","practice_recog","left","","","",""
"categorize-image","113","260905","0.0-3.0-7.0-0.8","vgwmyqvss6v1dqd","practice_recog","5d02bcfe4f34fa00160c90e7","5f60e3c0a3b16e07647b2ff9","5f60edf962d5bf0169e48bb7","true","593.1200000050012","./Stimuli/ImagesPractice/SN221.jpg","83","","","","test","true","","83","","SN","SN221.jpg","","new","41","3","practice_recog","left","","","",""
"categorize-image","114","261934","0.0-3.0-7.0-0.9","vgwmyqvss6v1dqd","practice_recog","5d02bcfe4f34fa00160c90e7","5f60e3c0a3b16e07647b2ff9","5f60edf962d5bf0169e48bb7","true","525.5250000045635","./Stimuli/ImagesPractice/SN75.jpg","76","","","","test","true","","76","","SN","SN75.jpg","","old","42","3","practice_recog","right","","","",""
"categorize-image","115","263023","0.0-3.0-7.0-0.10","vgwmyqvss6v1dqd","practice_recog","5d02bcfe4f34fa00160c90e7","5f60e3c0a3b16e07647b2ff9","5f60edf962d5bf0169e48bb7","true","586.6500000120141","./Stimuli/ImagesPractice/LN17.jpg","83","","","","test","true","","83","","LN","LN17.jpg","","new","43","3","practice_recog","left","","","",""
"categorize-image","116","264166","0.0-3.0-7.0-0.11","vgwmyqvss6v1dqd","practice_recog","5d02bcfe4f34fa00160c90e7","5f60e3c0a3b16e07647b2ff9","5f60edf962d5bf0169e48bb7","true","639.069999975618","./Stimuli/ImagesPractice/SN76.jpg","76","","","","test","true","","76","","SN","SN76.jpg","","old","44","3","practice_recog","right","","","",""
"categorize-image","117","265393","0.0-3.0-7.0-0.12","vgwmyqvss6v1dqd","practice_recog","5d02bcfe4f34fa00160c90e7","5f60e3c0a3b16e07647b2ff9","5f60edf962d5bf0169e48bb7","true","723.2549999898765","./Stimuli/ImagesPractice/SM61.jpg","76","","","","test","true","","76","","SM","SM61.jpg","","old","45","3","practice_recog","right","","","",""
"categorize-image","118","266828","0.0-3.0-7.0-0.13","vgwmyqvss6v1dqd","practice_recog","5d02bcfe4f34fa00160c90e7","5f60e3c0a3b16e07647b2ff9","5f60edf962d5bf0169e48bb7","true","931.6000000108033","./Stimuli/ImagesPractice/LM147.jpg","83","","","","test","true","","83","","LM","LM147.jpg","","new","46","3","practice_recog","left","","","",""
"categorize-image","119","267924","0.0-3.0-7.0-0.14","vgwmyqvss6v1dqd","practice_recog","5d02bcfe4f34fa00160c90e7","5f60e3c0a3b16e07647b2ff9","5f60edf962d5bf0169e48bb7","true","591.405000013765","./Stimuli/ImagesPractice/SM35.jpg","76","","","","test","true","","76","","SM","SM35.jpg","","old","47","3","practice_recog","right","","","",""
"categorize-image","120","269037","0.0-3.0-7.0-0.15","vgwmyqvss6v1dqd","practice_recog","5d02bcfe4f34fa00160c90e7","5f60e3c0a3b16e07647b2ff9","5f60edf962d5bf0169e48bb7","true","608.4850000042934","./Stimuli/ImagesPractice/LN4.jpg","76","","","","test","true","","76","","LN","LN4.jpg","","old","48","3","practice_recog","right","","","",""
"html-keyboard-response","121","275687","0.0-3.0-8.0","vgwmyqvss6v1dqd","instructions","5d02bcfe4f34fa00160c90e7","5f60e3c0a3b16e07647b2ff9","5f60edf962d5bf0169e48bb7","false","6648.345000023255","<div align=left> Great!<br><br>Are you ready to continue?<br>If you want to reread the instructions and redo the practice trials, please <br>press „Z“.<br><br>You can proceed when you are ready.<br><br>After the presentation of each object, you will receive an instruction whether to <br>remember or to forget the object.<br>We will test your memory of the following pictures only at the very end of <br>the experiment after all learning blocks are completed. <br><br>Press SPACE to CONTINUE when you are ready. </div>","32","","","","","","","","","","","","","","","","","","","",""
"html-keyboard-response","122","284036","0.0-4.0-0.0","vgwmyqvss6v1dqd","instructions","5d02bcfe4f34fa00160c90e7","5f60e3c0a3b16e07647b2ff9","5f60edf962d5bf0169e48bb7","false","8345.949999988079","<div align=left> The actual experiment is about to start.<br>The practice trials are over!<br><br>Please always respond both fast and accurately!<br><br>Remember: <br> <br><li> Please place your index fingers on the <strong>'S'</strong> and <strong>'L'</strong> keys <br>to respond as fast and accurately as possible.</li><li> Every picture can be classified as either mechanical or non-mechanical.</li><li> If you do not respond in time or commit an error, you will receive a corresponding feedback.<br> Please try to respond as <strong> fast </strong> and as <strong> accurately as possible </strong>.</li><li> Remember the <span style='color: dodgerblue; font-size: 28px'>O</span> pictures. <br></li><li> Please minimize distractions and stay focused. </li><br><br>Press SPACE to START.</div>","32","","","","","","","","","","","","","","","","","","","",""
"html-keyboard-response","123","284739","0.0-4.0-1.0-0.0","vgwmyqvss6v1dqd","prime","5d02bcfe4f34fa00160c90e7","5f60e3c0a3b16e07647b2ff9","5f60edf962d5bf0169e48bb7","false","null","<span style=""color: black; font-size: 48px"">N + M</span>","null","","","","resp_prompt","","","","","","","","","","","","","","","",""
"categorize-image","124","285351","0.0-4.0-1.0-1.0","vgwmyqvss6v1dqd","prime","5d02bcfe4f34fa00160c90e7","5f60e3c0a3b16e07647b2ff9","5f60edf962d5bf0169e48bb7","true","607.7499999955762","./Stimuli/SelectedImages/SN/SN64.bmp","83","","","","test","true","N + M","83","repetition","SN","SN64.bmp","remember","","49","3","prime1","left","","","",""
"html-keyboard-response","125","287354","0.0-4.0-1.0-3.0","vgwmyqvss6v1dqd","prime","5d02bcfe4f34fa00160c90e7","5f60e3c0a3b16e07647b2ff9","5f60edf962d5bf0169e48bb7","false","null","<div style=""align-items: center; display: flex; color: dodgerblue; font-size: 90px""><b>o</b></div>","null","","","","forget_cue","","","","","","","","","","","","","","","",""
"html-keyboard-response","126","288056","0.0-4.0-1.0-0.1","vgwmyqvss6v1dqd","prime","5d02bcfe4f34fa00160c90e7","5f60e3c0a3b16e07647b2ff9","5f60edf962d5bf0169e48bb7","false","null","<span style=""color: black; font-size: 48px"">M + N</span>","null","","","","resp_prompt","","","","","","","","","","","","","","","",""
"categorize-image","127","288921","0.0-4.0-1.0-1.1","vgwmyqvss6v1dqd","prime","5d02bcfe4f34fa00160c90e7","5f60e3c0a3b16e07647b2ff9","5f60edf962d5bf0169e48bb7","true","858.9050000009593","./Stimuli/SelectedImages/SN/SN181.bmp","76","","","","test","true","M + N","76","repetition","SN","SN181.bmp","remember","","50","3","prime1","right","","","",""
"html-keyboard-response","128","290924","0.0-4.0-1.0-3.1","vgwmyqvss6v1dqd","prime","5d02bcfe4f34fa00160c90e7","5f60e3c0a3b16e07647b2ff9","5f60edf962d5bf0169e48bb7","false","null","<div style=""align-items: center; display: flex; color: dodgerblue; font-size: 90px""><b>o</b></div>","null","","","","forget_cue","","","","","","","","","","","","","","","",""
"html-keyboard-response","129","291626","0.0-4.0-1.0-0.2","vgwmyqvss6v1dqd","prime","5d02bcfe4f34fa00160c90e7","5f60e3c0a3b16e07647b2ff9","5f60edf962d5bf0169e48bb7","false","null","<span style=""color: black; font-size: 48px"">N + M</span>","null","","","","resp_prompt","","","","","","","","","","","","","","","",""
"categorize-image","130","292157","0.0-4.0-1.0-1.2","vgwmyqvss6v1dqd","prime","5d02bcfe4f34fa00160c90e7","5f60e3c0a3b16e07647b2ff9","5f60edf962d5bf0169e48bb7","true","526.0549999948125","./Stimuli/SelectedImages/SN/SN179.bmp","83","","","","test","true","N + M","83","repetition","SN","SN179.bmp","remember","","51","3","prime1","left","","","",""
"html-keyboard-response","131","294160","0.0-4.0-1.0-3.2","vgwmyqvss6v1dqd","prime","5d02bcfe4f34fa00160c90e7","5f60e3c0a3b16e07647b2ff9","5f60edf962d5bf0169e48bb7","false","null","<div style=""align-items: center; display: flex; color: dodgerblue; font-size: 90px""><b>o</b></div>","null","","","","forget_cue","","","","","","","","","","","","","","","",""
"html-keyboard-response","132","294862","0.0-4.0-1.0-0.3","vgwmyqvss6v1dqd","prime","5d02bcfe4f34fa00160c90e7","5f60e3c0a3b16e07647b2ff9","5f60edf962d5bf0169e48bb7","false","null","<span style=""color: black; font-size: 48px"">M + N</span>","null","","","","resp_prompt","","","","","","","","","","","","","","","",""
"categorize-image","133","295848","0.0-4.0-1.0-1.3","vgwmyqvss6v1dqd","prime","5d02bcfe4f34fa00160c90e7","5f60e3c0a3b16e07647b2ff9","5f60edf962d5bf0169e48bb7","true","980.6699999899138","./Stimuli/SelectedImages/SM/SM78.bmp","83","","","","test","true","M + N","83","switch","SM","SM78.bmp","remember","","52","3","prime1","left","","","",""
"html-keyboard-response","134","297850","0.0-4.0-1.0-3.3","vgwmyqvss6v1dqd","prime","5d02bcfe4f34fa00160c90e7","5f60e3c0a3b16e07647b2ff9","5f60edf962d5bf0169e48bb7","false","null","<div style=""align-items: center; display: flex; color: dodgerblue; font-size: 90px""><b>o</b></div>","null","","","","forget_cue","","","","","","","","","","","","","","","",""
"html-keyboard-response","135","298553","0.0-4.0-1.0-0.4","vgwmyqvss6v1dqd","prime","5d02bcfe4f34fa00160c90e7","5f60e3c0a3b16e07647b2ff9","5f60edf962d5bf0169e48bb7","false","null","<span style=""color: black; font-size: 48px"">N + M</span>","null","","","","resp_prompt","","","","","","","","","","","","","","","",""
"categorize-image","136","299457","0.0-4.0-1.0-1.4","vgwmyqvss6v1dqd","prime","5d02bcfe4f34fa00160c90e7","5f60e3c0a3b16e07647b2ff9","5f60edf962d5bf0169e48bb7","true","898.8550000067335","./Stimuli/SelectedImages/SM/SM76.bmp","76","","","","test","true","N + M","76","switch","SM","SM76.bmp","forget","","53","3","prime1","right","","","",""
"html-keyboard-response","137","301460","0.0-4.0-1.0-3.4","vgwmyqvss6v1dqd","prime","5d02bcfe4f34fa00160c90e7","5f60e3c0a3b16e07647b2ff9","5f60edf962d5bf0169e48bb7","false","null","<div style=""align-items: center; display: flex; color: darkorange; font-size: 90px""><b>ø</b></div>","null","","","","forget_cue","","","","","","","","","","","","","","","",""
"html-keyboard-response","138","302163","0.0-4.0-1.0-0.5","vgwmyqvss6v1dqd","prime","5d02bcfe4f34fa00160c90e7","5f60e3c0a3b16e07647b2ff9","5f60edf962d5bf0169e48bb7","false","null","<span style=""color: black; font-size: 48px"">N + M</span>","null","","","","resp_prompt","","","","","","","","","","","","","","","",""
"categorize-image","139","302816","0.0-4.0-1.0-1.5","vgwmyqvss6v1dqd","prime","5d02bcfe4f34fa00160c90e7","5f60e3c0a3b16e07647b2ff9","5f60edf962d5bf0169e48bb7","true","647.2150000045076","./Stimuli/SelectedImages/SM/SM200.bmp","76","","","","test","true","N + M","76","repetition","SM","SM200.bmp","remember","","54","3","prime1","right","","","",""
"html-keyboard-response","140","304819","0.0-4.0-1.0-3.5","vgwmyqvss6v1dqd","prime","5d02bcfe4f34fa00160c90e7","5f60e3c0a3b16e07647b2ff9","5f60edf962d5bf0169e48bb7","false","null","<div style=""align-items: center; display: flex; color: dodgerblue; font-size: 90px""><b>o</b></div>","null","","","","forget_cue","","","","","","","","","","","","","","","",""
"html-keyboard-response","141","305521","0.0-4.0-1.0-0.6","vgwmyqvss6v1dqd","prime","5d02bcfe4f34fa00160c90e7","5f60e3c0a3b16e07647b2ff9","5f60edf962d5bf0169e48bb7","false","null","<span style=""color: black; font-size: 48px"">N + M</span>","null","","","","resp_prompt","","","","","","","","","","","","","","","",""
"categorize-image","142","306219","0.0-4.0-1.0-1.6","vgwmyqvss6v1dqd","prime","5d02bcfe4f34fa00160c90e7","5f60e3c0a3b16e07647b2ff9","5f60edf962d5bf0169e48bb7","true","692.895000014687","./Stimuli/SelectedImages/LN/LN82.bmp","83","","","","test","true","N + M","83","switch","LN","LN82.bmp","forget","","55","3","prime1","left","","","",""
"html-keyboard-response","143","308221","0.0-4.0-1.0-3.6","vgwmyqvss6v1dqd","prime","5d02bcfe4f34fa00160c90e7","5f60e3c0a3b16e07647b2ff9","5f60edf962d5bf0169e48bb7","false","null","<div style=""align-items: center; display: flex; color: darkorange; font-size: 90px""><b>ø</b></div>","null","","","","forget_cue","","","","","","","","","","","","","","","",""
"html-keyboard-response","144","308925","0.0-4.0-1.0-0.7","vgwmyqvss6v1dqd","prime","5d02bcfe4f34fa00160c90e7","5f60e3c0a3b16e07647b2ff9","5f60edf962d5bf0169e48bb7","false","null","<span style=""color: black; font-size: 48px"">M + N</span>","null","","","","resp_prompt","","","","","","","","","","","","","","","",""
"categorize-image","145","309732","0.0-4.0-1.0-1.7","vgwmyqvss6v1dqd","prime","5d02bcfe4f34fa00160c90e7","5f60e3c0a3b16e07647b2ff9","5f60edf962d5bf0169e48bb7","true","801.2199999939185","./Stimuli/SelectedImages/SN/SN111.bmp","83","","","","test","false","M + N","76","switch","SN","SN111.bmp","remember","","56","3","prime1","left","","","",""
"html-keyboard-response","146","310234","0.0-4.0-1.0-2.7-0.7","vgwmyqvss6v1dqd","prime","5d02bcfe4f34fa00160c90e7","5f60e3c0a3b16e07647b2ff9","5f60edf962d5bf0169e48bb7","false","null","<span style=""color: red; font-size: 48px"">Error!</span>","null","","","","feedback","","","","","","","","","","","","","","","",""
"html-keyboard-response","147","312235","0.0-4.0-1.0-3.7","vgwmyqvss6v1dqd","prime","5d02bcfe4f34fa00160c90e7","5f60e3c0a3b16e07647b2ff9","5f60edf962d5bf0169e48bb7","false","null","<div style=""align-items: center; display: flex; color: dodgerblue; font-size: 90px""><b>o</b></div>","null","","","","forget_cue","","","","","","","","","","","","","","","",""
"html-keyboard-response","148","312937","0.0-4.0-1.0-0.8","vgwmyqvss6v1dqd","prime","5d02bcfe4f34fa00160c90e7","5f60e3c0a3b16e07647b2ff9","5f60edf962d5bf0169e48bb7","false","null","<span style=""color: black; font-size: 48px"">M + N</span>","null","","","","resp_prompt","","","","","","","","","","","","","","","",""
"categorize-image","149","313874","0.0-4.0-1.0-1.8","vgwmyqvss6v1dqd","prime","5d02bcfe4f34fa00160c90e7","5f60e3c0a3b16e07647b2ff9","5f60edf962d5bf0169e48bb7","true","929.9599999794737","./Stimuli/SelectedImages/LN/LN177.bmp","76","","","","test","true","M + N","76","switch","LN","LN177.bmp","forget","","57","3","prime1","right","","","",""
"html-keyboard-response","150","315878","0.0-4.0-1.0-3.8","vgwmyqvss6v1dqd","prime","5d02bcfe4f34fa00160c90e7","5f60e3c0a3b16e07647b2ff9","5f60edf962d5bf0169e48bb7","false","null","<div style=""align-items: center; display: flex; color: darkorange; font-size: 90px""><b>ø</b></div>","null","","","","forget_cue","","","","","","","","","","","","","","","",""
"html-keyboard-response","151","316581","0.0-4.0-1.0-0.9","vgwmyqvss6v1dqd","prime","5d02bcfe4f34fa00160c90e7","5f60e3c0a3b16e07647b2ff9","5f60edf962d5bf0169e48bb7","false","null","<span style=""color: black; font-size: 48px"">M + N</span>","null","","","","resp_prompt","","","","","","","","","","","","","","","",""
"categorize-image","152","317246","0.0-4.0-1.0-1.9","vgwmyqvss6v1dqd","prime","5d02bcfe4f34fa00160c90e7","5f60e3c0a3b16e07647b2ff9","5f60edf962d5bf0169e48bb7","true","658.9299999759533","./Stimuli/SelectedImages/LN/LN9.bmp","76","","","","test","true","M + N","76","switch","LN","LN9.bmp","forget","","58","3","prime1","right","","","",""
"html-keyboard-response","153","319249","0.0-4.0-1.0-3.9","vgwmyqvss6v1dqd","prime","5d02bcfe4f34fa00160c90e7","5f60e3c0a3b16e07647b2ff9","5f60edf962d5bf0169e48bb7","false","null","<div style=""align-items: center; display: flex; color: darkorange; font-size: 90px""><b>ø</b></div>","null","","","","forget_cue","","","","","","","","","","","","","","","",""
"html-keyboard-response","154","319951","0.0-4.0-1.0-0.10","vgwmyqvss6v1dqd","prime","5d02bcfe4f34fa00160c90e7","5f60e3c0a3b16e07647b2ff9","5f60edf962d5bf0169e48bb7","false","null","<span style=""color: black; font-size: 48px"">M + N</span>","null","","","","resp_prompt","","","","","","","","","","","","","","","",""
"categorize-image","155","320585","0.0-4.0-1.0-1.10","vgwmyqvss6v1dqd","prime","5d02bcfe4f34fa00160c90e7","5f60e3c0a3b16e07647b2ff9","5f60edf962d5bf0169e48bb7","true","629.4449999986682","./Stimuli/SelectedImages/SM/SM128.bmp","83","","","","test","true","M + N","83","switch","SM","SM128.bmp","remember","","59","3","prime1","left","","","",""
"html-keyboard-response","156","322588","0.0-4.0-1.0-3.10","vgwmyqvss6v1dqd","prime","5d02bcfe4f34fa00160c90e7","5f60e3c0a3b16e07647b2ff9","5f60edf962d5bf0169e48bb7","false","null","<div style=""align-items: center; display: flex; color: dodgerblue; font-size: 90px""><b>o</b></div>","null","","","","forget_cue","","","","","","","","","","","","","","","",""
"html-keyboard-response","157","323292","0.0-4.0-1.0-0.11","vgwmyqvss6v1dqd","prime","5d02bcfe4f34fa00160c90e7","5f60e3c0a3b16e07647b2ff9","5f60edf962d5bf0169e48bb7","false","null","<span style=""color: black; font-size: 48px"">N + M</span>","null","","","","resp_prompt","","","","","","","","","","","","","","","",""
"categorize-image","158","324243","0.0-4.0-1.0-1.11","vgwmyqvss6v1dqd","prime","5d02bcfe4f34fa00160c90e7","5f60e3c0a3b16e07647b2ff9","5f60edf962d5bf0169e48bb7","true","946.5649999910966","./Stimuli/SelectedImages/LM/LM48.bmp","83","","","","test","false","N + M","76","repetition","LM","LM48.bmp","remember","","60","3","prime1","left","","","",""
"html-keyboard-response","159","324748","0.0-4.0-1.0-2.11-0.11","vgwmyqvss6v1dqd","prime","5d02bcfe4f34fa00160c90e7","5f60e3c0a3b16e07647b2ff9","5f60edf962d5bf0169e48bb7","false","null","<span style=""color: red; font-size: 48px"">Error!</span>","null","","","","feedback","","","","","","","","","","","","","","","",""
"html-keyboard-response","160","326750","0.0-4.0-1.0-3.11","vgwmyqvss6v1dqd","prime","5d02bcfe4f34fa00160c90e7","5f60e3c0a3b16e07647b2ff9","5f60edf962d5bf0169e48bb7","false","null","<div style=""align-items: center; display: flex; color: dodgerblue; font-size: 90px""><b>o</b></div>","null","","","","forget_cue","","","","","","","","","","","","","","","",""
"html-keyboard-response","161","327452","0.0-4.0-1.0-0.12","vgwmyqvss6v1dqd","prime","5d02bcfe4f34fa00160c90e7","5f60e3c0a3b16e07647b2ff9","5f60edf962d5bf0169e48bb7","false","null","<span style=""color: black; font-size: 48px"">N + M</span>","null","","","","resp_prompt","","","","","","","","","","","","","","","",""
"categorize-image","162","328574","0.0-4.0-1.0-1.12","vgwmyqvss6v1dqd","prime","5d02bcfe4f34fa00160c90e7","5f60e3c0a3b16e07647b2ff9","5f60edf962d5bf0169e48bb7","true","1115.9849999821745","./Stimuli/SelectedImages/SN/SN52.bmp","83","","","","test","true","N + M","83","repetition","SN","SN52.bmp","forget","","61","3","prime1","left","","","",""
"html-keyboard-response","163","330577","0.0-4.0-1.0-3.12","vgwmyqvss6v1dqd","prime","5d02bcfe4f34fa00160c90e7","5f60e3c0a3b16e07647b2ff9","5f60edf962d5bf0169e48bb7","false","null","<div style=""align-items: center; display: flex; color: darkorange; font-size: 90px""><b>ø</b></div>","null","","","","forget_cue","","","","","","","","","","","","","","","",""
"html-keyboard-response","164","331280","0.0-4.0-1.0-0.13","vgwmyqvss6v1dqd","prime","5d02bcfe4f34fa00160c90e7","5f60e3c0a3b16e07647b2ff9","5f60edf962d5bf0169e48bb7","false","null","<span style=""color: black; font-size: 48px"">M + N</span>","null","","","","resp_prompt","","","","","","","","","","","","","","","",""
"categorize-image","165","331893","0.0-4.0-1.0-1.13","vgwmyqvss6v1dqd","prime","5d02bcfe4f34fa00160c90e7","5f60e3c0a3b16e07647b2ff9","5f60edf962d5bf0169e48bb7","true","607.3949999990873","./Stimuli/SelectedImages/SM/SM108.bmp","76","","","","test","false","M + N","83","repetition","SM","SM108.bmp","remember","","62","3","prime1","right","","","",""
"html-keyboard-response","166","332423","0.0-4.0-1.0-2.13-0.13","vgwmyqvss6v1dqd","prime","5d02bcfe4f34fa00160c90e7","5f60e3c0a3b16e07647b2ff9","5f60edf962d5bf0169e48bb7","false","null","<span style=""color: red; font-size: 48px"">Error!</span>","null","","","","feedback","","","","","","","","","","","","","","","",""
"html-keyboard-response","167","334426","0.0-4.0-1.0-3.13","vgwmyqvss6v1dqd","prime","5d02bcfe4f34fa00160c90e7","5f60e3c0a3b16e07647b2ff9","5f60edf962d5bf0169e48bb7","false","null","<div style=""align-items: center; display: flex; color: dodgerblue; font-size: 90px""><b>o</b></div>","null","","","","forget_cue","","","","","","","","","","","","","","","",""
"html-keyboard-response","168","335129","0.0-4.0-1.0-0.14","vgwmyqvss6v1dqd","prime","5d02bcfe4f34fa00160c90e7","5f60e3c0a3b16e07647b2ff9","5f60edf962d5bf0169e48bb7","false","null","<span style=""color: black; font-size: 48px"">M + N</span>","null","","","","resp_prompt","","","","","","","","","","","","","","","",""
"categorize-image","169","335887","0.0-4.0-1.0-1.14","vgwmyqvss6v1dqd","prime","5d02bcfe4f34fa00160c90e7","5f60e3c0a3b16e07647b2ff9","5f60edf962d5bf0169e48bb7","true","752.0200000144541","./Stimuli/SelectedImages/SM/SM213.bmp","83","","","","test","true","M + N","83","switch","SM","SM213.bmp","forget","","63","3","prime1","left","","","",""
"html-keyboard-response","170","337889","0.0-4.0-1.0-3.14","vgwmyqvss6v1dqd","prime","5d02bcfe4f34fa00160c90e7","5f60e3c0a3b16e07647b2ff9","5f60edf962d5bf0169e48bb7","false","null","<div style=""align-items: center; display: flex; color: darkorange; font-size: 90px""><b>ø</b></div>","null","","","","forget_cue","","","","","","","","","","","","","","","",""
"html-keyboard-response","171","338592","0.0-4.0-1.0-0.15","vgwmyqvss6v1dqd","prime","5d02bcfe4f34fa00160c90e7","5f60e3c0a3b16e07647b2ff9","5f60edf962d5bf0169e48bb7","false","null","<span style=""color: black; font-size: 48px"">M + N</span>","null","","","","resp_prompt","","","","","","","","","","","","","","","",""
"categorize-image","172","339254","0.0-4.0-1.0-1.15","vgwmyqvss6v1dqd","prime","5d02bcfe4f34fa00160c90e7","5f60e3c0a3b16e07647b2ff9","5f60edf962d5bf0169e48bb7","true","654.6999999845866","./Stimuli/SelectedImages/LN/LN150.bmp","76","","","","test","true","M + N","76","repetition","LN","LN150.bmp","remember","","64","3","prime1","right","","","",""
"html-keyboard-response","173","341256","0.0-4.0-1.0-3.15","vgwmyqvss6v1dqd","prime","5d02bcfe4f34fa00160c90e7","5f60e3c0a3b16e07647b2ff9","5f60edf962d5bf0169e48bb7","false","null","<div style=""align-items: center; display: flex; color: dodgerblue; font-size: 90px""><b>o</b></div>","null","","","","forget_cue","","","","","","","","","","","","","","","",""
"html-keyboard-response","174","341957","0.0-4.0-1.0-0.16","vgwmyqvss6v1dqd","prime","5d02bcfe4f34fa00160c90e7","5f60e3c0a3b16e07647b2ff9","5f60edf962d5bf0169e48bb7","false","null","<span style=""color: black; font-size: 48px"">M + N</span>","null","","","","resp_prompt","","","","","","","","","","","","","","","",""
"categorize-image","175","342602","0.0-4.0-1.0-1.16","vgwmyqvss6v1dqd","prime","5d02bcfe4f34fa00160c90e7","5f60e3c0a3b16e07647b2ff9","5f60edf962d5bf0169e48bb7","true","640.320000005886","./Stimuli/SelectedImages/SN/SN182.bmp","76","","","","test","true","M + N","76","repetition","SN","SN182.bmp","remember","","65","3","prime1","right","","","",""
"html-keyboard-response","176","344606","0.0-4.0-1.0-3.16","vgwmyqvss6v1dqd","prime","5d02bcfe4f34fa00160c90e7","5f60e3c0a3b16e07647b2ff9","5f60edf962d5bf0169e48bb7","false","null","<div style=""align-items: center; display: flex; color: dodgerblue; font-size: 90px""><b>o</b></div>","null","","","","forget_cue","","","","","","","","","","","","","","","",""
"html-keyboard-response","177","345308","0.0-4.0-1.0-0.17","vgwmyqvss6v1dqd","prime","5d02bcfe4f34fa00160c90e7","5f60e3c0a3b16e07647b2ff9","5f60edf962d5bf0169e48bb7","false","null","<span style=""color: black; font-size: 48px"">N + M</span>","null","","","","resp_prompt","","","","","","","","","","","","","","","",""
"categorize-image","178","346050","0.0-4.0-1.0-1.17","vgwmyqvss6v1dqd","prime","5d02bcfe4f34fa00160c90e7","5f60e3c0a3b16e07647b2ff9","5f60edf962d5bf0169e48bb7","true","736.4449999877252","./Stimuli/SelectedImages/SM/SM74.bmp","76","","","","test","true","N + M","76","repetition","SM","SM74.bmp","forget","","66","3","prime1","right","","","",""
"html-keyboard-response","179","348054","0.0-4.0-1.0-3.17","vgwmyqvss6v1dqd","prime","5d02bcfe4f34fa00160c90e7","5f60e3c0a3b16e07647b2ff9","5f60edf962d5bf0169e48bb7","false","null","<div style=""align-items: center; display: flex; color: darkorange; font-size: 90px""><b>ø</b></div>","null","","","","forget_cue","","","","","","","","","","","","","","","",""
"html-keyboard-response","180","348756","0.0-4.0-1.0-0.18","vgwmyqvss6v1dqd","prime","5d02bcfe4f34fa00160c90e7","5f60e3c0a3b16e07647b2ff9","5f60edf962d5bf0169e48bb7","false","null","<span style=""color: black; font-size: 48px"">M + N</span>","null","","","","resp_prompt","","","","","","","","","","","","","","","",""
"categorize-image","181","349342","0.0-4.0-1.0-1.18","vgwmyqvss6v1dqd","prime","5d02bcfe4f34fa00160c90e7","5f60e3c0a3b16e07647b2ff9","5f60edf962d5bf0169e48bb7","true","580.5550000222865","./Stimuli/SelectedImages/SN/SN27.bmp","76","","","","test","true","M + N","76","switch","SN","SN27.bmp","forget","","67","3","prime1","right","","","",""
"html-keyboard-response","182","351345","0.0-4.0-1.0-3.18","vgwmyqvss6v1dqd","prime","5d02bcfe4f34fa00160c90e7","5f60e3c0a3b16e07647b2ff9","5f60edf962d5bf0169e48bb7","false","null","<div style=""align-items: center; display: flex; color: darkorange; font-size: 90px""><b>ø</b></div>","null","","","","forget_cue","","","","","","","","","","","","","","","",""
"html-keyboard-response","183","352047","0.0-4.0-1.0-0.19","vgwmyqvss6v1dqd","prime","5d02bcfe4f34fa00160c90e7","5f60e3c0a3b16e07647b2ff9","5f60edf962d5bf0169e48bb7","false","null","<span style=""color: black; font-size: 48px"">M + N</span>","null","","","","resp_prompt","","","","","","","","","","","","","","","",""
"categorize-image","184","352692","0.0-4.0-1.0-1.19","vgwmyqvss6v1dqd","prime","5d02bcfe4f34fa00160c90e7","5f60e3c0a3b16e07647b2ff9","5f60edf962d5bf0169e48bb7","true","639.6749999839813","./Stimuli/SelectedImages/SN/SN240.bmp","83","","","","test","false","M + N","76","repetition","SN","SN240.bmp","forget","","68","3","prime1","left","","","",""
"html-keyboard-response","185","353195","0.0-4.0-1.0-2.19-0.19","vgwmyqvss6v1dqd","prime","5d02bcfe4f34fa00160c90e7","5f60e3c0a3b16e07647b2ff9","5f60edf962d5bf0169e48bb7","false","null","<span style=""color: red; font-size: 48px"">Error!</span>","null","","","","feedback","","","","","","","","","","","","","","","",""
"html-keyboard-response","186","355197","0.0-4.0-1.0-3.19","vgwmyqvss6v1dqd","prime","5d02bcfe4f34fa00160c90e7","5f60e3c0a3b16e07647b2ff9","5f60edf962d5bf0169e48bb7","false","null","<div style=""align-items: center; display: flex; color: darkorange; font-size: 90px""><b>ø</b></div>","null","","","","forget_cue","","","","","","","","","","","","","","","",""
"html-keyboard-response","187","355899","0.0-4.0-1.0-0.20","vgwmyqvss6v1dqd","prime","5d02bcfe4f34fa00160c90e7","5f60e3c0a3b16e07647b2ff9","5f60edf962d5bf0169e48bb7","false","null","<span style=""color: black; font-size: 48px"">M + N</span>","null","","","","resp_prompt","","","","","","","","","","","","","","","",""
"categorize-image","188","356705","0.0-4.0-1.0-1.20","vgwmyqvss6v1dqd","prime","5d02bcfe4f34fa00160c90e7","5f60e3c0a3b16e07647b2ff9","5f60edf962d5bf0169e48bb7","true","800.3600000229198","./Stimuli/SelectedImages/LM/LM179.bmp","83","","","","test","true","M + N","83","repetition","LM","LM179.bmp","remember","","69","3","prime1","left","","","",""
"html-keyboard-response","189","358709","0.0-4.0-1.0-3.20","vgwmyqvss6v1dqd","prime","5d02bcfe4f34fa00160c90e7","5f60e3c0a3b16e07647b2ff9","5f60edf962d5bf0169e48bb7","false","null","<div style=""align-items: center; display: flex; color: dodgerblue; font-size: 90px""><b>o</b></div>","null","","","","forget_cue","","","","","","","","","","","","","","","",""
"html-keyboard-response","190","359411","0.0-4.0-1.0-0.21","vgwmyqvss6v1dqd","prime","5d02bcfe4f34fa00160c90e7","5f60e3c0a3b16e07647b2ff9","5f60edf962d5bf0169e48bb7","false","null","<span style=""color: black; font-size: 48px"">N + M</span>","null","","","","resp_prompt","","","","","","","","","","","","","","","",""
"categorize-image","191","360965","0.0-4.0-1.0-1.21","vgwmyqvss6v1dqd","prime","5d02bcfe4f34fa00160c90e7","5f60e3c0a3b16e07647b2ff9","5f60edf962d5bf0169e48bb7","true","1547.469999990426","./Stimuli/SelectedImages/LN/LN111.bmp","76","","","","test","false","N + M","83","repetition","LN","LN111.bmp","forget","","70","3","prime1","right","","","",""
"html-keyboard-response","192","361468","0.0-4.0-1.0-2.21-0.21","vgwmyqvss6v1dqd","prime","5d02bcfe4f34fa00160c90e7","5f60e3c0a3b16e07647b2ff9","5f60edf962d5bf0169e48bb7","false","null","<span style=""color: red; font-size: 48px"">Error!</span>","null","","","","feedback","","","","","","","","","","","","","","","",""
"html-keyboard-response","193","363471","0.0-4.0-1.0-3.21","vgwmyqvss6v1dqd","prime","5d02bcfe4f34fa00160c90e7","5f60e3c0a3b16e07647b2ff9","5f60edf962d5bf0169e48bb7","false","null","<div style=""align-items: center; display: flex; color: darkorange; font-size: 90px""><b>ø</b></div>","null","","","","forget_cue","","","","","","","","","","","","","","","",""
"html-keyboard-response","194","364173","0.0-4.0-1.0-0.22","vgwmyqvss6v1dqd","prime","5d02bcfe4f34fa00160c90e7","5f60e3c0a3b16e07647b2ff9","5f60edf962d5bf0169e48bb7","false","null","<span style=""color: black; font-size: 48px"">M + N</span>","null","","","","resp_prompt","","","","","","","","","","","","","","","",""
"categorize-image","195","364904","0.0-4.0-1.0-1.22","vgwmyqvss6v1dqd","prime","5d02bcfe4f34fa00160c90e7","5f60e3c0a3b16e07647b2ff9","5f60edf962d5bf0169e48bb7","true","725.8500000170898","./Stimuli/SelectedImages/SM/SM17.bmp","83","","","","test","true","M + N","83","repetition","SM","SM17.bmp","forget","","71","3","prime1","left","","","",""
"html-keyboard-response","196","366906","0.0-4.0-1.0-3.22","vgwmyqvss6v1dqd","prime","5d02bcfe4f34fa00160c90e7","5f60e3c0a3b16e07647b2ff9","5f60edf962d5bf0169e48bb7","false","null","<div style=""align-items: center; display: flex; color: darkorange; font-size: 90px""><b>ø</b></div>","null","","","","forget_cue","","","","","","","","","","","","","","","",""
"html-keyboard-response","197","367609","0.0-4.0-1.0-0.23","vgwmyqvss6v1dqd","prime","5d02bcfe4f34fa00160c90e7","5f60e3c0a3b16e07647b2ff9","5f60edf962d5bf0169e48bb7","false","null","<span style=""color: black; font-size: 48px"">N + M</span>","null","","","","resp_prompt","","","","","","","","","","","","","","","",""
"categorize-image","198","368126","0.0-4.0-1.0-1.23","vgwmyqvss6v1dqd","prime","5d02bcfe4f34fa00160c90e7","5f60e3c0a3b16e07647b2ff9","5f60edf962d5bf0169e48bb7","true","511.6649999981746","./Stimuli/SelectedImages/SN/SN128.bmp","83","","","","test","true","N + M","83","switch","SN","SN128.bmp","forget","","72","3","prime1","left","","","",""
"html-keyboard-response","199","370128","0.0-4.0-1.0-3.23","vgwmyqvss6v1dqd","prime","5d02bcfe4f34fa00160c90e7","5f60e3c0a3b16e07647b2ff9","5f60edf962d5bf0169e48bb7","false","null","<div style=""align-items: center; display: flex; color: darkorange; font-size: 90px""><b>ø</b></div>","null","","","","forget_cue","","","","","","","","","","","","","","","",""
"html-keyboard-response","200","370831","0.0-4.0-1.0-0.24","vgwmyqvss6v1dqd","prime","5d02bcfe4f34fa00160c90e7","5f60e3c0a3b16e07647b2ff9","5f60edf962d5bf0169e48bb7","false","null","<span style=""color: black; font-size: 48px"">M + N</span>","null","","","","resp_prompt","","","","","","","","","","","","","","","",""
"categorize-image","201","371884","0.0-4.0-1.0-1.24","vgwmyqvss6v1dqd","prime","5d02bcfe4f34fa00160c90e7","5f60e3c0a3b16e07647b2ff9","5f60edf962d5bf0169e48bb7","true","1047.5900000019465","./Stimuli/SelectedImages/LM/LM51.bmp","83","","","","test","true","M + N","83","switch","LM","LM51.bmp","forget","","73","3","prime1","left","","","",""
"html-keyboard-response","202","373887","0.0-4.0-1.0-3.24","vgwmyqvss6v1dqd","prime","5d02bcfe4f34fa00160c90e7","5f60e3c0a3b16e07647b2ff9","5f60edf962d5bf0169e48bb7","false","null","<div style=""align-items: center; display: flex; color: darkorange; font-size: 90px""><b>ø</b></div>","null","","","","forget_cue","","","","","","","","","","","","","","","",""
"html-keyboard-response","203","374589","0.0-4.0-1.0-0.25","vgwmyqvss6v1dqd","prime","5d02bcfe4f34fa00160c90e7","5f60e3c0a3b16e07647b2ff9","5f60edf962d5bf0169e48bb7","false","null","<span style=""color: black; font-size: 48px"">N + M</span>","null","","","","resp_prompt","","","","","","","","","","","","","","","",""
"categorize-image","204","375283","0.0-4.0-1.0-1.25","vgwmyqvss6v1dqd","prime","5d02bcfe4f34fa00160c90e7","5f60e3c0a3b16e07647b2ff9","5f60edf962d5bf0169e48bb7","true","687.7749999985099","./Stimuli/SelectedImages/LM/LM157.bmp","76","","","","test","true","N + M","76","repetition","LM","LM157.bmp","remember","","74","3","prime1","right","","","",""
"html-keyboard-response","205","377286","0.0-4.0-1.0-3.25","vgwmyqvss6v1dqd","prime","5d02bcfe4f34fa00160c90e7","5f60e3c0a3b16e07647b2ff9","5f60edf962d5bf0169e48bb7","false","null","<div style=""align-items: center; display: flex; color: dodgerblue; font-size: 90px""><b>o</b></div>","null","","","","forget_cue","","","","","","","","","","","","","","","",""
"html-keyboard-response","206","377988","0.0-4.0-1.0-0.26","vgwmyqvss6v1dqd","prime","5d02bcfe4f34fa00160c90e7","5f60e3c0a3b16e07647b2ff9","5f60edf962d5bf0169e48bb7","false","null","<span style=""color: black; font-size: 48px"">N + M</span>","null","","","","resp_prompt","","","","","","","","","","","","","","","",""
"categorize-image","207","378780","0.0-4.0-1.0-1.26","vgwmyqvss6v1dqd","prime","5d02bcfe4f34fa00160c90e7","5f60e3c0a3b16e07647b2ff9","5f60edf962d5bf0169e48bb7","true","786.7200000036974","./Stimuli/SelectedImages/LN/LN149.bmp","83","","","","test","true","N + M","83","switch","LN","LN149.bmp","remember","","75","3","prime1","left","","","",""
"html-keyboard-response","208","380782","0.0-4.0-1.0-3.26","vgwmyqvss6v1dqd","prime","5d02bcfe4f34fa00160c90e7","5f60e3c0a3b16e07647b2ff9","5f60edf962d5bf0169e48bb7","false","null","<div style=""align-items: center; display: flex; color: dodgerblue; font-size: 90px""><b>o</b></div>","null","","","","forget_cue","","","","","","","","","","","","","","","",""
"html-keyboard-response","209","381484","0.0-4.0-1.0-0.27","vgwmyqvss6v1dqd","prime","5d02bcfe4f34fa00160c90e7","5f60e3c0a3b16e07647b2ff9","5f60edf962d5bf0169e48bb7","false","null","<span style=""color: black; font-size: 48px"">M + N</span>","null","","","","resp_prompt","","","","","","","","","","","","","","","",""
"categorize-image","210","382350","0.0-4.0-1.0-1.27","vgwmyqvss6v1dqd","prime","5d02bcfe4f34fa00160c90e7","5f60e3c0a3b16e07647b2ff9","5f60edf962d5bf0169e48bb7","true","860.4099999938626","./Stimuli/SelectedImages/LN/LN12.bmp","76","","","","test","true","M + N","76","repetition","LN","LN12.bmp","forget","","76","3","prime1","right","","","",""
"html-keyboard-response","211","384354","0.0-4.0-1.0-3.27","vgwmyqvss6v1dqd","prime","5d02bcfe4f34fa00160c90e7","5f60e3c0a3b16e07647b2ff9","5f60edf962d5bf0169e48bb7","false","null","<div style=""align-items: center; display: flex; color: darkorange; font-size: 90px""><b>ø</b></div>","null","","","","forget_cue","","","","","","","","","","","","","","","",""
"html-keyboard-response","212","385056","0.0-4.0-1.0-0.28","vgwmyqvss6v1dqd","prime","5d02bcfe4f34fa00160c90e7","5f60e3c0a3b16e07647b2ff9","5f60edf962d5bf0169e48bb7","false","null","<span style=""color: black; font-size: 48px"">M + N</span>","null","","","","resp_prompt","","","","","","","","","","","","","","","",""
"categorize-image","213","385771","0.0-4.0-1.0-1.28","vgwmyqvss6v1dqd","prime","5d02bcfe4f34fa00160c90e7","5f60e3c0a3b16e07647b2ff9","5f60edf962d5bf0169e48bb7","true","709.7049999865703","./Stimuli/SelectedImages/LN/LN128.bmp","76","","","","test","true","M + N","76","repetition","LN","LN128.bmp","forget","","77","3","prime1","right","","","",""
"html-keyboard-response","214","387775","0.0-4.0-1.0-3.28","vgwmyqvss6v1dqd","prime","5d02bcfe4f34fa00160c90e7","5f60e3c0a3b16e07647b2ff9","5f60edf962d5bf0169e48bb7","false","null","<div style=""align-items: center; display: flex; color: darkorange; font-size: 90px""><b>ø</b></div>","null","","","","forget_cue","","","","","","","","","","","","","","","",""
"html-keyboard-response","215","388477","0.0-4.0-1.0-0.29","vgwmyqvss6v1dqd","prime","5d02bcfe4f34fa00160c90e7","5f60e3c0a3b16e07647b2ff9","5f60edf962d5bf0169e48bb7","false","null","<span style=""color: black; font-size: 48px"">M + N</span>","null","","","","resp_prompt","","","","","","","","","","","","","","","",""
"categorize-image","216","389693","0.0-4.0-1.0-1.29","vgwmyqvss6v1dqd","prime","5d02bcfe4f34fa00160c90e7","5f60e3c0a3b16e07647b2ff9","5f60edf962d5bf0169e48bb7","true","1208.7150000152178","./Stimuli/SelectedImages/LM/LM100.bmp","83","","","","test","true","M + N","83","switch","LM","LM100.bmp","remember","","78","3","prime1","left","","","",""
"html-keyboard-response","217","391695","0.0-4.0-1.0-3.29","vgwmyqvss6v1dqd","prime","5d02bcfe4f34fa00160c90e7","5f60e3c0a3b16e07647b2ff9","5f60edf962d5bf0169e48bb7","false","null","<div style=""align-items: center; display: flex; color: dodgerblue; font-size: 90px""><b>o</b></div>","null","","","","forget_cue","","","","","","","","","","","","","","","",""
"html-keyboard-response","218","392423","0.0-4.0-1.0-0.30","vgwmyqvss6v1dqd","prime","5d02bcfe4f34fa00160c90e7","5f60e3c0a3b16e07647b2ff9","5f60edf962d5bf0169e48bb7","false","null","<span style=""color: black; font-size: 48px"">N + M</span>","null","","","","resp_prompt","","","","","","","","","","","","","","","",""
"categorize-image","219","393549","0.0-4.0-1.0-1.30","vgwmyqvss6v1dqd","prime","5d02bcfe4f34fa00160c90e7","5f60e3c0a3b16e07647b2ff9","5f60edf962d5bf0169e48bb7","true","1118.224999983795","./Stimuli/SelectedImages/LM/LM75.bmp","76","","","","test","true","N + M","76","repetition","LM","LM75.bmp","forget","","79","3","prime1","right","","","",""
"html-keyboard-response","220","395552","0.0-4.0-1.0-3.30","vgwmyqvss6v1dqd","prime","5d02bcfe4f34fa00160c90e7","5f60e3c0a3b16e07647b2ff9","5f60edf962d5bf0169e48bb7","false","null","<div style=""align-items: center; display: flex; color: darkorange; font-size: 90px""><b>ø</b></div>","null","","","","forget_cue","","","","","","","","","","","","","","","",""
"html-keyboard-response","221","396253","0.0-4.0-1.0-0.31","vgwmyqvss6v1dqd","prime","5d02bcfe4f34fa00160c90e7","5f60e3c0a3b16e07647b2ff9","5f60edf962d5bf0169e48bb7","false","null","<span style=""color: black; font-size: 48px"">N + M</span>","null","","","","resp_prompt","","","","","","","","","","","","","","","",""
"categorize-image","222","396877","0.0-4.0-1.0-1.31","vgwmyqvss6v1dqd","prime","5d02bcfe4f34fa00160c90e7","5f60e3c0a3b16e07647b2ff9","5f60edf962d5bf0169e48bb7","true","617.3100000014529","./Stimuli/SelectedImages/SM/SM205.bmp","76","","","","test","true","N + M","76","repetition","SM","SM205.bmp","remember","","80","3","prime1","right","","","",""
"html-keyboard-response","223","398880","0.0-4.0-1.0-3.31","vgwmyqvss6v1dqd","prime","5d02bcfe4f34fa00160c90e7","5f60e3c0a3b16e07647b2ff9","5f60edf962d5bf0169e48bb7","false","null","<div style=""align-items: center; display: flex; color: dodgerblue; font-size: 90px""><b>o</b></div>","null","","","","forget_cue","","","","","","","","","","","","","","","",""
"html-keyboard-response","224","399582","0.0-4.0-1.0-0.32","vgwmyqvss6v1dqd","prime","5d02bcfe4f34fa00160c90e7","5f60e3c0a3b16e07647b2ff9","5f60edf962d5bf0169e48bb7","false","null","<span style=""color: black; font-size: 48px"">N + M</span>","null","","","","resp_prompt","","","","","","","","","","","","","","","",""
"categorize-image","225","400275","0.0-4.0-1.0-1.32","vgwmyqvss6v1dqd","prime","5d02bcfe4f34fa00160c90e7","5f60e3c0a3b16e07647b2ff9","5f60edf962d5bf0169e48bb7","true","688.029999990249","./Stimuli/SelectedImages/SM/SM207.bmp","76","","","","test","true","N + M","76","switch","SM","SM207.bmp","remember","","81","3","prime1","right","","","",""
"html-keyboard-response","226","402278","0.0-4.0-1.0-3.32","vgwmyqvss6v1dqd","prime","5d02bcfe4f34fa00160c90e7","5f60e3c0a3b16e07647b2ff9","5f60edf962d5bf0169e48bb7","false","null","<div style=""align-items: center; display: flex; color: dodgerblue; font-size: 90px""><b>o</b></div>","null","","","","forget_cue","","","","","","","","","","","","","","","",""
"html-keyboard-response","227","402980","0.0-4.0-1.0-0.33","vgwmyqvss6v1dqd","prime","5d02bcfe4f34fa00160c90e7","5f60e3c0a3b16e07647b2ff9","5f60edf962d5bf0169e48bb7","false","null","<span style=""color: black; font-size: 48px"">N + M</span>","null","","","","resp_prompt","","","","","","","","","","","","","","","",""
"categorize-image","228","403614","0.0-4.0-1.0-1.33","vgwmyqvss6v1dqd","prime","5d02bcfe4f34fa00160c90e7","5f60e3c0a3b16e07647b2ff9","5f60edf962d5bf0169e48bb7","true","627.4299999931827","./Stimuli/SelectedImages/SN/SN18.bmp","83","","","","test","true","N + M","83","switch","SN","SN18.bmp","remember","","82","3","prime1","left","","","",""
"html-keyboard-response","229","405617","0.0-4.0-1.0-3.33","vgwmyqvss6v1dqd","prime","5d02bcfe4f34fa00160c90e7","5f60e3c0a3b16e07647b2ff9","5f60edf962d5bf0169e48bb7","false","null","<div style=""align-items: center; display: flex; color: dodgerblue; font-size: 90px""><b>o</b></div>","null","","","","forget_cue","","","","","","","","","","","","","","","",""
"html-keyboard-response","230","406319","0.0-4.0-1.0-0.34","vgwmyqvss6v1dqd","prime","5d02bcfe4f34fa00160c90e7","5f60e3c0a3b16e07647b2ff9","5f60edf962d5bf0169e48bb7","false","null","<span style=""color: black; font-size: 48px"">N + M</span>","null","","","","resp_prompt","","","","","","","","","","","","","","","",""
"categorize-image","231","407122","0.0-4.0-1.0-1.34","vgwmyqvss6v1dqd","prime","5d02bcfe4f34fa00160c90e7","5f60e3c0a3b16e07647b2ff9","5f60edf962d5bf0169e48bb7","true","796.7699999862816","./Stimuli/SelectedImages/LM/LM58.bmp","76","","","","test","true","N + M","76","switch","LM","LM58.bmp","forget","","83","3","prime1","right","","","",""
"html-keyboard-response","232","409127","0.0-4.0-1.0-3.34","vgwmyqvss6v1dqd","prime","5d02bcfe4f34fa00160c90e7","5f60e3c0a3b16e07647b2ff9","5f60edf962d5bf0169e48bb7","false","null","<div style=""align-items: center; display: flex; color: darkorange; font-size: 90px""><b>ø</b></div>","null","","","","forget_cue","","","","","","","","","","","","","","","",""
"html-keyboard-response","233","409828","0.0-4.0-1.0-0.35","vgwmyqvss6v1dqd","prime","5d02bcfe4f34fa00160c90e7","5f60e3c0a3b16e07647b2ff9","5f60edf962d5bf0169e48bb7","false","null","<span style=""color: black; font-size: 48px"">N + M</span>","null","","","","resp_prompt","","","","","","","","","","","","","","","",""
"categorize-image","234","410416","0.0-4.0-1.0-1.35","vgwmyqvss6v1dqd","prime","5d02bcfe4f34fa00160c90e7","5f60e3c0a3b16e07647b2ff9","5f60edf962d5bf0169e48bb7","true","584.115000005113","./Stimuli/SelectedImages/LM/LM150.bmp","76","","","","test","true","N + M","76","switch","LM","LM150.bmp","forget","","84","3","prime1","right","","","",""
"html-keyboard-response","235","412418","0.0-4.0-1.0-3.35","vgwmyqvss6v1dqd","prime","5d02bcfe4f34fa00160c90e7","5f60e3c0a3b16e07647b2ff9","5f60edf962d5bf0169e48bb7","false","null","<div style=""align-items: center; display: flex; color: darkorange; font-size: 90px""><b>ø</b></div>","null","","","","forget_cue","","","","","","","","","","","","","","","",""
"html-keyboard-response","236","413120","0.0-4.0-1.0-0.36","vgwmyqvss6v1dqd","prime","5d02bcfe4f34fa00160c90e7","5f60e3c0a3b16e07647b2ff9","5f60edf962d5bf0169e48bb7","false","null","<span style=""color: black; font-size: 48px"">N + M</span>","null","","","","resp_prompt","","","","","","","","","","","","","","","",""
"categorize-image","237","413831","0.0-4.0-1.0-1.36","vgwmyqvss6v1dqd","prime","5d02bcfe4f34fa00160c90e7","5f60e3c0a3b16e07647b2ff9","5f60edf962d5bf0169e48bb7","true","705.6649999867659","./Stimuli/SelectedImages/LM/LM216.bmp","76","","","","test","true","N + M","76","switch","LM","LM216.bmp","remember","","85","3","prime1","right","","","",""
"html-keyboard-response","238","415833","0.0-4.0-1.0-3.36","vgwmyqvss6v1dqd","prime","5d02bcfe4f34fa00160c90e7","5f60e3c0a3b16e07647b2ff9","5f60edf962d5bf0169e48bb7","false","null","<div style=""align-items: center; display: flex; color: dodgerblue; font-size: 90px""><b>o</b></div>","null","","","","forget_cue","","","","","","","","","","","","","","","",""
"html-keyboard-response","239","416536","0.0-4.0-1.0-0.37","vgwmyqvss6v1dqd","prime","5d02bcfe4f34fa00160c90e7","5f60e3c0a3b16e07647b2ff9","5f60edf962d5bf0169e48bb7","false","null","<span style=""color: black; font-size: 48px"">M + N</span>","null","","","","resp_prompt","","","","","","","","","","","","","","","",""
"categorize-image","240","417020","0.0-4.0-1.0-1.37","vgwmyqvss6v1dqd","prime","5d02bcfe4f34fa00160c90e7","5f60e3c0a3b16e07647b2ff9","5f60edf962d5bf0169e48bb7","true","478.4349999972619","./Stimuli/SelectedImages/SM/SM106.bmp","83","","","","test","true","M + N","83","repetition","SM","SM106.bmp","remember","","86","3","prime1","left","","","",""
"html-keyboard-response","241","419025","0.0-4.0-1.0-3.37","vgwmyqvss6v1dqd","prime","5d02bcfe4f34fa00160c90e7","5f60e3c0a3b16e07647b2ff9","5f60edf962d5bf0169e48bb7","false","null","<div style=""align-items: center; display: flex; color: dodgerblue; font-size: 90px""><b>o</b></div>","null","","","","forget_cue","","","","","","","","","","","","","","","",""
"html-keyboard-response","242","419726","0.0-4.0-1.0-0.38","vgwmyqvss6v1dqd","prime","5d02bcfe4f34fa00160c90e7","5f60e3c0a3b16e07647b2ff9","5f60edf962d5bf0169e48bb7","false","null","<span style=""color: black; font-size: 48px"">M + N</span>","null","","","","resp_prompt","","","","","","","","","","","","","","","",""
"categorize-image","243","420402","0.0-4.0-1.0-1.38","vgwmyqvss6v1dqd","prime","5d02bcfe4f34fa00160c90e7","5f60e3c0a3b16e07647b2ff9","5f60edf962d5bf0169e48bb7","true","670.2550000045449","./Stimuli/SelectedImages/LN/LN92.bmp","76","","","","test","true","M + N","76","switch","LN","LN92.bmp","remember","","87","3","prime1","right","","","",""
"html-keyboard-response","244","422405","0.0-4.0-1.0-3.38","vgwmyqvss6v1dqd","prime","5d02bcfe4f34fa00160c90e7","5f60e3c0a3b16e07647b2ff9","5f60edf962d5bf0169e48bb7","false","null","<div style=""align-items: center; display: flex; color: dodgerblue; font-size: 90px""><b>o</b></div>","null","","","","forget_cue","","","","","","","","","","","","","","","",""
"html-keyboard-response","245","423107","0.0-4.0-1.0-0.39","vgwmyqvss6v1dqd","prime","5d02bcfe4f34fa00160c90e7","5f60e3c0a3b16e07647b2ff9","5f60edf962d5bf0169e48bb7","false","null","<span style=""color: black; font-size: 48px"">N + M</span>","null","","","","resp_prompt","","","","","","","","","","","","","","","",""
"categorize-image","246","423971","0.0-4.0-1.0-1.39","vgwmyqvss6v1dqd","prime","5d02bcfe4f34fa00160c90e7","5f60e3c0a3b16e07647b2ff9","5f60edf962d5bf0169e48bb7","true","858.2949999836273","./Stimuli/SelectedImages/SN/SN93.bmp","83","","","","test","true","N + M","83","repetition","SN","SN93.bmp","forget","","88","3","prime1","left","","","",""
"html-keyboard-response","247","425974","0.0-4.0-1.0-3.39","vgwmyqvss6v1dqd","prime","5d02bcfe4f34fa00160c90e7","5f60e3c0a3b16e07647b2ff9","5f60edf962d5bf0169e48bb7","false","null","<div style=""align-items: center; display: flex; color: darkorange; font-size: 90px""><b>ø</b></div>","null","","","","forget_cue","","","","","","","","","","","","","","","",""
"html-keyboard-response","248","426677","0.0-4.0-1.0-0.40","vgwmyqvss6v1dqd","prime","5d02bcfe4f34fa00160c90e7","5f60e3c0a3b16e07647b2ff9","5f60edf962d5bf0169e48bb7","false","null","<span style=""color: black; font-size: 48px"">N + M</span>","null","","","","resp_prompt","","","","","","","","","","","","","","","",""
"categorize-image","249","427576","0.0-4.0-1.0-1.40","vgwmyqvss6v1dqd","prime","5d02bcfe4f34fa00160c90e7","5f60e3c0a3b16e07647b2ff9","5f60edf962d5bf0169e48bb7","true","892.6800000190269","./Stimuli/SelectedImages/LN/LN101.bmp","83","","","","test","true","N + M","83","repetition","LN","LN101.bmp","remember","","89","3","prime1","left","","","",""
"html-keyboard-response","250","429579","0.0-4.0-1.0-3.40","vgwmyqvss6v1dqd","prime","5d02bcfe4f34fa00160c90e7","5f60e3c0a3b16e07647b2ff9","5f60edf962d5bf0169e48bb7","false","null","<div style=""align-items: center; display: flex; color: dodgerblue; font-size: 90px""><b>o</b></div>","null","","","","forget_cue","","","","","","","","","","","","","","","",""
"html-keyboard-response","251","430281","0.0-4.0-1.0-0.41","vgwmyqvss6v1dqd","prime","5d02bcfe4f34fa00160c90e7","5f60e3c0a3b16e07647b2ff9","5f60edf962d5bf0169e48bb7","false","null","<span style=""color: black; font-size: 48px"">M + N</span>","null","","","","resp_prompt","","","","","","","","","","","","","","","",""
"categorize-image","252","431171","0.0-4.0-1.0-1.41","vgwmyqvss6v1dqd","prime","5d02bcfe4f34fa00160c90e7","5f60e3c0a3b16e07647b2ff9","5f60edf962d5bf0169e48bb7","true","883.5749999852851","./Stimuli/SelectedImages/SM/SM184.bmp","83","","","","test","true","M + N","83","switch","SM","SM184.bmp","forget","","90","3","prime1","left","","","",""
"html-keyboard-response","253","433173","0.0-4.0-1.0-3.41","vgwmyqvss6v1dqd","prime","5d02bcfe4f34fa00160c90e7","5f60e3c0a3b16e07647b2ff9","5f60edf962d5bf0169e48bb7","false","null","<div style=""align-items: center; display: flex; color: darkorange; font-size: 90px""><b>ø</b></div>","null","","","","forget_cue","","","","","","","","","","","","","","","",""
