"trial_type","trial_index","time_elapsed","internal_node_id","subject","exp_part","prolific_PID","study_ID","session_ID","use","rt","stimulus","key_press","button_pressed","responses","question_order","trial_part","correct","resp_map","correct_resp","probe_condition","category","image","forget_condition","list","trial_num","block_num","block","response","test_part","n_span","sequence","num_spaces"
"pavlovia","0","7","0.0-0.0","z6ww2gz36c6nn2u","","5f2b3b627b4ac556309143ff","5f60e3c0a3b16e07647b2ff9","5f60eab38a98270008d7c3a4","false","","","","","","","","","","","","","","","","","","","","","","",""
"html-keyboard-response","1","22699","0.0-1.0-0.0-0.0","z6ww2gz36c6nn2u","welcome","5f2b3b627b4ac556309143ff","5f60e3c0a3b16e07647b2ff9","5f60eab38a98270008d7c3a4","false","22688.934999983758","<div align=left>Dear participant, <br> thank you for participating in an online study of the Cognition, Action, and Sustainability Unit of the University of Freiburg! <br> <br>The aim of this study is to examine our ability to remember previously learned information. <br>Our goal is to find out, whether our memory improves, when we only remember information that is relevant to us. <br>The experiment will take about 35 minutes to complete. <br> <br>Please, note that you can only participate in this study if you are using a device with a keyboard (PC, Laptop etc.) <br>and not if you are using a mobile device such as a tablet or smartphone.<br> <br>Press 'SPACE' to proceed to the experiment. </div>","32","","","","","","","","","","","","","","","","","","","",""
"html-keyboard-response","2","48495","0.0-1.0-0.0-1.0","z6ww2gz36c6nn2u","welcome","5f2b3b627b4ac556309143ff","5f60e3c0a3b16e07647b2ff9","5f60eab38a98270008d7c3a4","false","25793.989999918267","<div align=left><strong> Time Course of this experiment: </strong> <br><br> <strong> 1.</strong>  First, please fill in some information regarding your demographic data. <br><br> <strong> 2.</strong>  Next, your task will be to classify everyday objects. <br>In addition, you will be asked to remember certain objects and recall them later. <br>Working on these tasks requires your undivided attention and concentration.<br>It is therefore essential that you eliminate any sources of distraction in your  <br>environment and ensure that you will not be disturbed. <br><br><strong> 3.</strong>  At the end of the experiment, you will be asked to answer a few additional questions. <br> <br><strong> Important:</strong> After finishing the experiment, only close the browser window <br> by clicking on the 'end the experiment'-button when you are asked to do so. <br>Closing the browser window prematurely will make the allocation of your participation credit impossible. <br><br> Press 'SPACE' to start the experiment. </div>","32","","","","","","","","","","","","","","","","","","","",""
"html-button-response","3","63861","0.0-1.0-0.0-2.0","z6ww2gz36c6nn2u","welcome","5f2b3b627b4ac556309143ff","5f60e3c0a3b16e07647b2ff9","5f60eab38a98270008d7c3a4","true","15364.750000066124","<div align=left><strong> Informed consent </strong>  <br>The aim of our research is to better understand human behavior and mental processes. <br>In the following study your behavior (e.g. choices, reaction times) will be studied. <br> <br><strong> Voluntariness and Anonymity </strong> <br>Your participation in this study is  <strong> voluntary</strong>.<br>You may withdraw your consent to participate at any time without providing a reason for doing so and without fear of prejudice. <br><br>As no personal data will be collected, <strong>your data and your person cannot be connected after data collection</strong> – the data-set is anonymous. <br>Respectively, deletion of your data will not be possible after data collection has been completed, as we cannot retrace your data-set.<br>The results and anonymized data collected in this study will be published as a scientific publication. <br>This will happen in an <strong>anonymized format</strong>, so that no data can be traced back to a specific person. <br> <br>The anonymized data of this study will be made available to other researchers and/or in a data archive on the Internet as a means of transparency and to enable subsequent re-use. By doing so, this study follows the recommendations of the Deutsche Forschungsgemeinschaft (DFG, German Research Foundation) and Deutsche Gesellschaft für Psychologie (DGPS, German Psychological Society) regarding quality assurance in research.<br>If you have any questions now or after the experiment, please contact our team (experiments@cs.uni-freiburg.de).<br><br><br>I hereby declare, that I understand the above described conditions of participation and I agree to participate under these conditions. <br><br> </div>","","0","","","","","","","","","","","","","","","","","","",""
"html-keyboard-response","4","116307","0.0-1.0-0.0-3.0","z6ww2gz36c6nn2u","welcome","5f2b3b627b4ac556309143ff","5f60e3c0a3b16e07647b2ff9","5f60eab38a98270008d7c3a4","false","52444.37499996275","<div align=left><strong> General information concerning the experiment </strong>  <br> <br>Please follow the instructions:<ol> <li><strong> Do not leave this tab (your browser window) during the experiment and do not reload this tab! </strong>  <br>If you do switch tabs/windows during the experiment (to check your mail or visit another website, for example), <br>the experiment will end automatically and you will <strong>not receive credit</strong> for your participation. <br>Repeated participation or resumption of the experiment is impossible.</li> <br><li>Please close all other programs for the duration of your participation. </li> <br><li>Please mute or turn off your phone and put it out of your reach. </li> <br><li>Please also take off any disturbing accessories (such as wristwatches, bracelets, etc.). </li> <br><li>If you have music playing in the background, please turn it off now. </li> <br></ol>Thank you! <br>Press 'SPACE' to continue. </div>","32","","","","","","","","","","","","","","","","","","","",""
"survey-text","5","120520","0.0-1.0-1.0-0.0","z6ww2gz36c6nn2u","demographics","5f2b3b627b4ac556309143ff","5f60e3c0a3b16e07647b2ff9","5f60eab38a98270008d7c3a4","true","4205.270000034943","","","","{""age"":""25""}","","","","","","","","","","","","","","","","","",""
"survey-multi-choice","6","151149","0.0-1.0-1.0-1.0","z6ww2gz36c6nn2u","demographics","5f2b3b627b4ac556309143ff","5f60e3c0a3b16e07647b2ff9","5f60eab38a98270008d7c3a4","true","30623.59499989543","","","","{""gender"":""female"",""school"":""high school"",""education"":""Completed university degree or equivalent""}","[0,1,2]","","","","","","","","","","","","","","","","",""
"html-keyboard-response","7","168326","0.0-1.0-2.0","z6ww2gz36c6nn2u","instructions","5f2b3b627b4ac556309143ff","5f60e3c0a3b16e07647b2ff9","5f60eab38a98270008d7c3a4","false","17170.27500004042","<div align=left> The experiment is now about to start: <br> <br>In the following part, you will be presented pictures of everyday objects. <br>Your first task is to <strong>classify these objects. </strong> <br> <br> You will classify them either as mechanical or non-mechanical objects. <br> <br>Objects that include any kind of technical mechanism (for example, wheels, switches, levers, <br> electronic components) fall under the category of <strong>mechanical</strong> objects. <br>Only objects without any kind of technical mechanism should be classified as <strong>non-mechanical</strong>. <br><br>Press 'SPACE' to continue. </div>","32","","","","","","","","","","","","","","","","","","","",""
"html-keyboard-response","8","249404","0.0-2.0-0.0","z6ww2gz36c6nn2u","instructions","5f2b3b627b4ac556309143ff","5f60e3c0a3b16e07647b2ff9","5f60eab38a98270008d7c3a4","false","81077.18000002205","<div align=justify>You will classify the objects using the <strong>'S'</strong> and the <strong>'L'</strong> keys on your keyboard.<br>For doing so, please place your <strong>left index finger</strong> on the <strong>'S'</strong> key and place your <strong>right index finger</strong> on the <strong>'L'</strong> key. <br><br> Each trial starts with an instruction, indicating which key ('S'/'L') you need to press to classify <br>the object as mechanical (letter M) or non-mechanical (letter N).<br>The instruction <strong>M + N</strong> indicates that, in the current trial, by pressing the left key ('S') you classify the displayed object as mechanical (M) <br> and by pressing the right key ('L') you classify the object as non-mechanical (N). <br>The instruction <strong>N + M</strong> on the other hand indicates that by pressing the left key ('S') you classify the displayed object as non-mechanical (N) <br> and by pressing the right key ('L') you classify the object as mechanical (M). <br><br>Please press the key corresponding to the correct classification as fast as possible as soon as the object is displayed and try to avoid making mistakes.<br>If you do not respond within a 2 second window, a corresponding feedback will be displayed and the next trial will start.<br> The experiment is divided into multiple blocks to give you the opportunity to take a break after each block. <br>First, you can now practice this task. <br><br>Please place your <strong>LEFT INDEX FINGER</strong> on the 'S' key and your <strong>RIGHT INDEX FINGER</strong> on the 'L' key now. <br><br>Press SPACE to continue.</div>","32","","","","","","","","","","","","","","","","","","","",""
"html-keyboard-response","9","266020","0.0-2.0-1.0","z6ww2gz36c6nn2u","instructions","5f2b3b627b4ac556309143ff","5f60e3c0a3b16e07647b2ff9","5f60eab38a98270008d7c3a4","false","16614.244999946095","<div align=left> You will now have time to practice this task.<br><br>Remember: <br> <br><li>Please place your index fingers on the <strong>'S'</strong> and <strong>'L'</strong> keys <br>to respond as fast and accurately as possible.</li><li>Every picture can be classified as either mechanical or non-mechanical.</li><li>If you do not respond in time or commit an error, you will receive a corresponding feedback. </li><li> Please try to respond as <strong> fast </strong> and as <strong> accurately as possible </strong> .<br><li>To ensure optimal results, please minimize distractions and stay focused. </li><br><br>Press SPACE to continue.</div>","32","","","","","","","","","","","","","","","","","","","",""
"html-keyboard-response","10","266725","0.0-2.0-2.0-0.0","z6ww2gz36c6nn2u","practice_no_cue","5f2b3b627b4ac556309143ff","5f60e3c0a3b16e07647b2ff9","5f60eab38a98270008d7c3a4","false","null","<span style=""color: black; font-size: 48px"">N + M</span>","null","","","","resp_prompt","","","","","","","","","","","","","","","",""
"categorize-image","11","269110","0.0-2.0-2.0-1.0","z6ww2gz36c6nn2u","practice_no_cue","5f2b3b627b4ac556309143ff","5f60e3c0a3b16e07647b2ff9","5f60eab38a98270008d7c3a4","true","1878.8800000911579","./Stimuli/ImagesPractice/LM55.jpg","76","","","","test","true","N + M","76","","LM","LM55.jpg","forget","old","1","1","start","right","","","",""
"html-keyboard-response","12","269812","0.0-2.0-2.0-0.1","z6ww2gz36c6nn2u","practice_no_cue","5f2b3b627b4ac556309143ff","5f60e3c0a3b16e07647b2ff9","5f60eab38a98270008d7c3a4","false","null","<span style=""color: black; font-size: 48px"">M + N</span>","null","","","","resp_prompt","","","","","","","","","","","","","","","",""
"categorize-image","13","271775","0.0-2.0-2.0-1.1","z6ww2gz36c6nn2u","practice_no_cue","5f2b3b627b4ac556309143ff","5f60e3c0a3b16e07647b2ff9","5f60eab38a98270008d7c3a4","true","1459.6650000894442","./Stimuli/ImagesPractice/SM61.jpg","76","","","","test","false","M + N","83","","SM","SM61.jpg","remember","old","2","1","start","right","","","",""
"html-keyboard-response","14","272481","0.0-2.0-2.0-0.2","z6ww2gz36c6nn2u","practice_no_cue","5f2b3b627b4ac556309143ff","5f60e3c0a3b16e07647b2ff9","5f60eab38a98270008d7c3a4","false","null","<span style=""color: black; font-size: 48px"">M + N</span>","null","","","","resp_prompt","","","","","","","","","","","","","","","",""
"categorize-image","15","274130","0.0-2.0-2.0-1.2","z6ww2gz36c6nn2u","practice_no_cue","5f2b3b627b4ac556309143ff","5f60e3c0a3b16e07647b2ff9","5f60eab38a98270008d7c3a4","true","1146.3249999796972","./Stimuli/ImagesPractice/SN205.jpg","76","","","","test","true","M + N","76","","SN","SN205.jpg","forget","old","3","1","start","right","","","",""
"html-keyboard-response","16","274832","0.0-2.0-2.0-0.3","z6ww2gz36c6nn2u","practice_no_cue","5f2b3b627b4ac556309143ff","5f60e3c0a3b16e07647b2ff9","5f60eab38a98270008d7c3a4","false","null","<span style=""color: black; font-size: 48px"">M + N</span>","null","","","","resp_prompt","","","","","","","","","","","","","","","",""
"categorize-image","17","276788","0.0-2.0-2.0-1.3","z6ww2gz36c6nn2u","practice_no_cue","5f2b3b627b4ac556309143ff","5f60e3c0a3b16e07647b2ff9","5f60eab38a98270008d7c3a4","true","1453.9950001053512","./Stimuli/ImagesPractice/LM147.jpg","83","","","","test","true","M + N","83","","LM","LM147.jpg","remember","old","4","1","start","left","","","",""
"html-keyboard-response","18","277490","0.0-2.0-2.0-0.4","z6ww2gz36c6nn2u","practice_no_cue","5f2b3b627b4ac556309143ff","5f60e3c0a3b16e07647b2ff9","5f60eab38a98270008d7c3a4","false","null","<span style=""color: black; font-size: 48px"">N + M</span>","null","","","","resp_prompt","","","","","","","","","","","","","","","",""
"categorize-image","19","279007","0.0-2.0-2.0-1.4","z6ww2gz36c6nn2u","practice_no_cue","5f2b3b627b4ac556309143ff","5f60e3c0a3b16e07647b2ff9","5f60eab38a98270008d7c3a4","true","1015.1949999853969","./Stimuli/ImagesPractice/LM143.jpg","76","","","","test","true","N + M","76","","LM","LM143.jpg","forget","old","5","1","start","right","","","",""
"html-keyboard-response","20","279708","0.0-2.0-2.0-0.5","z6ww2gz36c6nn2u","practice_no_cue","5f2b3b627b4ac556309143ff","5f60e3c0a3b16e07647b2ff9","5f60eab38a98270008d7c3a4","false","null","<span style=""color: black; font-size: 48px"">N + M</span>","null","","","","resp_prompt","","","","","","","","","","","","","","","",""
"categorize-image","21","281032","0.0-2.0-2.0-1.5","z6ww2gz36c6nn2u","practice_no_cue","5f2b3b627b4ac556309143ff","5f60e3c0a3b16e07647b2ff9","5f60eab38a98270008d7c3a4","true","821.2049999274313","./Stimuli/ImagesPractice/LM230.jpg","76","","","","test","true","N + M","76","","LM","LM230.jpg","remember","old","6","1","start","right","","","",""
"html-keyboard-response","22","281737","0.0-2.0-2.0-0.6","z6ww2gz36c6nn2u","practice_no_cue","5f2b3b627b4ac556309143ff","5f60e3c0a3b16e07647b2ff9","5f60eab38a98270008d7c3a4","false","null","<span style=""color: black; font-size: 48px"">N + M</span>","null","","","","resp_prompt","","","","","","","","","","","","","","","",""
"categorize-image","23","283311","0.0-2.0-2.0-1.6","z6ww2gz36c6nn2u","practice_no_cue","5f2b3b627b4ac556309143ff","5f60e3c0a3b16e07647b2ff9","5f60eab38a98270008d7c3a4","true","1068.3300000382587","./Stimuli/ImagesPractice/LM224.jpg","76","","","","test","true","N + M","76","","LM","LM224.jpg","forget","old","7","1","start","right","","","",""
"html-keyboard-response","24","284018","0.0-2.0-2.0-0.7","z6ww2gz36c6nn2u","practice_no_cue","5f2b3b627b4ac556309143ff","5f60e3c0a3b16e07647b2ff9","5f60eab38a98270008d7c3a4","false","null","<span style=""color: black; font-size: 48px"">M + N</span>","null","","","","resp_prompt","","","","","","","","","","","","","","","",""
"categorize-image","25","285765","0.0-2.0-2.0-1.7","z6ww2gz36c6nn2u","practice_no_cue","5f2b3b627b4ac556309143ff","5f60e3c0a3b16e07647b2ff9","5f60eab38a98270008d7c3a4","true","1244.910000008531","./Stimuli/ImagesPractice/LN15.jpg","76","","","","test","true","M + N","76","","LN","LN15.jpg","forget","old","8","1","start","right","","","",""
"html-keyboard-response","26","286473","0.0-2.0-2.0-0.8","z6ww2gz36c6nn2u","practice_no_cue","5f2b3b627b4ac556309143ff","5f60e3c0a3b16e07647b2ff9","5f60eab38a98270008d7c3a4","false","null","<span style=""color: black; font-size: 48px"">M + N</span>","null","","","","resp_prompt","","","","","","","","","","","","","","","",""
"categorize-image","27","287751","0.0-2.0-2.0-1.8","z6ww2gz36c6nn2u","practice_no_cue","5f2b3b627b4ac556309143ff","5f60e3c0a3b16e07647b2ff9","5f60eab38a98270008d7c3a4","true","775.495000067167","./Stimuli/ImagesPractice/SM98.jpg","83","","","","test","true","M + N","83","","SM","SM98.jpg","forget","old","9","1","start","left","","","",""
"html-keyboard-response","28","288452","0.0-2.0-2.0-0.9","z6ww2gz36c6nn2u","practice_no_cue","5f2b3b627b4ac556309143ff","5f60e3c0a3b16e07647b2ff9","5f60eab38a98270008d7c3a4","false","null","<span style=""color: black; font-size: 48px"">N + M</span>","null","","","","resp_prompt","","","","","","","","","","","","","","","",""
"categorize-image","29","289774","0.0-2.0-2.0-1.9","z6ww2gz36c6nn2u","practice_no_cue","5f2b3b627b4ac556309143ff","5f60e3c0a3b16e07647b2ff9","5f60eab38a98270008d7c3a4","true","818.8649999210611","./Stimuli/ImagesPractice/SN220.jpg","83","","","","test","true","N + M","83","","SN","SN220.jpg","remember","old","10","1","start","left","","","",""
"html-keyboard-response","30","290476","0.0-2.0-2.0-0.10","z6ww2gz36c6nn2u","practice_no_cue","5f2b3b627b4ac556309143ff","5f60e3c0a3b16e07647b2ff9","5f60eab38a98270008d7c3a4","false","null","<span style=""color: black; font-size: 48px"">M + N</span>","null","","","","resp_prompt","","","","","","","","","","","","","","","",""
"categorize-image","31","292022","0.0-2.0-2.0-1.10","z6ww2gz36c6nn2u","practice_no_cue","5f2b3b627b4ac556309143ff","5f60e3c0a3b16e07647b2ff9","5f60eab38a98270008d7c3a4","true","1044.2399999592453","./Stimuli/ImagesPractice/LN72.jpg","76","","","","test","true","M + N","76","","LN","LN72.jpg","forget","old","11","1","start","right","","","",""
"html-keyboard-response","32","292728","0.0-2.0-2.0-0.11","z6ww2gz36c6nn2u","practice_no_cue","5f2b3b627b4ac556309143ff","5f60e3c0a3b16e07647b2ff9","5f60eab38a98270008d7c3a4","false","null","<span style=""color: black; font-size: 48px"">N + M</span>","null","","","","resp_prompt","","","","","","","","","","","","","","","",""
"categorize-image","33","293920","0.0-2.0-2.0-1.11","z6ww2gz36c6nn2u","practice_no_cue","5f2b3b627b4ac556309143ff","5f60e3c0a3b16e07647b2ff9","5f60eab38a98270008d7c3a4","true","690.8200000179932","./Stimuli/ImagesPractice/LN17.jpg","83","","","","test","true","N + M","83","","LN","LN17.jpg","remember","old","12","1","start","left","","","",""
"html-keyboard-response","34","294622","0.0-2.0-2.0-0.12","z6ww2gz36c6nn2u","practice_no_cue","5f2b3b627b4ac556309143ff","5f60e3c0a3b16e07647b2ff9","5f60eab38a98270008d7c3a4","false","null","<span style=""color: black; font-size: 48px"">N + M</span>","null","","","","resp_prompt","","","","","","","","","","","","","","","",""
"categorize-image","35","296105","0.0-2.0-2.0-1.12","z6ww2gz36c6nn2u","practice_no_cue","5f2b3b627b4ac556309143ff","5f60e3c0a3b16e07647b2ff9","5f60eab38a98270008d7c3a4","true","980.3349999710917","./Stimuli/ImagesPractice/SN221.jpg","83","","","","test","true","N + M","83","","SN","SN221.jpg","forget","old","13","1","start","left","","","",""
"html-keyboard-response","36","296806","0.0-2.0-2.0-0.13","z6ww2gz36c6nn2u","practice_no_cue","5f2b3b627b4ac556309143ff","5f60e3c0a3b16e07647b2ff9","5f60eab38a98270008d7c3a4","false","null","<span style=""color: black; font-size: 48px"">N + M</span>","null","","","","resp_prompt","","","","","","","","","","","","","","","",""
"categorize-image","37","298493","0.0-2.0-2.0-1.13","z6ww2gz36c6nn2u","practice_no_cue","5f2b3b627b4ac556309143ff","5f60e3c0a3b16e07647b2ff9","5f60eab38a98270008d7c3a4","true","1184.6749999094754","./Stimuli/ImagesPractice/LN109.jpg","76","","","","test","false","N + M","83","","LN","LN109.jpg","remember","old","14","1","start","right","","","",""
"html-keyboard-response","38","299195","0.0-2.0-2.0-0.14","z6ww2gz36c6nn2u","practice_no_cue","5f2b3b627b4ac556309143ff","5f60e3c0a3b16e07647b2ff9","5f60eab38a98270008d7c3a4","false","null","<span style=""color: black; font-size: 48px"">M + N</span>","null","","","","resp_prompt","","","","","","","","","","","","","","","",""
"categorize-image","39","300529","0.0-2.0-2.0-1.14","z6ww2gz36c6nn2u","practice_no_cue","5f2b3b627b4ac556309143ff","5f60e3c0a3b16e07647b2ff9","5f60eab38a98270008d7c3a4","true","832.5949999270961","./Stimuli/ImagesPractice/SN75.jpg","76","","","","test","true","M + N","76","","SN","SN75.jpg","remember","old","15","1","start","right","","","",""
"html-keyboard-response","40","301230","0.0-2.0-2.0-0.15","z6ww2gz36c6nn2u","practice_no_cue","5f2b3b627b4ac556309143ff","5f60e3c0a3b16e07647b2ff9","5f60eab38a98270008d7c3a4","false","null","<span style=""color: black; font-size: 48px"">M + N</span>","null","","","","resp_prompt","","","","","","","","","","","","","","","",""
"categorize-image","41","302746","0.0-2.0-2.0-1.15","z6ww2gz36c6nn2u","practice_no_cue","5f2b3b627b4ac556309143ff","5f60e3c0a3b16e07647b2ff9","5f60eab38a98270008d7c3a4","true","1013.1399999372661","./Stimuli/ImagesPractice/LN4.jpg","83","","","","test","false","M + N","76","","LN","LN4.jpg","remember","old","16","1","start","left","","","",""
"html-keyboard-response","42","313150","0.0-2.0-3.0","z6ww2gz36c6nn2u","break","5f2b3b627b4ac556309143ff","5f60e3c0a3b16e07647b2ff9","5f60eab38a98270008d7c3a4","false","10402.219999930821","<p style='font-size: 32px;'>Break</><br><br><br><br><br><p style='font-size: 24px;'>In the last block, you committed 3 errors and did not respond in time on 0 trials.
</p><p style='font-size: 24px;'>Try to respond as fast and accurately as possible in the next block as well! </p><p style='font-size: 24px;'>Press SPACE to continue.</p>","32","","","","","","","","","","","","","","","","","","","",""
"html-keyboard-response","43","319456","0.0-2.0-4.0","z6ww2gz36c6nn2u","instructions","5f2b3b627b4ac556309143ff","5f60e3c0a3b16e07647b2ff9","5f60eab38a98270008d7c3a4","false","6304.839999997057","<div align=left> Great!<br><br>Are you ready to continue?<br><br>If you want to reread the instructions and redo the practice trials, <br>please press „Z“. <br><br>Press SPACE to CONTINUE with the experiment when you are ready. </div>","32","","","","","","","","","","","","","","","","","","","",""
"html-keyboard-response","44","376710","0.0-3.0-0.0","z6ww2gz36c6nn2u","instructions","5f2b3b627b4ac556309143ff","5f60e3c0a3b16e07647b2ff9","5f60eab38a98270008d7c3a4","false","57252.729999949224","<div align=left>Great!<br> <strong>Attention</strong>! You will now receive a second, additional task! <br><br>To this point it was you <strong>first task</strong> to correctly <strong>classify objects</strong>. <br><br>As mentioned in the beginning, we aim to examine how well humans can remember previously learned information.<br>We would like to find out whether our memory improves if we only remember information that is relevant to us. <br><br>Therefore, your <strong>second task</strong> will be to <strong>remember</strong> the pictures you are to categorize. <br> After the learning phase, there will be a memory test phase, in which you will be asked to indicate whether you have seen a picture before or not. <br>Some, but not all pictures shown in the learning phase will appear in the memory test phase.<br>After classifying a picture, you will be told whether you should remember it for the memory test phase or not. <br>Thus, some pictures can be forgotten, whereas others have to be remembered. <br><br>Note: From now on, feedback will only be displayed if you responded incorrectly or not in time.<br><br>Press SPACE to continue.</div>","32","","","","","","","","","","","","","","","","","","","",""
"html-keyboard-response","45","407468","0.0-3.0-1.0","z6ww2gz36c6nn2u","instructions","5f2b3b627b4ac556309143ff","5f60e3c0a3b16e07647b2ff9","5f60eab38a98270008d7c3a4","false","30757.764999987558","<div align=left>In the following part, you will thus have to remember only some pictures. <br>Immediately after seeing and classifying the picture, a symbol will be displayed, indicating whether you should remember or forget the previous picture. <br><br>A <span style='color: dodgerblue; font-size: 28px'>O</span> indicates REMEMBER. That means, you have to remember this picture, because it will be tested later. <br><br>A <span style='color: darkorange; font-size:28px'>Ø</span> indicates FORGET. You do not have to remember this picture. <br><br> As you will have to remember a lot of pictures, it will be hard for you to remember all of them. <br>It will put you at an advantage if you instantly forget the pictures you are not asked to remember. <br> This will make it easier for you to remember the pictures that will be tested afterwards. <br><br>Press SPACE to continue.</div>","32","","","","","","","","","","","","","","","","","","","",""
"html-keyboard-response","46","425511","0.0-3.0-2.0","z6ww2gz36c6nn2u","instructions","5f2b3b627b4ac556309143ff","5f60e3c0a3b16e07647b2ff9","5f60eab38a98270008d7c3a4","false","18041.964999982156","<div align=left> Now you have the chance to practice both tasks together.<br><br>Remember: <br> <br><li>Please place your index fingers on the <strong>'S'</strong> and <strong>'L'</strong> keys <br>to respond as fast and accurately as possible.</li><li>Every picture can be classified as either mechanical or non-mechanical.</li><li>If you do not respond in time or commit an error, you will receive a corresponding feedback. <br>Please try to respond as <strong> fast </strong> and as <strong> accurately as possible </strong>.</li><li> Please remember only the to-be-remembered <span style='color: dodgerblue; font-size: 28px'>O</span> pictures. <br></li><li> Please minimize distractions and stay focused. </li><br><br>Press SPACE to START</div>","32","","","","","","","","","","","","","","","","","","","",""
"html-keyboard-response","47","426214","0.0-3.0-3.0-0.0","z6ww2gz36c6nn2u","practice_cue","5f2b3b627b4ac556309143ff","5f60e3c0a3b16e07647b2ff9","5f60eab38a98270008d7c3a4","false","null","<span style=""color: black; font-size: 48px"">N + M</span>","null","","","","resp_prompt","","","","","","","","","","","","","","","",""
"categorize-image","48","426867","0.0-3.0-3.0-1.0","z6ww2gz36c6nn2u","practice_cue","5f2b3b627b4ac556309143ff","5f60e3c0a3b16e07647b2ff9","5f60eab38a98270008d7c3a4","true","648.7200000556186","./Stimuli/ImagesPractice/LN109.jpg","83","","","","test","true","N + M","83","","LN","LN109.jpg","remember","old","17","2","practice_forget","left","","","",""
"html-keyboard-response","49","428870","0.0-3.0-3.0-3.0","z6ww2gz36c6nn2u","practice_cue","5f2b3b627b4ac556309143ff","5f60e3c0a3b16e07647b2ff9","5f60eab38a98270008d7c3a4","false","null","<div style=""align-items: center; display: flex; color: dodgerblue; font-size: 90px""><b>o</b></div>","null","","","","forget_cue","","","","","","","","","","","","","","","",""
"html-keyboard-response","50","429576","0.0-3.0-3.0-0.1","z6ww2gz36c6nn2u","practice_cue","5f2b3b627b4ac556309143ff","5f60e3c0a3b16e07647b2ff9","5f60eab38a98270008d7c3a4","false","null","<span style=""color: black; font-size: 48px"">M + N</span>","null","","","","resp_prompt","","","","","","","","","","","","","","","",""
"categorize-image","51","430245","0.0-3.0-3.0-1.1","z6ww2gz36c6nn2u","practice_cue","5f2b3b627b4ac556309143ff","5f60e3c0a3b16e07647b2ff9","5f60eab38a98270008d7c3a4","true","665.4900000430644","./Stimuli/ImagesPractice/LM147.jpg","83","","","","test","true","M + N","83","","LM","LM147.jpg","remember","old","18","2","practice_forget","left","","","",""
"html-keyboard-response","52","432247","0.0-3.0-3.0-3.1","z6ww2gz36c6nn2u","practice_cue","5f2b3b627b4ac556309143ff","5f60e3c0a3b16e07647b2ff9","5f60eab38a98270008d7c3a4","false","null","<div style=""align-items: center; display: flex; color: dodgerblue; font-size: 90px""><b>o</b></div>","null","","","","forget_cue","","","","","","","","","","","","","","","",""
"html-keyboard-response","53","432949","0.0-3.0-3.0-0.2","z6ww2gz36c6nn2u","practice_cue","5f2b3b627b4ac556309143ff","5f60e3c0a3b16e07647b2ff9","5f60eab38a98270008d7c3a4","false","null","<span style=""color: black; font-size: 48px"">M + N</span>","null","","","","resp_prompt","","","","","","","","","","","","","","","",""
"categorize-image","54","433581","0.0-3.0-3.0-1.2","z6ww2gz36c6nn2u","practice_cue","5f2b3b627b4ac556309143ff","5f60e3c0a3b16e07647b2ff9","5f60eab38a98270008d7c3a4","true","629.2199998861179","./Stimuli/ImagesPractice/SN75.jpg","76","","","","test","true","M + N","76","","SN","SN75.jpg","remember","old","19","2","practice_forget","right","","","",""
"html-keyboard-response","55","435584","0.0-3.0-3.0-3.2","z6ww2gz36c6nn2u","practice_cue","5f2b3b627b4ac556309143ff","5f60e3c0a3b16e07647b2ff9","5f60eab38a98270008d7c3a4","false","null","<div style=""align-items: center; display: flex; color: dodgerblue; font-size: 90px""><b>o</b></div>","null","","","","forget_cue","","","","","","","","","","","","","","","",""
"html-keyboard-response","56","436289","0.0-3.0-3.0-0.3","z6ww2gz36c6nn2u","practice_cue","5f2b3b627b4ac556309143ff","5f60e3c0a3b16e07647b2ff9","5f60eab38a98270008d7c3a4","false","null","<span style=""color: black; font-size: 48px"">M + N</span>","null","","","","resp_prompt","","","","","","","","","","","","","","","",""
"categorize-image","57","437031","0.0-3.0-3.0-1.3","z6ww2gz36c6nn2u","practice_cue","5f2b3b627b4ac556309143ff","5f60e3c0a3b16e07647b2ff9","5f60eab38a98270008d7c3a4","true","738.4350000647828","./Stimuli/ImagesPractice/SN205.jpg","76","","","","test","true","M + N","76","","SN","SN205.jpg","forget","old","20","2","practice_forget","right","","","",""
"html-keyboard-response","58","439033","0.0-3.0-3.0-3.3","z6ww2gz36c6nn2u","practice_cue","5f2b3b627b4ac556309143ff","5f60e3c0a3b16e07647b2ff9","5f60eab38a98270008d7c3a4","false","null","<div style=""align-items: center; display: flex; color: darkorange; font-size: 90px""><b>ø</b></div>","null","","","","forget_cue","","","","","","","","","","","","","","","",""
"html-keyboard-response","59","439739","0.0-3.0-3.0-0.4","z6ww2gz36c6nn2u","practice_cue","5f2b3b627b4ac556309143ff","5f60e3c0a3b16e07647b2ff9","5f60eab38a98270008d7c3a4","false","null","<span style=""color: black; font-size: 48px"">N + M</span>","null","","","","resp_prompt","","","","","","","","","","","","","","","",""
"categorize-image","60","440332","0.0-3.0-3.0-1.4","z6ww2gz36c6nn2u","practice_cue","5f2b3b627b4ac556309143ff","5f60e3c0a3b16e07647b2ff9","5f60eab38a98270008d7c3a4","true","589.134999900125","./Stimuli/ImagesPractice/LN17.jpg","83","","","","test","true","N + M","83","","LN","LN17.jpg","remember","old","21","2","practice_forget","left","","","",""
"html-keyboard-response","61","442335","0.0-3.0-3.0-3.4","z6ww2gz36c6nn2u","practice_cue","5f2b3b627b4ac556309143ff","5f60e3c0a3b16e07647b2ff9","5f60eab38a98270008d7c3a4","false","null","<div style=""align-items: center; display: flex; color: dodgerblue; font-size: 90px""><b>o</b></div>","null","","","","forget_cue","","","","","","","","","","","","","","","",""
"html-keyboard-response","62","443036","0.0-3.0-3.0-0.5","z6ww2gz36c6nn2u","practice_cue","5f2b3b627b4ac556309143ff","5f60e3c0a3b16e07647b2ff9","5f60eab38a98270008d7c3a4","false","null","<span style=""color: black; font-size: 48px"">N + M</span>","null","","","","resp_prompt","","","","","","","","","","","","","","","",""
"categorize-image","63","443672","0.0-3.0-3.0-1.5","z6ww2gz36c6nn2u","practice_cue","5f2b3b627b4ac556309143ff","5f60e3c0a3b16e07647b2ff9","5f60eab38a98270008d7c3a4","true","631.6850000293925","./Stimuli/ImagesPractice/LM230.jpg","76","","","","test","true","N + M","76","","LM","LM230.jpg","remember","old","22","2","practice_forget","right","","","",""
"html-keyboard-response","64","445673","0.0-3.0-3.0-3.5","z6ww2gz36c6nn2u","practice_cue","5f2b3b627b4ac556309143ff","5f60e3c0a3b16e07647b2ff9","5f60eab38a98270008d7c3a4","false","null","<div style=""align-items: center; display: flex; color: dodgerblue; font-size: 90px""><b>o</b></div>","null","","","","forget_cue","","","","","","","","","","","","","","","",""
"html-keyboard-response","65","446376","0.0-3.0-3.0-0.6","z6ww2gz36c6nn2u","practice_cue","5f2b3b627b4ac556309143ff","5f60e3c0a3b16e07647b2ff9","5f60eab38a98270008d7c3a4","false","null","<span style=""color: black; font-size: 48px"">N + M</span>","null","","","","resp_prompt","","","","","","","","","","","","","","","",""
"categorize-image","66","447179","0.0-3.0-3.0-1.6","z6ww2gz36c6nn2u","practice_cue","5f2b3b627b4ac556309143ff","5f60e3c0a3b16e07647b2ff9","5f60eab38a98270008d7c3a4","true","798.6899999668822","./Stimuli/ImagesPractice/LM143.jpg","76","","","","test","true","N + M","76","","LM","LM143.jpg","forget","old","23","2","practice_forget","right","","","",""
"html-keyboard-response","67","449181","0.0-3.0-3.0-3.6","z6ww2gz36c6nn2u","practice_cue","5f2b3b627b4ac556309143ff","5f60e3c0a3b16e07647b2ff9","5f60eab38a98270008d7c3a4","false","null","<div style=""align-items: center; display: flex; color: darkorange; font-size: 90px""><b>ø</b></div>","null","","","","forget_cue","","","","","","","","","","","","","","","",""
"html-keyboard-response","68","449882","0.0-3.0-3.0-0.7","z6ww2gz36c6nn2u","practice_cue","5f2b3b627b4ac556309143ff","5f60e3c0a3b16e07647b2ff9","5f60eab38a98270008d7c3a4","false","null","<span style=""color: black; font-size: 48px"">N + M</span>","null","","","","resp_prompt","","","","","","","","","","","","","","","",""
"categorize-image","69","450512","0.0-3.0-3.0-1.7","z6ww2gz36c6nn2u","practice_cue","5f2b3b627b4ac556309143ff","5f60e3c0a3b16e07647b2ff9","5f60eab38a98270008d7c3a4","true","625.389999942854","./Stimuli/ImagesPractice/SN221.jpg","83","","","","test","true","N + M","83","","SN","SN221.jpg","forget","old","24","2","practice_forget","left","","","",""
"html-keyboard-response","70","452514","0.0-3.0-3.0-3.7","z6ww2gz36c6nn2u","practice_cue","5f2b3b627b4ac556309143ff","5f60e3c0a3b16e07647b2ff9","5f60eab38a98270008d7c3a4","false","null","<div style=""align-items: center; display: flex; color: darkorange; font-size: 90px""><b>ø</b></div>","null","","","","forget_cue","","","","","","","","","","","","","","","",""
"html-keyboard-response","71","453215","0.0-3.0-3.0-0.8","z6ww2gz36c6nn2u","practice_cue","5f2b3b627b4ac556309143ff","5f60e3c0a3b16e07647b2ff9","5f60eab38a98270008d7c3a4","false","null","<span style=""color: black; font-size: 48px"">N + M</span>","null","","","","resp_prompt","","","","","","","","","","","","","","","",""
"categorize-image","72","453725","0.0-3.0-3.0-1.8","z6ww2gz36c6nn2u","practice_cue","5f2b3b627b4ac556309143ff","5f60e3c0a3b16e07647b2ff9","5f60eab38a98270008d7c3a4","true","506.23499997891486","./Stimuli/ImagesPractice/LM224.jpg","76","","","","test","true","N + M","76","","LM","LM224.jpg","forget","old","25","2","practice_forget","right","","","",""
"html-keyboard-response","73","455727","0.0-3.0-3.0-3.8","z6ww2gz36c6nn2u","practice_cue","5f2b3b627b4ac556309143ff","5f60e3c0a3b16e07647b2ff9","5f60eab38a98270008d7c3a4","false","null","<div style=""align-items: center; display: flex; color: darkorange; font-size: 90px""><b>ø</b></div>","null","","","","forget_cue","","","","","","","","","","","","","","","",""
"html-keyboard-response","74","456428","0.0-3.0-3.0-0.9","z6ww2gz36c6nn2u","practice_cue","5f2b3b627b4ac556309143ff","5f60e3c0a3b16e07647b2ff9","5f60eab38a98270008d7c3a4","false","null","<span style=""color: black; font-size: 48px"">M + N</span>","null","","","","resp_prompt","","","","","","","","","","","","","","","",""
"categorize-image","75","457114","0.0-3.0-3.0-1.9","z6ww2gz36c6nn2u","practice_cue","5f2b3b627b4ac556309143ff","5f60e3c0a3b16e07647b2ff9","5f60eab38a98270008d7c3a4","true","681.4100000774488","./Stimuli/ImagesPractice/SM61.jpg","83","","","","test","true","M + N","83","","SM","SM61.jpg","remember","old","26","2","practice_forget","left","","","",""
"html-keyboard-response","76","459115","0.0-3.0-3.0-3.9","z6ww2gz36c6nn2u","practice_cue","5f2b3b627b4ac556309143ff","5f60e3c0a3b16e07647b2ff9","5f60eab38a98270008d7c3a4","false","null","<div style=""align-items: center; display: flex; color: dodgerblue; font-size: 90px""><b>o</b></div>","null","","","","forget_cue","","","","","","","","","","","","","","","",""
"html-keyboard-response","77","459818","0.0-3.0-3.0-0.10","z6ww2gz36c6nn2u","practice_cue","5f2b3b627b4ac556309143ff","5f60e3c0a3b16e07647b2ff9","5f60eab38a98270008d7c3a4","false","null","<span style=""color: black; font-size: 48px"">M + N</span>","null","","","","resp_prompt","","","","","","","","","","","","","","","",""
"categorize-image","78","460409","0.0-3.0-3.0-1.10","z6ww2gz36c6nn2u","practice_cue","5f2b3b627b4ac556309143ff","5f60e3c0a3b16e07647b2ff9","5f60eab38a98270008d7c3a4","true","584.4800000777468","./Stimuli/ImagesPractice/LN15.jpg","76","","","","test","true","M + N","76","","LN","LN15.jpg","forget","old","27","2","practice_forget","right","","","",""
"html-keyboard-response","79","462412","0.0-3.0-3.0-3.10","z6ww2gz36c6nn2u","practice_cue","5f2b3b627b4ac556309143ff","5f60e3c0a3b16e07647b2ff9","5f60eab38a98270008d7c3a4","false","null","<div style=""align-items: center; display: flex; color: darkorange; font-size: 90px""><b>ø</b></div>","null","","","","forget_cue","","","","","","","","","","","","","","","",""
"html-keyboard-response","80","463118","0.0-3.0-3.0-0.11","z6ww2gz36c6nn2u","practice_cue","5f2b3b627b4ac556309143ff","5f60e3c0a3b16e07647b2ff9","5f60eab38a98270008d7c3a4","false","null","<span style=""color: black; font-size: 48px"">M + N</span>","null","","","","resp_prompt","","","","","","","","","","","","","","","",""
"categorize-image","81","463654","0.0-3.0-3.0-1.11","z6ww2gz36c6nn2u","practice_cue","5f2b3b627b4ac556309143ff","5f60e3c0a3b16e07647b2ff9","5f60eab38a98270008d7c3a4","true","532.5850000372157","./Stimuli/ImagesPractice/SM98.jpg","83","","","","test","true","M + N","83","","SM","SM98.jpg","forget","old","28","2","practice_forget","left","","","",""
"html-keyboard-response","82","465656","0.0-3.0-3.0-3.11","z6ww2gz36c6nn2u","practice_cue","5f2b3b627b4ac556309143ff","5f60e3c0a3b16e07647b2ff9","5f60eab38a98270008d7c3a4","false","null","<div style=""align-items: center; display: flex; color: darkorange; font-size: 90px""><b>ø</b></div>","null","","","","forget_cue","","","","","","","","","","","","","","","",""
"html-keyboard-response","83","466357","0.0-3.0-3.0-0.12","z6ww2gz36c6nn2u","practice_cue","5f2b3b627b4ac556309143ff","5f60e3c0a3b16e07647b2ff9","5f60eab38a98270008d7c3a4","false","null","<span style=""color: black; font-size: 48px"">N + M</span>","null","","","","resp_prompt","","","","","","","","","","","","","","","",""
"categorize-image","84","466880","0.0-3.0-3.0-1.12","z6ww2gz36c6nn2u","practice_cue","5f2b3b627b4ac556309143ff","5f60e3c0a3b16e07647b2ff9","5f60eab38a98270008d7c3a4","true","520.105000003241","./Stimuli/ImagesPractice/LM55.jpg","76","","","","test","true","N + M","76","","LM","LM55.jpg","forget","old","29","2","practice_forget","right","","","",""
"html-keyboard-response","85","468882","0.0-3.0-3.0-3.12","z6ww2gz36c6nn2u","practice_cue","5f2b3b627b4ac556309143ff","5f60e3c0a3b16e07647b2ff9","5f60eab38a98270008d7c3a4","false","null","<div style=""align-items: center; display: flex; color: darkorange; font-size: 90px""><b>ø</b></div>","null","","","","forget_cue","","","","","","","","","","","","","","","",""
"html-keyboard-response","86","469585","0.0-3.0-3.0-0.13","z6ww2gz36c6nn2u","practice_cue","5f2b3b627b4ac556309143ff","5f60e3c0a3b16e07647b2ff9","5f60eab38a98270008d7c3a4","false","null","<span style=""color: black; font-size: 48px"">M + N</span>","null","","","","resp_prompt","","","","","","","","","","","","","","","",""
"categorize-image","87","470137","0.0-3.0-3.0-1.13","z6ww2gz36c6nn2u","practice_cue","5f2b3b627b4ac556309143ff","5f60e3c0a3b16e07647b2ff9","5f60eab38a98270008d7c3a4","true","547.1200000029057","./Stimuli/ImagesPractice/LN4.jpg","76","","","","test","true","M + N","76","","LN","LN4.jpg","remember","old","30","2","practice_forget","right","","","",""
"html-keyboard-response","88","472142","0.0-3.0-3.0-3.13","z6ww2gz36c6nn2u","practice_cue","5f2b3b627b4ac556309143ff","5f60e3c0a3b16e07647b2ff9","5f60eab38a98270008d7c3a4","false","null","<div style=""align-items: center; display: flex; color: dodgerblue; font-size: 90px""><b>o</b></div>","null","","","","forget_cue","","","","","","","","","","","","","","","",""
"html-keyboard-response","89","472843","0.0-3.0-3.0-0.14","z6ww2gz36c6nn2u","practice_cue","5f2b3b627b4ac556309143ff","5f60e3c0a3b16e07647b2ff9","5f60eab38a98270008d7c3a4","false","null","<span style=""color: black; font-size: 48px"">N + M</span>","null","","","","resp_prompt","","","","","","","","","","","","","","","",""
"categorize-image","90","473874","0.0-3.0-3.0-1.14","z6ww2gz36c6nn2u","practice_cue","5f2b3b627b4ac556309143ff","5f60e3c0a3b16e07647b2ff9","5f60eab38a98270008d7c3a4","true","1028.5300000105053","./Stimuli/ImagesPractice/SN220.jpg","76","","","","test","false","N + M","83","","SN","SN220.jpg","remember","old","31","2","practice_forget","right","","","",""
"html-keyboard-response","91","474376","0.0-3.0-3.0-2.14-0.14","z6ww2gz36c6nn2u","practice_cue","5f2b3b627b4ac556309143ff","5f60e3c0a3b16e07647b2ff9","5f60eab38a98270008d7c3a4","false","null","<span style=""color: red; font-size: 48px"">Error!</span>","null","","","","feedback","","","","","","","","","","","","","","","",""
"html-keyboard-response","92","476380","0.0-3.0-3.0-3.14","z6ww2gz36c6nn2u","practice_cue","5f2b3b627b4ac556309143ff","5f60e3c0a3b16e07647b2ff9","5f60eab38a98270008d7c3a4","false","null","<div style=""align-items: center; display: flex; color: dodgerblue; font-size: 90px""><b>o</b></div>","null","","","","forget_cue","","","","","","","","","","","","","","","",""
"html-keyboard-response","93","477082","0.0-3.0-3.0-0.15","z6ww2gz36c6nn2u","practice_cue","5f2b3b627b4ac556309143ff","5f60e3c0a3b16e07647b2ff9","5f60eab38a98270008d7c3a4","false","null","<span style=""color: black; font-size: 48px"">M + N</span>","null","","","","resp_prompt","","","","","","","","","","","","","","","",""
"categorize-image","94","477616","0.0-3.0-3.0-1.15","z6ww2gz36c6nn2u","practice_cue","5f2b3b627b4ac556309143ff","5f60e3c0a3b16e07647b2ff9","5f60eab38a98270008d7c3a4","true","529.3300000485033","./Stimuli/ImagesPractice/LN72.jpg","76","","","","test","true","M + N","76","","LN","LN72.jpg","forget","old","32","2","practice_forget","right","","","",""
"html-keyboard-response","95","479617","0.0-3.0-3.0-3.15","z6ww2gz36c6nn2u","practice_cue","5f2b3b627b4ac556309143ff","5f60e3c0a3b16e07647b2ff9","5f60eab38a98270008d7c3a4","false","null","<div style=""align-items: center; display: flex; color: darkorange; font-size: 90px""><b>ø</b></div>","null","","","","forget_cue","","","","","","","","","","","","","","","",""
"html-keyboard-response","96","484956","0.0-3.0-4.0","z6ww2gz36c6nn2u","break","5f2b3b627b4ac556309143ff","5f60e3c0a3b16e07647b2ff9","5f60eab38a98270008d7c3a4","false","5337.159999995492","<p style='font-size: 32px;'>Break</><br><br><br><br><br><p style='font-size: 24px;'>In the last block, you committed 1 errors and did not respond in time on 0 trials.
</p><p style='font-size: 24px;'>Try to respond as fast and accurately as possible in the next block as well! </p><p style='font-size: 24px;'>Press SPACE to continue.</p>","32","","","","","","","","","","","","","","","","","","","",""
"html-keyboard-response","97","520577","0.0-3.0-5.0","z6ww2gz36c6nn2u","instructions","5f2b3b627b4ac556309143ff","5f60e3c0a3b16e07647b2ff9","5f60eab38a98270008d7c3a4","false","35620.60999998357","<div align=left> Now, to practice, we kindly ask you to remember as many of the to-be-remembered pictures<br>of the previous learning phase as possible.<br><br>The pictures you were instructed to remember were the pictures followed by a <span style='color: dodgerblue; font-size: 28px'>O</span>.<br><br>In this memory test phase, you will also see some new pictures.<br>It is your task to remember whether you were presented with this specific picture in this study so far or not.<br>If you recognize an object (you have already seen it in this study), it is an OLD object. <br>If you do not recognize an object (you have NOT seen it in this study), it is a NEW object. <br><strong> Attention</strong>: As already mentioned, <span style='color: darkorange; font-size:28px'>Ø</span>-pictures will <strong>never</strong> appear in this memory test (neither as new objects). <br><br>Press SPACE to continue. </div>","32","","","","","","","","","","","","","","","","","","","",""
"html-keyboard-response","98","570691","0.0-3.0-6.0","z6ww2gz36c6nn2u","instructions","5f2b3b627b4ac556309143ff","5f60e3c0a3b16e07647b2ff9","5f60eab38a98270008d7c3a4","false","50112.88000002969","<div align=left> M and N no longer will appear on the left/right of the fixation cross. <br>Instead there will be a note at the bottom of the left or right side  <br>indicating which key you should press for an old or new object:  <br> <br>Press the <strong>right</strong> key to classify an object as <strong>old</strong> and press the <strong>left</strong>, to classify an object as <strong>new</strong>.<br>Please classify the objects as new/old by again placing your index finger on the 'S' and 'L' keys <br>and press them accordingly.<br><br><strong>Old:</strong> This object has been presented before. <br><strong>New:</strong> This object has <strong>not</strong> been presented.<br><br>Now please put your right and left index fingers on the 'S' and 'L' keys of your keyboard. <br>Please respond as fast and as accurately as possible!<br><br>Press SPACE to continue. </div>","32","","","","","","","","","","","","","","","","","","","",""
"categorize-image","99","572647","0.0-3.0-7.0-0.0","z6ww2gz36c6nn2u","practice_recog","5f2b3b627b4ac556309143ff","5f60e3c0a3b16e07647b2ff9","5f60eab38a98270008d7c3a4","true","1452.170000062324","./Stimuli/ImagesPractice/SM62.jpg","76","","","","test","true","","76","","SM","SM62.jpg","","new","33","3","practice_recog","right","","","",""
"categorize-image","100","574270","0.0-3.0-7.0-0.1","z6ww2gz36c6nn2u","practice_recog","5f2b3b627b4ac556309143ff","5f60e3c0a3b16e07647b2ff9","5f60eab38a98270008d7c3a4","true","1120.9299999754876","./Stimuli/ImagesPractice/LN17.jpg","83","","","","test","true","","83","","LN","LN17.jpg","","old","34","3","practice_recog","left","","","",""
"categorize-image","101","575470","0.0-3.0-7.0-0.2","z6ww2gz36c6nn2u","practice_recog","5f2b3b627b4ac556309143ff","5f60e3c0a3b16e07647b2ff9","5f60eab38a98270008d7c3a4","true","697.5549999624491","./Stimuli/ImagesPractice/LM239.jpg","76","","","","test","true","","76","","LM","LM239.jpg","","new","35","3","practice_recog","right","","","",""
"categorize-image","102","576909","0.0-3.0-7.0-0.3","z6ww2gz36c6nn2u","practice_recog","5f2b3b627b4ac556309143ff","5f60e3c0a3b16e07647b2ff9","5f60eab38a98270008d7c3a4","true","934.3900000676513","./Stimuli/ImagesPractice/SM37.jpg","76","","","","test","true","","76","","SM","SM37.jpg","","new","36","3","practice_recog","right","","","",""
"categorize-image","103","578123","0.0-3.0-7.0-0.4","z6ww2gz36c6nn2u","practice_recog","5f2b3b627b4ac556309143ff","5f60e3c0a3b16e07647b2ff9","5f60eab38a98270008d7c3a4","true","711.8150000460446","./Stimuli/ImagesPractice/LM230.jpg","83","","","","test","true","","83","","LM","LM230.jpg","","old","37","3","practice_recog","left","","","",""
"categorize-image","104","579678","0.0-3.0-7.0-0.5","z6ww2gz36c6nn2u","practice_recog","5f2b3b627b4ac556309143ff","5f60e3c0a3b16e07647b2ff9","5f60eab38a98270008d7c3a4","true","1053.4850000403821","./Stimuli/ImagesPractice/SN75.jpg","76","","","","test","false","","83","","SN","SN75.jpg","","old","38","3","practice_recog","right","","","",""
"categorize-image","105","581414","0.0-3.0-7.0-0.6","z6ww2gz36c6nn2u","practice_recog","5f2b3b627b4ac556309143ff","5f60e3c0a3b16e07647b2ff9","5f60eab38a98270008d7c3a4","true","1233.1499999854714","./Stimuli/ImagesPractice/SN220.jpg","83","","","","test","true","","83","","SN","SN220.jpg","","old","39","3","practice_recog","left","","","",""
"categorize-image","106","583144","0.0-3.0-7.0-0.7","z6ww2gz36c6nn2u","practice_recog","5f2b3b627b4ac556309143ff","5f60e3c0a3b16e07647b2ff9","5f60eab38a98270008d7c3a4","true","1228.31999999471","./Stimuli/ImagesPractice/SM97.jpg","76","","","","test","true","","76","","SM","SM97.jpg","","new","40","3","practice_recog","right","","","",""
"categorize-image","107","584324","0.0-3.0-7.0-0.8","z6ww2gz36c6nn2u","practice_recog","5f2b3b627b4ac556309143ff","5f60e3c0a3b16e07647b2ff9","5f60eab38a98270008d7c3a4","true","678.1600000103936","./Stimuli/ImagesPractice/LM147.jpg","83","","","","test","true","","83","","LM","LM147.jpg","","old","41","3","practice_recog","left","","","",""
"categorize-image","108","585428","0.0-3.0-7.0-0.9","z6ww2gz36c6nn2u","practice_recog","5f2b3b627b4ac556309143ff","5f60e3c0a3b16e07647b2ff9","5f60eab38a98270008d7c3a4","true","600.6000000052154","./Stimuli/ImagesPractice/LN109.jpg","83","","","","test","true","","83","","LN","LN109.jpg","","old","42","3","practice_recog","left","","","",""
"categorize-image","109","586532","0.0-3.0-7.0-0.10","z6ww2gz36c6nn2u","practice_recog","5f2b3b627b4ac556309143ff","5f60e3c0a3b16e07647b2ff9","5f60eab38a98270008d7c3a4","true","601.4900000300258","./Stimuli/ImagesPractice/SM61.jpg","83","","","","test","true","","83","","SM","SM61.jpg","","old","43","3","practice_recog","left","","","",""
"categorize-image","110","587807","0.0-3.0-7.0-0.11","z6ww2gz36c6nn2u","practice_recog","5f2b3b627b4ac556309143ff","5f60e3c0a3b16e07647b2ff9","5f60eab38a98270008d7c3a4","true","773.1800000183284","./Stimuli/ImagesPractice/SN76.jpg","76","","","","test","true","","76","","SN","SN76.jpg","","new","44","3","practice_recog","right","","","",""
"categorize-image","111","589423","0.0-3.0-7.0-0.12","z6ww2gz36c6nn2u","practice_recog","5f2b3b627b4ac556309143ff","5f60e3c0a3b16e07647b2ff9","5f60eab38a98270008d7c3a4","true","1112.5849999953061","./Stimuli/ImagesPractice/LN2.jpg","76","","","","test","true","","76","","LN","LN2.jpg","","new","45","3","practice_recog","right","","","",""
"categorize-image","112","590492","0.0-3.0-7.0-0.13","z6ww2gz36c6nn2u","practice_recog","5f2b3b627b4ac556309143ff","5f60e3c0a3b16e07647b2ff9","5f60eab38a98270008d7c3a4","true","567.0950000640005","./Stimuli/ImagesPractice/SN222.jpg","76","","","","test","true","","76","","SN","SN222.jpg","","new","46","3","practice_recog","right","","","",""
"categorize-image","113","591738","0.0-3.0-7.0-0.14","z6ww2gz36c6nn2u","practice_recog","5f2b3b627b4ac556309143ff","5f60e3c0a3b16e07647b2ff9","5f60eab38a98270008d7c3a4","true","743.4649999486282","./Stimuli/ImagesPractice/LN4.jpg","83","","","","test","true","","83","","LN","LN4.jpg","","old","47","3","practice_recog","left","","","",""
"categorize-image","114","593251","0.0-3.0-7.0-0.15","z6ww2gz36c6nn2u","practice_recog","5f2b3b627b4ac556309143ff","5f60e3c0a3b16e07647b2ff9","5f60eab38a98270008d7c3a4","true","1007.0699999341741","./Stimuli/ImagesPractice/SM35.jpg","76","","","","test","true","","76","","SM","SM35.jpg","","new","48","3","practice_recog","right","","","",""
"html-keyboard-response","115","621586","0.0-3.0-8.0","z6ww2gz36c6nn2u","instructions","5f2b3b627b4ac556309143ff","5f60e3c0a3b16e07647b2ff9","5f60eab38a98270008d7c3a4","false","28334.334999904968","<div align=left> Great!<br><br>Are you ready to continue?<br>If you want to reread the instructions and redo the practice trials, please <br>press „Z“.<br><br>You can proceed when you are ready.<br><br>After the presentation of each object, you will receive an instruction whether to <br>remember or to forget the object.<br>We will test your memory of the following pictures only at the very end of <br>the experiment after all learning blocks are completed. <br><br>Press SPACE to CONTINUE when you are ready. </div>","32","","","","","","","","","","","","","","","","","","","",""
"html-keyboard-response","116","634800","0.0-4.0-0.0","z6ww2gz36c6nn2u","instructions","5f2b3b627b4ac556309143ff","5f60e3c0a3b16e07647b2ff9","5f60eab38a98270008d7c3a4","false","13211.945000104606","<div align=left> The actual experiment is about to start.<br>The practice trials are over!<br><br>Please always respond both fast and accurately!<br><br>Remember: <br> <br><li> Please place your index fingers on the <strong>'S'</strong> and <strong>'L'</strong> keys <br>to respond as fast and accurately as possible.</li><li> Every picture can be classified as either mechanical or non-mechanical.</li><li> If you do not respond in time or commit an error, you will receive a corresponding feedback.<br> Please try to respond as <strong> fast </strong> and as <strong> accurately as possible </strong>.</li><li> Remember the <span style='color: dodgerblue; font-size: 28px'>O</span> pictures. <br></li><li> Please minimize distractions and stay focused. </li><br><br>Press SPACE to START.</div>","32","","","","","","","","","","","","","","","","","","","",""
"html-keyboard-response","117","635504","0.0-4.0-1.0-0.0","z6ww2gz36c6nn2u","prime","5f2b3b627b4ac556309143ff","5f60e3c0a3b16e07647b2ff9","5f60eab38a98270008d7c3a4","false","null","<span style=""color: black; font-size: 48px"">N + M</span>","null","","","","resp_prompt","","","","","","","","","","","","","","","",""
"categorize-image","118","636050","0.0-4.0-1.0-1.0","z6ww2gz36c6nn2u","prime","5f2b3b627b4ac556309143ff","5f60e3c0a3b16e07647b2ff9","5f60eab38a98270008d7c3a4","true","541.6749999858439","./Stimuli/SelectedImages/SN/SN111.bmp","83","","","","test","true","N + M","83","switch","SN","SN111.bmp","remember","","49","3","prime1","left","","","",""
"html-keyboard-response","119","638053","0.0-4.0-1.0-3.0","z6ww2gz36c6nn2u","prime","5f2b3b627b4ac556309143ff","5f60e3c0a3b16e07647b2ff9","5f60eab38a98270008d7c3a4","false","null","<div style=""align-items: center; display: flex; color: dodgerblue; font-size: 90px""><b>o</b></div>","null","","","","forget_cue","","","","","","","","","","","","","","","",""
"html-keyboard-response","120","638756","0.0-4.0-1.0-0.1","z6ww2gz36c6nn2u","prime","5f2b3b627b4ac556309143ff","5f60e3c0a3b16e07647b2ff9","5f60eab38a98270008d7c3a4","false","null","<span style=""color: black; font-size: 48px"">N + M</span>","null","","","","resp_prompt","","","","","","","","","","","","","","","",""
"categorize-image","121","639379","0.0-4.0-1.0-1.1","z6ww2gz36c6nn2u","prime","5f2b3b627b4ac556309143ff","5f60e3c0a3b16e07647b2ff9","5f60eab38a98270008d7c3a4","true","620.0050000334159","./Stimuli/SelectedImages/LN/LN150.bmp","83","","","","test","true","N + M","83","switch","LN","LN150.bmp","forget","","50","3","prime1","left","","","",""
"html-keyboard-response","122","641382","0.0-4.0-1.0-3.1","z6ww2gz36c6nn2u","prime","5f2b3b627b4ac556309143ff","5f60e3c0a3b16e07647b2ff9","5f60eab38a98270008d7c3a4","false","null","<div style=""align-items: center; display: flex; color: darkorange; font-size: 90px""><b>ø</b></div>","null","","","","forget_cue","","","","","","","","","","","","","","","",""
"html-keyboard-response","123","642086","0.0-4.0-1.0-0.2","z6ww2gz36c6nn2u","prime","5f2b3b627b4ac556309143ff","5f60e3c0a3b16e07647b2ff9","5f60eab38a98270008d7c3a4","false","null","<span style=""color: black; font-size: 48px"">N + M</span>","null","","","","resp_prompt","","","","","","","","","","","","","","","",""
"categorize-image","124","643087","0.0-4.0-1.0-1.2","z6ww2gz36c6nn2u","prime","5f2b3b627b4ac556309143ff","5f60e3c0a3b16e07647b2ff9","5f60eab38a98270008d7c3a4","true","997.1399999922141","./Stimuli/SelectedImages/LN/LN9.bmp","83","","","","test","true","N + M","83","repetition","LN","LN9.bmp","remember","","51","3","prime1","left","","","",""
"html-keyboard-response","125","645088","0.0-4.0-1.0-3.2","z6ww2gz36c6nn2u","prime","5f2b3b627b4ac556309143ff","5f60e3c0a3b16e07647b2ff9","5f60eab38a98270008d7c3a4","false","null","<div style=""align-items: center; display: flex; color: dodgerblue; font-size: 90px""><b>o</b></div>","null","","","","forget_cue","","","","","","","","","","","","","","","",""
"html-keyboard-response","126","645789","0.0-4.0-1.0-0.3","z6ww2gz36c6nn2u","prime","5f2b3b627b4ac556309143ff","5f60e3c0a3b16e07647b2ff9","5f60eab38a98270008d7c3a4","false","null","<span style=""color: black; font-size: 48px"">N + M</span>","null","","","","resp_prompt","","","","","","","","","","","","","","","",""
"categorize-image","127","646828","0.0-4.0-1.0-1.3","z6ww2gz36c6nn2u","prime","5f2b3b627b4ac556309143ff","5f60e3c0a3b16e07647b2ff9","5f60eab38a98270008d7c3a4","true","1034.9249999271706","./Stimuli/SelectedImages/LN/LN131.bmp","83","","","","test","true","N + M","83","switch","LN","LN131.bmp","remember","","52","3","prime1","left","","","",""
"html-keyboard-response","128","648831","0.0-4.0-1.0-3.3","z6ww2gz36c6nn2u","prime","5f2b3b627b4ac556309143ff","5f60e3c0a3b16e07647b2ff9","5f60eab38a98270008d7c3a4","false","null","<div style=""align-items: center; display: flex; color: dodgerblue; font-size: 90px""><b>o</b></div>","null","","","","forget_cue","","","","","","","","","","","","","","","",""
"html-keyboard-response","129","649533","0.0-4.0-1.0-0.4","z6ww2gz36c6nn2u","prime","5f2b3b627b4ac556309143ff","5f60e3c0a3b16e07647b2ff9","5f60eab38a98270008d7c3a4","false","null","<span style=""color: black; font-size: 48px"">N + M</span>","null","","","","resp_prompt","","","","","","","","","","","","","","","",""
"categorize-image","130","650148","0.0-4.0-1.0-1.4","z6ww2gz36c6nn2u","prime","5f2b3b627b4ac556309143ff","5f60e3c0a3b16e07647b2ff9","5f60eab38a98270008d7c3a4","true","611.0850000986829","./Stimuli/SelectedImages/LN/LN92.bmp","83","","","","test","true","N + M","83","repetition","LN","LN92.bmp","forget","","53","3","prime1","left","","","",""
"html-keyboard-response","131","652151","0.0-4.0-1.0-3.4","z6ww2gz36c6nn2u","prime","5f2b3b627b4ac556309143ff","5f60e3c0a3b16e07647b2ff9","5f60eab38a98270008d7c3a4","false","null","<div style=""align-items: center; display: flex; color: darkorange; font-size: 90px""><b>ø</b></div>","null","","","","forget_cue","","","","","","","","","","","","","","","",""
"html-keyboard-response","132","652857","0.0-4.0-1.0-0.5","z6ww2gz36c6nn2u","prime","5f2b3b627b4ac556309143ff","5f60e3c0a3b16e07647b2ff9","5f60eab38a98270008d7c3a4","false","null","<span style=""color: black; font-size: 48px"">N + M</span>","null","","","","resp_prompt","","","","","","","","","","","","","","","",""
"categorize-image","133","653392","0.0-4.0-1.0-1.5","z6ww2gz36c6nn2u","prime","5f2b3b627b4ac556309143ff","5f60e3c0a3b16e07647b2ff9","5f60eab38a98270008d7c3a4","true","530.2949999459088","./Stimuli/SelectedImages/SM/SM17.bmp","76","","","","test","true","N + M","76","switch","SM","SM17.bmp","forget","","54","3","prime1","right","","","",""
"html-keyboard-response","134","655394","0.0-4.0-1.0-3.5","z6ww2gz36c6nn2u","prime","5f2b3b627b4ac556309143ff","5f60e3c0a3b16e07647b2ff9","5f60eab38a98270008d7c3a4","false","null","<div style=""align-items: center; display: flex; color: darkorange; font-size: 90px""><b>ø</b></div>","null","","","","forget_cue","","","","","","","","","","","","","","","",""
"html-keyboard-response","135","656100","0.0-4.0-1.0-0.6","z6ww2gz36c6nn2u","prime","5f2b3b627b4ac556309143ff","5f60e3c0a3b16e07647b2ff9","5f60eab38a98270008d7c3a4","false","null","<span style=""color: black; font-size: 48px"">M + N</span>","null","","","","resp_prompt","","","","","","","","","","","","","","","",""
"categorize-image","136","656837","0.0-4.0-1.0-1.6","z6ww2gz36c6nn2u","prime","5f2b3b627b4ac556309143ff","5f60e3c0a3b16e07647b2ff9","5f60eab38a98270008d7c3a4","true","733.4150000242516","./Stimuli/SelectedImages/LN/LN101.bmp","76","","","","test","true","M + N","76","repetition","LN","LN101.bmp","remember","","55","3","prime1","right","","","",""
"html-keyboard-response","137","658843","0.0-4.0-1.0-3.6","z6ww2gz36c6nn2u","prime","5f2b3b627b4ac556309143ff","5f60e3c0a3b16e07647b2ff9","5f60eab38a98270008d7c3a4","false","null","<div style=""align-items: center; display: flex; color: dodgerblue; font-size: 90px""><b>o</b></div>","null","","","","forget_cue","","","","","","","","","","","","","","","",""
"html-keyboard-response","138","659549","0.0-4.0-1.0-0.7","z6ww2gz36c6nn2u","prime","5f2b3b627b4ac556309143ff","5f60e3c0a3b16e07647b2ff9","5f60eab38a98270008d7c3a4","false","null","<span style=""color: black; font-size: 48px"">N + M</span>","null","","","","resp_prompt","","","","","","","","","","","","","","","",""
"categorize-image","139","660623","0.0-4.0-1.0-1.7","z6ww2gz36c6nn2u","prime","5f2b3b627b4ac556309143ff","5f60e3c0a3b16e07647b2ff9","5f60eab38a98270008d7c3a4","true","1070.6399999326095","./Stimuli/SelectedImages/SN/SN187.bmp","83","","","","test","true","N + M","83","switch","SN","SN187.bmp","forget","","56","3","prime1","left","","","",""
"html-keyboard-response","140","662625","0.0-4.0-1.0-3.7","z6ww2gz36c6nn2u","prime","5f2b3b627b4ac556309143ff","5f60e3c0a3b16e07647b2ff9","5f60eab38a98270008d7c3a4","false","null","<div style=""align-items: center; display: flex; color: darkorange; font-size: 90px""><b>ø</b></div>","null","","","","forget_cue","","","","","","","","","","","","","","","",""
"html-keyboard-response","141","663331","0.0-4.0-1.0-0.8","z6ww2gz36c6nn2u","prime","5f2b3b627b4ac556309143ff","5f60e3c0a3b16e07647b2ff9","5f60eab38a98270008d7c3a4","false","null","<span style=""color: black; font-size: 48px"">M + N</span>","null","","","","resp_prompt","","","","","","","","","","","","","","","",""
"categorize-image","142","664044","0.0-4.0-1.0-1.8","z6ww2gz36c6nn2u","prime","5f2b3b627b4ac556309143ff","5f60e3c0a3b16e07647b2ff9","5f60eab38a98270008d7c3a4","true","708.7549999123439","./Stimuli/SelectedImages/LN/LN13.bmp","76","","","","test","true","M + N","76","switch","LN","LN13.bmp","forget","","57","3","prime1","right","","","",""
"html-keyboard-response","143","666048","0.0-4.0-1.0-3.8","z6ww2gz36c6nn2u","prime","5f2b3b627b4ac556309143ff","5f60e3c0a3b16e07647b2ff9","5f60eab38a98270008d7c3a4","false","null","<div style=""align-items: center; display: flex; color: darkorange; font-size: 90px""><b>ø</b></div>","null","","","","forget_cue","","","","","","","","","","","","","","","",""
"html-keyboard-response","144","666749","0.0-4.0-1.0-0.9","z6ww2gz36c6nn2u","prime","5f2b3b627b4ac556309143ff","5f60e3c0a3b16e07647b2ff9","5f60eab38a98270008d7c3a4","false","null","<span style=""color: black; font-size: 48px"">M + N</span>","null","","","","resp_prompt","","","","","","","","","","","","","","","",""
"categorize-image","145","667264","0.0-4.0-1.0-1.9","z6ww2gz36c6nn2u","prime","5f2b3b627b4ac556309143ff","5f60e3c0a3b16e07647b2ff9","5f60eab38a98270008d7c3a4","true","510.98999998066574","./Stimuli/SelectedImages/LM/LM100.bmp","83","","","","test","true","M + N","83","switch","LM","LM100.bmp","forget","","58","3","prime1","left","","","",""
"html-keyboard-response","146","669265","0.0-4.0-1.0-3.9","z6ww2gz36c6nn2u","prime","5f2b3b627b4ac556309143ff","5f60e3c0a3b16e07647b2ff9","5f60eab38a98270008d7c3a4","false","null","<div style=""align-items: center; display: flex; color: darkorange; font-size: 90px""><b>ø</b></div>","null","","","","forget_cue","","","","","","","","","","","","","","","",""
"html-keyboard-response","147","669967","0.0-4.0-1.0-0.10","z6ww2gz36c6nn2u","prime","5f2b3b627b4ac556309143ff","5f60e3c0a3b16e07647b2ff9","5f60eab38a98270008d7c3a4","false","null","<span style=""color: black; font-size: 48px"">N + M</span>","null","","","","resp_prompt","","","","","","","","","","","","","","","",""
"categorize-image","148","670592","0.0-4.0-1.0-1.10","z6ww2gz36c6nn2u","prime","5f2b3b627b4ac556309143ff","5f60e3c0a3b16e07647b2ff9","5f60eab38a98270008d7c3a4","true","621.5749999973923","./Stimuli/SelectedImages/SM/SM106.bmp","76","","","","test","true","N + M","76","switch","SM","SM106.bmp","remember","","59","3","prime1","right","","","",""
"html-keyboard-response","149","672598","0.0-4.0-1.0-3.10","z6ww2gz36c6nn2u","prime","5f2b3b627b4ac556309143ff","5f60e3c0a3b16e07647b2ff9","5f60eab38a98270008d7c3a4","false","null","<div style=""align-items: center; display: flex; color: dodgerblue; font-size: 90px""><b>o</b></div>","null","","","","forget_cue","","","","","","","","","","","","","","","",""
"html-keyboard-response","150","673304","0.0-4.0-1.0-0.11","z6ww2gz36c6nn2u","prime","5f2b3b627b4ac556309143ff","5f60e3c0a3b16e07647b2ff9","5f60eab38a98270008d7c3a4","false","null","<span style=""color: black; font-size: 48px"">N + M</span>","null","","","","resp_prompt","","","","","","","","","","","","","","","",""
"categorize-image","151","674096","0.0-4.0-1.0-1.11","z6ww2gz36c6nn2u","prime","5f2b3b627b4ac556309143ff","5f60e3c0a3b16e07647b2ff9","5f60eab38a98270008d7c3a4","true","787.9650000249967","./Stimuli/SelectedImages/SM/SM200.bmp","76","","","","test","true","N + M","76","repetition","SM","SM200.bmp","forget","","60","3","prime1","right","","","",""
"html-keyboard-response","152","676103","0.0-4.0-1.0-3.11","z6ww2gz36c6nn2u","prime","5f2b3b627b4ac556309143ff","5f60e3c0a3b16e07647b2ff9","5f60eab38a98270008d7c3a4","false","null","<div style=""align-items: center; display: flex; color: darkorange; font-size: 90px""><b>ø</b></div>","null","","","","forget_cue","","","","","","","","","","","","","","","",""
"html-keyboard-response","153","676807","0.0-4.0-1.0-0.12","z6ww2gz36c6nn2u","prime","5f2b3b627b4ac556309143ff","5f60e3c0a3b16e07647b2ff9","5f60eab38a98270008d7c3a4","false","null","<span style=""color: black; font-size: 48px"">M + N</span>","null","","","","resp_prompt","","","","","","","","","","","","","","","",""
"categorize-image","154","677384","0.0-4.0-1.0-1.12","z6ww2gz36c6nn2u","prime","5f2b3b627b4ac556309143ff","5f60e3c0a3b16e07647b2ff9","5f60eab38a98270008d7c3a4","true","573.8299998920411","./Stimuli/SelectedImages/SN/SN140.bmp","76","","","","test","true","M + N","76","repetition","SN","SN140.bmp","forget","","61","3","prime1","right","","","",""
"html-keyboard-response","155","679390","0.0-4.0-1.0-3.12","z6ww2gz36c6nn2u","prime","5f2b3b627b4ac556309143ff","5f60e3c0a3b16e07647b2ff9","5f60eab38a98270008d7c3a4","false","null","<div style=""align-items: center; display: flex; color: darkorange; font-size: 90px""><b>ø</b></div>","null","","","","forget_cue","","","","","","","","","","","","","","","",""
"html-keyboard-response","156","680096","0.0-4.0-1.0-0.13","z6ww2gz36c6nn2u","prime","5f2b3b627b4ac556309143ff","5f60e3c0a3b16e07647b2ff9","5f60eab38a98270008d7c3a4","false","null","<span style=""color: black; font-size: 48px"">N + M</span>","null","","","","resp_prompt","","","","","","","","","","","","","","","",""
"categorize-image","157","680963","0.0-4.0-1.0-1.13","z6ww2gz36c6nn2u","prime","5f2b3b627b4ac556309143ff","5f60e3c0a3b16e07647b2ff9","5f60eab38a98270008d7c3a4","true","862.6850000582635","./Stimuli/SelectedImages/LM/LM167.bmp","76","","","","test","true","N + M","76","switch","LM","LM167.bmp","remember","","62","3","prime1","right","","","",""
"html-keyboard-response","158","682969","0.0-4.0-1.0-3.13","z6ww2gz36c6nn2u","prime","5f2b3b627b4ac556309143ff","5f60e3c0a3b16e07647b2ff9","5f60eab38a98270008d7c3a4","false","null","<div style=""align-items: center; display: flex; color: dodgerblue; font-size: 90px""><b>o</b></div>","null","","","","forget_cue","","","","","","","","","","","","","","","",""
"html-keyboard-response","159","683675","0.0-4.0-1.0-0.14","z6ww2gz36c6nn2u","prime","5f2b3b627b4ac556309143ff","5f60e3c0a3b16e07647b2ff9","5f60eab38a98270008d7c3a4","false","null","<span style=""color: black; font-size: 48px"">M + N</span>","null","","","","resp_prompt","","","","","","","","","","","","","","","",""
"categorize-image","160","684224","0.0-4.0-1.0-1.14","z6ww2gz36c6nn2u","prime","5f2b3b627b4ac556309143ff","5f60e3c0a3b16e07647b2ff9","5f60eab38a98270008d7c3a4","true","543.4549999190494","./Stimuli/SelectedImages/SM/SM148.bmp","83","","","","test","true","M + N","83","switch","SM","SM148.bmp","forget","","63","3","prime1","left","","","",""
"html-keyboard-response","161","686231","0.0-4.0-1.0-3.14","z6ww2gz36c6nn2u","prime","5f2b3b627b4ac556309143ff","5f60e3c0a3b16e07647b2ff9","5f60eab38a98270008d7c3a4","false","null","<div style=""align-items: center; display: flex; color: darkorange; font-size: 90px""><b>ø</b></div>","null","","","","forget_cue","","","","","","","","","","","","","","","",""
"html-keyboard-response","162","686936","0.0-4.0-1.0-0.15","z6ww2gz36c6nn2u","prime","5f2b3b627b4ac556309143ff","5f60e3c0a3b16e07647b2ff9","5f60eab38a98270008d7c3a4","false","null","<span style=""color: black; font-size: 48px"">M + N</span>","null","","","","resp_prompt","","","","","","","","","","","","","","","",""
"categorize-image","163","687462","0.0-4.0-1.0-1.15","z6ww2gz36c6nn2u","prime","5f2b3b627b4ac556309143ff","5f60e3c0a3b16e07647b2ff9","5f60eab38a98270008d7c3a4","true","521.1950000375509","./Stimuli/SelectedImages/LM/LM59.bmp","83","","","","test","true","M + N","83","repetition","LM","LM59.bmp","forget","","64","3","prime1","left","","","",""
"html-keyboard-response","164","689468","0.0-4.0-1.0-3.15","z6ww2gz36c6nn2u","prime","5f2b3b627b4ac556309143ff","5f60e3c0a3b16e07647b2ff9","5f60eab38a98270008d7c3a4","false","null","<div style=""align-items: center; display: flex; color: darkorange; font-size: 90px""><b>ø</b></div>","null","","","","forget_cue","","","","","","","","","","","","","","","",""
"html-keyboard-response","165","690174","0.0-4.0-1.0-0.16","z6ww2gz36c6nn2u","prime","5f2b3b627b4ac556309143ff","5f60e3c0a3b16e07647b2ff9","5f60eab38a98270008d7c3a4","false","null","<span style=""color: black; font-size: 48px"">N + M</span>","null","","","","resp_prompt","","","","","","","","","","","","","","","",""
"categorize-image","166","690989","0.0-4.0-1.0-1.16","z6ww2gz36c6nn2u","prime","5f2b3b627b4ac556309143ff","5f60e3c0a3b16e07647b2ff9","5f60eab38a98270008d7c3a4","true","811.0100000631064","./Stimuli/SelectedImages/SN/SN155.bmp","83","","","","test","true","N + M","83","repetition","SN","SN155.bmp","forget","","65","3","prime1","left","","","",""
"html-keyboard-response","167","692995","0.0-4.0-1.0-3.16","z6ww2gz36c6nn2u","prime","5f2b3b627b4ac556309143ff","5f60e3c0a3b16e07647b2ff9","5f60eab38a98270008d7c3a4","false","null","<div style=""align-items: center; display: flex; color: darkorange; font-size: 90px""><b>ø</b></div>","null","","","","forget_cue","","","","","","","","","","","","","","","",""
"html-keyboard-response","168","693701","0.0-4.0-1.0-0.17","z6ww2gz36c6nn2u","prime","5f2b3b627b4ac556309143ff","5f60e3c0a3b16e07647b2ff9","5f60eab38a98270008d7c3a4","false","null","<span style=""color: black; font-size: 48px"">N + M</span>","null","","","","resp_prompt","","","","","","","","","","","","","","","",""
"categorize-image","169","694182","0.0-4.0-1.0-1.17","z6ww2gz36c6nn2u","prime","5f2b3b627b4ac556309143ff","5f60e3c0a3b16e07647b2ff9","5f60eab38a98270008d7c3a4","true","476.9650000380352","./Stimuli/SelectedImages/LM/LM48.bmp","76","","","","test","true","N + M","76","repetition","LM","LM48.bmp","remember","","66","3","prime1","right","","","",""
"html-keyboard-response","170","696188","0.0-4.0-1.0-3.17","z6ww2gz36c6nn2u","prime","5f2b3b627b4ac556309143ff","5f60e3c0a3b16e07647b2ff9","5f60eab38a98270008d7c3a4","false","null","<div style=""align-items: center; display: flex; color: dodgerblue; font-size: 90px""><b>o</b></div>","null","","","","forget_cue","","","","","","","","","","","","","","","",""
"html-keyboard-response","171","696894","0.0-4.0-1.0-0.18","z6ww2gz36c6nn2u","prime","5f2b3b627b4ac556309143ff","5f60e3c0a3b16e07647b2ff9","5f60eab38a98270008d7c3a4","false","null","<span style=""color: black; font-size: 48px"">M + N</span>","null","","","","resp_prompt","","","","","","","","","","","","","","","",""
"categorize-image","172","697486","0.0-4.0-1.0-1.18","z6ww2gz36c6nn2u","prime","5f2b3b627b4ac556309143ff","5f60e3c0a3b16e07647b2ff9","5f60eab38a98270008d7c3a4","true","587.6700000371784","./Stimuli/SelectedImages/SN/SN182.bmp","76","","","","test","true","M + N","76","switch","SN","SN182.bmp","forget","","67","3","prime1","right","","","",""
"html-keyboard-response","173","699493","0.0-4.0-1.0-3.18","z6ww2gz36c6nn2u","prime","5f2b3b627b4ac556309143ff","5f60e3c0a3b16e07647b2ff9","5f60eab38a98270008d7c3a4","false","null","<div style=""align-items: center; display: flex; color: darkorange; font-size: 90px""><b>ø</b></div>","null","","","","forget_cue","","","","","","","","","","","","","","","",""
"html-keyboard-response","174","700199","0.0-4.0-1.0-0.19","z6ww2gz36c6nn2u","prime","5f2b3b627b4ac556309143ff","5f60e3c0a3b16e07647b2ff9","5f60eab38a98270008d7c3a4","false","null","<span style=""color: black; font-size: 48px"">N + M</span>","null","","","","resp_prompt","","","","","","","","","","","","","","","",""
"categorize-image","175","700863","0.0-4.0-1.0-1.19","z6ww2gz36c6nn2u","prime","5f2b3b627b4ac556309143ff","5f60e3c0a3b16e07647b2ff9","5f60eab38a98270008d7c3a4","true","660.6800000881776","./Stimuli/SelectedImages/SN/SN27.bmp","83","","","","test","true","N + M","83","repetition","SN","SN27.bmp","remember","","68","3","prime1","left","","","",""
"html-keyboard-response","176","702865","0.0-4.0-1.0-3.19","z6ww2gz36c6nn2u","prime","5f2b3b627b4ac556309143ff","5f60e3c0a3b16e07647b2ff9","5f60eab38a98270008d7c3a4","false","null","<div style=""align-items: center; display: flex; color: dodgerblue; font-size: 90px""><b>o</b></div>","null","","","","forget_cue","","","","","","","","","","","","","","","",""
"html-keyboard-response","177","703571","0.0-4.0-1.0-0.20","z6ww2gz36c6nn2u","prime","5f2b3b627b4ac556309143ff","5f60e3c0a3b16e07647b2ff9","5f60eab38a98270008d7c3a4","false","null","<span style=""color: black; font-size: 48px"">M + N</span>","null","","","","resp_prompt","","","","","","","","","","","","","","","",""
"categorize-image","178","704480","0.0-4.0-1.0-1.20","z6ww2gz36c6nn2u","prime","5f2b3b627b4ac556309143ff","5f60e3c0a3b16e07647b2ff9","5f60eab38a98270008d7c3a4","true","905.5149999912828","./Stimuli/SelectedImages/SM/SM73.bmp","76","","","","test","false","M + N","83","switch","SM","SM73.bmp","remember","","69","3","prime1","right","","","",""
"html-keyboard-response","179","704984","0.0-4.0-1.0-2.20-0.20","z6ww2gz36c6nn2u","prime","5f2b3b627b4ac556309143ff","5f60e3c0a3b16e07647b2ff9","5f60eab38a98270008d7c3a4","false","null","<span style=""color: red; font-size: 48px"">Error!</span>","null","","","","feedback","","","","","","","","","","","","","","","",""
"html-keyboard-response","180","706988","0.0-4.0-1.0-3.20","z6ww2gz36c6nn2u","prime","5f2b3b627b4ac556309143ff","5f60e3c0a3b16e07647b2ff9","5f60eab38a98270008d7c3a4","false","null","<div style=""align-items: center; display: flex; color: dodgerblue; font-size: 90px""><b>o</b></div>","null","","","","forget_cue","","","","","","","","","","","","","","","",""
"html-keyboard-response","181","707694","0.0-4.0-1.0-0.21","z6ww2gz36c6nn2u","prime","5f2b3b627b4ac556309143ff","5f60e3c0a3b16e07647b2ff9","5f60eab38a98270008d7c3a4","false","null","<span style=""color: black; font-size: 48px"">M + N</span>","null","","","","resp_prompt","","","","","","","","","","","","","","","",""
"categorize-image","182","708175","0.0-4.0-1.0-1.21","z6ww2gz36c6nn2u","prime","5f2b3b627b4ac556309143ff","5f60e3c0a3b16e07647b2ff9","5f60eab38a98270008d7c3a4","true","476.5950000146404","./Stimuli/SelectedImages/LN/LN111.bmp","76","","","","test","true","M + N","76","switch","LN","LN111.bmp","remember","","70","3","prime1","right","","","",""
"html-keyboard-response","183","710181","0.0-4.0-1.0-3.21","z6ww2gz36c6nn2u","prime","5f2b3b627b4ac556309143ff","5f60e3c0a3b16e07647b2ff9","5f60eab38a98270008d7c3a4","false","null","<div style=""align-items: center; display: flex; color: dodgerblue; font-size: 90px""><b>o</b></div>","null","","","","forget_cue","","","","","","","","","","","","","","","",""
"html-keyboard-response","184","710886","0.0-4.0-1.0-0.22","z6ww2gz36c6nn2u","prime","5f2b3b627b4ac556309143ff","5f60e3c0a3b16e07647b2ff9","5f60eab38a98270008d7c3a4","false","null","<span style=""color: black; font-size: 48px"">M + N</span>","null","","","","resp_prompt","","","","","","","","","","","","","","","",""
"categorize-image","185","711521","0.0-4.0-1.0-1.22","z6ww2gz36c6nn2u","prime","5f2b3b627b4ac556309143ff","5f60e3c0a3b16e07647b2ff9","5f60eab38a98270008d7c3a4","true","631.4799999818206","./Stimuli/SelectedImages/LN/LN177.bmp","76","","","","test","true","M + N","76","repetition","LN","LN177.bmp","forget","","71","3","prime1","right","","","",""
"html-keyboard-response","186","713527","0.0-4.0-1.0-3.22","z6ww2gz36c6nn2u","prime","5f2b3b627b4ac556309143ff","5f60e3c0a3b16e07647b2ff9","5f60eab38a98270008d7c3a4","false","null","<div style=""align-items: center; display: flex; color: darkorange; font-size: 90px""><b>ø</b></div>","null","","","","forget_cue","","","","","","","","","","","","","","","",""
"html-keyboard-response","187","714234","0.0-4.0-1.0-0.23","z6ww2gz36c6nn2u","prime","5f2b3b627b4ac556309143ff","5f60e3c0a3b16e07647b2ff9","5f60eab38a98270008d7c3a4","false","null","<span style=""color: black; font-size: 48px"">M + N</span>","null","","","","resp_prompt","","","","","","","","","","","","","","","",""
"categorize-image","188","714954","0.0-4.0-1.0-1.23","z6ww2gz36c6nn2u","prime","5f2b3b627b4ac556309143ff","5f60e3c0a3b16e07647b2ff9","5f60eab38a98270008d7c3a4","true","716.770000057295","./Stimuli/SelectedImages/SN/SN179.bmp","76","","","","test","true","M + N","76","repetition","SN","SN179.bmp","remember","","72","3","prime1","right","","","",""
"html-keyboard-response","189","716959","0.0-4.0-1.0-3.23","z6ww2gz36c6nn2u","prime","5f2b3b627b4ac556309143ff","5f60e3c0a3b16e07647b2ff9","5f60eab38a98270008d7c3a4","false","null","<div style=""align-items: center; display: flex; color: dodgerblue; font-size: 90px""><b>o</b></div>","null","","","","forget_cue","","","","","","","","","","","","","","","",""
"html-keyboard-response","190","717665","0.0-4.0-1.0-0.24","z6ww2gz36c6nn2u","prime","5f2b3b627b4ac556309143ff","5f60e3c0a3b16e07647b2ff9","5f60eab38a98270008d7c3a4","false","null","<span style=""color: black; font-size: 48px"">N + M</span>","null","","","","resp_prompt","","","","","","","","","","","","","","","",""
"categorize-image","191","718565","0.0-4.0-1.0-1.24","z6ww2gz36c6nn2u","prime","5f2b3b627b4ac556309143ff","5f60e3c0a3b16e07647b2ff9","5f60eab38a98270008d7c3a4","true","895.8900000434369","./Stimuli/SelectedImages/SM/SM74.bmp","83","","","","test","false","N + M","76","repetition","SM","SM74.bmp","remember","","73","3","prime1","left","","","",""
"html-keyboard-response","192","719068","0.0-4.0-1.0-2.24-0.24","z6ww2gz36c6nn2u","prime","5f2b3b627b4ac556309143ff","5f60e3c0a3b16e07647b2ff9","5f60eab38a98270008d7c3a4","false","null","<span style=""color: red; font-size: 48px"">Error!</span>","null","","","","feedback","","","","","","","","","","","","","","","",""
"html-keyboard-response","193","721074","0.0-4.0-1.0-3.24","z6ww2gz36c6nn2u","prime","5f2b3b627b4ac556309143ff","5f60e3c0a3b16e07647b2ff9","5f60eab38a98270008d7c3a4","false","null","<div style=""align-items: center; display: flex; color: dodgerblue; font-size: 90px""><b>o</b></div>","null","","","","forget_cue","","","","","","","","","","","","","","","",""
"html-keyboard-response","194","721780","0.0-4.0-1.0-0.25","z6ww2gz36c6nn2u","prime","5f2b3b627b4ac556309143ff","5f60e3c0a3b16e07647b2ff9","5f60eab38a98270008d7c3a4","false","null","<span style=""color: black; font-size: 48px"">N + M</span>","null","","","","resp_prompt","","","","","","","","","","","","","","","",""
"categorize-image","195","722219","0.0-4.0-1.0-1.25","z6ww2gz36c6nn2u","prime","5f2b3b627b4ac556309143ff","5f60e3c0a3b16e07647b2ff9","5f60eab38a98270008d7c3a4","true","434.40499994903803","./Stimuli/SelectedImages/LM/LM179.bmp","76","","","","test","true","N + M","76","repetition","LM","LM179.bmp","forget","","74","3","prime1","right","","","",""
"html-keyboard-response","196","724225","0.0-4.0-1.0-3.25","z6ww2gz36c6nn2u","prime","5f2b3b627b4ac556309143ff","5f60e3c0a3b16e07647b2ff9","5f60eab38a98270008d7c3a4","false","null","<div style=""align-items: center; display: flex; color: darkorange; font-size: 90px""><b>ø</b></div>","null","","","","forget_cue","","","","","","","","","","","","","","","",""
"html-keyboard-response","197","724931","0.0-4.0-1.0-0.26","z6ww2gz36c6nn2u","prime","5f2b3b627b4ac556309143ff","5f60e3c0a3b16e07647b2ff9","5f60eab38a98270008d7c3a4","false","null","<span style=""color: black; font-size: 48px"">N + M</span>","null","","","","resp_prompt","","","","","","","","","","","","","","","",""
"categorize-image","198","725573","0.0-4.0-1.0-1.26","z6ww2gz36c6nn2u","prime","5f2b3b627b4ac556309143ff","5f60e3c0a3b16e07647b2ff9","5f60eab38a98270008d7c3a4","true","637.5700000207871","./Stimuli/SelectedImages/LN/LN166.bmp","83","","","","test","true","N + M","83","repetition","LN","LN166.bmp","forget","","75","3","prime1","left","","","",""
"html-keyboard-response","199","727574","0.0-4.0-1.0-3.26","z6ww2gz36c6nn2u","prime","5f2b3b627b4ac556309143ff","5f60e3c0a3b16e07647b2ff9","5f60eab38a98270008d7c3a4","false","null","<div style=""align-items: center; display: flex; color: darkorange; font-size: 90px""><b>ø</b></div>","null","","","","forget_cue","","","","","","","","","","","","","","","",""
"html-keyboard-response","200","728281","0.0-4.0-1.0-0.27","z6ww2gz36c6nn2u","prime","5f2b3b627b4ac556309143ff","5f60e3c0a3b16e07647b2ff9","5f60eab38a98270008d7c3a4","false","null","<span style=""color: black; font-size: 48px"">N + M</span>","null","","","","resp_prompt","","","","","","","","","","","","","","","",""
"categorize-image","201","728756","0.0-4.0-1.0-1.27","z6ww2gz36c6nn2u","prime","5f2b3b627b4ac556309143ff","5f60e3c0a3b16e07647b2ff9","5f60eab38a98270008d7c3a4","true","471.74499998800457","./Stimuli/SelectedImages/LM/LM216.bmp","76","","","","test","true","N + M","76","repetition","LM","LM216.bmp","remember","","76","3","prime1","right","","","",""
"html-keyboard-response","202","730762","0.0-4.0-1.0-3.27","z6ww2gz36c6nn2u","prime","5f2b3b627b4ac556309143ff","5f60e3c0a3b16e07647b2ff9","5f60eab38a98270008d7c3a4","false","null","<div style=""align-items: center; display: flex; color: dodgerblue; font-size: 90px""><b>o</b></div>","null","","","","forget_cue","","","","","","","","","","","","","","","",""
"html-keyboard-response","203","731469","0.0-4.0-1.0-0.28","z6ww2gz36c6nn2u","prime","5f2b3b627b4ac556309143ff","5f60e3c0a3b16e07647b2ff9","5f60eab38a98270008d7c3a4","false","null","<span style=""color: black; font-size: 48px"">M + N</span>","null","","","","resp_prompt","","","","","","","","","","","","","","","",""
"categorize-image","204","731919","0.0-4.0-1.0-1.28","z6ww2gz36c6nn2u","prime","5f2b3b627b4ac556309143ff","5f60e3c0a3b16e07647b2ff9","5f60eab38a98270008d7c3a4","true","446.06499990914017","./Stimuli/SelectedImages/LM/LM150.bmp","83","","","","test","true","M + N","83","switch","LM","LM150.bmp","remember","","77","3","prime1","left","","","",""
"html-keyboard-response","205","733925","0.0-4.0-1.0-3.28","z6ww2gz36c6nn2u","prime","5f2b3b627b4ac556309143ff","5f60e3c0a3b16e07647b2ff9","5f60eab38a98270008d7c3a4","false","null","<div style=""align-items: center; display: flex; color: dodgerblue; font-size: 90px""><b>o</b></div>","null","","","","forget_cue","","","","","","","","","","","","","","","",""
"html-keyboard-response","206","734631","0.0-4.0-1.0-0.29","z6ww2gz36c6nn2u","prime","5f2b3b627b4ac556309143ff","5f60e3c0a3b16e07647b2ff9","5f60eab38a98270008d7c3a4","false","null","<span style=""color: black; font-size: 48px"">N + M</span>","null","","","","resp_prompt","","","","","","","","","","","","","","","",""
"categorize-image","207","735282","0.0-4.0-1.0-1.29","z6ww2gz36c6nn2u","prime","5f2b3b627b4ac556309143ff","5f60e3c0a3b16e07647b2ff9","5f60eab38a98270008d7c3a4","true","647.4249999737367","./Stimuli/SelectedImages/SM/SM184.bmp","76","","","","test","true","N + M","76","repetition","SM","SM184.bmp","remember","","78","3","prime1","right","","","",""
"html-keyboard-response","208","737284","0.0-4.0-1.0-3.29","z6ww2gz36c6nn2u","prime","5f2b3b627b4ac556309143ff","5f60e3c0a3b16e07647b2ff9","5f60eab38a98270008d7c3a4","false","null","<div style=""align-items: center; display: flex; color: dodgerblue; font-size: 90px""><b>o</b></div>","null","","","","forget_cue","","","","","","","","","","","","","","","",""
"html-keyboard-response","209","737990","0.0-4.0-1.0-0.30","z6ww2gz36c6nn2u","prime","5f2b3b627b4ac556309143ff","5f60e3c0a3b16e07647b2ff9","5f60eab38a98270008d7c3a4","false","null","<span style=""color: black; font-size: 48px"">M + N</span>","null","","","","resp_prompt","","","","","","","","","","","","","","","",""
"categorize-image","210","739051","0.0-4.0-1.0-1.30","z6ww2gz36c6nn2u","prime","5f2b3b627b4ac556309143ff","5f60e3c0a3b16e07647b2ff9","5f60eab38a98270008d7c3a4","true","1056.6450000042096","./Stimuli/SelectedImages/SM/SM108.bmp","83","","","","test","true","M + N","83","switch","SM","SM108.bmp","remember","","79","3","prime1","left","","","",""
"html-keyboard-response","211","741057","0.0-4.0-1.0-3.30","z6ww2gz36c6nn2u","prime","5f2b3b627b4ac556309143ff","5f60e3c0a3b16e07647b2ff9","5f60eab38a98270008d7c3a4","false","null","<div style=""align-items: center; display: flex; color: dodgerblue; font-size: 90px""><b>o</b></div>","null","","","","forget_cue","","","","","","","","","","","","","","","",""
"html-keyboard-response","212","741763","0.0-4.0-1.0-0.31","z6ww2gz36c6nn2u","prime","5f2b3b627b4ac556309143ff","5f60e3c0a3b16e07647b2ff9","5f60eab38a98270008d7c3a4","false","null","<span style=""color: black; font-size: 48px"">M + N</span>","null","","","","resp_prompt","","","","","","","","","","","","","","","",""
"categorize-image","213","742423","0.0-4.0-1.0-1.31","z6ww2gz36c6nn2u","prime","5f2b3b627b4ac556309143ff","5f60e3c0a3b16e07647b2ff9","5f60eab38a98270008d7c3a4","true","655.5849999422207","./Stimuli/SelectedImages/LM/LM57.bmp","83","","","","test","true","M + N","83","switch","LM","LM57.bmp","remember","","80","3","prime1","left","","","",""
"html-keyboard-response","214","744429","0.0-4.0-1.0-3.31","z6ww2gz36c6nn2u","prime","5f2b3b627b4ac556309143ff","5f60e3c0a3b16e07647b2ff9","5f60eab38a98270008d7c3a4","false","null","<div style=""align-items: center; display: flex; color: dodgerblue; font-size: 90px""><b>o</b></div>","null","","","","forget_cue","","","","","","","","","","","","","","","",""
"html-keyboard-response","215","745135","0.0-4.0-1.0-0.32","z6ww2gz36c6nn2u","prime","5f2b3b627b4ac556309143ff","5f60e3c0a3b16e07647b2ff9","5f60eab38a98270008d7c3a4","false","null","<span style=""color: black; font-size: 48px"">N + M</span>","null","","","","resp_prompt","","","","","","","","","","","","","","","",""
"categorize-image","216","745796","0.0-4.0-1.0-1.32","z6ww2gz36c6nn2u","prime","5f2b3b627b4ac556309143ff","5f60e3c0a3b16e07647b2ff9","5f60eab38a98270008d7c3a4","true","656.1099999817088","./Stimuli/SelectedImages/SM/SM128.bmp","76","","","","test","true","N + M","76","switch","SM","SM128.bmp","forget","","81","3","prime1","right","","","",""
"html-keyboard-response","217","747802","0.0-4.0-1.0-3.32","z6ww2gz36c6nn2u","prime","5f2b3b627b4ac556309143ff","5f60e3c0a3b16e07647b2ff9","5f60eab38a98270008d7c3a4","false","null","<div style=""align-items: center; display: flex; color: darkorange; font-size: 90px""><b>ø</b></div>","null","","","","forget_cue","","","","","","","","","","","","","","","",""
"html-keyboard-response","218","748508","0.0-4.0-1.0-0.33","z6ww2gz36c6nn2u","prime","5f2b3b627b4ac556309143ff","5f60e3c0a3b16e07647b2ff9","5f60eab38a98270008d7c3a4","false","null","<span style=""color: black; font-size: 48px"">M + N</span>","null","","","","resp_prompt","","","","","","","","","","","","","","","",""
"categorize-image","219","749193","0.0-4.0-1.0-1.33","z6ww2gz36c6nn2u","prime","5f2b3b627b4ac556309143ff","5f60e3c0a3b16e07647b2ff9","5f60eab38a98270008d7c3a4","true","681.125000002794","./Stimuli/SelectedImages/SM/SM78.bmp","83","","","","test","true","M + N","83","repetition","SM","SM78.bmp","forget","","82","3","prime1","left","","","",""
"html-keyboard-response","220","751199","0.0-4.0-1.0-3.33","z6ww2gz36c6nn2u","prime","5f2b3b627b4ac556309143ff","5f60e3c0a3b16e07647b2ff9","5f60eab38a98270008d7c3a4","false","null","<div style=""align-items: center; display: flex; color: darkorange; font-size: 90px""><b>ø</b></div>","null","","","","forget_cue","","","","","","","","","","","","","","","",""
"html-keyboard-response","221","751905","0.0-4.0-1.0-0.34","z6ww2gz36c6nn2u","prime","5f2b3b627b4ac556309143ff","5f60e3c0a3b16e07647b2ff9","5f60eab38a98270008d7c3a4","false","null","<span style=""color: black; font-size: 48px"">N + M</span>","null","","","","resp_prompt","","","","","","","","","","","","","","","",""
"categorize-image","222","752600","0.0-4.0-1.0-1.34","z6ww2gz36c6nn2u","prime","5f2b3b627b4ac556309143ff","5f60e3c0a3b16e07647b2ff9","5f60eab38a98270008d7c3a4","true","691.0449999850243","./Stimuli/SelectedImages/SN/SN181.bmp","83","","","","test","true","N + M","83","repetition","SN","SN181.bmp","remember","","83","3","prime1","left","","","",""
"html-keyboard-response","223","754607","0.0-4.0-1.0-3.34","z6ww2gz36c6nn2u","prime","5f2b3b627b4ac556309143ff","5f60e3c0a3b16e07647b2ff9","5f60eab38a98270008d7c3a4","false","null","<div style=""align-items: center; display: flex; color: dodgerblue; font-size: 90px""><b>o</b></div>","null","","","","forget_cue","","","","","","","","","","","","","","","",""
"html-keyboard-response","224","755313","0.0-4.0-1.0-0.35","z6ww2gz36c6nn2u","prime","5f2b3b627b4ac556309143ff","5f60e3c0a3b16e07647b2ff9","5f60eab38a98270008d7c3a4","false","null","<span style=""color: black; font-size: 48px"">N + M</span>","null","","","","resp_prompt","","","","","","","","","","","","","","","",""
"categorize-image","225","755983","0.0-4.0-1.0-1.35","z6ww2gz36c6nn2u","prime","5f2b3b627b4ac556309143ff","5f60e3c0a3b16e07647b2ff9","5f60eab38a98270008d7c3a4","true","666.1649999441579","./Stimuli/SelectedImages/SN/SN64.bmp","83","","","","test","true","N + M","83","repetition","SN","SN64.bmp","forget","","84","3","prime1","left","","","",""
"html-keyboard-response","226","757989","0.0-4.0-1.0-3.35","z6ww2gz36c6nn2u","prime","5f2b3b627b4ac556309143ff","5f60e3c0a3b16e07647b2ff9","5f60eab38a98270008d7c3a4","false","null","<div style=""align-items: center; display: flex; color: darkorange; font-size: 90px""><b>ø</b></div>","null","","","","forget_cue","","","","","","","","","","","","","","","",""
"html-keyboard-response","227","758696","0.0-4.0-1.0-0.36","z6ww2gz36c6nn2u","prime","5f2b3b627b4ac556309143ff","5f60e3c0a3b16e07647b2ff9","5f60eab38a98270008d7c3a4","false","null","<span style=""color: black; font-size: 48px"">N + M</span>","null","","","","resp_prompt","","","","","","","","","","","","","","","",""
"categorize-image","228","759091","0.0-4.0-1.0-1.36","z6ww2gz36c6nn2u","prime","5f2b3b627b4ac556309143ff","5f60e3c0a3b16e07647b2ff9","5f60eab38a98270008d7c3a4","true","392.0299999881536","./Stimuli/SelectedImages/LM/LM129.bmp","76","","","","test","true","N + M","76","switch","LM","LM129.bmp","forget","","85","3","prime1","right","","","",""
"html-keyboard-response","229","761097","0.0-4.0-1.0-3.36","z6ww2gz36c6nn2u","prime","5f2b3b627b4ac556309143ff","5f60e3c0a3b16e07647b2ff9","5f60eab38a98270008d7c3a4","false","null","<div style=""align-items: center; display: flex; color: darkorange; font-size: 90px""><b>ø</b></div>","null","","","","forget_cue","","","","","","","","","","","","","","","",""
"html-keyboard-response","230","761804","0.0-4.0-1.0-0.37","z6ww2gz36c6nn2u","prime","5f2b3b627b4ac556309143ff","5f60e3c0a3b16e07647b2ff9","5f60eab38a98270008d7c3a4","false","null","<span style=""color: black; font-size: 48px"">N + M</span>","null","","","","resp_prompt","","","","","","","","","","","","","","","",""
"categorize-image","231","762494","0.0-4.0-1.0-1.37","z6ww2gz36c6nn2u","prime","5f2b3b627b4ac556309143ff","5f60e3c0a3b16e07647b2ff9","5f60eab38a98270008d7c3a4","true","686.394999967888","./Stimuli/SelectedImages/LN/LN128.bmp","83","","","","test","true","N + M","83","repetition","LN","LN128.bmp","remember","","86","3","prime1","left","","","",""
"html-keyboard-response","232","764499","0.0-4.0-1.0-3.37","z6ww2gz36c6nn2u","prime","5f2b3b627b4ac556309143ff","5f60e3c0a3b16e07647b2ff9","5f60eab38a98270008d7c3a4","false","null","<div style=""align-items: center; display: flex; color: dodgerblue; font-size: 90px""><b>o</b></div>","null","","","","forget_cue","","","","","","","","","","","","","","","",""
"html-keyboard-response","233","765205","0.0-4.0-1.0-0.38","z6ww2gz36c6nn2u","prime","5f2b3b627b4ac556309143ff","5f60e3c0a3b16e07647b2ff9","5f60eab38a98270008d7c3a4","false","null","<span style=""color: black; font-size: 48px"">M + N</span>","null","","","","resp_prompt","","","","","","","","","","","","","","","",""
"categorize-image","234","765819","0.0-4.0-1.0-1.38","z6ww2gz36c6nn2u","prime","5f2b3b627b4ac556309143ff","5f60e3c0a3b16e07647b2ff9","5f60eab38a98270008d7c3a4","true","609.2850000131875","./Stimuli/SelectedImages/LN/LN149.bmp","76","","","","test","true","M + N","76","repetition","LN","LN149.bmp","forget","","87","3","prime1","right","","","",""
"html-keyboard-response","235","767825","0.0-4.0-1.0-3.38","z6ww2gz36c6nn2u","prime","5f2b3b627b4ac556309143ff","5f60e3c0a3b16e07647b2ff9","5f60eab38a98270008d7c3a4","false","null","<div style=""align-items: center; display: flex; color: darkorange; font-size: 90px""><b>ø</b></div>","null","","","","forget_cue","","","","","","","","","","","","","","","",""
"html-keyboard-response","236","768531","0.0-4.0-1.0-0.39","z6ww2gz36c6nn2u","prime","5f2b3b627b4ac556309143ff","5f60e3c0a3b16e07647b2ff9","5f60eab38a98270008d7c3a4","false","null","<span style=""color: black; font-size: 48px"">M + N</span>","null","","","","resp_prompt","","","","","","","","","","","","","","","",""
"categorize-image","237","769091","0.0-4.0-1.0-1.39","z6ww2gz36c6nn2u","prime","5f2b3b627b4ac556309143ff","5f60e3c0a3b16e07647b2ff9","5f60eab38a98270008d7c3a4","true","555.7750000152737","./Stimuli/SelectedImages/LM/LM103.bmp","83","","","","test","true","M + N","83","repetition","LM","LM103.bmp","remember","","88","3","prime1","left","","","",""
"html-keyboard-response","238","771097","0.0-4.0-1.0-3.39","z6ww2gz36c6nn2u","prime","5f2b3b627b4ac556309143ff","5f60e3c0a3b16e07647b2ff9","5f60eab38a98270008d7c3a4","false","null","<div style=""align-items: center; display: flex; color: dodgerblue; font-size: 90px""><b>o</b></div>","null","","","","forget_cue","","","","","","","","","","","","","","","",""
"html-keyboard-response","239","771798","0.0-4.0-1.0-0.40","z6ww2gz36c6nn2u","prime","5f2b3b627b4ac556309143ff","5f60e3c0a3b16e07647b2ff9","5f60eab38a98270008d7c3a4","false","null","<span style=""color: black; font-size: 48px"">N + M</span>","null","","","","resp_prompt","","","","","","","","","","","","","","","",""
"categorize-image","240","772468","0.0-4.0-1.0-1.40","z6ww2gz36c6nn2u","prime","5f2b3b627b4ac556309143ff","5f60e3c0a3b16e07647b2ff9","5f60eab38a98270008d7c3a4","true","665.9950000466779","./Stimuli/SelectedImages/LN/LN59.bmp","83","","","","test","true","N + M","83","switch","LN","LN59.bmp","forget","","89","3","prime1","left","","","",""
"html-keyboard-response","241","774474","0.0-4.0-1.0-3.40","z6ww2gz36c6nn2u","prime","5f2b3b627b4ac556309143ff","5f60e3c0a3b16e07647b2ff9","5f60eab38a98270008d7c3a4","false","null","<div style=""align-items: center; display: flex; color: darkorange; font-size: 90px""><b>ø</b></div>","null","","","","forget_cue","","","","","","","","","","","","","","","",""
"html-keyboard-response","242","775176","0.0-4.0-1.0-0.41","z6ww2gz36c6nn2u","prime","5f2b3b627b4ac556309143ff","5f60e3c0a3b16e07647b2ff9","5f60eab38a98270008d7c3a4","false","null","<span style=""color: black; font-size: 48px"">M + N</span>","null","","","","resp_prompt","","","","","","","","","","","","","","","",""
"categorize-image","243","776069","0.0-4.0-1.0-1.41","z6ww2gz36c6nn2u","prime","5f2b3b627b4ac556309143ff","5f60e3c0a3b16e07647b2ff9","5f60eab38a98270008d7c3a4","true","889.2100000521168","./Stimuli/SelectedImages/SM/SM76.bmp","83","","","","test","true","M + N","83","repetition","SM","SM76.bmp","remember","","90","3","prime1","left","","","",""
"html-keyboard-response","244","778076","0.0-4.0-1.0-3.41","z6ww2gz36c6nn2u","prime","5f2b3b627b4ac556309143ff","5f60e3c0a3b16e07647b2ff9","5f60eab38a98270008d7c3a4","false","null","<div style=""align-items: center; display: flex; color: dodgerblue; font-size: 90px""><b>o</b></div>","null","","","","forget_cue","","","","","","","","","","","","","","","",""
"html-keyboard-response","245","778782","0.0-4.0-1.0-0.42","z6ww2gz36c6nn2u","prime","5f2b3b627b4ac556309143ff","5f60e3c0a3b16e07647b2ff9","5f60eab38a98270008d7c3a4","false","null","<span style=""color: black; font-size: 48px"">M + N</span>","null","","","","resp_prompt","","","","","","","","","","","","","","","",""
"categorize-image","246","779545","0.0-4.0-1.0-1.42","z6ww2gz36c6nn2u","prime","5f2b3b627b4ac556309143ff","5f60e3c0a3b16e07647b2ff9","5f60eab38a98270008d7c3a4","true","759.5799999544397","./Stimuli/SelectedImages/SN/SN18.bmp","76","","","","test","true","M + N","76","switch","SN","SN18.bmp","remember","","91","3","prime1","right","","","",""
"html-keyboard-response","247","781551","0.0-4.0-1.0-3.42","z6ww2gz36c6nn2u","prime","5f2b3b627b4ac556309143ff","5f60e3c0a3b16e07647b2ff9","5f60eab38a98270008d7c3a4","false","null","<div style=""align-items: center; display: flex; color: dodgerblue; font-size: 90px""><b>o</b></div>","null","","","","forget_cue","","","","","","","","","","","","","","","",""
"html-keyboard-response","248","782258","0.0-4.0-1.0-0.43","z6ww2gz36c6nn2u","prime","5f2b3b627b4ac556309143ff","5f60e3c0a3b16e07647b2ff9","5f60eab38a98270008d7c3a4","false","null","<span style=""color: black; font-size: 48px"">M + N</span>","null","","","","resp_prompt","","","","","","","","","","","","","","","",""
"categorize-image","249","782925","0.0-4.0-1.0-1.43","z6ww2gz36c6nn2u","prime","5f2b3b627b4ac556309143ff","5f60e3c0a3b16e07647b2ff9","5f60eab38a98270008d7c3a4","true","662.4900000169873","./Stimuli/SelectedImages/SN/SN49.bmp","76","","","","test","true","M + N","76","repetition","SN","SN49.bmp","forget","","92","3","prime1","right","","","",""
"html-keyboard-response","250","784926","0.0-4.0-1.0-3.43","z6ww2gz36c6nn2u","prime","5f2b3b627b4ac556309143ff","5f60e3c0a3b16e07647b2ff9","5f60eab38a98270008d7c3a4","false","null","<div style=""align-items: center; display: flex; color: darkorange; font-size: 90px""><b>ø</b></div>","null","","","","forget_cue","","","","","","","","","","","","","","","",""
"html-keyboard-response","251","785633","0.0-4.0-1.0-0.44","z6ww2gz36c6nn2u","prime","5f2b3b627b4ac556309143ff","5f60e3c0a3b16e07647b2ff9","5f60eab38a98270008d7c3a4","false","null","<span style=""color: black; font-size: 48px"">N + M</span>","null","","","","resp_prompt","","","","","","","","","","","","","","","",""
"categorize-image","252","786388","0.0-4.0-1.0-1.44","z6ww2gz36c6nn2u","prime","5f2b3b627b4ac556309143ff","5f60e3c0a3b16e07647b2ff9","5f60eab38a98270008d7c3a4","true","751.2700000079349","./Stimuli/SelectedImages/SM/SM213.bmp","76","","","","test","true","N + M","76","repetition","SM","SM213.bmp","forget","","93","3","prime1","right","","","",""
