"trial_type","trial_index","time_elapsed","internal_node_id","subject","exp_part","prolific_PID","study_ID","session_ID","use","rt","stimulus","key_press","button_pressed","responses","question_order","trial_part","correct","resp_map","correct_resp","probe_condition","category","image","forget_condition","list","trial_num","block_num","block","response","test_part","n_span","sequence","num_spaces"
"pavlovia","0","12","0.0-0.0","hfjw9v4uy5og18h","","5a706cc5efd3a7000120ff3e","5f60e3c0a3b16e07647b2ff9","5f61dc02c287bf17cf17c3f4","false","","","","","","","","","","","","","","","","","","","","","","",""
"html-keyboard-response","1","2824","0.0-1.0-0.0-0.0","hfjw9v4uy5og18h","welcome","5a706cc5efd3a7000120ff3e","5f60e3c0a3b16e07647b2ff9","5f61dc02c287bf17cf17c3f4","false","2806","<div align=left>Dear participant, <br> thank you for participating in an online study of the Cognition, Action, and Sustainability Unit of the University of Freiburg! <br> <br>The aim of this study is to examine our ability to remember previously learned information. <br>Our goal is to find out, whether our memory improves, when we only remember information that is relevant to us. <br>The experiment will take about 35 minutes to complete. <br> <br>Please, note that you can only participate in this study if you are using a device with a keyboard (PC, Laptop etc.) <br>and not if you are using a mobile device such as a tablet or smartphone.<br> <br>Press 'SPACE' to proceed to the experiment. </div>","32","","","","","","","","","","","","","","","","","","","",""
"html-keyboard-response","2","5199","0.0-1.0-0.0-1.0","hfjw9v4uy5og18h","welcome","5a706cc5efd3a7000120ff3e","5f60e3c0a3b16e07647b2ff9","5f61dc02c287bf17cf17c3f4","false","2373","<div align=left><strong> Time Course of this experiment: </strong> <br><br> <strong> 1.</strong>  First, please fill in some information regarding your demographic data. <br><br> <strong> 2.</strong>  Next, your task will be to classify everyday objects. <br>In addition, you will be asked to remember certain objects and recall them later. <br>Working on these tasks requires your undivided attention and concentration.<br>It is therefore essential that you eliminate any sources of distraction in your  <br>environment and ensure that you will not be disturbed. <br><br><strong> 3.</strong>  At the end of the experiment, you will be asked to answer a few additional questions. <br> <br><strong> Important:</strong> After finishing the experiment, only close the browser window <br> by clicking on the 'end the experiment'-button when you are asked to do so. <br>Closing the browser window prematurely will make the allocation of your participation credit impossible. <br><br> Press 'SPACE' to start the experiment. </div>","32","","","","","","","","","","","","","","","","","","","",""
"html-button-response","3","13234","0.0-1.0-0.0-2.0","hfjw9v4uy5og18h","welcome","5a706cc5efd3a7000120ff3e","5f60e3c0a3b16e07647b2ff9","5f61dc02c287bf17cf17c3f4","true","8032","<div align=left><strong> Informed consent </strong>  <br>The aim of our research is to better understand human behavior and mental processes. <br>In the following study your behavior (e.g. choices, reaction times) will be studied. <br> <br><strong> Voluntariness and Anonymity </strong> <br>Your participation in this study is  <strong> voluntary</strong>.<br>You may withdraw your consent to participate at any time without providing a reason for doing so and without fear of prejudice. <br><br>As no personal data will be collected, <strong>your data and your person cannot be connected after data collection</strong> – the data-set is anonymous. <br>Respectively, deletion of your data will not be possible after data collection has been completed, as we cannot retrace your data-set.<br>The results and anonymized data collected in this study will be published as a scientific publication. <br>This will happen in an <strong>anonymized format</strong>, so that no data can be traced back to a specific person. <br> <br>The anonymized data of this study will be made available to other researchers and/or in a data archive on the Internet as a means of transparency and to enable subsequent re-use. By doing so, this study follows the recommendations of the Deutsche Forschungsgemeinschaft (DFG, German Research Foundation) and Deutsche Gesellschaft für Psychologie (DGPS, German Psychological Society) regarding quality assurance in research.<br>If you have any questions now or after the experiment, please contact our team (experiments@cs.uni-freiburg.de).<br><br><br>I hereby declare, that I understand the above described conditions of participation and I agree to participate under these conditions. <br><br> </div>","","0","","","","","","","","","","","","","","","","","","",""
"html-keyboard-response","4","70416","0.0-1.0-0.0-3.0","hfjw9v4uy5og18h","welcome","5a706cc5efd3a7000120ff3e","5f60e3c0a3b16e07647b2ff9","5f61dc02c287bf17cf17c3f4","false","57179","<div align=left><strong> General information concerning the experiment </strong>  <br> <br>Please follow the instructions:<ol> <li><strong> Do not leave this tab (your browser window) during the experiment and do not reload this tab! </strong>  <br>If you do switch tabs/windows during the experiment (to check your mail or visit another website, for example), <br>the experiment will end automatically and you will <strong>not receive credit</strong> for your participation. <br>Repeated participation or resumption of the experiment is impossible.</li> <br><li>Please close all other programs for the duration of your participation. </li> <br><li>Please mute or turn off your phone and put it out of your reach. </li> <br><li>Please also take off any disturbing accessories (such as wristwatches, bracelets, etc.). </li> <br><li>If you have music playing in the background, please turn it off now. </li> <br></ol>Thank you! <br>Press 'SPACE' to continue. </div>","32","","","","","","","","","","","","","","","","","","","",""
"survey-text","5","75239","0.0-1.0-1.0-0.0","hfjw9v4uy5og18h","demographics","5a706cc5efd3a7000120ff3e","5f60e3c0a3b16e07647b2ff9","5f61dc02c287bf17cf17c3f4","true","4812","","","","{""age"":""34""}","","","","","","","","","","","","","","","","","",""
"survey-multi-choice","6","83135","0.0-1.0-1.0-1.0","hfjw9v4uy5og18h","demographics","5a706cc5efd3a7000120ff3e","5f60e3c0a3b16e07647b2ff9","5f61dc02c287bf17cf17c3f4","true","7891","","","","{""gender"":""female"",""school"":""middle school/secondary school/ graduation from polytechnic high school"",""education"":""High school graduate, diploma or equivalent""}","[0,1,2]","","","","","","","","","","","","","","","","",""
"html-keyboard-response","7","85288","0.0-1.0-2.0","hfjw9v4uy5og18h","instructions","5a706cc5efd3a7000120ff3e","5f60e3c0a3b16e07647b2ff9","5f61dc02c287bf17cf17c3f4","false","2149","<div align=left> The experiment is now about to start: <br> <br>In the following part, you will be presented pictures of everyday objects. <br>Your first task is to <strong>classify these objects. </strong> <br> <br> You will classify them either as mechanical or non-mechanical objects. <br> <br>Objects that include any kind of technical mechanism (for example, wheels, switches, levers, <br> electronic components) fall under the category of <strong>mechanical</strong> objects. <br>Only objects without any kind of technical mechanism should be classified as <strong>non-mechanical</strong>. <br><br>Press 'SPACE' to continue. </div>","32","","","","","","","","","","","","","","","","","","","",""
"html-keyboard-response","8","100920","0.0-2.0-0.0","hfjw9v4uy5og18h","instructions","5a706cc5efd3a7000120ff3e","5f60e3c0a3b16e07647b2ff9","5f61dc02c287bf17cf17c3f4","false","15630","<div align=justify>You will classify the objects using the <strong>'S'</strong> and the <strong>'L'</strong> keys on your keyboard.<br>For doing so, please place your <strong>left index finger</strong> on the <strong>'S'</strong> key and place your <strong>right index finger</strong> on the <strong>'L'</strong> key. <br><br> Each trial starts with an instruction, indicating which key ('S'/'L') you need to press to classify <br>the object as mechanical (letter M) or non-mechanical (letter N).<br>The instruction <strong>M + N</strong> indicates that, in the current trial, by pressing the left key ('S') you classify the displayed object as mechanical (M) <br> and by pressing the right key ('L') you classify the object as non-mechanical (N). <br>The instruction <strong>N + M</strong> on the other hand indicates that by pressing the left key ('S') you classify the displayed object as non-mechanical (N) <br> and by pressing the right key ('L') you classify the object as mechanical (M). <br><br>Please press the key corresponding to the correct classification as fast as possible as soon as the object is displayed and try to avoid making mistakes.<br>If you do not respond within a 2 second window, a corresponding feedback will be displayed and the next trial will start.<br> The experiment is divided into multiple blocks to give you the opportunity to take a break after each block. <br>First, you can now practice this task. <br><br>Please place your <strong>LEFT INDEX FINGER</strong> on the 'S' key and your <strong>RIGHT INDEX FINGER</strong> on the 'L' key now. <br><br>Press SPACE to continue.</div>","32","","","","","","","","","","","","","","","","","","","",""
"html-keyboard-response","9","105039","0.0-2.0-1.0","hfjw9v4uy5og18h","instructions","5a706cc5efd3a7000120ff3e","5f60e3c0a3b16e07647b2ff9","5f61dc02c287bf17cf17c3f4","false","4117","<div align=left> You will now have time to practice this task.<br><br>Remember: <br> <br><li>Please place your index fingers on the <strong>'S'</strong> and <strong>'L'</strong> keys <br>to respond as fast and accurately as possible.</li><li>Every picture can be classified as either mechanical or non-mechanical.</li><li>If you do not respond in time or commit an error, you will receive a corresponding feedback. </li><li> Please try to respond as <strong> fast </strong> and as <strong> accurately as possible </strong> .<br><li>To ensure optimal results, please minimize distractions and stay focused. </li><br><br>Press SPACE to continue.</div>","32","","","","","","","","","","","","","","","","","","","",""
"html-keyboard-response","10","105761","0.0-2.0-2.0-0.0","hfjw9v4uy5og18h","practice_no_cue","5a706cc5efd3a7000120ff3e","5f60e3c0a3b16e07647b2ff9","5f61dc02c287bf17cf17c3f4","false","null","<span style=""color: black; font-size: 48px"">N + M</span>","null","","","","resp_prompt","","","","","","","","","","","","","","","",""
"categorize-image","11","106776","0.0-2.0-2.0-1.0","hfjw9v4uy5og18h","practice_no_cue","5a706cc5efd3a7000120ff3e","5f60e3c0a3b16e07647b2ff9","5f61dc02c287bf17cf17c3f4","true","499","./Stimuli/ImagesPractice/LM239.jpg","83","","","","test","false","N + M","76","","LM","LM239.jpg","remember","old","1","1","start","left","","","",""
"html-keyboard-response","12","107498","0.0-2.0-2.0-0.1","hfjw9v4uy5og18h","practice_no_cue","5a706cc5efd3a7000120ff3e","5f60e3c0a3b16e07647b2ff9","5f61dc02c287bf17cf17c3f4","false","null","<span style=""color: black; font-size: 48px"">M + N</span>","null","","","","resp_prompt","","","","","","","","","","","","","","","",""
"categorize-image","13","109144","0.0-2.0-2.0-1.1","hfjw9v4uy5og18h","practice_no_cue","5a706cc5efd3a7000120ff3e","5f60e3c0a3b16e07647b2ff9","5f61dc02c287bf17cf17c3f4","true","1130","./Stimuli/ImagesPractice/SM37.jpg","76","","","","test","false","M + N","83","","SM","SM37.jpg","forget","old","2","1","start","right","","","",""
"html-keyboard-response","14","109865","0.0-2.0-2.0-0.2","hfjw9v4uy5og18h","practice_no_cue","5a706cc5efd3a7000120ff3e","5f60e3c0a3b16e07647b2ff9","5f61dc02c287bf17cf17c3f4","false","null","<span style=""color: black; font-size: 48px"">N + M</span>","null","","","","resp_prompt","","","","","","","","","","","","","","","",""
"categorize-image","15","110820","0.0-2.0-2.0-1.2","hfjw9v4uy5og18h","practice_no_cue","5a706cc5efd3a7000120ff3e","5f60e3c0a3b16e07647b2ff9","5f61dc02c287bf17cf17c3f4","true","444","./Stimuli/ImagesPractice/SN221.jpg","83","","","","test","true","N + M","83","","SN","SN221.jpg","forget","old","3","1","start","left","","","",""
"html-keyboard-response","16","111521","0.0-2.0-2.0-0.3","hfjw9v4uy5og18h","practice_no_cue","5a706cc5efd3a7000120ff3e","5f60e3c0a3b16e07647b2ff9","5f61dc02c287bf17cf17c3f4","false","null","<span style=""color: black; font-size: 48px"">N + M</span>","null","","","","resp_prompt","","","","","","","","","","","","","","","",""
"categorize-image","17","112333","0.0-2.0-2.0-1.3","hfjw9v4uy5og18h","practice_no_cue","5a706cc5efd3a7000120ff3e","5f60e3c0a3b16e07647b2ff9","5f61dc02c287bf17cf17c3f4","true","307","./Stimuli/ImagesPractice/LN72.jpg","83","","","","test","true","N + M","83","","LN","LN72.jpg","forget","old","4","1","start","left","","","",""
"html-keyboard-response","18","113045","0.0-2.0-2.0-0.4","hfjw9v4uy5og18h","practice_no_cue","5a706cc5efd3a7000120ff3e","5f60e3c0a3b16e07647b2ff9","5f61dc02c287bf17cf17c3f4","false","null","<span style=""color: black; font-size: 48px"">N + M</span>","null","","","","resp_prompt","","","","","","","","","","","","","","","",""
"categorize-image","19","114101","0.0-2.0-2.0-1.4","hfjw9v4uy5og18h","practice_no_cue","5a706cc5efd3a7000120ff3e","5f60e3c0a3b16e07647b2ff9","5f61dc02c287bf17cf17c3f4","true","536","./Stimuli/ImagesPractice/SM35.jpg","76","","","","test","true","N + M","76","","SM","SM35.jpg","remember","old","5","1","start","right","","","",""
"html-keyboard-response","20","114802","0.0-2.0-2.0-0.5","hfjw9v4uy5og18h","practice_no_cue","5a706cc5efd3a7000120ff3e","5f60e3c0a3b16e07647b2ff9","5f61dc02c287bf17cf17c3f4","false","null","<span style=""color: black; font-size: 48px"">M + N</span>","null","","","","resp_prompt","","","","","","","","","","","","","","","",""
"categorize-image","21","116163","0.0-2.0-2.0-1.5","hfjw9v4uy5og18h","practice_no_cue","5a706cc5efd3a7000120ff3e","5f60e3c0a3b16e07647b2ff9","5f61dc02c287bf17cf17c3f4","true","850","./Stimuli/ImagesPractice/LM224.jpg","83","","","","test","true","M + N","83","","LM","LM224.jpg","forget","old","6","1","start","left","","","",""
"html-keyboard-response","22","116885","0.0-2.0-2.0-0.6","hfjw9v4uy5og18h","practice_no_cue","5a706cc5efd3a7000120ff3e","5f60e3c0a3b16e07647b2ff9","5f61dc02c287bf17cf17c3f4","false","null","<span style=""color: black; font-size: 48px"">M + N</span>","null","","","","resp_prompt","","","","","","","","","","","","","","","",""
"categorize-image","23","118226","0.0-2.0-2.0-1.6","hfjw9v4uy5og18h","practice_no_cue","5a706cc5efd3a7000120ff3e","5f60e3c0a3b16e07647b2ff9","5f61dc02c287bf17cf17c3f4","true","833","./Stimuli/ImagesPractice/SM97.jpg","83","","","","test","true","M + N","83","","SM","SM97.jpg","remember","old","7","1","start","left","","","",""
"html-keyboard-response","24","118927","0.0-2.0-2.0-0.7","hfjw9v4uy5og18h","practice_no_cue","5a706cc5efd3a7000120ff3e","5f60e3c0a3b16e07647b2ff9","5f61dc02c287bf17cf17c3f4","false","null","<span style=""color: black; font-size: 48px"">M + N</span>","null","","","","resp_prompt","","","","","","","","","","","","","","","",""
"categorize-image","25","120248","0.0-2.0-2.0-1.7","hfjw9v4uy5og18h","practice_no_cue","5a706cc5efd3a7000120ff3e","5f60e3c0a3b16e07647b2ff9","5f61dc02c287bf17cf17c3f4","true","812","./Stimuli/ImagesPractice/LM230.jpg","83","","","","test","true","M + N","83","","LM","LM230.jpg","remember","old","8","1","start","left","","","",""
"html-keyboard-response","26","120958","0.0-2.0-2.0-0.8","hfjw9v4uy5og18h","practice_no_cue","5a706cc5efd3a7000120ff3e","5f60e3c0a3b16e07647b2ff9","5f61dc02c287bf17cf17c3f4","false","null","<span style=""color: black; font-size: 48px"">N + M</span>","null","","","","resp_prompt","","","","","","","","","","","","","","","",""
"categorize-image","27","122340","0.0-2.0-2.0-1.8","hfjw9v4uy5og18h","practice_no_cue","5a706cc5efd3a7000120ff3e","5f60e3c0a3b16e07647b2ff9","5f61dc02c287bf17cf17c3f4","true","862","./Stimuli/ImagesPractice/SN220.jpg","76","","","","test","false","N + M","83","","SN","SN220.jpg","forget","old","9","1","start","right","","","",""
"html-keyboard-response","28","123051","0.0-2.0-2.0-0.9","hfjw9v4uy5og18h","practice_no_cue","5a706cc5efd3a7000120ff3e","5f60e3c0a3b16e07647b2ff9","5f61dc02c287bf17cf17c3f4","false","null","<span style=""color: black; font-size: 48px"">N + M</span>","null","","","","resp_prompt","","","","","","","","","","","","","","","",""
"categorize-image","29","125570","0.0-2.0-2.0-1.9","hfjw9v4uy5og18h","practice_no_cue","5a706cc5efd3a7000120ff3e","5f60e3c0a3b16e07647b2ff9","5f61dc02c287bf17cf17c3f4","true","null","./Stimuli/ImagesPractice/SN76.jpg","null","","","","test","false","N + M","83","","SN","SN76.jpg","remember","old","10","1","start","too_slow","","","",""
"html-keyboard-response","30","126282","0.0-2.0-2.0-0.10","hfjw9v4uy5og18h","practice_no_cue","5a706cc5efd3a7000120ff3e","5f60e3c0a3b16e07647b2ff9","5f61dc02c287bf17cf17c3f4","false","null","<span style=""color: black; font-size: 48px"">N + M</span>","null","","","","resp_prompt","","","","","","","","","","","","","","","",""
"categorize-image","31","128790","0.0-2.0-2.0-1.10","hfjw9v4uy5og18h","practice_no_cue","5a706cc5efd3a7000120ff3e","5f60e3c0a3b16e07647b2ff9","5f61dc02c287bf17cf17c3f4","true","null","./Stimuli/ImagesPractice/LN17.jpg","null","","","","test","false","N + M","83","","LN","LN17.jpg","forget","old","11","1","start","too_slow","","","",""
"html-keyboard-response","32","129502","0.0-2.0-2.0-0.11","hfjw9v4uy5og18h","practice_no_cue","5a706cc5efd3a7000120ff3e","5f60e3c0a3b16e07647b2ff9","5f61dc02c287bf17cf17c3f4","false","null","<span style=""color: black; font-size: 48px"">N + M</span>","null","","","","resp_prompt","","","","","","","","","","","","","","","",""
"categorize-image","33","131351","0.0-2.0-2.0-1.11","hfjw9v4uy5og18h","practice_no_cue","5a706cc5efd3a7000120ff3e","5f60e3c0a3b16e07647b2ff9","5f61dc02c287bf17cf17c3f4","true","1328","./Stimuli/ImagesPractice/SM61.jpg","76","","","","test","true","N + M","76","","SM","SM61.jpg","remember","old","12","1","start","right","","","",""
"html-keyboard-response","34","132072","0.0-2.0-2.0-0.12","hfjw9v4uy5og18h","practice_no_cue","5a706cc5efd3a7000120ff3e","5f60e3c0a3b16e07647b2ff9","5f61dc02c287bf17cf17c3f4","false","null","<span style=""color: black; font-size: 48px"">M + N</span>","null","","","","resp_prompt","","","","","","","","","","","","","","","",""
"categorize-image","35","133373","0.0-2.0-2.0-1.12","hfjw9v4uy5og18h","practice_no_cue","5a706cc5efd3a7000120ff3e","5f60e3c0a3b16e07647b2ff9","5f61dc02c287bf17cf17c3f4","true","780","./Stimuli/ImagesPractice/LN109.jpg","83","","","","test","false","M + N","76","","LN","LN109.jpg","remember","old","13","1","start","left","","","",""
"html-keyboard-response","36","134088","0.0-2.0-2.0-0.13","hfjw9v4uy5og18h","practice_no_cue","5a706cc5efd3a7000120ff3e","5f60e3c0a3b16e07647b2ff9","5f61dc02c287bf17cf17c3f4","false","null","<span style=""color: black; font-size: 48px"">M + N</span>","null","","","","resp_prompt","","","","","","","","","","","","","","","",""
"categorize-image","37","135363","0.0-2.0-2.0-1.13","hfjw9v4uy5og18h","practice_no_cue","5a706cc5efd3a7000120ff3e","5f60e3c0a3b16e07647b2ff9","5f61dc02c287bf17cf17c3f4","true","773","./Stimuli/ImagesPractice/LM143.jpg","83","","","","test","true","M + N","83","","LM","LM143.jpg","forget","old","14","1","start","left","","","",""
"html-keyboard-response","38","136074","0.0-2.0-2.0-0.14","hfjw9v4uy5og18h","practice_no_cue","5a706cc5efd3a7000120ff3e","5f60e3c0a3b16e07647b2ff9","5f61dc02c287bf17cf17c3f4","false","null","<span style=""color: black; font-size: 48px"">M + N</span>","null","","","","resp_prompt","","","","","","","","","","","","","","","",""
"categorize-image","39","137400","0.0-2.0-2.0-1.14","hfjw9v4uy5og18h","practice_no_cue","5a706cc5efd3a7000120ff3e","5f60e3c0a3b16e07647b2ff9","5f61dc02c287bf17cf17c3f4","true","817","./Stimuli/ImagesPractice/LM147.jpg","83","","","","test","true","M + N","83","","LM","LM147.jpg","remember","old","15","1","start","left","","","",""
"html-keyboard-response","40","138111","0.0-2.0-2.0-0.15","hfjw9v4uy5og18h","practice_no_cue","5a706cc5efd3a7000120ff3e","5f60e3c0a3b16e07647b2ff9","5f61dc02c287bf17cf17c3f4","false","null","<span style=""color: black; font-size: 48px"">M + N</span>","null","","","","resp_prompt","","","","","","","","","","","","","","","",""
"categorize-image","41","139385","0.0-2.0-2.0-1.15","hfjw9v4uy5og18h","practice_no_cue","5a706cc5efd3a7000120ff3e","5f60e3c0a3b16e07647b2ff9","5f61dc02c287bf17cf17c3f4","true","766","./Stimuli/ImagesPractice/LN4.jpg","76","","","","test","true","M + N","76","","LN","LN4.jpg","forget","old","16","1","start","right","","","",""
"html-keyboard-response","42","146568","0.0-2.0-3.0","hfjw9v4uy5og18h","break","5a706cc5efd3a7000120ff3e","5f60e3c0a3b16e07647b2ff9","5f61dc02c287bf17cf17c3f4","false","7179","<p style='font-size: 32px;'>Break</><br><br><br><br><br><p style='font-size: 24px;'>In the last block, you committed 4 errors and did not respond in time on 2 trials.
</p><p style='font-size: 24px;'>Try to respond as fast and accurately as possible in the next block as well! </p><p style='font-size: 24px;'>Press SPACE to continue.</p>","32","","","","","","","","","","","","","","","","","","","",""
"html-keyboard-response","43","222231","0.0-2.0-4.0","hfjw9v4uy5og18h","instructions","5a706cc5efd3a7000120ff3e","5f60e3c0a3b16e07647b2ff9","5f61dc02c287bf17cf17c3f4","false","75662","<div align=left> Great!<br><br>Are you ready to continue?<br><br>If you want to reread the instructions and redo the practice trials, <br>please press „Z“. <br><br>Press SPACE to CONTINUE with the experiment when you are ready. </div>","32","","","","","","","","","","","","","","","","","","","",""
"html-keyboard-response","44","228935","0.0-3.0-0.0","hfjw9v4uy5og18h","instructions","5a706cc5efd3a7000120ff3e","5f60e3c0a3b16e07647b2ff9","5f61dc02c287bf17cf17c3f4","false","6702","<div align=left>Great!<br> <strong>Attention</strong>! You will now receive a second, additional task! <br><br>To this point it was you <strong>first task</strong> to correctly <strong>classify objects</strong>. <br><br>As mentioned in the beginning, we aim to examine how well humans can remember previously learned information.<br>We would like to find out whether our memory improves if we only remember information that is relevant to us. <br><br>Therefore, your <strong>second task</strong> will be to <strong>remember</strong> the pictures you are to categorize. <br> After the learning phase, there will be a memory test phase, in which you will be asked to indicate whether you have seen a picture before or not. <br>Some, but not all pictures shown in the learning phase will appear in the memory test phase.<br>After classifying a picture, you will be told whether you should remember it for the memory test phase or not. <br>Thus, some pictures can be forgotten, whereas others have to be remembered. <br><br>Note: From now on, feedback will only be displayed if you responded incorrectly or not in time.<br><br>Press SPACE to continue.</div>","32","","","","","","","","","","","","","","","","","","","",""
"html-keyboard-response","45","241575","0.0-3.0-1.0","hfjw9v4uy5og18h","instructions","5a706cc5efd3a7000120ff3e","5f60e3c0a3b16e07647b2ff9","5f61dc02c287bf17cf17c3f4","false","12638","<div align=left>In the following part, you will thus have to remember only some pictures. <br>Immediately after seeing and classifying the picture, a symbol will be displayed, indicating whether you should remember or forget the previous picture. <br><br>A <span style='color: dodgerblue; font-size: 28px'>O</span> indicates REMEMBER. That means, you have to remember this picture, because it will be tested later. <br><br>A <span style='color: darkorange; font-size:28px'>Ø</span> indicates FORGET. You do not have to remember this picture. <br><br> As you will have to remember a lot of pictures, it will be hard for you to remember all of them. <br>It will put you at an advantage if you instantly forget the pictures you are not asked to remember. <br> This will make it easier for you to remember the pictures that will be tested afterwards. <br><br>Press SPACE to continue.</div>","32","","","","","","","","","","","","","","","","","","","",""
"html-keyboard-response","46","252263","0.0-3.0-2.0","hfjw9v4uy5og18h","instructions","5a706cc5efd3a7000120ff3e","5f60e3c0a3b16e07647b2ff9","5f61dc02c287bf17cf17c3f4","false","10686","<div align=left> Now you have the chance to practice both tasks together.<br><br>Remember: <br> <br><li>Please place your index fingers on the <strong>'S'</strong> and <strong>'L'</strong> keys <br>to respond as fast and accurately as possible.</li><li>Every picture can be classified as either mechanical or non-mechanical.</li><li>If you do not respond in time or commit an error, you will receive a corresponding feedback. <br>Please try to respond as <strong> fast </strong> and as <strong> accurately as possible </strong>.</li><li> Please remember only the to-be-remembered <span style='color: dodgerblue; font-size: 28px'>O</span> pictures. <br></li><li> Please minimize distractions and stay focused. </li><br><br>Press SPACE to START</div>","32","","","","","","","","","","","","","","","","","","","",""
"html-keyboard-response","47","252971","0.0-3.0-3.0-0.0","hfjw9v4uy5og18h","practice_cue","5a706cc5efd3a7000120ff3e","5f60e3c0a3b16e07647b2ff9","5f61dc02c287bf17cf17c3f4","false","null","<span style=""color: black; font-size: 48px"">M + N</span>","null","","","","resp_prompt","","","","","","","","","","","","","","","",""
"categorize-image","48","253738","0.0-3.0-3.0-1.0","hfjw9v4uy5og18h","practice_cue","5a706cc5efd3a7000120ff3e","5f60e3c0a3b16e07647b2ff9","5f61dc02c287bf17cf17c3f4","true","760","./Stimuli/ImagesPractice/SM97.jpg","83","","","","test","true","M + N","83","","SM","SM97.jpg","remember","old","17","2","practice_forget","left","","","",""
"html-keyboard-response","49","255754","0.0-3.0-3.0-3.0","hfjw9v4uy5og18h","practice_cue","5a706cc5efd3a7000120ff3e","5f60e3c0a3b16e07647b2ff9","5f61dc02c287bf17cf17c3f4","false","null","<div style=""align-items: center; display: flex; color: dodgerblue; font-size: 90px""><b>o</b></div>","null","","","","forget_cue","","","","","","","","","","","","","","","",""
"html-keyboard-response","50","256466","0.0-3.0-3.0-0.1","hfjw9v4uy5og18h","practice_cue","5a706cc5efd3a7000120ff3e","5f60e3c0a3b16e07647b2ff9","5f61dc02c287bf17cf17c3f4","false","null","<span style=""color: black; font-size: 48px"">N + M</span>","null","","","","resp_prompt","","","","","","","","","","","","","","","",""
"categorize-image","51","257367","0.0-3.0-3.0-1.1","hfjw9v4uy5og18h","practice_cue","5a706cc5efd3a7000120ff3e","5f60e3c0a3b16e07647b2ff9","5f61dc02c287bf17cf17c3f4","true","900","./Stimuli/ImagesPractice/SM61.jpg","83","","","","test","false","N + M","76","","SM","SM61.jpg","remember","old","18","2","practice_forget","left","","","",""
"html-keyboard-response","52","257877","0.0-3.0-3.0-2.1-0.1","hfjw9v4uy5og18h","practice_cue","5a706cc5efd3a7000120ff3e","5f60e3c0a3b16e07647b2ff9","5f61dc02c287bf17cf17c3f4","false","null","<span style=""color: red; font-size: 48px"">Error!</span>","null","","","","feedback","","","","","","","","","","","","","","","",""
"html-keyboard-response","53","259879","0.0-3.0-3.0-3.1","hfjw9v4uy5og18h","practice_cue","5a706cc5efd3a7000120ff3e","5f60e3c0a3b16e07647b2ff9","5f61dc02c287bf17cf17c3f4","false","null","<div style=""align-items: center; display: flex; color: dodgerblue; font-size: 90px""><b>o</b></div>","null","","","","forget_cue","","","","","","","","","","","","","","","",""
"html-keyboard-response","54","260590","0.0-3.0-3.0-0.2","hfjw9v4uy5og18h","practice_cue","5a706cc5efd3a7000120ff3e","5f60e3c0a3b16e07647b2ff9","5f61dc02c287bf17cf17c3f4","false","null","<span style=""color: black; font-size: 48px"">M + N</span>","null","","","","resp_prompt","","","","","","","","","","","","","","","",""
"categorize-image","55","261297","0.0-3.0-3.0-1.2","hfjw9v4uy5og18h","practice_cue","5a706cc5efd3a7000120ff3e","5f60e3c0a3b16e07647b2ff9","5f61dc02c287bf17cf17c3f4","true","703","./Stimuli/ImagesPractice/LN109.jpg","83","","","","test","false","M + N","76","","LN","LN109.jpg","remember","old","19","2","practice_forget","left","","","",""
"html-keyboard-response","56","261819","0.0-3.0-3.0-2.2-0.2","hfjw9v4uy5og18h","practice_cue","5a706cc5efd3a7000120ff3e","5f60e3c0a3b16e07647b2ff9","5f61dc02c287bf17cf17c3f4","false","null","<span style=""color: red; font-size: 48px"">Error!</span>","null","","","","feedback","","","","","","","","","","","","","","","",""
"html-keyboard-response","57","263820","0.0-3.0-3.0-3.2","hfjw9v4uy5og18h","practice_cue","5a706cc5efd3a7000120ff3e","5f60e3c0a3b16e07647b2ff9","5f61dc02c287bf17cf17c3f4","false","null","<div style=""align-items: center; display: flex; color: dodgerblue; font-size: 90px""><b>o</b></div>","null","","","","forget_cue","","","","","","","","","","","","","","","",""
"html-keyboard-response","58","264542","0.0-3.0-3.0-0.3","hfjw9v4uy5og18h","practice_cue","5a706cc5efd3a7000120ff3e","5f60e3c0a3b16e07647b2ff9","5f61dc02c287bf17cf17c3f4","false","null","<span style=""color: black; font-size: 48px"">N + M</span>","null","","","","resp_prompt","","","","","","","","","","","","","","","",""
"categorize-image","59","266574","0.0-3.0-3.0-1.3","hfjw9v4uy5og18h","practice_cue","5a706cc5efd3a7000120ff3e","5f60e3c0a3b16e07647b2ff9","5f61dc02c287bf17cf17c3f4","true","null","./Stimuli/ImagesPractice/LN17.jpg","null","","","","test","false","N + M","83","","LN","LN17.jpg","forget","old","20","2","practice_forget","too_slow","","","",""
"html-keyboard-response","60","267081","0.0-3.0-3.0-2.3-0.3","hfjw9v4uy5og18h","practice_cue","5a706cc5efd3a7000120ff3e","5f60e3c0a3b16e07647b2ff9","5f61dc02c287bf17cf17c3f4","false","null","<span style=""color: red; font-size: 48px"">Too slow!</span>","null","","","","feedback","","","","","","","","","","","","","","","",""
"html-keyboard-response","61","269093","0.0-3.0-3.0-3.3","hfjw9v4uy5og18h","practice_cue","5a706cc5efd3a7000120ff3e","5f60e3c0a3b16e07647b2ff9","5f61dc02c287bf17cf17c3f4","false","null","<div style=""align-items: center; display: flex; color: darkorange; font-size: 90px""><b>ø</b></div>","null","","","","forget_cue","","","","","","","","","","","","","","","",""
"html-keyboard-response","62","269804","0.0-3.0-3.0-0.4","hfjw9v4uy5og18h","practice_cue","5a706cc5efd3a7000120ff3e","5f60e3c0a3b16e07647b2ff9","5f61dc02c287bf17cf17c3f4","false","null","<span style=""color: black; font-size: 48px"">M + N</span>","null","","","","resp_prompt","","","","","","","","","","","","","","","",""
"categorize-image","63","270487","0.0-3.0-3.0-1.4","hfjw9v4uy5og18h","practice_cue","5a706cc5efd3a7000120ff3e","5f60e3c0a3b16e07647b2ff9","5f61dc02c287bf17cf17c3f4","true","683","./Stimuli/ImagesPractice/LM147.jpg","83","","","","test","true","M + N","83","","LM","LM147.jpg","remember","old","21","2","practice_forget","left","","","",""
"html-keyboard-response","64","272496","0.0-3.0-3.0-3.4","hfjw9v4uy5og18h","practice_cue","5a706cc5efd3a7000120ff3e","5f60e3c0a3b16e07647b2ff9","5f61dc02c287bf17cf17c3f4","false","null","<div style=""align-items: center; display: flex; color: dodgerblue; font-size: 90px""><b>o</b></div>","null","","","","forget_cue","","","","","","","","","","","","","","","",""
"html-keyboard-response","65","273207","0.0-3.0-3.0-0.5","hfjw9v4uy5og18h","practice_cue","5a706cc5efd3a7000120ff3e","5f60e3c0a3b16e07647b2ff9","5f61dc02c287bf17cf17c3f4","false","null","<span style=""color: black; font-size: 48px"">M + N</span>","null","","","","resp_prompt","","","","","","","","","","","","","","","",""
"categorize-image","66","273921","0.0-3.0-3.0-1.5","hfjw9v4uy5og18h","practice_cue","5a706cc5efd3a7000120ff3e","5f60e3c0a3b16e07647b2ff9","5f61dc02c287bf17cf17c3f4","true","710","./Stimuli/ImagesPractice/LM224.jpg","83","","","","test","true","M + N","83","","LM","LM224.jpg","forget","old","22","2","practice_forget","left","","","",""
"html-keyboard-response","67","275928","0.0-3.0-3.0-3.5","hfjw9v4uy5og18h","practice_cue","5a706cc5efd3a7000120ff3e","5f60e3c0a3b16e07647b2ff9","5f61dc02c287bf17cf17c3f4","false","null","<div style=""align-items: center; display: flex; color: darkorange; font-size: 90px""><b>ø</b></div>","null","","","","forget_cue","","","","","","","","","","","","","","","",""
"html-keyboard-response","68","276640","0.0-3.0-3.0-0.6","hfjw9v4uy5og18h","practice_cue","5a706cc5efd3a7000120ff3e","5f60e3c0a3b16e07647b2ff9","5f61dc02c287bf17cf17c3f4","false","null","<span style=""color: black; font-size: 48px"">N + M</span>","null","","","","resp_prompt","","","","","","","","","","","","","","","",""
"categorize-image","69","278682","0.0-3.0-3.0-1.6","hfjw9v4uy5og18h","practice_cue","5a706cc5efd3a7000120ff3e","5f60e3c0a3b16e07647b2ff9","5f61dc02c287bf17cf17c3f4","true","null","./Stimuli/ImagesPractice/SM35.jpg","null","","","","test","false","N + M","76","","SM","SM35.jpg","remember","old","23","2","practice_forget","too_slow","","","",""
"html-keyboard-response","70","279201","0.0-3.0-3.0-2.6-0.6","hfjw9v4uy5og18h","practice_cue","5a706cc5efd3a7000120ff3e","5f60e3c0a3b16e07647b2ff9","5f61dc02c287bf17cf17c3f4","false","null","<span style=""color: red; font-size: 48px"">Too slow!</span>","null","","","","feedback","","","","","","","","","","","","","","","",""
"html-keyboard-response","71","281212","0.0-3.0-3.0-3.6","hfjw9v4uy5og18h","practice_cue","5a706cc5efd3a7000120ff3e","5f60e3c0a3b16e07647b2ff9","5f61dc02c287bf17cf17c3f4","false","null","<div style=""align-items: center; display: flex; color: dodgerblue; font-size: 90px""><b>o</b></div>","null","","","","forget_cue","","","","","","","","","","","","","","","",""
"html-keyboard-response","72","281932","0.0-3.0-3.0-0.7","hfjw9v4uy5og18h","practice_cue","5a706cc5efd3a7000120ff3e","5f60e3c0a3b16e07647b2ff9","5f61dc02c287bf17cf17c3f4","false","null","<span style=""color: black; font-size: 48px"">N + M</span>","null","","","","resp_prompt","","","","","","","","","","","","","","","",""
"categorize-image","73","282679","0.0-3.0-3.0-1.7","hfjw9v4uy5og18h","practice_cue","5a706cc5efd3a7000120ff3e","5f60e3c0a3b16e07647b2ff9","5f61dc02c287bf17cf17c3f4","true","745","./Stimuli/ImagesPractice/SN76.jpg","83","","","","test","true","N + M","83","","SN","SN76.jpg","remember","old","24","2","practice_forget","left","","","",""
"html-keyboard-response","74","284686","0.0-3.0-3.0-3.7","hfjw9v4uy5og18h","practice_cue","5a706cc5efd3a7000120ff3e","5f60e3c0a3b16e07647b2ff9","5f61dc02c287bf17cf17c3f4","false","null","<div style=""align-items: center; display: flex; color: dodgerblue; font-size: 90px""><b>o</b></div>","null","","","","forget_cue","","","","","","","","","","","","","","","",""
"html-keyboard-response","75","285398","0.0-3.0-3.0-0.8","hfjw9v4uy5og18h","practice_cue","5a706cc5efd3a7000120ff3e","5f60e3c0a3b16e07647b2ff9","5f61dc02c287bf17cf17c3f4","false","null","<span style=""color: black; font-size: 48px"">N + M</span>","null","","","","resp_prompt","","","","","","","","","","","","","","","",""
"categorize-image","76","287420","0.0-3.0-3.0-1.8","hfjw9v4uy5og18h","practice_cue","5a706cc5efd3a7000120ff3e","5f60e3c0a3b16e07647b2ff9","5f61dc02c287bf17cf17c3f4","true","null","./Stimuli/ImagesPractice/SN221.jpg","null","","","","test","false","N + M","83","","SN","SN221.jpg","forget","old","25","2","practice_forget","too_slow","","","",""
"html-keyboard-response","77","287936","0.0-3.0-3.0-2.8-0.8","hfjw9v4uy5og18h","practice_cue","5a706cc5efd3a7000120ff3e","5f60e3c0a3b16e07647b2ff9","5f61dc02c287bf17cf17c3f4","false","null","<span style=""color: red; font-size: 48px"">Too slow!</span>","null","","","","feedback","","","","","","","","","","","","","","","",""
"html-keyboard-response","78","289949","0.0-3.0-3.0-3.8","hfjw9v4uy5og18h","practice_cue","5a706cc5efd3a7000120ff3e","5f60e3c0a3b16e07647b2ff9","5f61dc02c287bf17cf17c3f4","false","null","<div style=""align-items: center; display: flex; color: darkorange; font-size: 90px""><b>ø</b></div>","null","","","","forget_cue","","","","","","","","","","","","","","","",""
"html-keyboard-response","79","290659","0.0-3.0-3.0-0.9","hfjw9v4uy5og18h","practice_cue","5a706cc5efd3a7000120ff3e","5f60e3c0a3b16e07647b2ff9","5f61dc02c287bf17cf17c3f4","false","null","<span style=""color: black; font-size: 48px"">M + N</span>","null","","","","resp_prompt","","","","","","","","","","","","","","","",""
"categorize-image","80","291391","0.0-3.0-3.0-1.9","hfjw9v4uy5og18h","practice_cue","5a706cc5efd3a7000120ff3e","5f60e3c0a3b16e07647b2ff9","5f61dc02c287bf17cf17c3f4","true","729","./Stimuli/ImagesPractice/LN4.jpg","83","","","","test","false","M + N","76","","LN","LN4.jpg","forget","old","26","2","practice_forget","left","","","",""
"html-keyboard-response","81","291909","0.0-3.0-3.0-2.9-0.9","hfjw9v4uy5og18h","practice_cue","5a706cc5efd3a7000120ff3e","5f60e3c0a3b16e07647b2ff9","5f61dc02c287bf17cf17c3f4","false","null","<span style=""color: red; font-size: 48px"">Error!</span>","null","","","","feedback","","","","","","","","","","","","","","","",""
"html-keyboard-response","82","293921","0.0-3.0-3.0-3.9","hfjw9v4uy5og18h","practice_cue","5a706cc5efd3a7000120ff3e","5f60e3c0a3b16e07647b2ff9","5f61dc02c287bf17cf17c3f4","false","null","<div style=""align-items: center; display: flex; color: darkorange; font-size: 90px""><b>ø</b></div>","null","","","","forget_cue","","","","","","","","","","","","","","","",""
"html-keyboard-response","83","294622","0.0-3.0-3.0-0.10","hfjw9v4uy5og18h","practice_cue","5a706cc5efd3a7000120ff3e","5f60e3c0a3b16e07647b2ff9","5f61dc02c287bf17cf17c3f4","false","null","<span style=""color: black; font-size: 48px"">M + N</span>","null","","","","resp_prompt","","","","","","","","","","","","","","","",""
"categorize-image","84","295129","0.0-3.0-3.0-1.10","hfjw9v4uy5og18h","practice_cue","5a706cc5efd3a7000120ff3e","5f60e3c0a3b16e07647b2ff9","5f61dc02c287bf17cf17c3f4","true","503","./Stimuli/ImagesPractice/LM143.jpg","83","","","","test","true","M + N","83","","LM","LM143.jpg","forget","old","27","2","practice_forget","left","","","",""
"html-keyboard-response","85","297141","0.0-3.0-3.0-3.10","hfjw9v4uy5og18h","practice_cue","5a706cc5efd3a7000120ff3e","5f60e3c0a3b16e07647b2ff9","5f61dc02c287bf17cf17c3f4","false","null","<div style=""align-items: center; display: flex; color: darkorange; font-size: 90px""><b>ø</b></div>","null","","","","forget_cue","","","","","","","","","","","","","","","",""
"html-keyboard-response","86","297842","0.0-3.0-3.0-0.11","hfjw9v4uy5og18h","practice_cue","5a706cc5efd3a7000120ff3e","5f60e3c0a3b16e07647b2ff9","5f61dc02c287bf17cf17c3f4","false","null","<span style=""color: black; font-size: 48px"">N + M</span>","null","","","","resp_prompt","","","","","","","","","","","","","","","",""
"categorize-image","87","298663","0.0-3.0-3.0-1.11","hfjw9v4uy5og18h","practice_cue","5a706cc5efd3a7000120ff3e","5f60e3c0a3b16e07647b2ff9","5f61dc02c287bf17cf17c3f4","true","820","./Stimuli/ImagesPractice/LM239.jpg","83","","","","test","false","N + M","76","","LM","LM239.jpg","remember","old","28","2","practice_forget","left","","","",""
"html-keyboard-response","88","299183","0.0-3.0-3.0-2.11-0.11","hfjw9v4uy5og18h","practice_cue","5a706cc5efd3a7000120ff3e","5f60e3c0a3b16e07647b2ff9","5f61dc02c287bf17cf17c3f4","false","null","<span style=""color: red; font-size: 48px"">Error!</span>","null","","","","feedback","","","","","","","","","","","","","","","",""
"html-keyboard-response","89","301195","0.0-3.0-3.0-3.11","hfjw9v4uy5og18h","practice_cue","5a706cc5efd3a7000120ff3e","5f60e3c0a3b16e07647b2ff9","5f61dc02c287bf17cf17c3f4","false","null","<div style=""align-items: center; display: flex; color: dodgerblue; font-size: 90px""><b>o</b></div>","null","","","","forget_cue","","","","","","","","","","","","","","","",""
"html-keyboard-response","90","301905","0.0-3.0-3.0-0.12","hfjw9v4uy5og18h","practice_cue","5a706cc5efd3a7000120ff3e","5f60e3c0a3b16e07647b2ff9","5f61dc02c287bf17cf17c3f4","false","null","<span style=""color: black; font-size: 48px"">M + N</span>","null","","","","resp_prompt","","","","","","","","","","","","","","","",""
"categorize-image","91","302529","0.0-3.0-3.0-1.12","hfjw9v4uy5og18h","practice_cue","5a706cc5efd3a7000120ff3e","5f60e3c0a3b16e07647b2ff9","5f61dc02c287bf17cf17c3f4","true","620","./Stimuli/ImagesPractice/SM37.jpg","83","","","","test","true","M + N","83","","SM","SM37.jpg","forget","old","29","2","practice_forget","left","","","",""
"html-keyboard-response","92","304547","0.0-3.0-3.0-3.12","hfjw9v4uy5og18h","practice_cue","5a706cc5efd3a7000120ff3e","5f60e3c0a3b16e07647b2ff9","5f61dc02c287bf17cf17c3f4","false","null","<div style=""align-items: center; display: flex; color: darkorange; font-size: 90px""><b>ø</b></div>","null","","","","forget_cue","","","","","","","","","","","","","","","",""
"html-keyboard-response","93","305258","0.0-3.0-3.0-0.13","hfjw9v4uy5og18h","practice_cue","5a706cc5efd3a7000120ff3e","5f60e3c0a3b16e07647b2ff9","5f61dc02c287bf17cf17c3f4","false","null","<span style=""color: black; font-size: 48px"">N + M</span>","null","","","","resp_prompt","","","","","","","","","","","","","","","",""
"categorize-image","94","306250","0.0-3.0-3.0-1.13","hfjw9v4uy5og18h","practice_cue","5a706cc5efd3a7000120ff3e","5f60e3c0a3b16e07647b2ff9","5f61dc02c287bf17cf17c3f4","true","987","./Stimuli/ImagesPractice/SN220.jpg","83","","","","test","true","N + M","83","","SN","SN220.jpg","forget","old","30","2","practice_forget","left","","","",""
"html-keyboard-response","95","308250","0.0-3.0-3.0-3.13","hfjw9v4uy5og18h","practice_cue","5a706cc5efd3a7000120ff3e","5f60e3c0a3b16e07647b2ff9","5f61dc02c287bf17cf17c3f4","false","null","<div style=""align-items: center; display: flex; color: darkorange; font-size: 90px""><b>ø</b></div>","null","","","","forget_cue","","","","","","","","","","","","","","","",""
"html-keyboard-response","96","308965","0.0-3.0-3.0-0.14","hfjw9v4uy5og18h","practice_cue","5a706cc5efd3a7000120ff3e","5f60e3c0a3b16e07647b2ff9","5f61dc02c287bf17cf17c3f4","false","null","<span style=""color: black; font-size: 48px"">N + M</span>","null","","","","resp_prompt","","","","","","","","","","","","","","","",""
"categorize-image","97","309848","0.0-3.0-3.0-1.14","hfjw9v4uy5og18h","practice_cue","5a706cc5efd3a7000120ff3e","5f60e3c0a3b16e07647b2ff9","5f61dc02c287bf17cf17c3f4","true","880","./Stimuli/ImagesPractice/LN72.jpg","83","","","","test","true","N + M","83","","LN","LN72.jpg","forget","old","31","2","practice_forget","left","","","",""
"html-keyboard-response","98","311851","0.0-3.0-3.0-3.14","hfjw9v4uy5og18h","practice_cue","5a706cc5efd3a7000120ff3e","5f60e3c0a3b16e07647b2ff9","5f61dc02c287bf17cf17c3f4","false","null","<div style=""align-items: center; display: flex; color: darkorange; font-size: 90px""><b>ø</b></div>","null","","","","forget_cue","","","","","","","","","","","","","","","",""
"html-keyboard-response","99","312573","0.0-3.0-3.0-0.15","hfjw9v4uy5og18h","practice_cue","5a706cc5efd3a7000120ff3e","5f60e3c0a3b16e07647b2ff9","5f61dc02c287bf17cf17c3f4","false","null","<span style=""color: black; font-size: 48px"">M + N</span>","null","","","","resp_prompt","","","","","","","","","","","","","","","",""
"categorize-image","100","313401","0.0-3.0-3.0-1.15","hfjw9v4uy5og18h","practice_cue","5a706cc5efd3a7000120ff3e","5f60e3c0a3b16e07647b2ff9","5f61dc02c287bf17cf17c3f4","true","824","./Stimuli/ImagesPractice/LM230.jpg","83","","","","test","true","M + N","83","","LM","LM230.jpg","remember","old","32","2","practice_forget","left","","","",""
"html-keyboard-response","101","315417","0.0-3.0-3.0-3.15","hfjw9v4uy5og18h","practice_cue","5a706cc5efd3a7000120ff3e","5f60e3c0a3b16e07647b2ff9","5f61dc02c287bf17cf17c3f4","false","null","<div style=""align-items: center; display: flex; color: dodgerblue; font-size: 90px""><b>o</b></div>","null","","","","forget_cue","","","","","","","","","","","","","","","",""
"html-keyboard-response","102","325591","0.0-3.0-4.0","hfjw9v4uy5og18h","break","5a706cc5efd3a7000120ff3e","5f60e3c0a3b16e07647b2ff9","5f61dc02c287bf17cf17c3f4","false","10172","<p style='font-size: 32px;'>Break</><br><br><br><br><br><p style='font-size: 24px;'>In the last block, you committed 4 errors and did not respond in time on 3 trials.
</p><p style='font-size: 24px;'>Try to respond as fast and accurately as possible in the next block as well! </p><p style='font-size: 24px;'>Press SPACE to continue.</p>","32","","","","","","","","","","","","","","","","","","","",""
"html-keyboard-response","103","344967","0.0-3.0-5.0","hfjw9v4uy5og18h","instructions","5a706cc5efd3a7000120ff3e","5f60e3c0a3b16e07647b2ff9","5f61dc02c287bf17cf17c3f4","false","19373","<div align=left> Now, to practice, we kindly ask you to remember as many of the to-be-remembered pictures<br>of the previous learning phase as possible.<br><br>The pictures you were instructed to remember were the pictures followed by a <span style='color: dodgerblue; font-size: 28px'>O</span>.<br><br>In this memory test phase, you will also see some new pictures.<br>It is your task to remember whether you were presented with this specific picture in this study so far or not.<br>If you recognize an object (you have already seen it in this study), it is an OLD object. <br>If you do not recognize an object (you have NOT seen it in this study), it is a NEW object. <br><strong> Attention</strong>: As already mentioned, <span style='color: darkorange; font-size:28px'>Ø</span>-pictures will <strong>never</strong> appear in this memory test (neither as new objects). <br><br>Press SPACE to continue. </div>","32","","","","","","","","","","","","","","","","","","","",""
"html-keyboard-response","104","348623","0.0-3.0-6.0","hfjw9v4uy5og18h","instructions","5a706cc5efd3a7000120ff3e","5f60e3c0a3b16e07647b2ff9","5f61dc02c287bf17cf17c3f4","false","3653","<div align=left> M and N no longer will appear on the left/right of the fixation cross. <br>Instead there will be a note at the bottom of the left or right side  <br>indicating which key you should press for an old or new object:  <br> <br>Press the <strong>right</strong> key to classify an object as <strong>old</strong> and press the <strong>left</strong>, to classify an object as <strong>new</strong>.<br>Please classify the objects as new/old by again placing your index finger on the 'S' and 'L' keys <br>and press them accordingly.<br><br><strong>Old:</strong> This object has been presented before. <br><strong>New:</strong> This object has <strong>not</strong> been presented.<br><br>Now please put your right and left index fingers on the 'S' and 'L' keys of your keyboard. <br>Please respond as fast and as accurately as possible!<br><br>Press SPACE to continue. </div>","32","","","","","","","","","","","","","","","","","","","",""
"categorize-image","105","350860","0.0-3.0-7.0-0.0","hfjw9v4uy5og18h","practice_recog","5a706cc5efd3a7000120ff3e","5f60e3c0a3b16e07647b2ff9","5f61dc02c287bf17cf17c3f4","true","1725","./Stimuli/ImagesPractice/LN2.jpg","83","","","","test","false","","76","","LN","LN2.jpg","","new","33","3","practice_recog","left","","","",""
"categorize-image","106","357087","0.0-3.0-7.0-0.1","hfjw9v4uy5og18h","practice_recog","5a706cc5efd3a7000120ff3e","5f60e3c0a3b16e07647b2ff9","5f61dc02c287bf17cf17c3f4","true","5712","./Stimuli/ImagesPractice/LM55.jpg","76","","","","test","true","","76","","LM","LM55.jpg","","new","34","3","practice_recog","right","","","",""
"categorize-image","107","359465","0.0-3.0-7.0-0.2","hfjw9v4uy5og18h","practice_recog","5a706cc5efd3a7000120ff3e","5f60e3c0a3b16e07647b2ff9","5f61dc02c287bf17cf17c3f4","true","1871","./Stimuli/ImagesPractice/SM35.jpg","83","","","","test","true","","83","","SM","SM35.jpg","","old","35","3","practice_recog","left","","","",""
"categorize-image","108","361669","0.0-3.0-7.0-0.3","hfjw9v4uy5og18h","practice_recog","5a706cc5efd3a7000120ff3e","5f60e3c0a3b16e07647b2ff9","5f61dc02c287bf17cf17c3f4","true","1691","./Stimuli/ImagesPractice/LM147.jpg","76","","","","test","false","","83","","LM","LM147.jpg","","old","36","3","practice_recog","right","","","",""
"categorize-image","109","363416","0.0-3.0-7.0-0.4","hfjw9v4uy5og18h","practice_recog","5a706cc5efd3a7000120ff3e","5f60e3c0a3b16e07647b2ff9","5f61dc02c287bf17cf17c3f4","true","1239","./Stimuli/ImagesPractice/LN15.jpg","76","","","","test","true","","76","","LN","LN15.jpg","","new","37","3","practice_recog","right","","","",""
"categorize-image","110","365468","0.0-3.0-7.0-0.5","hfjw9v4uy5og18h","practice_recog","5a706cc5efd3a7000120ff3e","5f60e3c0a3b16e07647b2ff9","5f61dc02c287bf17cf17c3f4","true","1548","./Stimuli/ImagesPractice/SM98.jpg","76","","","","test","true","","76","","SM","SM98.jpg","","new","38","3","practice_recog","right","","","",""
"categorize-image","111","367022","0.0-3.0-7.0-0.6","hfjw9v4uy5og18h","practice_recog","5a706cc5efd3a7000120ff3e","5f60e3c0a3b16e07647b2ff9","5f61dc02c287bf17cf17c3f4","true","1041","./Stimuli/ImagesPractice/SN222.jpg","76","","","","test","true","","76","","SN","SN222.jpg","","new","39","3","practice_recog","right","","","",""
"categorize-image","112","368695","0.0-3.0-7.0-0.7","hfjw9v4uy5og18h","practice_recog","5a706cc5efd3a7000120ff3e","5f60e3c0a3b16e07647b2ff9","5f61dc02c287bf17cf17c3f4","true","1167","./Stimuli/ImagesPractice/SM61.jpg","83","","","","test","true","","83","","SM","SM61.jpg","","old","40","3","practice_recog","left","","","",""
"categorize-image","113","370142","0.0-3.0-7.0-0.8","hfjw9v4uy5og18h","practice_recog","5a706cc5efd3a7000120ff3e","5f60e3c0a3b16e07647b2ff9","5f61dc02c287bf17cf17c3f4","true","927","./Stimuli/ImagesPractice/SM97.jpg","83","","","","test","true","","83","","SM","SM97.jpg","","old","41","3","practice_recog","left","","","",""
"categorize-image","114","372133","0.0-3.0-7.0-0.9","hfjw9v4uy5og18h","practice_recog","5a706cc5efd3a7000120ff3e","5f60e3c0a3b16e07647b2ff9","5f61dc02c287bf17cf17c3f4","true","1472","./Stimuli/ImagesPractice/SM62.jpg","76","","","","test","true","","76","","SM","SM62.jpg","","new","42","3","practice_recog","right","","","",""
"categorize-image","115","373768","0.0-3.0-7.0-0.10","hfjw9v4uy5og18h","practice_recog","5a706cc5efd3a7000120ff3e","5f60e3c0a3b16e07647b2ff9","5f61dc02c287bf17cf17c3f4","true","1129","./Stimuli/ImagesPractice/SN75.jpg","76","","","","test","true","","76","","SN","SN75.jpg","","new","43","3","practice_recog","right","","","",""
"categorize-image","116","375942","0.0-3.0-7.0-0.11","hfjw9v4uy5og18h","practice_recog","5a706cc5efd3a7000120ff3e","5f60e3c0a3b16e07647b2ff9","5f61dc02c287bf17cf17c3f4","true","1668","./Stimuli/ImagesPractice/LN109.jpg","76","","","","test","false","","83","","LN","LN109.jpg","","old","44","3","practice_recog","right","","","",""
"categorize-image","117","377700","0.0-3.0-7.0-0.12","hfjw9v4uy5og18h","practice_recog","5a706cc5efd3a7000120ff3e","5f60e3c0a3b16e07647b2ff9","5f61dc02c287bf17cf17c3f4","true","1238","./Stimuli/ImagesPractice/LM230.jpg","83","","","","test","true","","83","","LM","LM230.jpg","","old","45","3","practice_recog","left","","","",""
"categorize-image","118","379081","0.0-3.0-7.0-0.13","hfjw9v4uy5og18h","practice_recog","5a706cc5efd3a7000120ff3e","5f60e3c0a3b16e07647b2ff9","5f61dc02c287bf17cf17c3f4","true","874","./Stimuli/ImagesPractice/LM239.jpg","83","","","","test","true","","83","","LM","LM239.jpg","","old","46","3","practice_recog","left","","","",""
"categorize-image","119","380483","0.0-3.0-7.0-0.14","hfjw9v4uy5og18h","practice_recog","5a706cc5efd3a7000120ff3e","5f60e3c0a3b16e07647b2ff9","5f61dc02c287bf17cf17c3f4","true","885","./Stimuli/ImagesPractice/SN76.jpg","83","","","","test","true","","83","","SN","SN76.jpg","","old","47","3","practice_recog","left","","","",""
"categorize-image","120","381986","0.0-3.0-7.0-0.15","hfjw9v4uy5og18h","practice_recog","5a706cc5efd3a7000120ff3e","5f60e3c0a3b16e07647b2ff9","5f61dc02c287bf17cf17c3f4","true","985","./Stimuli/ImagesPractice/SN205.jpg","76","","","","test","true","","76","","SN","SN205.jpg","","new","48","3","practice_recog","right","","","",""
"html-keyboard-response","121","388206","0.0-3.0-8.0","hfjw9v4uy5og18h","instructions","5a706cc5efd3a7000120ff3e","5f60e3c0a3b16e07647b2ff9","5f61dc02c287bf17cf17c3f4","false","6219","<div align=left> Great!<br><br>Are you ready to continue?<br>If you want to reread the instructions and redo the practice trials, please <br>press „Z“.<br><br>You can proceed when you are ready.<br><br>After the presentation of each object, you will receive an instruction whether to <br>remember or to forget the object.<br>We will test your memory of the following pictures only at the very end of <br>the experiment after all learning blocks are completed. <br><br>Press SPACE to CONTINUE when you are ready. </div>","32","","","","","","","","","","","","","","","","","","","",""
"html-keyboard-response","122","391959","0.0-4.0-0.0","hfjw9v4uy5og18h","instructions","5a706cc5efd3a7000120ff3e","5f60e3c0a3b16e07647b2ff9","5f61dc02c287bf17cf17c3f4","false","3751","<div align=left> The actual experiment is about to start.<br>The practice trials are over!<br><br>Please always respond both fast and accurately!<br><br>Remember: <br> <br><li> Please place your index fingers on the <strong>'S'</strong> and <strong>'L'</strong> keys <br>to respond as fast and accurately as possible.</li><li> Every picture can be classified as either mechanical or non-mechanical.</li><li> If you do not respond in time or commit an error, you will receive a corresponding feedback.<br> Please try to respond as <strong> fast </strong> and as <strong> accurately as possible </strong>.</li><li> Remember the <span style='color: dodgerblue; font-size: 28px'>O</span> pictures. <br></li><li> Please minimize distractions and stay focused. </li><br><br>Press SPACE to START.</div>","32","","","","","","","","","","","","","","","","","","","",""
"html-keyboard-response","123","392663","0.0-4.0-1.0-0.0","hfjw9v4uy5og18h","prime","5a706cc5efd3a7000120ff3e","5f60e3c0a3b16e07647b2ff9","5f61dc02c287bf17cf17c3f4","false","null","<span style=""color: black; font-size: 48px"">M + N</span>","null","","","","resp_prompt","","","","","","","","","","","","","","","",""
"categorize-image","124","394667","0.0-4.0-1.0-1.0","hfjw9v4uy5og18h","prime","5a706cc5efd3a7000120ff3e","5f60e3c0a3b16e07647b2ff9","5f61dc02c287bf17cf17c3f4","true","null","./Stimuli/SelectedImages/SM/SM207.bmp","null","","","","test","false","M + N","83","switch","SM","SM207.bmp","forget","","49","3","prime1","too_slow","","","",""
"html-keyboard-response","125","395173","0.0-4.0-1.0-2.0-0.0","hfjw9v4uy5og18h","prime","5a706cc5efd3a7000120ff3e","5f60e3c0a3b16e07647b2ff9","5f61dc02c287bf17cf17c3f4","false","null","<span style=""color: red; font-size: 48px"">Too slow!</span>","null","","","","feedback","","","","","","","","","","","","","","","",""
"html-keyboard-response","126","397184","0.0-4.0-1.0-3.0","hfjw9v4uy5og18h","prime","5a706cc5efd3a7000120ff3e","5f60e3c0a3b16e07647b2ff9","5f61dc02c287bf17cf17c3f4","false","null","<div style=""align-items: center; display: flex; color: darkorange; font-size: 90px""><b>ø</b></div>","null","","","","forget_cue","","","","","","","","","","","","","","","",""
"html-keyboard-response","127","397896","0.0-4.0-1.0-0.1","hfjw9v4uy5og18h","prime","5a706cc5efd3a7000120ff3e","5f60e3c0a3b16e07647b2ff9","5f61dc02c287bf17cf17c3f4","false","null","<span style=""color: black; font-size: 48px"">M + N</span>","null","","","","resp_prompt","","","","","","","","","","","","","","","",""
"categorize-image","128","398536","0.0-4.0-1.0-1.1","hfjw9v4uy5og18h","prime","5a706cc5efd3a7000120ff3e","5f60e3c0a3b16e07647b2ff9","5f61dc02c287bf17cf17c3f4","true","639","./Stimuli/SelectedImages/SN/SN182.bmp","83","","","","test","false","M + N","76","switch","SN","SN182.bmp","remember","","50","3","prime1","left","","","",""
"html-keyboard-response","129","399054","0.0-4.0-1.0-2.1-0.1","hfjw9v4uy5og18h","prime","5a706cc5efd3a7000120ff3e","5f60e3c0a3b16e07647b2ff9","5f61dc02c287bf17cf17c3f4","false","null","<span style=""color: red; font-size: 48px"">Error!</span>","null","","","","feedback","","","","","","","","","","","","","","","",""
"html-keyboard-response","130","401065","0.0-4.0-1.0-3.1","hfjw9v4uy5og18h","prime","5a706cc5efd3a7000120ff3e","5f60e3c0a3b16e07647b2ff9","5f61dc02c287bf17cf17c3f4","false","null","<div style=""align-items: center; display: flex; color: dodgerblue; font-size: 90px""><b>o</b></div>","null","","","","forget_cue","","","","","","","","","","","","","","","",""
"html-keyboard-response","131","401766","0.0-4.0-1.0-0.2","hfjw9v4uy5og18h","prime","5a706cc5efd3a7000120ff3e","5f60e3c0a3b16e07647b2ff9","5f61dc02c287bf17cf17c3f4","false","null","<span style=""color: black; font-size: 48px"">N + M</span>","null","","","","resp_prompt","","","","","","","","","","","","","","","",""
"categorize-image","132","402745","0.0-4.0-1.0-1.2","hfjw9v4uy5og18h","prime","5a706cc5efd3a7000120ff3e","5f60e3c0a3b16e07647b2ff9","5f61dc02c287bf17cf17c3f4","true","976","./Stimuli/SelectedImages/SN/SN179.bmp","83","","","","test","true","N + M","83","switch","SN","SN179.bmp","forget","","51","3","prime1","left","","","",""
"html-keyboard-response","133","404763","0.0-4.0-1.0-3.2","hfjw9v4uy5og18h","prime","5a706cc5efd3a7000120ff3e","5f60e3c0a3b16e07647b2ff9","5f61dc02c287bf17cf17c3f4","false","null","<div style=""align-items: center; display: flex; color: darkorange; font-size: 90px""><b>ø</b></div>","null","","","","forget_cue","","","","","","","","","","","","","","","",""
"html-keyboard-response","134","405484","0.0-4.0-1.0-0.3","hfjw9v4uy5og18h","prime","5a706cc5efd3a7000120ff3e","5f60e3c0a3b16e07647b2ff9","5f61dc02c287bf17cf17c3f4","false","null","<span style=""color: black; font-size: 48px"">N + M</span>","null","","","","resp_prompt","","","","","","","","","","","","","","","",""
"categorize-image","135","406121","0.0-4.0-1.0-1.3","hfjw9v4uy5og18h","prime","5a706cc5efd3a7000120ff3e","5f60e3c0a3b16e07647b2ff9","5f61dc02c287bf17cf17c3f4","true","633","./Stimuli/SelectedImages/LM/LM48.bmp","76","","","","test","true","N + M","76","switch","LM","LM48.bmp","remember","","52","3","prime1","right","","","",""
"html-keyboard-response","136","408135","0.0-4.0-1.0-3.3","hfjw9v4uy5og18h","prime","5a706cc5efd3a7000120ff3e","5f60e3c0a3b16e07647b2ff9","5f61dc02c287bf17cf17c3f4","false","null","<div style=""align-items: center; display: flex; color: dodgerblue; font-size: 90px""><b>o</b></div>","null","","","","forget_cue","","","","","","","","","","","","","","","",""
"html-keyboard-response","137","408836","0.0-4.0-1.0-0.4","hfjw9v4uy5og18h","prime","5a706cc5efd3a7000120ff3e","5f60e3c0a3b16e07647b2ff9","5f61dc02c287bf17cf17c3f4","false","null","<span style=""color: black; font-size: 48px"">N + M</span>","null","","","","resp_prompt","","","","","","","","","","","","","","","",""
"categorize-image","138","409551","0.0-4.0-1.0-1.4","hfjw9v4uy5og18h","prime","5a706cc5efd3a7000120ff3e","5f60e3c0a3b16e07647b2ff9","5f61dc02c287bf17cf17c3f4","true","713","./Stimuli/SelectedImages/LM/LM100.bmp","76","","","","test","true","N + M","76","repetition","LM","LM100.bmp","remember","","53","3","prime1","right","","","",""
"html-keyboard-response","139","411559","0.0-4.0-1.0-3.4","hfjw9v4uy5og18h","prime","5a706cc5efd3a7000120ff3e","5f60e3c0a3b16e07647b2ff9","5f61dc02c287bf17cf17c3f4","false","null","<div style=""align-items: center; display: flex; color: dodgerblue; font-size: 90px""><b>o</b></div>","null","","","","forget_cue","","","","","","","","","","","","","","","",""
"html-keyboard-response","140","412259","0.0-4.0-1.0-0.5","hfjw9v4uy5og18h","prime","5a706cc5efd3a7000120ff3e","5f60e3c0a3b16e07647b2ff9","5f61dc02c287bf17cf17c3f4","false","null","<span style=""color: black; font-size: 48px"">N + M</span>","null","","","","resp_prompt","","","","","","","","","","","","","","","",""
"categorize-image","141","412977","0.0-4.0-1.0-1.5","hfjw9v4uy5og18h","prime","5a706cc5efd3a7000120ff3e","5f60e3c0a3b16e07647b2ff9","5f61dc02c287bf17cf17c3f4","true","715","./Stimuli/SelectedImages/SM/SM106.bmp","76","","","","test","true","N + M","76","switch","SM","SM106.bmp","forget","","54","3","prime1","right","","","",""
"html-keyboard-response","142","414982","0.0-4.0-1.0-3.5","hfjw9v4uy5og18h","prime","5a706cc5efd3a7000120ff3e","5f60e3c0a3b16e07647b2ff9","5f61dc02c287bf17cf17c3f4","false","null","<div style=""align-items: center; display: flex; color: darkorange; font-size: 90px""><b>ø</b></div>","null","","","","forget_cue","","","","","","","","","","","","","","","",""
"html-keyboard-response","143","415683","0.0-4.0-1.0-0.6","hfjw9v4uy5og18h","prime","5a706cc5efd3a7000120ff3e","5f60e3c0a3b16e07647b2ff9","5f61dc02c287bf17cf17c3f4","false","null","<span style=""color: black; font-size: 48px"">N + M</span>","null","","","","resp_prompt","","","","","","","","","","","","","","","",""
"categorize-image","144","416337","0.0-4.0-1.0-1.6","hfjw9v4uy5og18h","prime","5a706cc5efd3a7000120ff3e","5f60e3c0a3b16e07647b2ff9","5f61dc02c287bf17cf17c3f4","true","651","./Stimuli/SelectedImages/SN/SN52.bmp","83","","","","test","true","N + M","83","repetition","SN","SN52.bmp","remember","","55","3","prime1","left","","","",""
"html-keyboard-response","145","418355","0.0-4.0-1.0-3.6","hfjw9v4uy5og18h","prime","5a706cc5efd3a7000120ff3e","5f60e3c0a3b16e07647b2ff9","5f61dc02c287bf17cf17c3f4","false","null","<div style=""align-items: center; display: flex; color: dodgerblue; font-size: 90px""><b>o</b></div>","null","","","","forget_cue","","","","","","","","","","","","","","","",""
"html-keyboard-response","146","419066","0.0-4.0-1.0-0.7","hfjw9v4uy5og18h","prime","5a706cc5efd3a7000120ff3e","5f60e3c0a3b16e07647b2ff9","5f61dc02c287bf17cf17c3f4","false","null","<span style=""color: black; font-size: 48px"">M + N</span>","null","","","","resp_prompt","","","","","","","","","","","","","","","",""
"categorize-image","147","419993","0.0-4.0-1.0-1.7","hfjw9v4uy5og18h","prime","5a706cc5efd3a7000120ff3e","5f60e3c0a3b16e07647b2ff9","5f61dc02c287bf17cf17c3f4","true","924","./Stimuli/SelectedImages/SM/SM213.bmp","76","","","","test","false","M + N","83","repetition","SM","SM213.bmp","remember","","56","3","prime1","right","","","",""
"html-keyboard-response","148","420509","0.0-4.0-1.0-2.7-0.7","hfjw9v4uy5og18h","prime","5a706cc5efd3a7000120ff3e","5f60e3c0a3b16e07647b2ff9","5f61dc02c287bf17cf17c3f4","false","null","<span style=""color: red; font-size: 48px"">Error!</span>","null","","","","feedback","","","","","","","","","","","","","","","",""
"html-keyboard-response","149","422510","0.0-4.0-1.0-3.7","hfjw9v4uy5og18h","prime","5a706cc5efd3a7000120ff3e","5f60e3c0a3b16e07647b2ff9","5f61dc02c287bf17cf17c3f4","false","null","<div style=""align-items: center; display: flex; color: dodgerblue; font-size: 90px""><b>o</b></div>","null","","","","forget_cue","","","","","","","","","","","","","","","",""
"html-keyboard-response","150","423211","0.0-4.0-1.0-0.8","hfjw9v4uy5og18h","prime","5a706cc5efd3a7000120ff3e","5f60e3c0a3b16e07647b2ff9","5f61dc02c287bf17cf17c3f4","false","null","<span style=""color: black; font-size: 48px"">N + M</span>","null","","","","resp_prompt","","","","","","","","","","","","","","","",""
"categorize-image","151","423993","0.0-4.0-1.0-1.8","hfjw9v4uy5og18h","prime","5a706cc5efd3a7000120ff3e","5f60e3c0a3b16e07647b2ff9","5f61dc02c287bf17cf17c3f4","true","777","./Stimuli/SelectedImages/SM/SM73.bmp","83","","","","test","false","N + M","76","repetition","SM","SM73.bmp","forget","","57","3","prime1","left","","","",""
"html-keyboard-response","152","424511","0.0-4.0-1.0-2.8-0.8","hfjw9v4uy5og18h","prime","5a706cc5efd3a7000120ff3e","5f60e3c0a3b16e07647b2ff9","5f61dc02c287bf17cf17c3f4","false","null","<span style=""color: red; font-size: 48px"">Error!</span>","null","","","","feedback","","","","","","","","","","","","","","","",""
"html-keyboard-response","153","426513","0.0-4.0-1.0-3.8","hfjw9v4uy5og18h","prime","5a706cc5efd3a7000120ff3e","5f60e3c0a3b16e07647b2ff9","5f61dc02c287bf17cf17c3f4","false","null","<div style=""align-items: center; display: flex; color: darkorange; font-size: 90px""><b>ø</b></div>","null","","","","forget_cue","","","","","","","","","","","","","","","",""
"html-keyboard-response","154","427213","0.0-4.0-1.0-0.9","hfjw9v4uy5og18h","prime","5a706cc5efd3a7000120ff3e","5f60e3c0a3b16e07647b2ff9","5f61dc02c287bf17cf17c3f4","false","null","<span style=""color: black; font-size: 48px"">M + N</span>","null","","","","resp_prompt","","","","","","","","","","","","","","","",""
"categorize-image","155","427936","0.0-4.0-1.0-1.9","hfjw9v4uy5og18h","prime","5a706cc5efd3a7000120ff3e","5f60e3c0a3b16e07647b2ff9","5f61dc02c287bf17cf17c3f4","true","720","./Stimuli/SelectedImages/SN/SN93.bmp","76","","","","test","true","M + N","76","switch","SN","SN93.bmp","remember","","58","3","prime1","right","","","",""
"html-keyboard-response","156","429956","0.0-4.0-1.0-3.9","hfjw9v4uy5og18h","prime","5a706cc5efd3a7000120ff3e","5f60e3c0a3b16e07647b2ff9","5f61dc02c287bf17cf17c3f4","false","null","<div style=""align-items: center; display: flex; color: dodgerblue; font-size: 90px""><b>o</b></div>","null","","","","forget_cue","","","","","","","","","","","","","","","",""
"html-keyboard-response","157","430657","0.0-4.0-1.0-0.10","hfjw9v4uy5og18h","prime","5a706cc5efd3a7000120ff3e","5f60e3c0a3b16e07647b2ff9","5f61dc02c287bf17cf17c3f4","false","null","<span style=""color: black; font-size: 48px"">N + M</span>","null","","","","resp_prompt","","","","","","","","","","","","","","","",""
"categorize-image","158","431449","0.0-4.0-1.0-1.10","hfjw9v4uy5og18h","prime","5a706cc5efd3a7000120ff3e","5f60e3c0a3b16e07647b2ff9","5f61dc02c287bf17cf17c3f4","true","788","./Stimuli/SelectedImages/SN/SN140.bmp","83","","","","test","true","N + M","83","switch","SN","SN140.bmp","remember","","59","3","prime1","left","","","",""
"html-keyboard-response","159","433461","0.0-4.0-1.0-3.10","hfjw9v4uy5og18h","prime","5a706cc5efd3a7000120ff3e","5f60e3c0a3b16e07647b2ff9","5f61dc02c287bf17cf17c3f4","false","null","<div style=""align-items: center; display: flex; color: dodgerblue; font-size: 90px""><b>o</b></div>","null","","","","forget_cue","","","","","","","","","","","","","","","",""
"html-keyboard-response","160","434162","0.0-4.0-1.0-0.11","hfjw9v4uy5og18h","prime","5a706cc5efd3a7000120ff3e","5f60e3c0a3b16e07647b2ff9","5f61dc02c287bf17cf17c3f4","false","null","<span style=""color: black; font-size: 48px"">N + M</span>","null","","","","resp_prompt","","","","","","","","","","","","","","","",""
"categorize-image","161","435122","0.0-4.0-1.0-1.11","hfjw9v4uy5og18h","prime","5a706cc5efd3a7000120ff3e","5f60e3c0a3b16e07647b2ff9","5f61dc02c287bf17cf17c3f4","true","956","./Stimuli/SelectedImages/LN/LN150.bmp","83","","","","test","true","N + M","83","repetition","LN","LN150.bmp","forget","","60","3","prime1","left","","","",""
"html-keyboard-response","162","437138","0.0-4.0-1.0-3.11","hfjw9v4uy5og18h","prime","5a706cc5efd3a7000120ff3e","5f60e3c0a3b16e07647b2ff9","5f61dc02c287bf17cf17c3f4","false","null","<div style=""align-items: center; display: flex; color: darkorange; font-size: 90px""><b>ø</b></div>","null","","","","forget_cue","","","","","","","","","","","","","","","",""
"html-keyboard-response","163","437859","0.0-4.0-1.0-0.12","hfjw9v4uy5og18h","prime","5a706cc5efd3a7000120ff3e","5f60e3c0a3b16e07647b2ff9","5f61dc02c287bf17cf17c3f4","false","null","<span style=""color: black; font-size: 48px"">N + M</span>","null","","","","resp_prompt","","","","","","","","","","","","","","","",""
"categorize-image","164","438664","0.0-4.0-1.0-1.12","hfjw9v4uy5og18h","prime","5a706cc5efd3a7000120ff3e","5f60e3c0a3b16e07647b2ff9","5f61dc02c287bf17cf17c3f4","true","801","./Stimuli/SelectedImages/SN/SN49.bmp","83","","","","test","true","N + M","83","repetition","SN","SN49.bmp","forget","","61","3","prime1","left","","","",""
"html-keyboard-response","165","440684","0.0-4.0-1.0-3.12","hfjw9v4uy5og18h","prime","5a706cc5efd3a7000120ff3e","5f60e3c0a3b16e07647b2ff9","5f61dc02c287bf17cf17c3f4","false","null","<div style=""align-items: center; display: flex; color: darkorange; font-size: 90px""><b>ø</b></div>","null","","","","forget_cue","","","","","","","","","","","","","","","",""
"html-keyboard-response","166","441395","0.0-4.0-1.0-0.13","hfjw9v4uy5og18h","prime","5a706cc5efd3a7000120ff3e","5f60e3c0a3b16e07647b2ff9","5f61dc02c287bf17cf17c3f4","false","null","<span style=""color: black; font-size: 48px"">M + N</span>","null","","","","resp_prompt","","","","","","","","","","","","","","","",""
"categorize-image","167","442377","0.0-4.0-1.0-1.13","hfjw9v4uy5og18h","prime","5a706cc5efd3a7000120ff3e","5f60e3c0a3b16e07647b2ff9","5f61dc02c287bf17cf17c3f4","true","977","./Stimuli/SelectedImages/SN/SN18.bmp","83","","","","test","false","M + N","76","repetition","SN","SN18.bmp","remember","","62","3","prime1","left","","","",""
"html-keyboard-response","168","442888","0.0-4.0-1.0-2.13-0.13","hfjw9v4uy5og18h","prime","5a706cc5efd3a7000120ff3e","5f60e3c0a3b16e07647b2ff9","5f61dc02c287bf17cf17c3f4","false","null","<span style=""color: red; font-size: 48px"">Error!</span>","null","","","","feedback","","","","","","","","","","","","","","","",""
"html-keyboard-response","169","444890","0.0-4.0-1.0-3.13","hfjw9v4uy5og18h","prime","5a706cc5efd3a7000120ff3e","5f60e3c0a3b16e07647b2ff9","5f61dc02c287bf17cf17c3f4","false","null","<div style=""align-items: center; display: flex; color: dodgerblue; font-size: 90px""><b>o</b></div>","null","","","","forget_cue","","","","","","","","","","","","","","","",""
"html-keyboard-response","170","445590","0.0-4.0-1.0-0.14","hfjw9v4uy5og18h","prime","5a706cc5efd3a7000120ff3e","5f60e3c0a3b16e07647b2ff9","5f61dc02c287bf17cf17c3f4","false","null","<span style=""color: black; font-size: 48px"">M + N</span>","null","","","","resp_prompt","","","","","","","","","","","","","","","",""
"categorize-image","171","446216","0.0-4.0-1.0-1.14","hfjw9v4uy5og18h","prime","5a706cc5efd3a7000120ff3e","5f60e3c0a3b16e07647b2ff9","5f61dc02c287bf17cf17c3f4","true","623","./Stimuli/SelectedImages/LM/LM167.bmp","83","","","","test","true","M + N","83","switch","LM","LM167.bmp","remember","","63","3","prime1","left","","","",""
"html-keyboard-response","172","448232","0.0-4.0-1.0-3.14","hfjw9v4uy5og18h","prime","5a706cc5efd3a7000120ff3e","5f60e3c0a3b16e07647b2ff9","5f61dc02c287bf17cf17c3f4","false","null","<div style=""align-items: center; display: flex; color: dodgerblue; font-size: 90px""><b>o</b></div>","null","","","","forget_cue","","","","","","","","","","","","","","","",""
"html-keyboard-response","173","448943","0.0-4.0-1.0-0.15","hfjw9v4uy5og18h","prime","5a706cc5efd3a7000120ff3e","5f60e3c0a3b16e07647b2ff9","5f61dc02c287bf17cf17c3f4","false","null","<span style=""color: black; font-size: 48px"">M + N</span>","null","","","","resp_prompt","","","","","","","","","","","","","","","",""
"categorize-image","174","449737","0.0-4.0-1.0-1.15","hfjw9v4uy5og18h","prime","5a706cc5efd3a7000120ff3e","5f60e3c0a3b16e07647b2ff9","5f61dc02c287bf17cf17c3f4","true","790","./Stimuli/SelectedImages/LM/LM57.bmp","83","","","","test","true","M + N","83","repetition","LM","LM57.bmp","remember","","64","3","prime1","left","","","",""
"html-keyboard-response","175","451747","0.0-4.0-1.0-3.15","hfjw9v4uy5og18h","prime","5a706cc5efd3a7000120ff3e","5f60e3c0a3b16e07647b2ff9","5f61dc02c287bf17cf17c3f4","false","null","<div style=""align-items: center; display: flex; color: dodgerblue; font-size: 90px""><b>o</b></div>","null","","","","forget_cue","","","","","","","","","","","","","","","",""
"html-keyboard-response","176","452453","0.0-4.0-1.0-0.16","hfjw9v4uy5og18h","prime","5a706cc5efd3a7000120ff3e","5f60e3c0a3b16e07647b2ff9","5f61dc02c287bf17cf17c3f4","false","null","<span style=""color: black; font-size: 48px"">M + N</span>","null","","","","resp_prompt","","","","","","","","","","","","","","","",""
"categorize-image","177","453215","0.0-4.0-1.0-1.16","hfjw9v4uy5og18h","prime","5a706cc5efd3a7000120ff3e","5f60e3c0a3b16e07647b2ff9","5f61dc02c287bf17cf17c3f4","true","760","./Stimuli/SelectedImages/SM/SM108.bmp","83","","","","test","true","M + N","83","switch","SM","SM108.bmp","remember","","65","3","prime1","left","","","",""
"html-keyboard-response","178","455231","0.0-4.0-1.0-3.16","hfjw9v4uy5og18h","prime","5a706cc5efd3a7000120ff3e","5f60e3c0a3b16e07647b2ff9","5f61dc02c287bf17cf17c3f4","false","null","<div style=""align-items: center; display: flex; color: dodgerblue; font-size: 90px""><b>o</b></div>","null","","","","forget_cue","","","","","","","","","","","","","","","",""
"html-keyboard-response","179","455943","0.0-4.0-1.0-0.17","hfjw9v4uy5og18h","prime","5a706cc5efd3a7000120ff3e","5f60e3c0a3b16e07647b2ff9","5f61dc02c287bf17cf17c3f4","false","null","<span style=""color: black; font-size: 48px"">M + N</span>","null","","","","resp_prompt","","","","","","","","","","","","","","","",""
"categorize-image","180","456625","0.0-4.0-1.0-1.17","hfjw9v4uy5og18h","prime","5a706cc5efd3a7000120ff3e","5f60e3c0a3b16e07647b2ff9","5f61dc02c287bf17cf17c3f4","true","680","./Stimuli/SelectedImages/SN/SN64.bmp","76","","","","test","true","M + N","76","repetition","SN","SN64.bmp","forget","","66","3","prime1","right","","","",""
"html-keyboard-response","181","458645","0.0-4.0-1.0-3.17","hfjw9v4uy5og18h","prime","5a706cc5efd3a7000120ff3e","5f60e3c0a3b16e07647b2ff9","5f61dc02c287bf17cf17c3f4","false","null","<div style=""align-items: center; display: flex; color: darkorange; font-size: 90px""><b>ø</b></div>","null","","","","forget_cue","","","","","","","","","","","","","","","",""
"html-keyboard-response","182","459355","0.0-4.0-1.0-0.18","hfjw9v4uy5og18h","prime","5a706cc5efd3a7000120ff3e","5f60e3c0a3b16e07647b2ff9","5f61dc02c287bf17cf17c3f4","false","null","<span style=""color: black; font-size: 48px"">N + M</span>","null","","","","resp_prompt","","","","","","","","","","","","","","","",""
"categorize-image","183","460256","0.0-4.0-1.0-1.18","hfjw9v4uy5og18h","prime","5a706cc5efd3a7000120ff3e","5f60e3c0a3b16e07647b2ff9","5f61dc02c287bf17cf17c3f4","true","898","./Stimuli/SelectedImages/LN/LN42.bmp","83","","","","test","true","N + M","83","repetition","LN","LN42.bmp","remember","","67","3","prime1","left","","","",""
"html-keyboard-response","184","462271","0.0-4.0-1.0-3.18","hfjw9v4uy5og18h","prime","5a706cc5efd3a7000120ff3e","5f60e3c0a3b16e07647b2ff9","5f61dc02c287bf17cf17c3f4","false","null","<div style=""align-items: center; display: flex; color: dodgerblue; font-size: 90px""><b>o</b></div>","null","","","","forget_cue","","","","","","","","","","","","","","","",""
"html-keyboard-response","185","462993","0.0-4.0-1.0-0.19","hfjw9v4uy5og18h","prime","5a706cc5efd3a7000120ff3e","5f60e3c0a3b16e07647b2ff9","5f61dc02c287bf17cf17c3f4","false","null","<span style=""color: black; font-size: 48px"">N + M</span>","null","","","","resp_prompt","","","","","","","","","","","","","","","",""
"categorize-image","186","463793","0.0-4.0-1.0-1.19","hfjw9v4uy5og18h","prime","5a706cc5efd3a7000120ff3e","5f60e3c0a3b16e07647b2ff9","5f61dc02c287bf17cf17c3f4","true","796","./Stimuli/SelectedImages/LM/LM103.bmp","76","","","","test","true","N + M","76","repetition","LM","LM103.bmp","forget","","68","3","prime1","right","","","",""
"html-keyboard-response","187","465796","0.0-4.0-1.0-3.19","hfjw9v4uy5og18h","prime","5a706cc5efd3a7000120ff3e","5f60e3c0a3b16e07647b2ff9","5f61dc02c287bf17cf17c3f4","false","null","<div style=""align-items: center; display: flex; color: darkorange; font-size: 90px""><b>ø</b></div>","null","","","","forget_cue","","","","","","","","","","","","","","","",""
"html-keyboard-response","188","466497","0.0-4.0-1.0-0.20","hfjw9v4uy5og18h","prime","5a706cc5efd3a7000120ff3e","5f60e3c0a3b16e07647b2ff9","5f61dc02c287bf17cf17c3f4","false","null","<span style=""color: black; font-size: 48px"">N + M</span>","null","","","","resp_prompt","","","","","","","","","","","","","","","",""
"categorize-image","189","468049","0.0-4.0-1.0-1.20","hfjw9v4uy5og18h","prime","5a706cc5efd3a7000120ff3e","5f60e3c0a3b16e07647b2ff9","5f61dc02c287bf17cf17c3f4","true","1549","./Stimuli/SelectedImages/LM/LM209.bmp","83","","","","test","false","N + M","76","repetition","LM","LM209.bmp","forget","","69","3","prime1","left","","","",""
"html-keyboard-response","190","468559","0.0-4.0-1.0-2.20-0.20","hfjw9v4uy5og18h","prime","5a706cc5efd3a7000120ff3e","5f60e3c0a3b16e07647b2ff9","5f61dc02c287bf17cf17c3f4","false","null","<span style=""color: red; font-size: 48px"">Error!</span>","null","","","","feedback","","","","","","","","","","","","","","","",""
"html-keyboard-response","191","470560","0.0-4.0-1.0-3.20","hfjw9v4uy5og18h","prime","5a706cc5efd3a7000120ff3e","5f60e3c0a3b16e07647b2ff9","5f61dc02c287bf17cf17c3f4","false","null","<div style=""align-items: center; display: flex; color: darkorange; font-size: 90px""><b>ø</b></div>","null","","","","forget_cue","","","","","","","","","","","","","","","",""
"html-keyboard-response","192","471272","0.0-4.0-1.0-0.21","hfjw9v4uy5og18h","prime","5a706cc5efd3a7000120ff3e","5f60e3c0a3b16e07647b2ff9","5f61dc02c287bf17cf17c3f4","false","null","<span style=""color: black; font-size: 48px"">M + N</span>","null","","","","resp_prompt","","","","","","","","","","","","","","","",""
"categorize-image","193","472191","0.0-4.0-1.0-1.21","hfjw9v4uy5og18h","prime","5a706cc5efd3a7000120ff3e","5f60e3c0a3b16e07647b2ff9","5f61dc02c287bf17cf17c3f4","true","917","./Stimuli/SelectedImages/LM/LM59.bmp","83","","","","test","true","M + N","83","switch","LM","LM59.bmp","forget","","70","3","prime1","left","","","",""
"html-keyboard-response","194","474207","0.0-4.0-1.0-3.21","hfjw9v4uy5og18h","prime","5a706cc5efd3a7000120ff3e","5f60e3c0a3b16e07647b2ff9","5f61dc02c287bf17cf17c3f4","false","null","<div style=""align-items: center; display: flex; color: darkorange; font-size: 90px""><b>ø</b></div>","null","","","","forget_cue","","","","","","","","","","","","","","","",""
"html-keyboard-response","195","474909","0.0-4.0-1.0-0.22","hfjw9v4uy5og18h","prime","5a706cc5efd3a7000120ff3e","5f60e3c0a3b16e07647b2ff9","5f61dc02c287bf17cf17c3f4","false","null","<span style=""color: black; font-size: 48px"">M + N</span>","null","","","","resp_prompt","","","","","","","","","","","","","","","",""
"categorize-image","196","475536","0.0-4.0-1.0-1.22","hfjw9v4uy5og18h","prime","5a706cc5efd3a7000120ff3e","5f60e3c0a3b16e07647b2ff9","5f61dc02c287bf17cf17c3f4","true","624","./Stimuli/SelectedImages/LN/LN111.bmp","76","","","","test","true","M + N","76","switch","LN","LN111.bmp","forget","","71","3","prime1","right","","","",""
"html-keyboard-response","197","477540","0.0-4.0-1.0-3.22","hfjw9v4uy5og18h","prime","5a706cc5efd3a7000120ff3e","5f60e3c0a3b16e07647b2ff9","5f61dc02c287bf17cf17c3f4","false","null","<div style=""align-items: center; display: flex; color: darkorange; font-size: 90px""><b>ø</b></div>","null","","","","forget_cue","","","","","","","","","","","","","","","",""
"html-keyboard-response","198","478251","0.0-4.0-1.0-0.23","hfjw9v4uy5og18h","prime","5a706cc5efd3a7000120ff3e","5f60e3c0a3b16e07647b2ff9","5f61dc02c287bf17cf17c3f4","false","null","<span style=""color: black; font-size: 48px"">M + N</span>","null","","","","resp_prompt","","","","","","","","","","","","","","","",""
"categorize-image","199","479113","0.0-4.0-1.0-1.23","hfjw9v4uy5og18h","prime","5a706cc5efd3a7000120ff3e","5f60e3c0a3b16e07647b2ff9","5f61dc02c287bf17cf17c3f4","true","858","./Stimuli/SelectedImages/SN/SN181.bmp","83","","","","test","false","M + N","76","repetition","SN","SN181.bmp","forget","","72","3","prime1","left","","","",""
"html-keyboard-response","200","479632","0.0-4.0-1.0-2.23-0.23","hfjw9v4uy5og18h","prime","5a706cc5efd3a7000120ff3e","5f60e3c0a3b16e07647b2ff9","5f61dc02c287bf17cf17c3f4","false","null","<span style=""color: red; font-size: 48px"">Error!</span>","null","","","","feedback","","","","","","","","","","","","","","","",""
"html-keyboard-response","201","481644","0.0-4.0-1.0-3.23","hfjw9v4uy5og18h","prime","5a706cc5efd3a7000120ff3e","5f60e3c0a3b16e07647b2ff9","5f61dc02c287bf17cf17c3f4","false","null","<div style=""align-items: center; display: flex; color: darkorange; font-size: 90px""><b>ø</b></div>","null","","","","forget_cue","","","","","","","","","","","","","","","",""
"html-keyboard-response","202","482355","0.0-4.0-1.0-0.24","hfjw9v4uy5og18h","prime","5a706cc5efd3a7000120ff3e","5f60e3c0a3b16e07647b2ff9","5f61dc02c287bf17cf17c3f4","false","null","<span style=""color: black; font-size: 48px"">N + M</span>","null","","","","resp_prompt","","","","","","","","","","","","","","","",""
"categorize-image","203","483105","0.0-4.0-1.0-1.24","hfjw9v4uy5og18h","prime","5a706cc5efd3a7000120ff3e","5f60e3c0a3b16e07647b2ff9","5f61dc02c287bf17cf17c3f4","true","747","./Stimuli/SelectedImages/SN/SN240.bmp","76","","","","test","false","N + M","83","repetition","SN","SN240.bmp","forget","","73","3","prime1","right","","","",""
"html-keyboard-response","204","483624","0.0-4.0-1.0-2.24-0.24","hfjw9v4uy5og18h","prime","5a706cc5efd3a7000120ff3e","5f60e3c0a3b16e07647b2ff9","5f61dc02c287bf17cf17c3f4","false","null","<span style=""color: red; font-size: 48px"">Error!</span>","null","","","","feedback","","","","","","","","","","","","","","","",""
"html-keyboard-response","205","485631","0.0-4.0-1.0-3.24","hfjw9v4uy5og18h","prime","5a706cc5efd3a7000120ff3e","5f60e3c0a3b16e07647b2ff9","5f61dc02c287bf17cf17c3f4","false","null","<div style=""align-items: center; display: flex; color: darkorange; font-size: 90px""><b>ø</b></div>","null","","","","forget_cue","","","","","","","","","","","","","","","",""
"html-keyboard-response","206","486337","0.0-4.0-1.0-0.25","hfjw9v4uy5og18h","prime","5a706cc5efd3a7000120ff3e","5f60e3c0a3b16e07647b2ff9","5f61dc02c287bf17cf17c3f4","false","null","<span style=""color: black; font-size: 48px"">M + N</span>","null","","","","resp_prompt","","","","","","","","","","","","","","","",""
"categorize-image","207","487360","0.0-4.0-1.0-1.25","hfjw9v4uy5og18h","prime","5a706cc5efd3a7000120ff3e","5f60e3c0a3b16e07647b2ff9","5f61dc02c287bf17cf17c3f4","true","1020","./Stimuli/SelectedImages/LN/LN166.bmp","76","","","","test","true","M + N","76","repetition","LN","LN166.bmp","forget","","74","3","prime1","right","","","",""
"html-keyboard-response","208","489375","0.0-4.0-1.0-3.25","hfjw9v4uy5og18h","prime","5a706cc5efd3a7000120ff3e","5f60e3c0a3b16e07647b2ff9","5f61dc02c287bf17cf17c3f4","false","null","<div style=""align-items: center; display: flex; color: darkorange; font-size: 90px""><b>ø</b></div>","null","","","","forget_cue","","","","","","","","","","","","","","","",""
"html-keyboard-response","209","490096","0.0-4.0-1.0-0.26","hfjw9v4uy5og18h","prime","5a706cc5efd3a7000120ff3e","5f60e3c0a3b16e07647b2ff9","5f61dc02c287bf17cf17c3f4","false","null","<span style=""color: black; font-size: 48px"">M + N</span>","null","","","","resp_prompt","","","","","","","","","","","","","","","",""
"categorize-image","210","491330","0.0-4.0-1.0-1.26","hfjw9v4uy5og18h","prime","5a706cc5efd3a7000120ff3e","5f60e3c0a3b16e07647b2ff9","5f61dc02c287bf17cf17c3f4","true","1232","./Stimuli/SelectedImages/SN/SN111.bmp","76","","","","test","true","M + N","76","repetition","SN","SN111.bmp","remember","","75","3","prime1","right","","","",""
"html-keyboard-response","211","493347","0.0-4.0-1.0-3.26","hfjw9v4uy5og18h","prime","5a706cc5efd3a7000120ff3e","5f60e3c0a3b16e07647b2ff9","5f61dc02c287bf17cf17c3f4","false","null","<div style=""align-items: center; display: flex; color: dodgerblue; font-size: 90px""><b>o</b></div>","null","","","","forget_cue","","","","","","","","","","","","","","","",""
"html-keyboard-response","212","494049","0.0-4.0-1.0-0.27","hfjw9v4uy5og18h","prime","5a706cc5efd3a7000120ff3e","5f60e3c0a3b16e07647b2ff9","5f61dc02c287bf17cf17c3f4","false","null","<span style=""color: black; font-size: 48px"">N + M</span>","null","","","","resp_prompt","","","","","","","","","","","","","","","",""
"categorize-image","213","495089","0.0-4.0-1.0-1.27","hfjw9v4uy5og18h","prime","5a706cc5efd3a7000120ff3e","5f60e3c0a3b16e07647b2ff9","5f61dc02c287bf17cf17c3f4","true","1036","./Stimuli/SelectedImages/SM/SM205.bmp","76","","","","test","true","N + M","76","repetition","SM","SM205.bmp","remember","","76","3","prime1","right","","","",""
"html-keyboard-response","214","497105","0.0-4.0-1.0-3.27","hfjw9v4uy5og18h","prime","5a706cc5efd3a7000120ff3e","5f60e3c0a3b16e07647b2ff9","5f61dc02c287bf17cf17c3f4","false","null","<div style=""align-items: center; display: flex; color: dodgerblue; font-size: 90px""><b>o</b></div>","null","","","","forget_cue","","","","","","","","","","","","","","","",""
"html-keyboard-response","215","497807","0.0-4.0-1.0-0.28","hfjw9v4uy5og18h","prime","5a706cc5efd3a7000120ff3e","5f60e3c0a3b16e07647b2ff9","5f61dc02c287bf17cf17c3f4","false","null","<span style=""color: black; font-size: 48px"">M + N</span>","null","","","","resp_prompt","","","","","","","","","","","","","","","",""
"categorize-image","216","498568","0.0-4.0-1.0-1.28","hfjw9v4uy5og18h","prime","5a706cc5efd3a7000120ff3e","5f60e3c0a3b16e07647b2ff9","5f61dc02c287bf17cf17c3f4","true","759","./Stimuli/SelectedImages/LM/LM150.bmp","83","","","","test","true","M + N","83","repetition","LM","LM150.bmp","remember","","77","3","prime1","left","","","",""
"html-keyboard-response","217","500576","0.0-4.0-1.0-3.28","hfjw9v4uy5og18h","prime","5a706cc5efd3a7000120ff3e","5f60e3c0a3b16e07647b2ff9","5f61dc02c287bf17cf17c3f4","false","null","<div style=""align-items: center; display: flex; color: dodgerblue; font-size: 90px""><b>o</b></div>","null","","","","forget_cue","","","","","","","","","","","","","","","",""
"html-keyboard-response","218","501288","0.0-4.0-1.0-0.29","hfjw9v4uy5og18h","prime","5a706cc5efd3a7000120ff3e","5f60e3c0a3b16e07647b2ff9","5f61dc02c287bf17cf17c3f4","false","null","<span style=""color: black; font-size: 48px"">N + M</span>","null","","","","resp_prompt","","","","","","","","","","","","","","","",""
"categorize-image","219","502233","0.0-4.0-1.0-1.29","hfjw9v4uy5og18h","prime","5a706cc5efd3a7000120ff3e","5f60e3c0a3b16e07647b2ff9","5f61dc02c287bf17cf17c3f4","true","941","./Stimuli/SelectedImages/SN/SN128.bmp","76","","","","test","false","N + M","83","switch","SN","SN128.bmp","remember","","78","3","prime1","right","","","",""
"html-keyboard-response","220","502744","0.0-4.0-1.0-2.29-0.29","hfjw9v4uy5og18h","prime","5a706cc5efd3a7000120ff3e","5f60e3c0a3b16e07647b2ff9","5f61dc02c287bf17cf17c3f4","false","null","<span style=""color: red; font-size: 48px"">Error!</span>","null","","","","feedback","","","","","","","","","","","","","","","",""
"html-keyboard-response","221","504744","0.0-4.0-1.0-3.29","hfjw9v4uy5og18h","prime","5a706cc5efd3a7000120ff3e","5f60e3c0a3b16e07647b2ff9","5f61dc02c287bf17cf17c3f4","false","null","<div style=""align-items: center; display: flex; color: dodgerblue; font-size: 90px""><b>o</b></div>","null","","","","forget_cue","","","","","","","","","","","","","","","",""
"html-keyboard-response","222","505446","0.0-4.0-1.0-0.30","hfjw9v4uy5og18h","prime","5a706cc5efd3a7000120ff3e","5f60e3c0a3b16e07647b2ff9","5f61dc02c287bf17cf17c3f4","false","null","<span style=""color: black; font-size: 48px"">N + M</span>","null","","","","resp_prompt","","","","","","","","","","","","","","","",""
"categorize-image","223","506385","0.0-4.0-1.0-1.30","hfjw9v4uy5og18h","prime","5a706cc5efd3a7000120ff3e","5f60e3c0a3b16e07647b2ff9","5f61dc02c287bf17cf17c3f4","true","936","./Stimuli/SelectedImages/LM/LM51.bmp","76","","","","test","true","N + M","76","switch","LM","LM51.bmp","forget","","79","3","prime1","right","","","",""
"html-keyboard-response","224","508402","0.0-4.0-1.0-3.30","hfjw9v4uy5og18h","prime","5a706cc5efd3a7000120ff3e","5f60e3c0a3b16e07647b2ff9","5f61dc02c287bf17cf17c3f4","false","null","<div style=""align-items: center; display: flex; color: darkorange; font-size: 90px""><b>ø</b></div>","null","","","","forget_cue","","","","","","","","","","","","","","","",""
"html-keyboard-response","225","509113","0.0-4.0-1.0-0.31","hfjw9v4uy5og18h","prime","5a706cc5efd3a7000120ff3e","5f60e3c0a3b16e07647b2ff9","5f61dc02c287bf17cf17c3f4","false","null","<span style=""color: black; font-size: 48px"">M + N</span>","null","","","","resp_prompt","","","","","","","","","","","","","","","",""
"categorize-image","226","510201","0.0-4.0-1.0-1.31","hfjw9v4uy5og18h","prime","5a706cc5efd3a7000120ff3e","5f60e3c0a3b16e07647b2ff9","5f61dc02c287bf17cf17c3f4","true","1084","./Stimuli/SelectedImages/LM/LM58.bmp","83","","","","test","true","M + N","83","repetition","LM","LM58.bmp","forget","","80","3","prime1","left","","","",""
"html-keyboard-response","227","512212","0.0-4.0-1.0-3.31","hfjw9v4uy5og18h","prime","5a706cc5efd3a7000120ff3e","5f60e3c0a3b16e07647b2ff9","5f61dc02c287bf17cf17c3f4","false","null","<div style=""align-items: center; display: flex; color: darkorange; font-size: 90px""><b>ø</b></div>","null","","","","forget_cue","","","","","","","","","","","","","","","",""
"html-keyboard-response","228","512932","0.0-4.0-1.0-0.32","hfjw9v4uy5og18h","prime","5a706cc5efd3a7000120ff3e","5f60e3c0a3b16e07647b2ff9","5f61dc02c287bf17cf17c3f4","false","null","<span style=""color: black; font-size: 48px"">M + N</span>","null","","","","resp_prompt","","","","","","","","","","","","","","","",""
"categorize-image","229","513808","0.0-4.0-1.0-1.32","hfjw9v4uy5og18h","prime","5a706cc5efd3a7000120ff3e","5f60e3c0a3b16e07647b2ff9","5f61dc02c287bf17cf17c3f4","true","873","./Stimuli/SelectedImages/LN/LN101.bmp","76","","","","test","true","M + N","76","repetition","LN","LN101.bmp","forget","","81","3","prime1","right","","","",""
"html-keyboard-response","230","515818","0.0-4.0-1.0-3.32","hfjw9v4uy5og18h","prime","5a706cc5efd3a7000120ff3e","5f60e3c0a3b16e07647b2ff9","5f61dc02c287bf17cf17c3f4","false","null","<div style=""align-items: center; display: flex; color: darkorange; font-size: 90px""><b>ø</b></div>","null","","","","forget_cue","","","","","","","","","","","","","","","",""
"html-keyboard-response","231","516519","0.0-4.0-1.0-0.33","hfjw9v4uy5og18h","prime","5a706cc5efd3a7000120ff3e","5f60e3c0a3b16e07647b2ff9","5f61dc02c287bf17cf17c3f4","false","null","<span style=""color: black; font-size: 48px"">N + M</span>","null","","","","resp_prompt","","","","","","","","","","","","","","","",""
"categorize-image","232","517489","0.0-4.0-1.0-1.33","hfjw9v4uy5og18h","prime","5a706cc5efd3a7000120ff3e","5f60e3c0a3b16e07647b2ff9","5f61dc02c287bf17cf17c3f4","true","967","./Stimuli/SelectedImages/LM/LM235.bmp","76","","","","test","true","N + M","76","switch","LM","LM235.bmp","remember","","82","3","prime1","right","","","",""
"html-keyboard-response","233","519496","0.0-4.0-1.0-3.33","hfjw9v4uy5og18h","prime","5a706cc5efd3a7000120ff3e","5f60e3c0a3b16e07647b2ff9","5f61dc02c287bf17cf17c3f4","false","null","<div style=""align-items: center; display: flex; color: dodgerblue; font-size: 90px""><b>o</b></div>","null","","","","forget_cue","","","","","","","","","","","","","","","",""
"html-keyboard-response","234","520202","0.0-4.0-1.0-0.34","hfjw9v4uy5og18h","prime","5a706cc5efd3a7000120ff3e","5f60e3c0a3b16e07647b2ff9","5f61dc02c287bf17cf17c3f4","false","null","<span style=""color: black; font-size: 48px"">M + N</span>","null","","","","resp_prompt","","","","","","","","","","","","","","","",""
"categorize-image","235","520983","0.0-4.0-1.0-1.34","hfjw9v4uy5og18h","prime","5a706cc5efd3a7000120ff3e","5f60e3c0a3b16e07647b2ff9","5f61dc02c287bf17cf17c3f4","true","780","./Stimuli/SelectedImages/SM/SM184.bmp","83","","","","test","true","M + N","83","repetition","SM","SM184.bmp","forget","","83","3","prime1","left","","","",""
"html-keyboard-response","236","522989","0.0-4.0-1.0-3.34","hfjw9v4uy5og18h","prime","5a706cc5efd3a7000120ff3e","5f60e3c0a3b16e07647b2ff9","5f61dc02c287bf17cf17c3f4","false","null","<div style=""align-items: center; display: flex; color: darkorange; font-size: 90px""><b>ø</b></div>","null","","","","forget_cue","","","","","","","","","","","","","","","",""
"html-keyboard-response","237","523701","0.0-4.0-1.0-0.35","hfjw9v4uy5og18h","prime","5a706cc5efd3a7000120ff3e","5f60e3c0a3b16e07647b2ff9","5f61dc02c287bf17cf17c3f4","false","null","<span style=""color: black; font-size: 48px"">N + M</span>","null","","","","resp_prompt","","","","","","","","","","","","","","","",""
"categorize-image","238","524481","0.0-4.0-1.0-1.35","hfjw9v4uy5og18h","prime","5a706cc5efd3a7000120ff3e","5f60e3c0a3b16e07647b2ff9","5f61dc02c287bf17cf17c3f4","true","776","./Stimuli/SelectedImages/SM/SM148.bmp","76","","","","test","true","N + M","76","switch","SM","SM148.bmp","remember","","84","3","prime1","right","","","",""
"html-keyboard-response","239","526494","0.0-4.0-1.0-3.35","hfjw9v4uy5og18h","prime","5a706cc5efd3a7000120ff3e","5f60e3c0a3b16e07647b2ff9","5f61dc02c287bf17cf17c3f4","false","null","<div style=""align-items: center; display: flex; color: dodgerblue; font-size: 90px""><b>o</b></div>","null","","","","forget_cue","","","","","","","","","","","","","","","",""
"html-keyboard-response","240","527206","0.0-4.0-1.0-0.36","hfjw9v4uy5og18h","prime","5a706cc5efd3a7000120ff3e","5f60e3c0a3b16e07647b2ff9","5f61dc02c287bf17cf17c3f4","false","null","<span style=""color: black; font-size: 48px"">N + M</span>","null","","","","resp_prompt","","","","","","","","","","","","","","","",""
"categorize-image","241","527976","0.0-4.0-1.0-1.36","hfjw9v4uy5og18h","prime","5a706cc5efd3a7000120ff3e","5f60e3c0a3b16e07647b2ff9","5f61dc02c287bf17cf17c3f4","true","768","./Stimuli/SelectedImages/LN/LN177.bmp","83","","","","test","true","N + M","83","switch","LN","LN177.bmp","forget","","85","3","prime1","left","","","",""
"html-keyboard-response","242","529989","0.0-4.0-1.0-3.36","hfjw9v4uy5og18h","prime","5a706cc5efd3a7000120ff3e","5f60e3c0a3b16e07647b2ff9","5f61dc02c287bf17cf17c3f4","false","null","<div style=""align-items: center; display: flex; color: darkorange; font-size: 90px""><b>ø</b></div>","null","","","","forget_cue","","","","","","","","","","","","","","","",""
"html-keyboard-response","243","530700","0.0-4.0-1.0-0.37","hfjw9v4uy5og18h","prime","5a706cc5efd3a7000120ff3e","5f60e3c0a3b16e07647b2ff9","5f61dc02c287bf17cf17c3f4","false","null","<span style=""color: black; font-size: 48px"">M + N</span>","null","","","","resp_prompt","","","","","","","","","","","","","","","",""
"categorize-image","244","531408","0.0-4.0-1.0-1.37","hfjw9v4uy5og18h","prime","5a706cc5efd3a7000120ff3e","5f60e3c0a3b16e07647b2ff9","5f61dc02c287bf17cf17c3f4","true","705","./Stimuli/SelectedImages/LN/LN28.bmp","76","","","","test","true","M + N","76","repetition","LN","LN28.bmp","remember","","86","3","prime1","right","","","",""
"html-keyboard-response","245","533411","0.0-4.0-1.0-3.37","hfjw9v4uy5og18h","prime","5a706cc5efd3a7000120ff3e","5f60e3c0a3b16e07647b2ff9","5f61dc02c287bf17cf17c3f4","false","null","<div style=""align-items: center; display: flex; color: dodgerblue; font-size: 90px""><b>o</b></div>","null","","","","forget_cue","","","","","","","","","","","","","","","",""
"html-keyboard-response","246","534134","0.0-4.0-1.0-0.38","hfjw9v4uy5og18h","prime","5a706cc5efd3a7000120ff3e","5f60e3c0a3b16e07647b2ff9","5f61dc02c287bf17cf17c3f4","false","null","<span style=""color: black; font-size: 48px"">M + N</span>","null","","","","resp_prompt","","","","","","","","","","","","","","","",""
"categorize-image","247","534865","0.0-4.0-1.0-1.38","hfjw9v4uy5og18h","prime","5a706cc5efd3a7000120ff3e","5f60e3c0a3b16e07647b2ff9","5f61dc02c287bf17cf17c3f4","true","728","./Stimuli/SelectedImages/LN/LN131.bmp","76","","","","test","true","M + N","76","switch","LN","LN131.bmp","forget","","87","3","prime1","right","","","",""
"html-keyboard-response","248","536877","0.0-4.0-1.0-3.38","hfjw9v4uy5og18h","prime","5a706cc5efd3a7000120ff3e","5f60e3c0a3b16e07647b2ff9","5f61dc02c287bf17cf17c3f4","false","null","<div style=""align-items: center; display: flex; color: darkorange; font-size: 90px""><b>ø</b></div>","null","","","","forget_cue","","","","","","","","","","","","","","","",""
"html-keyboard-response","249","537588","0.0-4.0-1.0-0.39","hfjw9v4uy5og18h","prime","5a706cc5efd3a7000120ff3e","5f60e3c0a3b16e07647b2ff9","5f61dc02c287bf17cf17c3f4","false","null","<span style=""color: black; font-size: 48px"">N + M</span>","null","","","","resp_prompt","","","","","","","","","","","","","","","",""
"categorize-image","250","538384","0.0-4.0-1.0-1.39","hfjw9v4uy5og18h","prime","5a706cc5efd3a7000120ff3e","5f60e3c0a3b16e07647b2ff9","5f61dc02c287bf17cf17c3f4","true","794","./Stimuli/SelectedImages/SN/SN60.bmp","83","","","","test","true","N + M","83","repetition","SN","SN60.bmp","remember","","88","3","prime1","left","","","",""
"html-keyboard-response","251","540392","0.0-4.0-1.0-3.39","hfjw9v4uy5og18h","prime","5a706cc5efd3a7000120ff3e","5f60e3c0a3b16e07647b2ff9","5f61dc02c287bf17cf17c3f4","false","null","<div style=""align-items: center; display: flex; color: dodgerblue; font-size: 90px""><b>o</b></div>","null","","","","forget_cue","","","","","","","","","","","","","","","",""
"html-keyboard-response","252","541103","0.0-4.0-1.0-0.40","hfjw9v4uy5og18h","prime","5a706cc5efd3a7000120ff3e","5f60e3c0a3b16e07647b2ff9","5f61dc02c287bf17cf17c3f4","false","null","<span style=""color: black; font-size: 48px"">M + N</span>","null","","","","resp_prompt","","","","","","","","","","","","","","","",""
"categorize-image","253","542112","0.0-4.0-1.0-1.40","hfjw9v4uy5og18h","prime","5a706cc5efd3a7000120ff3e","5f60e3c0a3b16e07647b2ff9","5f61dc02c287bf17cf17c3f4","true","1006","./Stimuli/SelectedImages/SM/SM76.bmp","83","","","","test","true","M + N","83","repetition","SM","SM76.bmp","forget","","89","3","prime1","left","","","",""
"html-keyboard-response","254","544118","0.0-4.0-1.0-3.40","hfjw9v4uy5og18h","prime","5a706cc5efd3a7000120ff3e","5f60e3c0a3b16e07647b2ff9","5f61dc02c287bf17cf17c3f4","false","null","<div style=""align-items: center; display: flex; color: darkorange; font-size: 90px""><b>ø</b></div>","null","","","","forget_cue","","","","","","","","","","","","","","","",""
"html-keyboard-response","255","544831","0.0-4.0-1.0-0.41","hfjw9v4uy5og18h","prime","5a706cc5efd3a7000120ff3e","5f60e3c0a3b16e07647b2ff9","5f61dc02c287bf17cf17c3f4","false","null","<span style=""color: black; font-size: 48px"">N + M</span>","null","","","","resp_prompt","","","","","","","","","","","","","","","",""
"categorize-image","256","546256","0.0-4.0-1.0-1.41","hfjw9v4uy5og18h","prime","5a706cc5efd3a7000120ff3e","5f60e3c0a3b16e07647b2ff9","5f61dc02c287bf17cf17c3f4","true","1422","./Stimuli/SelectedImages/SM/SM74.bmp","76","","","","test","true","N + M","76","repetition","SM","SM74.bmp","remember","","90","3","prime1","right","","","",""
"html-keyboard-response","257","548275","0.0-4.0-1.0-3.41","hfjw9v4uy5og18h","prime","5a706cc5efd3a7000120ff3e","5f60e3c0a3b16e07647b2ff9","5f61dc02c287bf17cf17c3f4","false","null","<div style=""align-items: center; display: flex; color: dodgerblue; font-size: 90px""><b>o</b></div>","null","","","","forget_cue","","","","","","","","","","","","","","","",""
