"trial_type","trial_index","time_elapsed","internal_node_id","subject","exp_part","prolific_PID","study_ID","session_ID","use","rt","stimulus","key_press","button_pressed","responses","question_order","trial_part","correct","resp_map","correct_resp","probe_condition","category","image","forget_condition","list","trial_num","block_num","block","response","test_part","n_span","sequence","num_spaces"
"pavlovia","0","6","0.0-0.0","u1dc8449d1damrm","","5ee3e4110f27710c4dac8a3a","5f60e3c0a3b16e07647b2ff9","5f61dbffbafcd318bec5a133","false","","","","","","","","","","","","","","","","","","","","","","",""
"html-keyboard-response","1","47739","0.0-1.0-0.0-0.0","u1dc8449d1damrm","welcome","5ee3e4110f27710c4dac8a3a","5f60e3c0a3b16e07647b2ff9","5f61dbffbafcd318bec5a133","false","47731.14499999792","<div align=left>Dear participant, <br> thank you for participating in an online study of the Cognition, Action, and Sustainability Unit of the University of Freiburg! <br> <br>The aim of this study is to examine our ability to remember previously learned information. <br>Our goal is to find out, whether our memory improves, when we only remember information that is relevant to us. <br>The experiment will take about 35 minutes to complete. <br> <br>Please, note that you can only participate in this study if you are using a device with a keyboard (PC, Laptop etc.) <br>and not if you are using a mobile device such as a tablet or smartphone.<br> <br>Press 'SPACE' to proceed to the experiment. </div>","32","","","","","","","","","","","","","","","","","","","",""
"html-keyboard-response","2","70105","0.0-1.0-0.0-1.0","u1dc8449d1damrm","welcome","5ee3e4110f27710c4dac8a3a","5f60e3c0a3b16e07647b2ff9","5f61dbffbafcd318bec5a133","false","22364.80500001926","<div align=left><strong> Time Course of this experiment: </strong> <br><br> <strong> 1.</strong>  First, please fill in some information regarding your demographic data. <br><br> <strong> 2.</strong>  Next, your task will be to classify everyday objects. <br>In addition, you will be asked to remember certain objects and recall them later. <br>Working on these tasks requires your undivided attention and concentration.<br>It is therefore essential that you eliminate any sources of distraction in your  <br>environment and ensure that you will not be disturbed. <br><br><strong> 3.</strong>  At the end of the experiment, you will be asked to answer a few additional questions. <br> <br><strong> Important:</strong> After finishing the experiment, only close the browser window <br> by clicking on the 'end the experiment'-button when you are asked to do so. <br>Closing the browser window prematurely will make the allocation of your participation credit impossible. <br><br> Press 'SPACE' to start the experiment. </div>","32","","","","","","","","","","","","","","","","","","","",""
"html-button-response","3","94970","0.0-1.0-0.0-2.0","u1dc8449d1damrm","welcome","5ee3e4110f27710c4dac8a3a","5f60e3c0a3b16e07647b2ff9","5f61dbffbafcd318bec5a133","true","24863.524999993388","<div align=left><strong> Informed consent </strong>  <br>The aim of our research is to better understand human behavior and mental processes. <br>In the following study your behavior (e.g. choices, reaction times) will be studied. <br> <br><strong> Voluntariness and Anonymity </strong> <br>Your participation in this study is  <strong> voluntary</strong>.<br>You may withdraw your consent to participate at any time without providing a reason for doing so and without fear of prejudice. <br><br>As no personal data will be collected, <strong>your data and your person cannot be connected after data collection</strong> – the data-set is anonymous. <br>Respectively, deletion of your data will not be possible after data collection has been completed, as we cannot retrace your data-set.<br>The results and anonymized data collected in this study will be published as a scientific publication. <br>This will happen in an <strong>anonymized format</strong>, so that no data can be traced back to a specific person. <br> <br>The anonymized data of this study will be made available to other researchers and/or in a data archive on the Internet as a means of transparency and to enable subsequent re-use. By doing so, this study follows the recommendations of the Deutsche Forschungsgemeinschaft (DFG, German Research Foundation) and Deutsche Gesellschaft für Psychologie (DGPS, German Psychological Society) regarding quality assurance in research.<br>If you have any questions now or after the experiment, please contact our team (experiments@cs.uni-freiburg.de).<br><br><br>I hereby declare, that I understand the above described conditions of participation and I agree to participate under these conditions. <br><br> </div>","","0","","","","","","","","","","","","","","","","","","",""
"html-keyboard-response","4","122812","0.0-1.0-0.0-3.0","u1dc8449d1damrm","welcome","5ee3e4110f27710c4dac8a3a","5f60e3c0a3b16e07647b2ff9","5f61dbffbafcd318bec5a133","false","27839.929999987362","<div align=left><strong> General information concerning the experiment </strong>  <br> <br>Please follow the instructions:<ol> <li><strong> Do not leave this tab (your browser window) during the experiment and do not reload this tab! </strong>  <br>If you do switch tabs/windows during the experiment (to check your mail or visit another website, for example), <br>the experiment will end automatically and you will <strong>not receive credit</strong> for your participation. <br>Repeated participation or resumption of the experiment is impossible.</li> <br><li>Please close all other programs for the duration of your participation. </li> <br><li>Please mute or turn off your phone and put it out of your reach. </li> <br><li>Please also take off any disturbing accessories (such as wristwatches, bracelets, etc.). </li> <br><li>If you have music playing in the background, please turn it off now. </li> <br></ol>Thank you! <br>Press 'SPACE' to continue. </div>","32","","","","","","","","","","","","","","","","","","","",""
"survey-text","5","127369","0.0-1.0-1.0-0.0","u1dc8449d1damrm","demographics","5ee3e4110f27710c4dac8a3a","5f60e3c0a3b16e07647b2ff9","5f61dbffbafcd318bec5a133","true","4548.595000000205","","","","{""age"":""20""}","","","","","","","","","","","","","","","","","",""
"survey-multi-choice","6","147415","0.0-1.0-1.0-1.0","u1dc8449d1damrm","demographics","5ee3e4110f27710c4dac8a3a","5f60e3c0a3b16e07647b2ff9","5f61dbffbafcd318bec5a133","true","20043.550000002142","","","","{""gender"":""female"",""school"":""high school"",""education"":""Still in training/ university""}","[0,1,2]","","","","","","","","","","","","","","","","",""
"survey-text","7","166835","0.0-1.0-1.0-2.0-0.0","u1dc8449d1damrm","demographics","5ee3e4110f27710c4dac8a3a","5f60e3c0a3b16e07647b2ff9","5f61dbffbafcd318bec5a133","true","19409.23499999917","","","","{""education_text"":""Veterinary medicine ""}","","","","","","","","","","","","","","","","","",""
"html-keyboard-response","8","181068","0.0-1.0-2.0","u1dc8449d1damrm","instructions","5ee3e4110f27710c4dac8a3a","5f60e3c0a3b16e07647b2ff9","5f61dbffbafcd318bec5a133","false","14231.994999980088","<div align=left> The experiment is now about to start: <br> <br>In the following part, you will be presented pictures of everyday objects. <br>Your first task is to <strong>classify these objects. </strong> <br> <br> You will classify them either as mechanical or non-mechanical objects. <br> <br>Objects that include any kind of technical mechanism (for example, wheels, switches, levers, <br> electronic components) fall under the category of <strong>mechanical</strong> objects. <br>Only objects without any kind of technical mechanism should be classified as <strong>non-mechanical</strong>. <br><br>Press 'SPACE' to continue. </div>","32","","","","","","","","","","","","","","","","","","","",""
"html-keyboard-response","9","238194","0.0-2.0-0.0","u1dc8449d1damrm","instructions","5ee3e4110f27710c4dac8a3a","5f60e3c0a3b16e07647b2ff9","5f61dbffbafcd318bec5a133","false","57123.66499999189","<div align=justify>You will classify the objects using the <strong>'S'</strong> and the <strong>'L'</strong> keys on your keyboard.<br>For doing so, please place your <strong>left index finger</strong> on the <strong>'S'</strong> key and place your <strong>right index finger</strong> on the <strong>'L'</strong> key. <br><br> Each trial starts with an instruction, indicating which key ('S'/'L') you need to press to classify <br>the object as mechanical (letter M) or non-mechanical (letter N).<br>The instruction <strong>M + N</strong> indicates that, in the current trial, by pressing the left key ('S') you classify the displayed object as mechanical (M) <br> and by pressing the right key ('L') you classify the object as non-mechanical (N). <br>The instruction <strong>N + M</strong> on the other hand indicates that by pressing the left key ('S') you classify the displayed object as non-mechanical (N) <br> and by pressing the right key ('L') you classify the object as mechanical (M). <br><br>Please press the key corresponding to the correct classification as fast as possible as soon as the object is displayed and try to avoid making mistakes.<br>If you do not respond within a 2 second window, a corresponding feedback will be displayed and the next trial will start.<br> The experiment is divided into multiple blocks to give you the opportunity to take a break after each block. <br>First, you can now practice this task. <br><br>Please place your <strong>LEFT INDEX FINGER</strong> on the 'S' key and your <strong>RIGHT INDEX FINGER</strong> on the 'L' key now. <br><br>Press SPACE to continue.</div>","32","","","","","","","","","","","","","","","","","","","",""
"html-keyboard-response","10","247719","0.0-2.0-1.0","u1dc8449d1damrm","instructions","5ee3e4110f27710c4dac8a3a","5f60e3c0a3b16e07647b2ff9","5f61dbffbafcd318bec5a133","false","9521.154999994906","<div align=left> You will now have time to practice this task.<br><br>Remember: <br> <br><li>Please place your index fingers on the <strong>'S'</strong> and <strong>'L'</strong> keys <br>to respond as fast and accurately as possible.</li><li>Every picture can be classified as either mechanical or non-mechanical.</li><li>If you do not respond in time or commit an error, you will receive a corresponding feedback. </li><li> Please try to respond as <strong> fast </strong> and as <strong> accurately as possible </strong> .<br><li>To ensure optimal results, please minimize distractions and stay focused. </li><br><br>Press SPACE to continue.</div>","32","","","","","","","","","","","","","","","","","","","",""
"html-keyboard-response","11","248424","0.0-2.0-2.0-0.0","u1dc8449d1damrm","practice_no_cue","5ee3e4110f27710c4dac8a3a","5f60e3c0a3b16e07647b2ff9","5f61dbffbafcd318bec5a133","false","null","<span style=""color: black; font-size: 48px"">N + M</span>","null","","","","resp_prompt","","","","","","","","","","","","","","","",""
"categorize-image","12","249976","0.0-2.0-2.0-1.0","u1dc8449d1damrm","practice_no_cue","5ee3e4110f27710c4dac8a3a","5f60e3c0a3b16e07647b2ff9","5f61dbffbafcd318bec5a133","true","1044.9749999970663","./Stimuli/ImagesPractice/LM147.jpg","76","","","","test","true","N + M","76","","LM","LM147.jpg","remember","old","1","1","start","right","","","",""
"html-keyboard-response","13","250679","0.0-2.0-2.0-0.1","u1dc8449d1damrm","practice_no_cue","5ee3e4110f27710c4dac8a3a","5f60e3c0a3b16e07647b2ff9","5f61dbffbafcd318bec5a133","false","null","<span style=""color: black; font-size: 48px"">N + M</span>","null","","","","resp_prompt","","","","","","","","","","","","","","","",""
"categorize-image","14","252373","0.0-2.0-2.0-1.1","u1dc8449d1damrm","practice_no_cue","5ee3e4110f27710c4dac8a3a","5f60e3c0a3b16e07647b2ff9","5f61dbffbafcd318bec5a133","true","1190.4750000103377","./Stimuli/ImagesPractice/SN205.jpg","83","","","","test","true","N + M","83","","SN","SN205.jpg","forget","old","2","1","start","left","","","",""
"html-keyboard-response","15","253077","0.0-2.0-2.0-0.2","u1dc8449d1damrm","practice_no_cue","5ee3e4110f27710c4dac8a3a","5f60e3c0a3b16e07647b2ff9","5f61dbffbafcd318bec5a133","false","null","<span style=""color: black; font-size: 48px"">M + N</span>","null","","","","resp_prompt","","","","","","","","","","","","","","","",""
"categorize-image","16","254313","0.0-2.0-2.0-1.2","u1dc8449d1damrm","practice_no_cue","5ee3e4110f27710c4dac8a3a","5f60e3c0a3b16e07647b2ff9","5f61dbffbafcd318bec5a133","true","732.4799999769311","./Stimuli/ImagesPractice/SN76.jpg","76","","","","test","true","M + N","76","","SN","SN76.jpg","remember","old","3","1","start","right","","","",""
"html-keyboard-response","17","255016","0.0-2.0-2.0-0.3","u1dc8449d1damrm","practice_no_cue","5ee3e4110f27710c4dac8a3a","5f60e3c0a3b16e07647b2ff9","5f61dbffbafcd318bec5a133","false","null","<span style=""color: black; font-size: 48px"">N + M</span>","null","","","","resp_prompt","","","","","","","","","","","","","","","",""
"categorize-image","18","256432","0.0-2.0-2.0-1.3","u1dc8449d1damrm","practice_no_cue","5ee3e4110f27710c4dac8a3a","5f60e3c0a3b16e07647b2ff9","5f61dbffbafcd318bec5a133","true","911.9049999862909","./Stimuli/ImagesPractice/LM230.jpg","76","","","","test","true","N + M","76","","LM","LM230.jpg","forget","old","4","1","start","right","","","",""
"html-keyboard-response","19","257136","0.0-2.0-2.0-0.4","u1dc8449d1damrm","practice_no_cue","5ee3e4110f27710c4dac8a3a","5f60e3c0a3b16e07647b2ff9","5f61dbffbafcd318bec5a133","false","null","<span style=""color: black; font-size: 48px"">N + M</span>","null","","","","resp_prompt","","","","","","","","","","","","","","","",""
"categorize-image","20","258383","0.0-2.0-2.0-1.4","u1dc8449d1damrm","practice_no_cue","5ee3e4110f27710c4dac8a3a","5f60e3c0a3b16e07647b2ff9","5f61dbffbafcd318bec5a133","true","742.7399999869522","./Stimuli/ImagesPractice/SN221.jpg","83","","","","test","true","N + M","83","","SN","SN221.jpg","remember","old","5","1","start","left","","","",""
"html-keyboard-response","21","259086","0.0-2.0-2.0-0.5","u1dc8449d1damrm","practice_no_cue","5ee3e4110f27710c4dac8a3a","5f60e3c0a3b16e07647b2ff9","5f61dbffbafcd318bec5a133","false","null","<span style=""color: black; font-size: 48px"">M + N</span>","null","","","","resp_prompt","","","","","","","","","","","","","","","",""
"categorize-image","22","260395","0.0-2.0-2.0-1.5","u1dc8449d1damrm","practice_no_cue","5ee3e4110f27710c4dac8a3a","5f60e3c0a3b16e07647b2ff9","5f61dbffbafcd318bec5a133","true","803.6150000116322","./Stimuli/ImagesPractice/SN222.jpg","76","","","","test","true","M + N","76","","SN","SN222.jpg","remember","old","6","1","start","right","","","",""
"html-keyboard-response","23","261097","0.0-2.0-2.0-0.6","u1dc8449d1damrm","practice_no_cue","5ee3e4110f27710c4dac8a3a","5f60e3c0a3b16e07647b2ff9","5f61dbffbafcd318bec5a133","false","null","<span style=""color: black; font-size: 48px"">N + M</span>","null","","","","resp_prompt","","","","","","","","","","","","","","","",""
"categorize-image","24","262384","0.0-2.0-2.0-1.6","u1dc8449d1damrm","practice_no_cue","5ee3e4110f27710c4dac8a3a","5f60e3c0a3b16e07647b2ff9","5f61dbffbafcd318bec5a133","true","781.8050000059884","./Stimuli/ImagesPractice/LN15.jpg","83","","","","test","true","N + M","83","","LN","LN15.jpg","remember","old","7","1","start","left","","","",""
"html-keyboard-response","25","263086","0.0-2.0-2.0-0.7","u1dc8449d1damrm","practice_no_cue","5ee3e4110f27710c4dac8a3a","5f60e3c0a3b16e07647b2ff9","5f61dbffbafcd318bec5a133","false","null","<span style=""color: black; font-size: 48px"">M + N</span>","null","","","","resp_prompt","","","","","","","","","","","","","","","",""
"categorize-image","26","264498","0.0-2.0-2.0-1.7","u1dc8449d1damrm","practice_no_cue","5ee3e4110f27710c4dac8a3a","5f60e3c0a3b16e07647b2ff9","5f61dbffbafcd318bec5a133","true","906.8599999882281","./Stimuli/ImagesPractice/SM62.jpg","83","","","","test","true","M + N","83","","SM","SM62.jpg","remember","old","8","1","start","left","","","",""
"html-keyboard-response","27","265201","0.0-2.0-2.0-0.8","u1dc8449d1damrm","practice_no_cue","5ee3e4110f27710c4dac8a3a","5f60e3c0a3b16e07647b2ff9","5f61dbffbafcd318bec5a133","false","null","<span style=""color: black; font-size: 48px"">N + M</span>","null","","","","resp_prompt","","","","","","","","","","","","","","","",""
"categorize-image","28","266241","0.0-2.0-2.0-1.8","u1dc8449d1damrm","practice_no_cue","5ee3e4110f27710c4dac8a3a","5f60e3c0a3b16e07647b2ff9","5f61dbffbafcd318bec5a133","true","537.0199999888428","./Stimuli/ImagesPractice/SM97.jpg","76","","","","test","true","N + M","76","","SM","SM97.jpg","remember","old","9","1","start","right","","","",""
"html-keyboard-response","29","266944","0.0-2.0-2.0-0.9","u1dc8449d1damrm","practice_no_cue","5ee3e4110f27710c4dac8a3a","5f60e3c0a3b16e07647b2ff9","5f61dbffbafcd318bec5a133","false","null","<span style=""color: black; font-size: 48px"">N + M</span>","null","","","","resp_prompt","","","","","","","","","","","","","","","",""
"categorize-image","30","268082","0.0-2.0-2.0-1.9","u1dc8449d1damrm","practice_no_cue","5ee3e4110f27710c4dac8a3a","5f60e3c0a3b16e07647b2ff9","5f61dbffbafcd318bec5a133","true","634.9749999935739","./Stimuli/ImagesPractice/SM98.jpg","76","","","","test","true","N + M","76","","SM","SM98.jpg","forget","old","10","1","start","right","","","",""
"html-keyboard-response","31","268784","0.0-2.0-2.0-0.10","u1dc8449d1damrm","practice_no_cue","5ee3e4110f27710c4dac8a3a","5f60e3c0a3b16e07647b2ff9","5f61dbffbafcd318bec5a133","false","null","<span style=""color: black; font-size: 48px"">M + N</span>","null","","","","resp_prompt","","","","","","","","","","","","","","","",""
"categorize-image","32","270112","0.0-2.0-2.0-1.10","u1dc8449d1damrm","practice_no_cue","5ee3e4110f27710c4dac8a3a","5f60e3c0a3b16e07647b2ff9","5f61dbffbafcd318bec5a133","true","824.3350000120699","./Stimuli/ImagesPractice/LM239.jpg","83","","","","test","true","M + N","83","","LM","LM239.jpg","forget","old","11","1","start","left","","","",""
"html-keyboard-response","33","270814","0.0-2.0-2.0-0.11","u1dc8449d1damrm","practice_no_cue","5ee3e4110f27710c4dac8a3a","5f60e3c0a3b16e07647b2ff9","5f61dbffbafcd318bec5a133","false","null","<span style=""color: black; font-size: 48px"">M + N</span>","null","","","","resp_prompt","","","","","","","","","","","","","","","",""
"categorize-image","34","271819","0.0-2.0-2.0-1.11","u1dc8449d1damrm","practice_no_cue","5ee3e4110f27710c4dac8a3a","5f60e3c0a3b16e07647b2ff9","5f61dbffbafcd318bec5a133","true","501.66999999783","./Stimuli/ImagesPractice/LM224.jpg","83","","","","test","true","M + N","83","","LM","LM224.jpg","remember","old","12","1","start","left","","","",""
"html-keyboard-response","35","272522","0.0-2.0-2.0-0.12","u1dc8449d1damrm","practice_no_cue","5ee3e4110f27710c4dac8a3a","5f60e3c0a3b16e07647b2ff9","5f61dbffbafcd318bec5a133","false","null","<span style=""color: black; font-size: 48px"">M + N</span>","null","","","","resp_prompt","","","","","","","","","","","","","","","",""
"categorize-image","36","273673","0.0-2.0-2.0-1.12","u1dc8449d1damrm","practice_no_cue","5ee3e4110f27710c4dac8a3a","5f60e3c0a3b16e07647b2ff9","5f61dbffbafcd318bec5a133","true","647.4250000028405","./Stimuli/ImagesPractice/LN72.jpg","76","","","","test","true","M + N","76","","LN","LN72.jpg","forget","old","13","1","start","right","","","",""
"html-keyboard-response","37","274376","0.0-2.0-2.0-0.13","u1dc8449d1damrm","practice_no_cue","5ee3e4110f27710c4dac8a3a","5f60e3c0a3b16e07647b2ff9","5f61dbffbafcd318bec5a133","false","null","<span style=""color: black; font-size: 48px"">M + N</span>","null","","","","resp_prompt","","","","","","","","","","","","","","","",""
"categorize-image","38","275514","0.0-2.0-2.0-1.13","u1dc8449d1damrm","practice_no_cue","5ee3e4110f27710c4dac8a3a","5f60e3c0a3b16e07647b2ff9","5f61dbffbafcd318bec5a133","true","634.0750000090338","./Stimuli/ImagesPractice/LM143.jpg","83","","","","test","true","M + N","83","","LM","LM143.jpg","forget","old","14","1","start","left","","","",""
"html-keyboard-response","39","276216","0.0-2.0-2.0-0.14","u1dc8449d1damrm","practice_no_cue","5ee3e4110f27710c4dac8a3a","5f60e3c0a3b16e07647b2ff9","5f61dbffbafcd318bec5a133","false","null","<span style=""color: black; font-size: 48px"">M + N</span>","null","","","","resp_prompt","","","","","","","","","","","","","","","",""
"categorize-image","40","277292","0.0-2.0-2.0-1.14","u1dc8449d1damrm","practice_no_cue","5ee3e4110f27710c4dac8a3a","5f60e3c0a3b16e07647b2ff9","5f61dbffbafcd318bec5a133","true","571.5350000245962","./Stimuli/ImagesPractice/LM55.jpg","83","","","","test","true","M + N","83","","LM","LM55.jpg","forget","old","15","1","start","left","","","",""
"html-keyboard-response","41","277995","0.0-2.0-2.0-0.15","u1dc8449d1damrm","practice_no_cue","5ee3e4110f27710c4dac8a3a","5f60e3c0a3b16e07647b2ff9","5f61dbffbafcd318bec5a133","false","null","<span style=""color: black; font-size: 48px"">N + M</span>","null","","","","resp_prompt","","","","","","","","","","","","","","","",""
"categorize-image","42","279373","0.0-2.0-2.0-1.15","u1dc8449d1damrm","practice_no_cue","5ee3e4110f27710c4dac8a3a","5f60e3c0a3b16e07647b2ff9","5f61dbffbafcd318bec5a133","true","874.180000013439","./Stimuli/ImagesPractice/LN17.jpg","83","","","","test","true","N + M","83","","LN","LN17.jpg","forget","old","16","1","start","left","","","",""
"html-keyboard-response","43","286638","0.0-2.0-3.0","u1dc8449d1damrm","break","5ee3e4110f27710c4dac8a3a","5f60e3c0a3b16e07647b2ff9","5f61dbffbafcd318bec5a133","false","7260.524999990594","<p style='font-size: 32px;'>Break</><br><br><br><br><br><p style='font-size: 24px;'>In the last block, you committed 0 errors and did not respond in time on 0 trials.
</p><p style='font-size: 24px;'>Try to respond as fast and accurately as possible in the next block as well! </p><p style='font-size: 24px;'>Press SPACE to continue.</p>","32","","","","","","","","","","","","","","","","","","","",""
"html-keyboard-response","44","292329","0.0-2.0-4.0","u1dc8449d1damrm","instructions","5ee3e4110f27710c4dac8a3a","5f60e3c0a3b16e07647b2ff9","5f61dbffbafcd318bec5a133","false","5688.94000002183","<div align=left> Great!<br><br>Are you ready to continue?<br><br>If you want to reread the instructions and redo the practice trials, <br>please press „Z“. <br><br>Press SPACE to CONTINUE with the experiment when you are ready. </div>","32","","","","","","","","","","","","","","","","","","","",""
"html-keyboard-response","45","327241","0.0-3.0-0.0","u1dc8449d1damrm","instructions","5ee3e4110f27710c4dac8a3a","5f60e3c0a3b16e07647b2ff9","5f61dbffbafcd318bec5a133","false","34908.944999973755","<div align=left>Great!<br> <strong>Attention</strong>! You will now receive a second, additional task! <br><br>To this point it was you <strong>first task</strong> to correctly <strong>classify objects</strong>. <br><br>As mentioned in the beginning, we aim to examine how well humans can remember previously learned information.<br>We would like to find out whether our memory improves if we only remember information that is relevant to us. <br><br>Therefore, your <strong>second task</strong> will be to <strong>remember</strong> the pictures you are to categorize. <br> After the learning phase, there will be a memory test phase, in which you will be asked to indicate whether you have seen a picture before or not. <br>Some, but not all pictures shown in the learning phase will appear in the memory test phase.<br>After classifying a picture, you will be told whether you should remember it for the memory test phase or not. <br>Thus, some pictures can be forgotten, whereas others have to be remembered. <br><br>Note: From now on, feedback will only be displayed if you responded incorrectly or not in time.<br><br>Press SPACE to continue.</div>","32","","","","","","","","","","","","","","","","","","","",""
"html-keyboard-response","46","348031","0.0-3.0-1.0","u1dc8449d1damrm","instructions","5ee3e4110f27710c4dac8a3a","5f60e3c0a3b16e07647b2ff9","5f61dbffbafcd318bec5a133","false","20788.72000001138","<div align=left>In the following part, you will thus have to remember only some pictures. <br>Immediately after seeing and classifying the picture, a symbol will be displayed, indicating whether you should remember or forget the previous picture. <br><br>A <span style='color: dodgerblue; font-size: 28px'>O</span> indicates REMEMBER. That means, you have to remember this picture, because it will be tested later. <br><br>A <span style='color: darkorange; font-size:28px'>Ø</span> indicates FORGET. You do not have to remember this picture. <br><br> As you will have to remember a lot of pictures, it will be hard for you to remember all of them. <br>It will put you at an advantage if you instantly forget the pictures you are not asked to remember. <br> This will make it easier for you to remember the pictures that will be tested afterwards. <br><br>Press SPACE to continue.</div>","32","","","","","","","","","","","","","","","","","","","",""
"html-keyboard-response","47","352499","0.0-3.0-2.0","u1dc8449d1damrm","instructions","5ee3e4110f27710c4dac8a3a","5f60e3c0a3b16e07647b2ff9","5f61dbffbafcd318bec5a133","false","4465.094999992289","<div align=left> Now you have the chance to practice both tasks together.<br><br>Remember: <br> <br><li>Please place your index fingers on the <strong>'S'</strong> and <strong>'L'</strong> keys <br>to respond as fast and accurately as possible.</li><li>Every picture can be classified as either mechanical or non-mechanical.</li><li>If you do not respond in time or commit an error, you will receive a corresponding feedback. <br>Please try to respond as <strong> fast </strong> and as <strong> accurately as possible </strong>.</li><li> Please remember only the to-be-remembered <span style='color: dodgerblue; font-size: 28px'>O</span> pictures. <br></li><li> Please minimize distractions and stay focused. </li><br><br>Press SPACE to START</div>","32","","","","","","","","","","","","","","","","","","","",""
"html-keyboard-response","48","353202","0.0-3.0-3.0-0.0","u1dc8449d1damrm","practice_cue","5ee3e4110f27710c4dac8a3a","5f60e3c0a3b16e07647b2ff9","5f61dbffbafcd318bec5a133","false","null","<span style=""color: black; font-size: 48px"">M + N</span>","null","","","","resp_prompt","","","","","","","","","","","","","","","",""
"categorize-image","49","353989","0.0-3.0-3.0-1.0","u1dc8449d1damrm","practice_cue","5ee3e4110f27710c4dac8a3a","5f60e3c0a3b16e07647b2ff9","5f61dbffbafcd318bec5a133","true","779.5549999864306","./Stimuli/ImagesPractice/LM55.jpg","83","","","","test","true","M + N","83","","LM","LM55.jpg","forget","old","17","2","practice_forget","left","","","",""
"html-keyboard-response","50","355992","0.0-3.0-3.0-3.0","u1dc8449d1damrm","practice_cue","5ee3e4110f27710c4dac8a3a","5f60e3c0a3b16e07647b2ff9","5f61dbffbafcd318bec5a133","false","null","<div style=""align-items: center; display: flex; color: darkorange; font-size: 90px""><b>ø</b></div>","null","","","","forget_cue","","","","","","","","","","","","","","","",""
"html-keyboard-response","51","356695","0.0-3.0-3.0-0.1","u1dc8449d1damrm","practice_cue","5ee3e4110f27710c4dac8a3a","5f60e3c0a3b16e07647b2ff9","5f61dbffbafcd318bec5a133","false","null","<span style=""color: black; font-size: 48px"">M + N</span>","null","","","","resp_prompt","","","","","","","","","","","","","","","",""
"categorize-image","52","357781","0.0-3.0-3.0-1.1","u1dc8449d1damrm","practice_cue","5ee3e4110f27710c4dac8a3a","5f60e3c0a3b16e07647b2ff9","5f61dbffbafcd318bec5a133","true","1079.0600000182167","./Stimuli/ImagesPractice/LM239.jpg","83","","","","test","true","M + N","83","","LM","LM239.jpg","forget","old","18","2","practice_forget","left","","","",""
"html-keyboard-response","53","359785","0.0-3.0-3.0-3.1","u1dc8449d1damrm","practice_cue","5ee3e4110f27710c4dac8a3a","5f60e3c0a3b16e07647b2ff9","5f61dbffbafcd318bec5a133","false","null","<div style=""align-items: center; display: flex; color: darkorange; font-size: 90px""><b>ø</b></div>","null","","","","forget_cue","","","","","","","","","","","","","","","",""
"html-keyboard-response","54","360488","0.0-3.0-3.0-0.2","u1dc8449d1damrm","practice_cue","5ee3e4110f27710c4dac8a3a","5f60e3c0a3b16e07647b2ff9","5f61dbffbafcd318bec5a133","false","null","<span style=""color: black; font-size: 48px"">N + M</span>","null","","","","resp_prompt","","","","","","","","","","","","","","","",""
"categorize-image","55","361671","0.0-3.0-3.0-1.2","u1dc8449d1damrm","practice_cue","5ee3e4110f27710c4dac8a3a","5f60e3c0a3b16e07647b2ff9","5f61dbffbafcd318bec5a133","true","1176.7650000110734","./Stimuli/ImagesPractice/SN205.jpg","83","","","","test","true","N + M","83","","SN","SN205.jpg","forget","old","19","2","practice_forget","left","","","",""
"html-keyboard-response","56","363674","0.0-3.0-3.0-3.2","u1dc8449d1damrm","practice_cue","5ee3e4110f27710c4dac8a3a","5f60e3c0a3b16e07647b2ff9","5f61dbffbafcd318bec5a133","false","null","<div style=""align-items: center; display: flex; color: darkorange; font-size: 90px""><b>ø</b></div>","null","","","","forget_cue","","","","","","","","","","","","","","","",""
"html-keyboard-response","57","364376","0.0-3.0-3.0-0.3","u1dc8449d1damrm","practice_cue","5ee3e4110f27710c4dac8a3a","5f60e3c0a3b16e07647b2ff9","5f61dbffbafcd318bec5a133","false","null","<span style=""color: black; font-size: 48px"">N + M</span>","null","","","","resp_prompt","","","","","","","","","","","","","","","",""
"categorize-image","58","365094","0.0-3.0-3.0-1.3","u1dc8449d1damrm","practice_cue","5ee3e4110f27710c4dac8a3a","5f60e3c0a3b16e07647b2ff9","5f61dbffbafcd318bec5a133","true","712.759999994887","./Stimuli/ImagesPractice/LM230.jpg","76","","","","test","true","N + M","76","","LM","LM230.jpg","forget","old","20","2","practice_forget","right","","","",""
"html-keyboard-response","59","367096","0.0-3.0-3.0-3.3","u1dc8449d1damrm","practice_cue","5ee3e4110f27710c4dac8a3a","5f60e3c0a3b16e07647b2ff9","5f61dbffbafcd318bec5a133","false","null","<div style=""align-items: center; display: flex; color: darkorange; font-size: 90px""><b>ø</b></div>","null","","","","forget_cue","","","","","","","","","","","","","","","",""
"html-keyboard-response","60","367798","0.0-3.0-3.0-0.4","u1dc8449d1damrm","practice_cue","5ee3e4110f27710c4dac8a3a","5f60e3c0a3b16e07647b2ff9","5f61dbffbafcd318bec5a133","false","null","<span style=""color: black; font-size: 48px"">M + N</span>","null","","","","resp_prompt","","","","","","","","","","","","","","","",""
"categorize-image","61","368488","0.0-3.0-3.0-1.4","u1dc8449d1damrm","practice_cue","5ee3e4110f27710c4dac8a3a","5f60e3c0a3b16e07647b2ff9","5f61dbffbafcd318bec5a133","true","684.5650000032037","./Stimuli/ImagesPractice/LM143.jpg","83","","","","test","true","M + N","83","","LM","LM143.jpg","forget","old","21","2","practice_forget","left","","","",""
"html-keyboard-response","62","370492","0.0-3.0-3.0-3.4","u1dc8449d1damrm","practice_cue","5ee3e4110f27710c4dac8a3a","5f60e3c0a3b16e07647b2ff9","5f61dbffbafcd318bec5a133","false","null","<div style=""align-items: center; display: flex; color: darkorange; font-size: 90px""><b>ø</b></div>","null","","","","forget_cue","","","","","","","","","","","","","","","",""
"html-keyboard-response","63","371194","0.0-3.0-3.0-0.5","u1dc8449d1damrm","practice_cue","5ee3e4110f27710c4dac8a3a","5f60e3c0a3b16e07647b2ff9","5f61dbffbafcd318bec5a133","false","null","<span style=""color: black; font-size: 48px"">N + M</span>","null","","","","resp_prompt","","","","","","","","","","","","","","","",""
"categorize-image","64","371852","0.0-3.0-3.0-1.5","u1dc8449d1damrm","practice_cue","5ee3e4110f27710c4dac8a3a","5f60e3c0a3b16e07647b2ff9","5f61dbffbafcd318bec5a133","true","652.4650000210386","./Stimuli/ImagesPractice/LM147.jpg","76","","","","test","true","N + M","76","","LM","LM147.jpg","remember","old","22","2","practice_forget","right","","","",""
"html-keyboard-response","65","373854","0.0-3.0-3.0-3.5","u1dc8449d1damrm","practice_cue","5ee3e4110f27710c4dac8a3a","5f60e3c0a3b16e07647b2ff9","5f61dbffbafcd318bec5a133","false","null","<div style=""align-items: center; display: flex; color: dodgerblue; font-size: 90px""><b>o</b></div>","null","","","","forget_cue","","","","","","","","","","","","","","","",""
"html-keyboard-response","66","374556","0.0-3.0-3.0-0.6","u1dc8449d1damrm","practice_cue","5ee3e4110f27710c4dac8a3a","5f60e3c0a3b16e07647b2ff9","5f61dbffbafcd318bec5a133","false","null","<span style=""color: black; font-size: 48px"">M + N</span>","null","","","","resp_prompt","","","","","","","","","","","","","","","",""
"categorize-image","67","375564","0.0-3.0-3.0-1.6","u1dc8449d1damrm","practice_cue","5ee3e4110f27710c4dac8a3a","5f60e3c0a3b16e07647b2ff9","5f61dbffbafcd318bec5a133","true","1000.7949999999255","./Stimuli/ImagesPractice/SM62.jpg","83","","","","test","true","M + N","83","","SM","SM62.jpg","remember","old","23","2","practice_forget","left","","","",""
"html-keyboard-response","68","377567","0.0-3.0-3.0-3.6","u1dc8449d1damrm","practice_cue","5ee3e4110f27710c4dac8a3a","5f60e3c0a3b16e07647b2ff9","5f61dbffbafcd318bec5a133","false","null","<div style=""align-items: center; display: flex; color: dodgerblue; font-size: 90px""><b>o</b></div>","null","","","","forget_cue","","","","","","","","","","","","","","","",""
"html-keyboard-response","69","378270","0.0-3.0-3.0-0.7","u1dc8449d1damrm","practice_cue","5ee3e4110f27710c4dac8a3a","5f60e3c0a3b16e07647b2ff9","5f61dbffbafcd318bec5a133","false","null","<span style=""color: black; font-size: 48px"">N + M</span>","null","","","","resp_prompt","","","","","","","","","","","","","","","",""
"categorize-image","70","378955","0.0-3.0-3.0-1.7","u1dc8449d1damrm","practice_cue","5ee3e4110f27710c4dac8a3a","5f60e3c0a3b16e07647b2ff9","5f61dbffbafcd318bec5a133","true","679.5149999961723","./Stimuli/ImagesPractice/LN17.jpg","83","","","","test","true","N + M","83","","LN","LN17.jpg","forget","old","24","2","practice_forget","left","","","",""
"html-keyboard-response","71","380959","0.0-3.0-3.0-3.7","u1dc8449d1damrm","practice_cue","5ee3e4110f27710c4dac8a3a","5f60e3c0a3b16e07647b2ff9","5f61dbffbafcd318bec5a133","false","null","<div style=""align-items: center; display: flex; color: darkorange; font-size: 90px""><b>ø</b></div>","null","","","","forget_cue","","","","","","","","","","","","","","","",""
"html-keyboard-response","72","381663","0.0-3.0-3.0-0.8","u1dc8449d1damrm","practice_cue","5ee3e4110f27710c4dac8a3a","5f60e3c0a3b16e07647b2ff9","5f61dbffbafcd318bec5a133","false","null","<span style=""color: black; font-size: 48px"">M + N</span>","null","","","","resp_prompt","","","","","","","","","","","","","","","",""
"categorize-image","73","382333","0.0-3.0-3.0-1.8","u1dc8449d1damrm","practice_cue","5ee3e4110f27710c4dac8a3a","5f60e3c0a3b16e07647b2ff9","5f61dbffbafcd318bec5a133","true","665.949999995064","./Stimuli/ImagesPractice/SN222.jpg","76","","","","test","true","M + N","76","","SN","SN222.jpg","remember","old","25","2","practice_forget","right","","","",""
"html-keyboard-response","74","384336","0.0-3.0-3.0-3.8","u1dc8449d1damrm","practice_cue","5ee3e4110f27710c4dac8a3a","5f60e3c0a3b16e07647b2ff9","5f61dbffbafcd318bec5a133","false","null","<div style=""align-items: center; display: flex; color: dodgerblue; font-size: 90px""><b>o</b></div>","null","","","","forget_cue","","","","","","","","","","","","","","","",""
"html-keyboard-response","75","385037","0.0-3.0-3.0-0.9","u1dc8449d1damrm","practice_cue","5ee3e4110f27710c4dac8a3a","5f60e3c0a3b16e07647b2ff9","5f61dbffbafcd318bec5a133","false","null","<span style=""color: black; font-size: 48px"">M + N</span>","null","","","","resp_prompt","","","","","","","","","","","","","","","",""
"categorize-image","76","385823","0.0-3.0-3.0-1.9","u1dc8449d1damrm","practice_cue","5ee3e4110f27710c4dac8a3a","5f60e3c0a3b16e07647b2ff9","5f61dbffbafcd318bec5a133","true","779.7800000116695","./Stimuli/ImagesPractice/LM224.jpg","83","","","","test","true","M + N","83","","LM","LM224.jpg","remember","old","26","2","practice_forget","left","","","",""
"html-keyboard-response","77","387827","0.0-3.0-3.0-3.9","u1dc8449d1damrm","practice_cue","5ee3e4110f27710c4dac8a3a","5f60e3c0a3b16e07647b2ff9","5f61dbffbafcd318bec5a133","false","null","<div style=""align-items: center; display: flex; color: dodgerblue; font-size: 90px""><b>o</b></div>","null","","","","forget_cue","","","","","","","","","","","","","","","",""
"html-keyboard-response","78","388532","0.0-3.0-3.0-0.10","u1dc8449d1damrm","practice_cue","5ee3e4110f27710c4dac8a3a","5f60e3c0a3b16e07647b2ff9","5f61dbffbafcd318bec5a133","false","null","<span style=""color: black; font-size: 48px"">N + M</span>","null","","","","resp_prompt","","","","","","","","","","","","","","","",""
"categorize-image","79","389376","0.0-3.0-3.0-1.10","u1dc8449d1damrm","practice_cue","5ee3e4110f27710c4dac8a3a","5f60e3c0a3b16e07647b2ff9","5f61dbffbafcd318bec5a133","true","837.5950000190642","./Stimuli/ImagesPractice/LN15.jpg","83","","","","test","true","N + M","83","","LN","LN15.jpg","remember","old","27","2","practice_forget","left","","","",""
"html-keyboard-response","80","391380","0.0-3.0-3.0-3.10","u1dc8449d1damrm","practice_cue","5ee3e4110f27710c4dac8a3a","5f60e3c0a3b16e07647b2ff9","5f61dbffbafcd318bec5a133","false","null","<div style=""align-items: center; display: flex; color: dodgerblue; font-size: 90px""><b>o</b></div>","null","","","","forget_cue","","","","","","","","","","","","","","","",""
"html-keyboard-response","81","392082","0.0-3.0-3.0-0.11","u1dc8449d1damrm","practice_cue","5ee3e4110f27710c4dac8a3a","5f60e3c0a3b16e07647b2ff9","5f61dbffbafcd318bec5a133","false","null","<span style=""color: black; font-size: 48px"">N + M</span>","null","","","","resp_prompt","","","","","","","","","","","","","","","",""
"categorize-image","82","392786","0.0-3.0-3.0-1.11","u1dc8449d1damrm","practice_cue","5ee3e4110f27710c4dac8a3a","5f60e3c0a3b16e07647b2ff9","5f61dbffbafcd318bec5a133","true","697.0499999879394","./Stimuli/ImagesPractice/SN221.jpg","83","","","","test","true","N + M","83","","SN","SN221.jpg","remember","old","28","2","practice_forget","left","","","",""
"html-keyboard-response","83","394788","0.0-3.0-3.0-3.11","u1dc8449d1damrm","practice_cue","5ee3e4110f27710c4dac8a3a","5f60e3c0a3b16e07647b2ff9","5f61dbffbafcd318bec5a133","false","null","<div style=""align-items: center; display: flex; color: dodgerblue; font-size: 90px""><b>o</b></div>","null","","","","forget_cue","","","","","","","","","","","","","","","",""
"html-keyboard-response","84","395491","0.0-3.0-3.0-0.12","u1dc8449d1damrm","practice_cue","5ee3e4110f27710c4dac8a3a","5f60e3c0a3b16e07647b2ff9","5f61dbffbafcd318bec5a133","false","null","<span style=""color: black; font-size: 48px"">M + N</span>","null","","","","resp_prompt","","","","","","","","","","","","","","","",""
"categorize-image","85","396272","0.0-3.0-3.0-1.12","u1dc8449d1damrm","practice_cue","5ee3e4110f27710c4dac8a3a","5f60e3c0a3b16e07647b2ff9","5f61dbffbafcd318bec5a133","true","776.0999999882188","./Stimuli/ImagesPractice/SN76.jpg","76","","","","test","true","M + N","76","","SN","SN76.jpg","remember","old","29","2","practice_forget","right","","","",""
"html-keyboard-response","86","398276","0.0-3.0-3.0-3.12","u1dc8449d1damrm","practice_cue","5ee3e4110f27710c4dac8a3a","5f60e3c0a3b16e07647b2ff9","5f61dbffbafcd318bec5a133","false","null","<div style=""align-items: center; display: flex; color: dodgerblue; font-size: 90px""><b>o</b></div>","null","","","","forget_cue","","","","","","","","","","","","","","","",""
"html-keyboard-response","87","398978","0.0-3.0-3.0-0.13","u1dc8449d1damrm","practice_cue","5ee3e4110f27710c4dac8a3a","5f60e3c0a3b16e07647b2ff9","5f61dbffbafcd318bec5a133","false","null","<span style=""color: black; font-size: 48px"">N + M</span>","null","","","","resp_prompt","","","","","","","","","","","","","","","",""
"categorize-image","88","399460","0.0-3.0-3.0-1.13","u1dc8449d1damrm","practice_cue","5ee3e4110f27710c4dac8a3a","5f60e3c0a3b16e07647b2ff9","5f61dbffbafcd318bec5a133","true","475.670000014361","./Stimuli/ImagesPractice/SM97.jpg","76","","","","test","true","N + M","76","","SM","SM97.jpg","remember","old","30","2","practice_forget","right","","","",""
"html-keyboard-response","89","401464","0.0-3.0-3.0-3.13","u1dc8449d1damrm","practice_cue","5ee3e4110f27710c4dac8a3a","5f60e3c0a3b16e07647b2ff9","5f61dbffbafcd318bec5a133","false","null","<div style=""align-items: center; display: flex; color: dodgerblue; font-size: 90px""><b>o</b></div>","null","","","","forget_cue","","","","","","","","","","","","","","","",""
"html-keyboard-response","90","402167","0.0-3.0-3.0-0.14","u1dc8449d1damrm","practice_cue","5ee3e4110f27710c4dac8a3a","5f60e3c0a3b16e07647b2ff9","5f61dbffbafcd318bec5a133","false","null","<span style=""color: black; font-size: 48px"">N + M</span>","null","","","","resp_prompt","","","","","","","","","","","","","","","",""
"categorize-image","91","402981","0.0-3.0-3.0-1.14","u1dc8449d1damrm","practice_cue","5ee3e4110f27710c4dac8a3a","5f60e3c0a3b16e07647b2ff9","5f61dbffbafcd318bec5a133","true","807.4400000041351","./Stimuli/ImagesPractice/SM98.jpg","76","","","","test","true","N + M","76","","SM","SM98.jpg","forget","old","31","2","practice_forget","right","","","",""
"html-keyboard-response","92","404985","0.0-3.0-3.0-3.14","u1dc8449d1damrm","practice_cue","5ee3e4110f27710c4dac8a3a","5f60e3c0a3b16e07647b2ff9","5f61dbffbafcd318bec5a133","false","null","<div style=""align-items: center; display: flex; color: darkorange; font-size: 90px""><b>ø</b></div>","null","","","","forget_cue","","","","","","","","","","","","","","","",""
"html-keyboard-response","93","405688","0.0-3.0-3.0-0.15","u1dc8449d1damrm","practice_cue","5ee3e4110f27710c4dac8a3a","5f60e3c0a3b16e07647b2ff9","5f61dbffbafcd318bec5a133","false","null","<span style=""color: black; font-size: 48px"">M + N</span>","null","","","","resp_prompt","","","","","","","","","","","","","","","",""
"categorize-image","94","406363","0.0-3.0-3.0-1.15","u1dc8449d1damrm","practice_cue","5ee3e4110f27710c4dac8a3a","5f60e3c0a3b16e07647b2ff9","5f61dbffbafcd318bec5a133","true","670.1950000133365","./Stimuli/ImagesPractice/LN72.jpg","76","","","","test","true","M + N","76","","LN","LN72.jpg","forget","old","32","2","practice_forget","right","","","",""
"html-keyboard-response","95","408366","0.0-3.0-3.0-3.15","u1dc8449d1damrm","practice_cue","5ee3e4110f27710c4dac8a3a","5f60e3c0a3b16e07647b2ff9","5f61dbffbafcd318bec5a133","false","null","<div style=""align-items: center; display: flex; color: darkorange; font-size: 90px""><b>ø</b></div>","null","","","","forget_cue","","","","","","","","","","","","","","","",""
"html-keyboard-response","96","410625","0.0-3.0-4.0","u1dc8449d1damrm","break","5ee3e4110f27710c4dac8a3a","5f60e3c0a3b16e07647b2ff9","5f61dbffbafcd318bec5a133","false","2255.650000006426","<p style='font-size: 32px;'>Break</><br><br><br><br><br><p style='font-size: 24px;'>In the last block, you committed 0 errors and did not respond in time on 0 trials.
</p><p style='font-size: 24px;'>Try to respond as fast and accurately as possible in the next block as well! </p><p style='font-size: 24px;'>Press SPACE to continue.</p>","32","","","","","","","","","","","","","","","","","","","",""
"html-keyboard-response","97","426231","0.0-3.0-5.0","u1dc8449d1damrm","instructions","5ee3e4110f27710c4dac8a3a","5f60e3c0a3b16e07647b2ff9","5f61dbffbafcd318bec5a133","false","15603.484999999637","<div align=left> Now, to practice, we kindly ask you to remember as many of the to-be-remembered pictures<br>of the previous learning phase as possible.<br><br>The pictures you were instructed to remember were the pictures followed by a <span style='color: dodgerblue; font-size: 28px'>O</span>.<br><br>In this memory test phase, you will also see some new pictures.<br>It is your task to remember whether you were presented with this specific picture in this study so far or not.<br>If you recognize an object (you have already seen it in this study), it is an OLD object. <br>If you do not recognize an object (you have NOT seen it in this study), it is a NEW object. <br><strong> Attention</strong>: As already mentioned, <span style='color: darkorange; font-size:28px'>Ø</span>-pictures will <strong>never</strong> appear in this memory test (neither as new objects). <br><br>Press SPACE to continue. </div>","32","","","","","","","","","","","","","","","","","","","",""
"html-keyboard-response","98","449806","0.0-3.0-6.0","u1dc8449d1damrm","instructions","5ee3e4110f27710c4dac8a3a","5f60e3c0a3b16e07647b2ff9","5f61dbffbafcd318bec5a133","false","23572.49999998021","<div align=left> M and N no longer will appear on the left/right of the fixation cross. <br>Instead there will be a note at the bottom of the left or right side  <br>indicating which key you should press for an old or new object:  <br> <br>Press the <strong>right</strong> key to classify an object as <strong>old</strong> and press the <strong>left</strong>, to classify an object as <strong>new</strong>.<br>Please classify the objects as new/old by again placing your index finger on the 'S' and 'L' keys <br>and press them accordingly.<br><br><strong>Old:</strong> This object has been presented before. <br><strong>New:</strong> This object has <strong>not</strong> been presented.<br><br>Now please put your right and left index fingers on the 'S' and 'L' keys of your keyboard. <br>Please respond as fast and as accurately as possible!<br><br>Press SPACE to continue. </div>","32","","","","","","","","","","","","","","","","","","","",""
"categorize-image","99","452244","0.0-3.0-7.0-0.0","u1dc8449d1damrm","practice_recog","5ee3e4110f27710c4dac8a3a","5f60e3c0a3b16e07647b2ff9","5f61dbffbafcd318bec5a133","true","1931.4000000013039","./Stimuli/ImagesPractice/SM62.jpg","83","","","","test","true","","83","","SM","SM62.jpg","","old","33","3","practice_recog","left","","","",""
"categorize-image","100","453816","0.0-3.0-7.0-0.1","u1dc8449d1damrm","practice_recog","5ee3e4110f27710c4dac8a3a","5f60e3c0a3b16e07647b2ff9","5f61dbffbafcd318bec5a133","true","1068.0850000062492","./Stimuli/ImagesPractice/SN220.jpg","76","","","","test","true","","76","","SN","SN220.jpg","","new","34","3","practice_recog","right","","","",""
"categorize-image","101","455338","0.0-3.0-7.0-0.2","u1dc8449d1damrm","practice_recog","5ee3e4110f27710c4dac8a3a","5f60e3c0a3b16e07647b2ff9","5f61dbffbafcd318bec5a133","true","1016.1999999836553","./Stimuli/ImagesPractice/SN75.jpg","76","","","","test","true","","76","","SN","SN75.jpg","","new","35","3","practice_recog","right","","","",""
"categorize-image","102","456748","0.0-3.0-7.0-0.3","u1dc8449d1damrm","practice_recog","5ee3e4110f27710c4dac8a3a","5f60e3c0a3b16e07647b2ff9","5f61dbffbafcd318bec5a133","true","906.7849999992177","./Stimuli/ImagesPractice/SN222.jpg","83","","","","test","true","","83","","SN","SN222.jpg","","old","36","3","practice_recog","left","","","",""
"categorize-image","103","458175","0.0-3.0-7.0-0.4","u1dc8449d1damrm","practice_recog","5ee3e4110f27710c4dac8a3a","5f60e3c0a3b16e07647b2ff9","5f61dbffbafcd318bec5a133","true","922.4899999971967","./Stimuli/ImagesPractice/SN76.jpg","83","","","","test","true","","83","","SN","SN76.jpg","","old","37","3","practice_recog","left","","","",""
"categorize-image","104","459530","0.0-3.0-7.0-0.5","u1dc8449d1damrm","practice_recog","5ee3e4110f27710c4dac8a3a","5f60e3c0a3b16e07647b2ff9","5f61dbffbafcd318bec5a133","true","850.9999999951106","./Stimuli/ImagesPractice/SM97.jpg","83","","","","test","true","","83","","SM","SM97.jpg","","old","38","3","practice_recog","left","","","",""
"categorize-image","105","460845","0.0-3.0-7.0-0.6","u1dc8449d1damrm","practice_recog","5ee3e4110f27710c4dac8a3a","5f60e3c0a3b16e07647b2ff9","5f61dbffbafcd318bec5a133","true","810.4649999877438","./Stimuli/ImagesPractice/SN221.jpg","83","","","","test","true","","83","","SN","SN221.jpg","","old","39","3","practice_recog","left","","","",""
"categorize-image","106","461971","0.0-3.0-7.0-0.7","u1dc8449d1damrm","practice_recog","5ee3e4110f27710c4dac8a3a","5f60e3c0a3b16e07647b2ff9","5f61dbffbafcd318bec5a133","true","621.7800000158604","./Stimuli/ImagesPractice/SM35.jpg","76","","","","test","true","","76","","SM","SM35.jpg","","new","40","3","practice_recog","right","","","",""
"categorize-image","107","463409","0.0-3.0-7.0-0.8","u1dc8449d1damrm","practice_recog","5ee3e4110f27710c4dac8a3a","5f60e3c0a3b16e07647b2ff9","5f61dbffbafcd318bec5a133","true","932.4349999951664","./Stimuli/ImagesPractice/SM61.jpg","76","","","","test","true","","76","","SM","SM61.jpg","","new","41","3","practice_recog","right","","","",""
"categorize-image","108","464652","0.0-3.0-7.0-0.9","u1dc8449d1damrm","practice_recog","5ee3e4110f27710c4dac8a3a","5f60e3c0a3b16e07647b2ff9","5f61dbffbafcd318bec5a133","true","738.8949999876786","./Stimuli/ImagesPractice/LM224.jpg","83","","","","test","true","","83","","LM","LM224.jpg","","old","42","3","practice_recog","left","","","",""
"categorize-image","109","466070","0.0-3.0-7.0-0.10","u1dc8449d1damrm","practice_recog","5ee3e4110f27710c4dac8a3a","5f60e3c0a3b16e07647b2ff9","5f61dbffbafcd318bec5a133","true","914.3850000109524","./Stimuli/ImagesPractice/LN4.jpg","76","","","","test","true","","76","","LN","LN4.jpg","","new","43","3","practice_recog","right","","","",""
"categorize-image","110","467262","0.0-3.0-7.0-0.11","u1dc8449d1damrm","practice_recog","5ee3e4110f27710c4dac8a3a","5f60e3c0a3b16e07647b2ff9","5f61dbffbafcd318bec5a133","true","689.2449999868404","./Stimuli/ImagesPractice/LN2.jpg","76","","","","test","true","","76","","LN","LN2.jpg","","new","44","3","practice_recog","right","","","",""
"categorize-image","111","468330","0.0-3.0-7.0-0.12","u1dc8449d1damrm","practice_recog","5ee3e4110f27710c4dac8a3a","5f60e3c0a3b16e07647b2ff9","5f61dbffbafcd318bec5a133","true","562.4649999954272","./Stimuli/ImagesPractice/LN15.jpg","83","","","","test","true","","83","","LN","LN15.jpg","","old","45","3","practice_recog","left","","","",""
"categorize-image","112","469551","0.0-3.0-7.0-0.13","u1dc8449d1damrm","practice_recog","5ee3e4110f27710c4dac8a3a","5f60e3c0a3b16e07647b2ff9","5f61dbffbafcd318bec5a133","true","716.1350000242237","./Stimuli/ImagesPractice/LM147.jpg","83","","","","test","true","","83","","LM","LM147.jpg","","old","46","3","practice_recog","left","","","",""
"categorize-image","113","470831","0.0-3.0-7.0-0.14","u1dc8449d1damrm","practice_recog","5ee3e4110f27710c4dac8a3a","5f60e3c0a3b16e07647b2ff9","5f61dbffbafcd318bec5a133","true","775.6900000094902","./Stimuli/ImagesPractice/SM37.jpg","76","","","","test","true","","76","","SM","SM37.jpg","","new","47","3","practice_recog","right","","","",""
"categorize-image","114","471954","0.0-3.0-7.0-0.15","u1dc8449d1damrm","practice_recog","5ee3e4110f27710c4dac8a3a","5f60e3c0a3b16e07647b2ff9","5f61dbffbafcd318bec5a133","true","617.6900000136811","./Stimuli/ImagesPractice/LN109.jpg","76","","","","test","true","","76","","LN","LN109.jpg","","new","48","3","practice_recog","right","","","",""
"html-keyboard-response","115","485279","0.0-3.0-8.0","u1dc8449d1damrm","instructions","5ee3e4110f27710c4dac8a3a","5f60e3c0a3b16e07647b2ff9","5f61dbffbafcd318bec5a133","false","13322.74000000325","<div align=left> Great!<br><br>Are you ready to continue?<br>If you want to reread the instructions and redo the practice trials, please <br>press „Z“.<br><br>You can proceed when you are ready.<br><br>After the presentation of each object, you will receive an instruction whether to <br>remember or to forget the object.<br>We will test your memory of the following pictures only at the very end of <br>the experiment after all learning blocks are completed. <br><br>Press SPACE to CONTINUE when you are ready. </div>","32","","","","","","","","","","","","","","","","","","","",""
"html-keyboard-response","116","494928","0.0-4.0-0.0","u1dc8449d1damrm","instructions","5ee3e4110f27710c4dac8a3a","5f60e3c0a3b16e07647b2ff9","5f61dbffbafcd318bec5a133","false","9646.799999987707","<div align=left> The actual experiment is about to start.<br>The practice trials are over!<br><br>Please always respond both fast and accurately!<br><br>Remember: <br> <br><li> Please place your index fingers on the <strong>'S'</strong> and <strong>'L'</strong> keys <br>to respond as fast and accurately as possible.</li><li> Every picture can be classified as either mechanical or non-mechanical.</li><li> If you do not respond in time or commit an error, you will receive a corresponding feedback.<br> Please try to respond as <strong> fast </strong> and as <strong> accurately as possible </strong>.</li><li> Remember the <span style='color: dodgerblue; font-size: 28px'>O</span> pictures. <br></li><li> Please minimize distractions and stay focused. </li><br><br>Press SPACE to START.</div>","32","","","","","","","","","","","","","","","","","","","",""
"html-keyboard-response","117","495631","0.0-4.0-1.0-0.0","u1dc8449d1damrm","prime","5ee3e4110f27710c4dac8a3a","5f60e3c0a3b16e07647b2ff9","5f61dbffbafcd318bec5a133","false","null","<span style=""color: black; font-size: 48px"">N + M</span>","null","","","","resp_prompt","","","","","","","","","","","","","","","",""
"categorize-image","118","496321","0.0-4.0-1.0-1.0","u1dc8449d1damrm","prime","5ee3e4110f27710c4dac8a3a","5f60e3c0a3b16e07647b2ff9","5f61dbffbafcd318bec5a133","true","683.3250000199769","./Stimuli/SelectedImages/LM/LM129.bmp","76","","","","test","true","N + M","76","repetition","LM","LM129.bmp","forget","","49","3","prime1","right","","","",""
"html-keyboard-response","119","498325","0.0-4.0-1.0-3.0","u1dc8449d1damrm","prime","5ee3e4110f27710c4dac8a3a","5f60e3c0a3b16e07647b2ff9","5f61dbffbafcd318bec5a133","false","null","<div style=""align-items: center; display: flex; color: darkorange; font-size: 90px""><b>ø</b></div>","null","","","","forget_cue","","","","","","","","","","","","","","","",""
"html-keyboard-response","120","499028","0.0-4.0-1.0-0.1","u1dc8449d1damrm","prime","5ee3e4110f27710c4dac8a3a","5f60e3c0a3b16e07647b2ff9","5f61dbffbafcd318bec5a133","false","null","<span style=""color: black; font-size: 48px"">M + N</span>","null","","","","resp_prompt","","","","","","","","","","","","","","","",""
"categorize-image","121","499822","0.0-4.0-1.0-1.1","u1dc8449d1damrm","prime","5ee3e4110f27710c4dac8a3a","5f60e3c0a3b16e07647b2ff9","5f61dbffbafcd318bec5a133","true","787.7900000021327","./Stimuli/SelectedImages/LN/LN82.bmp","76","","","","test","true","M + N","76","repetition","LN","LN82.bmp","remember","","50","3","prime1","right","","","",""
"html-keyboard-response","122","501826","0.0-4.0-1.0-3.1","u1dc8449d1damrm","prime","5ee3e4110f27710c4dac8a3a","5f60e3c0a3b16e07647b2ff9","5f61dbffbafcd318bec5a133","false","null","<div style=""align-items: center; display: flex; color: dodgerblue; font-size: 90px""><b>o</b></div>","null","","","","forget_cue","","","","","","","","","","","","","","","",""
"html-keyboard-response","123","502528","0.0-4.0-1.0-0.2","u1dc8449d1damrm","prime","5ee3e4110f27710c4dac8a3a","5f60e3c0a3b16e07647b2ff9","5f61dbffbafcd318bec5a133","false","null","<span style=""color: black; font-size: 48px"">N + M</span>","null","","","","resp_prompt","","","","","","","","","","","","","","","",""
"categorize-image","124","503555","0.0-4.0-1.0-1.2","u1dc8449d1damrm","prime","5ee3e4110f27710c4dac8a3a","5f60e3c0a3b16e07647b2ff9","5f61dbffbafcd318bec5a133","true","1021.6000000073109","./Stimuli/SelectedImages/LN/LN92.bmp","83","","","","test","true","N + M","83","repetition","LN","LN92.bmp","forget","","51","3","prime1","left","","","",""
"html-keyboard-response","125","505558","0.0-4.0-1.0-3.2","u1dc8449d1damrm","prime","5ee3e4110f27710c4dac8a3a","5f60e3c0a3b16e07647b2ff9","5f61dbffbafcd318bec5a133","false","null","<div style=""align-items: center; display: flex; color: darkorange; font-size: 90px""><b>ø</b></div>","null","","","","forget_cue","","","","","","","","","","","","","","","",""
"html-keyboard-response","126","506261","0.0-4.0-1.0-0.3","u1dc8449d1damrm","prime","5ee3e4110f27710c4dac8a3a","5f60e3c0a3b16e07647b2ff9","5f61dbffbafcd318bec5a133","false","null","<span style=""color: black; font-size: 48px"">N + M</span>","null","","","","resp_prompt","","","","","","","","","","","","","","","",""
"categorize-image","127","507093","0.0-4.0-1.0-1.3","u1dc8449d1damrm","prime","5ee3e4110f27710c4dac8a3a","5f60e3c0a3b16e07647b2ff9","5f61dbffbafcd318bec5a133","true","827.194999990752","./Stimuli/SelectedImages/LN/LN13.bmp","83","","","","test","true","N + M","83","repetition","LN","LN13.bmp","forget","","52","3","prime1","left","","","",""
"html-keyboard-response","128","509096","0.0-4.0-1.0-3.3","u1dc8449d1damrm","prime","5ee3e4110f27710c4dac8a3a","5f60e3c0a3b16e07647b2ff9","5f61dbffbafcd318bec5a133","false","null","<div style=""align-items: center; display: flex; color: darkorange; font-size: 90px""><b>ø</b></div>","null","","","","forget_cue","","","","","","","","","","","","","","","",""
"html-keyboard-response","129","509798","0.0-4.0-1.0-0.4","u1dc8449d1damrm","prime","5ee3e4110f27710c4dac8a3a","5f60e3c0a3b16e07647b2ff9","5f61dbffbafcd318bec5a133","false","null","<span style=""color: black; font-size: 48px"">M + N</span>","null","","","","resp_prompt","","","","","","","","","","","","","","","",""
"categorize-image","130","511005","0.0-4.0-1.0-1.4","u1dc8449d1damrm","prime","5ee3e4110f27710c4dac8a3a","5f60e3c0a3b16e07647b2ff9","5f61dbffbafcd318bec5a133","true","1200.3050000057556","./Stimuli/SelectedImages/LM/LM209.bmp","83","","","","test","true","M + N","83","repetition","LM","LM209.bmp","remember","","53","3","prime1","left","","","",""
"html-keyboard-response","131","513008","0.0-4.0-1.0-3.4","u1dc8449d1damrm","prime","5ee3e4110f27710c4dac8a3a","5f60e3c0a3b16e07647b2ff9","5f61dbffbafcd318bec5a133","false","null","<div style=""align-items: center; display: flex; color: dodgerblue; font-size: 90px""><b>o</b></div>","null","","","","forget_cue","","","","","","","","","","","","","","","",""
"html-keyboard-response","132","513711","0.0-4.0-1.0-0.5","u1dc8449d1damrm","prime","5ee3e4110f27710c4dac8a3a","5f60e3c0a3b16e07647b2ff9","5f61dbffbafcd318bec5a133","false","null","<span style=""color: black; font-size: 48px"">N + M</span>","null","","","","resp_prompt","","","","","","","","","","","","","","","",""
"categorize-image","133","514283","0.0-4.0-1.0-1.5","u1dc8449d1damrm","prime","5ee3e4110f27710c4dac8a3a","5f60e3c0a3b16e07647b2ff9","5f61dbffbafcd318bec5a133","true","565.5450000194833","./Stimuli/SelectedImages/LM/LM58.bmp","76","","","","test","true","N + M","76","switch","LM","LM58.bmp","forget","","54","3","prime1","right","","","",""
"html-keyboard-response","134","516287","0.0-4.0-1.0-3.5","u1dc8449d1damrm","prime","5ee3e4110f27710c4dac8a3a","5f60e3c0a3b16e07647b2ff9","5f61dbffbafcd318bec5a133","false","null","<div style=""align-items: center; display: flex; color: darkorange; font-size: 90px""><b>ø</b></div>","null","","","","forget_cue","","","","","","","","","","","","","","","",""
"html-keyboard-response","135","516990","0.0-4.0-1.0-0.6","u1dc8449d1damrm","prime","5ee3e4110f27710c4dac8a3a","5f60e3c0a3b16e07647b2ff9","5f61dbffbafcd318bec5a133","false","null","<span style=""color: black; font-size: 48px"">M + N</span>","null","","","","resp_prompt","","","","","","","","","","","","","","","",""
"categorize-image","136","518114","0.0-4.0-1.0-1.6","u1dc8449d1damrm","prime","5ee3e4110f27710c4dac8a3a","5f60e3c0a3b16e07647b2ff9","5f61dbffbafcd318bec5a133","true","1117.1599999943282","./Stimuli/SelectedImages/SM/SM200.bmp","83","","","","test","true","M + N","83","switch","SM","SM200.bmp","remember","","55","3","prime1","left","","","",""
"html-keyboard-response","137","520117","0.0-4.0-1.0-3.6","u1dc8449d1damrm","prime","5ee3e4110f27710c4dac8a3a","5f60e3c0a3b16e07647b2ff9","5f61dbffbafcd318bec5a133","false","null","<div style=""align-items: center; display: flex; color: dodgerblue; font-size: 90px""><b>o</b></div>","null","","","","forget_cue","","","","","","","","","","","","","","","",""
"html-keyboard-response","138","520820","0.0-4.0-1.0-0.7","u1dc8449d1damrm","prime","5ee3e4110f27710c4dac8a3a","5f60e3c0a3b16e07647b2ff9","5f61dbffbafcd318bec5a133","false","null","<span style=""color: black; font-size: 48px"">N + M</span>","null","","","","resp_prompt","","","","","","","","","","","","","","","",""
"categorize-image","139","521433","0.0-4.0-1.0-1.7","u1dc8449d1damrm","prime","5ee3e4110f27710c4dac8a3a","5f60e3c0a3b16e07647b2ff9","5f61dbffbafcd318bec5a133","true","607.6149999862537","./Stimuli/SelectedImages/SM/SM184.bmp","76","","","","test","true","N + M","76","switch","SM","SM184.bmp","remember","","56","3","prime1","right","","","",""
"html-keyboard-response","140","523435","0.0-4.0-1.0-3.7","u1dc8449d1damrm","prime","5ee3e4110f27710c4dac8a3a","5f60e3c0a3b16e07647b2ff9","5f61dbffbafcd318bec5a133","false","null","<div style=""align-items: center; display: flex; color: dodgerblue; font-size: 90px""><b>o</b></div>","null","","","","forget_cue","","","","","","","","","","","","","","","",""
"html-keyboard-response","141","524137","0.0-4.0-1.0-0.8","u1dc8449d1damrm","prime","5ee3e4110f27710c4dac8a3a","5f60e3c0a3b16e07647b2ff9","5f61dbffbafcd318bec5a133","false","null","<span style=""color: black; font-size: 48px"">N + M</span>","null","","","","resp_prompt","","","","","","","","","","","","","","","",""
"categorize-image","142","525119","0.0-4.0-1.0-1.8","u1dc8449d1damrm","prime","5ee3e4110f27710c4dac8a3a","5f60e3c0a3b16e07647b2ff9","5f61dbffbafcd318bec5a133","true","975.2149999840185","./Stimuli/SelectedImages/LN/LN149.bmp","83","","","","test","true","N + M","83","repetition","LN","LN149.bmp","remember","","57","3","prime1","left","","","",""
"html-keyboard-response","143","527122","0.0-4.0-1.0-3.8","u1dc8449d1damrm","prime","5ee3e4110f27710c4dac8a3a","5f60e3c0a3b16e07647b2ff9","5f61dbffbafcd318bec5a133","false","null","<div style=""align-items: center; display: flex; color: dodgerblue; font-size: 90px""><b>o</b></div>","null","","","","forget_cue","","","","","","","","","","","","","","","",""
"html-keyboard-response","144","527824","0.0-4.0-1.0-0.9","u1dc8449d1damrm","prime","5ee3e4110f27710c4dac8a3a","5f60e3c0a3b16e07647b2ff9","5f61dbffbafcd318bec5a133","false","null","<span style=""color: black; font-size: 48px"">N + M</span>","null","","","","resp_prompt","","","","","","","","","","","","","","","",""
"categorize-image","145","528984","0.0-4.0-1.0-1.9","u1dc8449d1damrm","prime","5ee3e4110f27710c4dac8a3a","5f60e3c0a3b16e07647b2ff9","5f61dbffbafcd318bec5a133","true","1153.7199999729637","./Stimuli/SelectedImages/LN/LN111.bmp","83","","","","test","true","N + M","83","switch","LN","LN111.bmp","forget","","58","3","prime1","left","","","",""
"html-keyboard-response","146","530987","0.0-4.0-1.0-3.9","u1dc8449d1damrm","prime","5ee3e4110f27710c4dac8a3a","5f60e3c0a3b16e07647b2ff9","5f61dbffbafcd318bec5a133","false","null","<div style=""align-items: center; display: flex; color: darkorange; font-size: 90px""><b>ø</b></div>","null","","","","forget_cue","","","","","","","","","","","","","","","",""
"html-keyboard-response","147","531689","0.0-4.0-1.0-0.10","u1dc8449d1damrm","prime","5ee3e4110f27710c4dac8a3a","5f60e3c0a3b16e07647b2ff9","5f61dbffbafcd318bec5a133","false","null","<span style=""color: black; font-size: 48px"">N + M</span>","null","","","","resp_prompt","","","","","","","","","","","","","","","",""
"categorize-image","148","532305","0.0-4.0-1.0-1.10","u1dc8449d1damrm","prime","5ee3e4110f27710c4dac8a3a","5f60e3c0a3b16e07647b2ff9","5f61dbffbafcd318bec5a133","true","609.3200000177603","./Stimuli/SelectedImages/SM/SM73.bmp","76","","","","test","true","N + M","76","repetition","SM","SM73.bmp","forget","","59","3","prime1","right","","","",""
"html-keyboard-response","149","534308","0.0-4.0-1.0-3.10","u1dc8449d1damrm","prime","5ee3e4110f27710c4dac8a3a","5f60e3c0a3b16e07647b2ff9","5f61dbffbafcd318bec5a133","false","null","<div style=""align-items: center; display: flex; color: darkorange; font-size: 90px""><b>ø</b></div>","null","","","","forget_cue","","","","","","","","","","","","","","","",""
"html-keyboard-response","150","535010","0.0-4.0-1.0-0.11","u1dc8449d1damrm","prime","5ee3e4110f27710c4dac8a3a","5f60e3c0a3b16e07647b2ff9","5f61dbffbafcd318bec5a133","false","null","<span style=""color: black; font-size: 48px"">N + M</span>","null","","","","resp_prompt","","","","","","","","","","","","","","","",""
"categorize-image","151","535786","0.0-4.0-1.0-1.11","u1dc8449d1damrm","prime","5ee3e4110f27710c4dac8a3a","5f60e3c0a3b16e07647b2ff9","5f61dbffbafcd318bec5a133","true","769.445000012638","./Stimuli/SelectedImages/LM/LM75.bmp","76","","","","test","true","N + M","76","switch","LM","LM75.bmp","remember","","60","3","prime1","right","","","",""
"html-keyboard-response","152","537789","0.0-4.0-1.0-3.11","u1dc8449d1damrm","prime","5ee3e4110f27710c4dac8a3a","5f60e3c0a3b16e07647b2ff9","5f61dbffbafcd318bec5a133","false","null","<div style=""align-items: center; display: flex; color: dodgerblue; font-size: 90px""><b>o</b></div>","null","","","","forget_cue","","","","","","","","","","","","","","","",""
"html-keyboard-response","153","538492","0.0-4.0-1.0-0.12","u1dc8449d1damrm","prime","5ee3e4110f27710c4dac8a3a","5f60e3c0a3b16e07647b2ff9","5f61dbffbafcd318bec5a133","false","null","<span style=""color: black; font-size: 48px"">M + N</span>","null","","","","resp_prompt","","","","","","","","","","","","","","","",""
"categorize-image","154","539135","0.0-4.0-1.0-1.12","u1dc8449d1damrm","prime","5ee3e4110f27710c4dac8a3a","5f60e3c0a3b16e07647b2ff9","5f61dbffbafcd318bec5a133","true","637.8099999856204","./Stimuli/SelectedImages/SM/SM207.bmp","83","","","","test","true","M + N","83","switch","SM","SM207.bmp","remember","","61","3","prime1","left","","","",""
"html-keyboard-response","155","541136","0.0-4.0-1.0-3.12","u1dc8449d1damrm","prime","5ee3e4110f27710c4dac8a3a","5f60e3c0a3b16e07647b2ff9","5f61dbffbafcd318bec5a133","false","null","<div style=""align-items: center; display: flex; color: dodgerblue; font-size: 90px""><b>o</b></div>","null","","","","forget_cue","","","","","","","","","","","","","","","",""
"html-keyboard-response","156","541839","0.0-4.0-1.0-0.13","u1dc8449d1damrm","prime","5ee3e4110f27710c4dac8a3a","5f60e3c0a3b16e07647b2ff9","5f61dbffbafcd318bec5a133","false","null","<span style=""color: black; font-size: 48px"">N + M</span>","null","","","","resp_prompt","","","","","","","","","","","","","","","",""
"categorize-image","157","543056","0.0-4.0-1.0-1.13","u1dc8449d1damrm","prime","5ee3e4110f27710c4dac8a3a","5f60e3c0a3b16e07647b2ff9","5f61dbffbafcd318bec5a133","true","1210.7149999937974","./Stimuli/SelectedImages/SN/SN187.bmp","83","","","","test","true","N + M","83","switch","SN","SN187.bmp","remember","","62","3","prime1","left","","","",""
"html-keyboard-response","158","545059","0.0-4.0-1.0-3.13","u1dc8449d1damrm","prime","5ee3e4110f27710c4dac8a3a","5f60e3c0a3b16e07647b2ff9","5f61dbffbafcd318bec5a133","false","null","<div style=""align-items: center; display: flex; color: dodgerblue; font-size: 90px""><b>o</b></div>","null","","","","forget_cue","","","","","","","","","","","","","","","",""
"html-keyboard-response","159","545762","0.0-4.0-1.0-0.14","u1dc8449d1damrm","prime","5ee3e4110f27710c4dac8a3a","5f60e3c0a3b16e07647b2ff9","5f61dbffbafcd318bec5a133","false","null","<span style=""color: black; font-size: 48px"">N + M</span>","null","","","","resp_prompt","","","","","","","","","","","","","","","",""
"categorize-image","160","546563","0.0-4.0-1.0-1.14","u1dc8449d1damrm","prime","5ee3e4110f27710c4dac8a3a","5f60e3c0a3b16e07647b2ff9","5f61dbffbafcd318bec5a133","true","795.0249999994412","./Stimuli/SelectedImages/LN/LN177.bmp","83","","","","test","true","N + M","83","switch","LN","LN177.bmp","forget","","63","3","prime1","left","","","",""
"html-keyboard-response","161","548567","0.0-4.0-1.0-3.14","u1dc8449d1damrm","prime","5ee3e4110f27710c4dac8a3a","5f60e3c0a3b16e07647b2ff9","5f61dbffbafcd318bec5a133","false","null","<div style=""align-items: center; display: flex; color: darkorange; font-size: 90px""><b>ø</b></div>","null","","","","forget_cue","","","","","","","","","","","","","","","",""
"html-keyboard-response","162","549270","0.0-4.0-1.0-0.15","u1dc8449d1damrm","prime","5ee3e4110f27710c4dac8a3a","5f60e3c0a3b16e07647b2ff9","5f61dbffbafcd318bec5a133","false","null","<span style=""color: black; font-size: 48px"">N + M</span>","null","","","","resp_prompt","","","","","","","","","","","","","","","",""
"categorize-image","163","550584","0.0-4.0-1.0-1.15","u1dc8449d1damrm","prime","5ee3e4110f27710c4dac8a3a","5f60e3c0a3b16e07647b2ff9","5f61dbffbafcd318bec5a133","true","1306.7950000113342","./Stimuli/SelectedImages/LM/LM48.bmp","76","","","","test","true","N + M","76","switch","LM","LM48.bmp","remember","","64","3","prime1","right","","","",""
"html-keyboard-response","164","552586","0.0-4.0-1.0-3.15","u1dc8449d1damrm","prime","5ee3e4110f27710c4dac8a3a","5f60e3c0a3b16e07647b2ff9","5f61dbffbafcd318bec5a133","false","null","<div style=""align-items: center; display: flex; color: dodgerblue; font-size: 90px""><b>o</b></div>","null","","","","forget_cue","","","","","","","","","","","","","","","",""
"html-keyboard-response","165","553290","0.0-4.0-1.0-0.16","u1dc8449d1damrm","prime","5ee3e4110f27710c4dac8a3a","5f60e3c0a3b16e07647b2ff9","5f61dbffbafcd318bec5a133","false","null","<span style=""color: black; font-size: 48px"">M + N</span>","null","","","","resp_prompt","","","","","","","","","","","","","","","",""
"categorize-image","166","554017","0.0-4.0-1.0-1.16","u1dc8449d1damrm","prime","5ee3e4110f27710c4dac8a3a","5f60e3c0a3b16e07647b2ff9","5f61dbffbafcd318bec5a133","true","720.0299999967683","./Stimuli/SelectedImages/LN/LN42.bmp","76","","","","test","true","M + N","76","switch","LN","LN42.bmp","forget","","65","3","prime1","right","","","",""
"html-keyboard-response","167","556020","0.0-4.0-1.0-3.16","u1dc8449d1damrm","prime","5ee3e4110f27710c4dac8a3a","5f60e3c0a3b16e07647b2ff9","5f61dbffbafcd318bec5a133","false","null","<div style=""align-items: center; display: flex; color: darkorange; font-size: 90px""><b>ø</b></div>","null","","","","forget_cue","","","","","","","","","","","","","","","",""
"html-keyboard-response","168","556723","0.0-4.0-1.0-0.17","u1dc8449d1damrm","prime","5ee3e4110f27710c4dac8a3a","5f60e3c0a3b16e07647b2ff9","5f61dbffbafcd318bec5a133","false","null","<span style=""color: black; font-size: 48px"">M + N</span>","null","","","","resp_prompt","","","","","","","","","","","","","","","",""
"categorize-image","169","557340","0.0-4.0-1.0-1.17","u1dc8449d1damrm","prime","5ee3e4110f27710c4dac8a3a","5f60e3c0a3b16e07647b2ff9","5f61dbffbafcd318bec5a133","true","611.2150000117254","./Stimuli/SelectedImages/SM/SM24.bmp","83","","","","test","true","M + N","83","repetition","SM","SM24.bmp","remember","","66","3","prime1","left","","","",""
"html-keyboard-response","170","559343","0.0-4.0-1.0-3.17","u1dc8449d1damrm","prime","5ee3e4110f27710c4dac8a3a","5f60e3c0a3b16e07647b2ff9","5f61dbffbafcd318bec5a133","false","null","<div style=""align-items: center; display: flex; color: dodgerblue; font-size: 90px""><b>o</b></div>","null","","","","forget_cue","","","","","","","","","","","","","","","",""
"html-keyboard-response","171","560044","0.0-4.0-1.0-0.18","u1dc8449d1damrm","prime","5ee3e4110f27710c4dac8a3a","5f60e3c0a3b16e07647b2ff9","5f61dbffbafcd318bec5a133","false","null","<span style=""color: black; font-size: 48px"">N + M</span>","null","","","","resp_prompt","","","","","","","","","","","","","","","",""
"categorize-image","172","560669","0.0-4.0-1.0-1.18","u1dc8449d1damrm","prime","5ee3e4110f27710c4dac8a3a","5f60e3c0a3b16e07647b2ff9","5f61dbffbafcd318bec5a133","true","621.0049999936018","./Stimuli/SelectedImages/SM/SM78.bmp","76","","","","test","true","N + M","76","switch","SM","SM78.bmp","remember","","67","3","prime1","right","","","",""
"html-keyboard-response","173","562671","0.0-4.0-1.0-3.18","u1dc8449d1damrm","prime","5ee3e4110f27710c4dac8a3a","5f60e3c0a3b16e07647b2ff9","5f61dbffbafcd318bec5a133","false","null","<div style=""align-items: center; display: flex; color: dodgerblue; font-size: 90px""><b>o</b></div>","null","","","","forget_cue","","","","","","","","","","","","","","","",""
"html-keyboard-response","174","563373","0.0-4.0-1.0-0.19","u1dc8449d1damrm","prime","5ee3e4110f27710c4dac8a3a","5f60e3c0a3b16e07647b2ff9","5f61dbffbafcd318bec5a133","false","null","<span style=""color: black; font-size: 48px"">M + N</span>","null","","","","resp_prompt","","","","","","","","","","","","","","","",""
"categorize-image","175","564718","0.0-4.0-1.0-1.19","u1dc8449d1damrm","prime","5ee3e4110f27710c4dac8a3a","5f60e3c0a3b16e07647b2ff9","5f61dbffbafcd318bec5a133","true","1338.3800000010524","./Stimuli/SelectedImages/LN/LN28.bmp","76","","","","test","true","M + N","76","switch","LN","LN28.bmp","remember","","68","3","prime1","right","","","",""
"html-keyboard-response","176","566721","0.0-4.0-1.0-3.19","u1dc8449d1damrm","prime","5ee3e4110f27710c4dac8a3a","5f60e3c0a3b16e07647b2ff9","5f61dbffbafcd318bec5a133","false","null","<div style=""align-items: center; display: flex; color: dodgerblue; font-size: 90px""><b>o</b></div>","null","","","","forget_cue","","","","","","","","","","","","","","","",""
"html-keyboard-response","177","567423","0.0-4.0-1.0-0.20","u1dc8449d1damrm","prime","5ee3e4110f27710c4dac8a3a","5f60e3c0a3b16e07647b2ff9","5f61dbffbafcd318bec5a133","false","null","<span style=""color: black; font-size: 48px"">N + M</span>","null","","","","resp_prompt","","","","","","","","","","","","","","","",""
"categorize-image","178","568288","0.0-4.0-1.0-1.20","u1dc8449d1damrm","prime","5ee3e4110f27710c4dac8a3a","5f60e3c0a3b16e07647b2ff9","5f61dbffbafcd318bec5a133","true","858.2099999766797","./Stimuli/SelectedImages/LM/LM179.bmp","76","","","","test","true","N + M","76","repetition","LM","LM179.bmp","forget","","69","3","prime1","right","","","",""
"html-keyboard-response","179","570290","0.0-4.0-1.0-3.20","u1dc8449d1damrm","prime","5ee3e4110f27710c4dac8a3a","5f60e3c0a3b16e07647b2ff9","5f61dbffbafcd318bec5a133","false","null","<div style=""align-items: center; display: flex; color: darkorange; font-size: 90px""><b>ø</b></div>","null","","","","forget_cue","","","","","","","","","","","","","","","",""
"html-keyboard-response","180","570993","0.0-4.0-1.0-0.21","u1dc8449d1damrm","prime","5ee3e4110f27710c4dac8a3a","5f60e3c0a3b16e07647b2ff9","5f61dbffbafcd318bec5a133","false","null","<span style=""color: black; font-size: 48px"">N + M</span>","null","","","","resp_prompt","","","","","","","","","","","","","","","",""
"categorize-image","181","571735","0.0-4.0-1.0-1.21","u1dc8449d1damrm","prime","5ee3e4110f27710c4dac8a3a","5f60e3c0a3b16e07647b2ff9","5f61dbffbafcd318bec5a133","true","735.5499999830499","./Stimuli/SelectedImages/SN/SN64.bmp","83","","","","test","true","N + M","83","repetition","SN","SN64.bmp","forget","","70","3","prime1","left","","","",""
"html-keyboard-response","182","573737","0.0-4.0-1.0-3.21","u1dc8449d1damrm","prime","5ee3e4110f27710c4dac8a3a","5f60e3c0a3b16e07647b2ff9","5f61dbffbafcd318bec5a133","false","null","<div style=""align-items: center; display: flex; color: darkorange; font-size: 90px""><b>ø</b></div>","null","","","","forget_cue","","","","","","","","","","","","","","","",""
"html-keyboard-response","183","574439","0.0-4.0-1.0-0.22","u1dc8449d1damrm","prime","5ee3e4110f27710c4dac8a3a","5f60e3c0a3b16e07647b2ff9","5f61dbffbafcd318bec5a133","false","null","<span style=""color: black; font-size: 48px"">M + N</span>","null","","","","resp_prompt","","","","","","","","","","","","","","","",""
"categorize-image","184","575030","0.0-4.0-1.0-1.22","u1dc8449d1damrm","prime","5ee3e4110f27710c4dac8a3a","5f60e3c0a3b16e07647b2ff9","5f61dbffbafcd318bec5a133","true","585.3700000152458","./Stimuli/SelectedImages/LM/LM51.bmp","83","","","","test","true","M + N","83","switch","LM","LM51.bmp","forget","","71","3","prime1","left","","","",""
"html-keyboard-response","185","577033","0.0-4.0-1.0-3.22","u1dc8449d1damrm","prime","5ee3e4110f27710c4dac8a3a","5f60e3c0a3b16e07647b2ff9","5f61dbffbafcd318bec5a133","false","null","<div style=""align-items: center; display: flex; color: darkorange; font-size: 90px""><b>ø</b></div>","null","","","","forget_cue","","","","","","","","","","","","","","","",""
"html-keyboard-response","186","577736","0.0-4.0-1.0-0.23","u1dc8449d1damrm","prime","5ee3e4110f27710c4dac8a3a","5f60e3c0a3b16e07647b2ff9","5f61dbffbafcd318bec5a133","false","null","<span style=""color: black; font-size: 48px"">N + M</span>","null","","","","resp_prompt","","","","","","","","","","","","","","","",""
"categorize-image","187","578607","0.0-4.0-1.0-1.23","u1dc8449d1damrm","prime","5ee3e4110f27710c4dac8a3a","5f60e3c0a3b16e07647b2ff9","5f61dbffbafcd318bec5a133","true","865.3749999939464","./Stimuli/SelectedImages/SN/SN93.bmp","83","","","","test","true","N + M","83","repetition","SN","SN93.bmp","remember","","72","3","prime1","left","","","",""
"html-keyboard-response","188","580610","0.0-4.0-1.0-3.23","u1dc8449d1damrm","prime","5ee3e4110f27710c4dac8a3a","5f60e3c0a3b16e07647b2ff9","5f61dbffbafcd318bec5a133","false","null","<div style=""align-items: center; display: flex; color: dodgerblue; font-size: 90px""><b>o</b></div>","null","","","","forget_cue","","","","","","","","","","","","","","","",""
"html-keyboard-response","189","581313","0.0-4.0-1.0-0.24","u1dc8449d1damrm","prime","5ee3e4110f27710c4dac8a3a","5f60e3c0a3b16e07647b2ff9","5f61dbffbafcd318bec5a133","false","null","<span style=""color: black; font-size: 48px"">M + N</span>","null","","","","resp_prompt","","","","","","","","","","","","","","","",""
"categorize-image","190","582069","0.0-4.0-1.0-1.24","u1dc8449d1damrm","prime","5ee3e4110f27710c4dac8a3a","5f60e3c0a3b16e07647b2ff9","5f61dbffbafcd318bec5a133","true","750.545000017155","./Stimuli/SelectedImages/SN/SN49.bmp","76","","","","test","true","M + N","76","repetition","SN","SN49.bmp","forget","","73","3","prime1","right","","","",""
"html-keyboard-response","191","584071","0.0-4.0-1.0-3.24","u1dc8449d1damrm","prime","5ee3e4110f27710c4dac8a3a","5f60e3c0a3b16e07647b2ff9","5f61dbffbafcd318bec5a133","false","null","<div style=""align-items: center; display: flex; color: darkorange; font-size: 90px""><b>ø</b></div>","null","","","","forget_cue","","","","","","","","","","","","","","","",""
"html-keyboard-response","192","584773","0.0-4.0-1.0-0.25","u1dc8449d1damrm","prime","5ee3e4110f27710c4dac8a3a","5f60e3c0a3b16e07647b2ff9","5f61dbffbafcd318bec5a133","false","null","<span style=""color: black; font-size: 48px"">N + M</span>","null","","","","resp_prompt","","","","","","","","","","","","","","","",""
"categorize-image","193","585590","0.0-4.0-1.0-1.25","u1dc8449d1damrm","prime","5ee3e4110f27710c4dac8a3a","5f60e3c0a3b16e07647b2ff9","5f61dbffbafcd318bec5a133","true","811.7450000136159","./Stimuli/SelectedImages/LM/LM103.bmp","76","","","","test","true","N + M","76","switch","LM","LM103.bmp","forget","","74","3","prime1","right","","","",""
"html-keyboard-response","194","587593","0.0-4.0-1.0-3.25","u1dc8449d1damrm","prime","5ee3e4110f27710c4dac8a3a","5f60e3c0a3b16e07647b2ff9","5f61dbffbafcd318bec5a133","false","null","<div style=""align-items: center; display: flex; color: darkorange; font-size: 90px""><b>ø</b></div>","null","","","","forget_cue","","","","","","","","","","","","","","","",""
"html-keyboard-response","195","588295","0.0-4.0-1.0-0.26","u1dc8449d1damrm","prime","5ee3e4110f27710c4dac8a3a","5f60e3c0a3b16e07647b2ff9","5f61dbffbafcd318bec5a133","false","null","<span style=""color: black; font-size: 48px"">N + M</span>","null","","","","resp_prompt","","","","","","","","","","","","","","","",""
"categorize-image","196","589256","0.0-4.0-1.0-1.26","u1dc8449d1damrm","prime","5ee3e4110f27710c4dac8a3a","5f60e3c0a3b16e07647b2ff9","5f61dbffbafcd318bec5a133","true","954.9750000005588","./Stimuli/SelectedImages/SM/SM205.bmp","76","","","","test","true","N + M","76","switch","SM","SM205.bmp","forget","","75","3","prime1","right","","","",""
"html-keyboard-response","197","591259","0.0-4.0-1.0-3.26","u1dc8449d1damrm","prime","5ee3e4110f27710c4dac8a3a","5f60e3c0a3b16e07647b2ff9","5f61dbffbafcd318bec5a133","false","null","<div style=""align-items: center; display: flex; color: darkorange; font-size: 90px""><b>ø</b></div>","null","","","","forget_cue","","","","","","","","","","","","","","","",""
"html-keyboard-response","198","591961","0.0-4.0-1.0-0.27","u1dc8449d1damrm","prime","5ee3e4110f27710c4dac8a3a","5f60e3c0a3b16e07647b2ff9","5f61dbffbafcd318bec5a133","false","null","<span style=""color: black; font-size: 48px"">M + N</span>","null","","","","resp_prompt","","","","","","","","","","","","","","","",""
"categorize-image","199","592743","0.0-4.0-1.0-1.27","u1dc8449d1damrm","prime","5ee3e4110f27710c4dac8a3a","5f60e3c0a3b16e07647b2ff9","5f61dbffbafcd318bec5a133","true","775.3450000018347","./Stimuli/SelectedImages/LM/LM150.bmp","83","","","","test","true","M + N","83","switch","LM","LM150.bmp","remember","","76","3","prime1","left","","","",""
"html-keyboard-response","200","594745","0.0-4.0-1.0-3.27","u1dc8449d1damrm","prime","5ee3e4110f27710c4dac8a3a","5f60e3c0a3b16e07647b2ff9","5f61dbffbafcd318bec5a133","false","null","<div style=""align-items: center; display: flex; color: dodgerblue; font-size: 90px""><b>o</b></div>","null","","","","forget_cue","","","","","","","","","","","","","","","",""
"html-keyboard-response","201","595449","0.0-4.0-1.0-0.28","u1dc8449d1damrm","prime","5ee3e4110f27710c4dac8a3a","5f60e3c0a3b16e07647b2ff9","5f61dbffbafcd318bec5a133","false","null","<span style=""color: black; font-size: 48px"">M + N</span>","null","","","","resp_prompt","","","","","","","","","","","","","","","",""
"categorize-image","202","596437","0.0-4.0-1.0-1.28","u1dc8449d1damrm","prime","5ee3e4110f27710c4dac8a3a","5f60e3c0a3b16e07647b2ff9","5f61dbffbafcd318bec5a133","true","981.339999998454","./Stimuli/SelectedImages/LN/LN59.bmp","76","","","","test","true","M + N","76","repetition","LN","LN59.bmp","forget","","77","3","prime1","right","","","",""
"html-keyboard-response","203","598439","0.0-4.0-1.0-3.28","u1dc8449d1damrm","prime","5ee3e4110f27710c4dac8a3a","5f60e3c0a3b16e07647b2ff9","5f61dbffbafcd318bec5a133","false","null","<div style=""align-items: center; display: flex; color: darkorange; font-size: 90px""><b>ø</b></div>","null","","","","forget_cue","","","","","","","","","","","","","","","",""
"html-keyboard-response","204","599141","0.0-4.0-1.0-0.29","u1dc8449d1damrm","prime","5ee3e4110f27710c4dac8a3a","5f60e3c0a3b16e07647b2ff9","5f61dbffbafcd318bec5a133","false","null","<span style=""color: black; font-size: 48px"">N + M</span>","null","","","","resp_prompt","","","","","","","","","","","","","","","",""
"categorize-image","205","599970","0.0-4.0-1.0-1.29","u1dc8449d1damrm","prime","5ee3e4110f27710c4dac8a3a","5f60e3c0a3b16e07647b2ff9","5f61dbffbafcd318bec5a133","true","824.1649999981746","./Stimuli/SelectedImages/SM/SM108.bmp","76","","","","test","true","N + M","76","repetition","SM","SM108.bmp","remember","","78","3","prime1","right","","","",""
"html-keyboard-response","206","601973","0.0-4.0-1.0-3.29","u1dc8449d1damrm","prime","5ee3e4110f27710c4dac8a3a","5f60e3c0a3b16e07647b2ff9","5f61dbffbafcd318bec5a133","false","null","<div style=""align-items: center; display: flex; color: dodgerblue; font-size: 90px""><b>o</b></div>","null","","","","forget_cue","","","","","","","","","","","","","","","",""
"html-keyboard-response","207","602676","0.0-4.0-1.0-0.30","u1dc8449d1damrm","prime","5ee3e4110f27710c4dac8a3a","5f60e3c0a3b16e07647b2ff9","5f61dbffbafcd318bec5a133","false","null","<span style=""color: black; font-size: 48px"">N + M</span>","null","","","","resp_prompt","","","","","","","","","","","","","","","",""
"categorize-image","208","603449","0.0-4.0-1.0-1.30","u1dc8449d1damrm","prime","5ee3e4110f27710c4dac8a3a","5f60e3c0a3b16e07647b2ff9","5f61dbffbafcd318bec5a133","true","768.1800000136718","./Stimuli/SelectedImages/LN/LN12.bmp","83","","","","test","true","N + M","83","repetition","LN","LN12.bmp","remember","","79","3","prime1","left","","","",""
"html-keyboard-response","209","605452","0.0-4.0-1.0-3.30","u1dc8449d1damrm","prime","5ee3e4110f27710c4dac8a3a","5f60e3c0a3b16e07647b2ff9","5f61dbffbafcd318bec5a133","false","null","<div style=""align-items: center; display: flex; color: dodgerblue; font-size: 90px""><b>o</b></div>","null","","","","forget_cue","","","","","","","","","","","","","","","",""
"html-keyboard-response","210","606155","0.0-4.0-1.0-0.31","u1dc8449d1damrm","prime","5ee3e4110f27710c4dac8a3a","5f60e3c0a3b16e07647b2ff9","5f61dbffbafcd318bec5a133","false","null","<span style=""color: black; font-size: 48px"">M + N</span>","null","","","","resp_prompt","","","","","","","","","","","","","","","",""
"categorize-image","211","606852","0.0-4.0-1.0-1.31","u1dc8449d1damrm","prime","5ee3e4110f27710c4dac8a3a","5f60e3c0a3b16e07647b2ff9","5f61dbffbafcd318bec5a133","true","689.7450000105891","./Stimuli/SelectedImages/LN/LN128.bmp","76","","","","test","true","M + N","76","repetition","LN","LN128.bmp","remember","","80","3","prime1","right","","","",""
"html-keyboard-response","212","608855","0.0-4.0-1.0-3.31","u1dc8449d1damrm","prime","5ee3e4110f27710c4dac8a3a","5f60e3c0a3b16e07647b2ff9","5f61dbffbafcd318bec5a133","false","null","<div style=""align-items: center; display: flex; color: dodgerblue; font-size: 90px""><b>o</b></div>","null","","","","forget_cue","","","","","","","","","","","","","","","",""
"html-keyboard-response","213","609558","0.0-4.0-1.0-0.32","u1dc8449d1damrm","prime","5ee3e4110f27710c4dac8a3a","5f60e3c0a3b16e07647b2ff9","5f61dbffbafcd318bec5a133","false","null","<span style=""color: black; font-size: 48px"">M + N</span>","null","","","","resp_prompt","","","","","","","","","","","","","","","",""
"categorize-image","214","610326","0.0-4.0-1.0-1.32","u1dc8449d1damrm","prime","5ee3e4110f27710c4dac8a3a","5f60e3c0a3b16e07647b2ff9","5f61dbffbafcd318bec5a133","true","762.5150000094436","./Stimuli/SelectedImages/LM/LM216.bmp","83","","","","test","true","M + N","83","repetition","LM","LM216.bmp","forget","","81","3","prime1","left","","","",""
"html-keyboard-response","215","612329","0.0-4.0-1.0-3.32","u1dc8449d1damrm","prime","5ee3e4110f27710c4dac8a3a","5f60e3c0a3b16e07647b2ff9","5f61dbffbafcd318bec5a133","false","null","<div style=""align-items: center; display: flex; color: darkorange; font-size: 90px""><b>ø</b></div>","null","","","","forget_cue","","","","","","","","","","","","","","","",""
"html-keyboard-response","216","613032","0.0-4.0-1.0-0.33","u1dc8449d1damrm","prime","5ee3e4110f27710c4dac8a3a","5f60e3c0a3b16e07647b2ff9","5f61dbffbafcd318bec5a133","false","null","<span style=""color: black; font-size: 48px"">M + N</span>","null","","","","resp_prompt","","","","","","","","","","","","","","","",""
"categorize-image","217","613797","0.0-4.0-1.0-1.33","u1dc8449d1damrm","prime","5ee3e4110f27710c4dac8a3a","5f60e3c0a3b16e07647b2ff9","5f61dbffbafcd318bec5a133","true","758.5550000076182","./Stimuli/SelectedImages/SM/SM106.bmp","83","","","","test","true","M + N","83","switch","SM","SM106.bmp","forget","","82","3","prime1","left","","","",""
"html-keyboard-response","218","615801","0.0-4.0-1.0-3.33","u1dc8449d1damrm","prime","5ee3e4110f27710c4dac8a3a","5f60e3c0a3b16e07647b2ff9","5f61dbffbafcd318bec5a133","false","null","<div style=""align-items: center; display: flex; color: darkorange; font-size: 90px""><b>ø</b></div>","null","","","","forget_cue","","","","","","","","","","","","","","","",""
"html-keyboard-response","219","616504","0.0-4.0-1.0-0.34","u1dc8449d1damrm","prime","5ee3e4110f27710c4dac8a3a","5f60e3c0a3b16e07647b2ff9","5f61dbffbafcd318bec5a133","false","null","<span style=""color: black; font-size: 48px"">M + N</span>","null","","","","resp_prompt","","","","","","","","","","","","","","","",""
"categorize-image","220","617756","0.0-4.0-1.0-1.34","u1dc8449d1damrm","prime","5ee3e4110f27710c4dac8a3a","5f60e3c0a3b16e07647b2ff9","5f61dbffbafcd318bec5a133","true","1246.179999987362","./Stimuli/SelectedImages/LN/LN9.bmp","76","","","","test","true","M + N","76","switch","LN","LN9.bmp","remember","","83","3","prime1","right","","","",""
"html-keyboard-response","221","619760","0.0-4.0-1.0-3.34","u1dc8449d1damrm","prime","5ee3e4110f27710c4dac8a3a","5f60e3c0a3b16e07647b2ff9","5f61dbffbafcd318bec5a133","false","null","<div style=""align-items: center; display: flex; color: dodgerblue; font-size: 90px""><b>o</b></div>","null","","","","forget_cue","","","","","","","","","","","","","","","",""
"html-keyboard-response","222","620462","0.0-4.0-1.0-0.35","u1dc8449d1damrm","prime","5ee3e4110f27710c4dac8a3a","5f60e3c0a3b16e07647b2ff9","5f61dbffbafcd318bec5a133","false","null","<span style=""color: black; font-size: 48px"">M + N</span>","null","","","","resp_prompt","","","","","","","","","","","","","","","",""
"categorize-image","223","622179","0.0-4.0-1.0-1.35","u1dc8449d1damrm","prime","5ee3e4110f27710c4dac8a3a","5f60e3c0a3b16e07647b2ff9","5f61dbffbafcd318bec5a133","true","1709.5100000151433","./Stimuli/SelectedImages/SN/SN182.bmp","76","","","","test","true","M + N","76","switch","SN","SN182.bmp","remember","","84","3","prime1","right","","","",""
"html-keyboard-response","224","624181","0.0-4.0-1.0-3.35","u1dc8449d1damrm","prime","5ee3e4110f27710c4dac8a3a","5f60e3c0a3b16e07647b2ff9","5f61dbffbafcd318bec5a133","false","null","<div style=""align-items: center; display: flex; color: dodgerblue; font-size: 90px""><b>o</b></div>","null","","","","forget_cue","","","","","","","","","","","","","","","",""
"html-keyboard-response","225","624883","0.0-4.0-1.0-0.36","u1dc8449d1damrm","prime","5ee3e4110f27710c4dac8a3a","5f60e3c0a3b16e07647b2ff9","5f61dbffbafcd318bec5a133","false","null","<span style=""color: black; font-size: 48px"">M + N</span>","null","","","","resp_prompt","","","","","","","","","","","","","","","",""
"categorize-image","226","625724","0.0-4.0-1.0-1.36","u1dc8449d1damrm","prime","5ee3e4110f27710c4dac8a3a","5f60e3c0a3b16e07647b2ff9","5f61dbffbafcd318bec5a133","true","833.634999988135","./Stimuli/SelectedImages/SM/SM148.bmp","76","","","","test","false","M + N","83","repetition","SM","SM148.bmp","remember","","85","3","prime1","right","","","",""
"html-keyboard-response","227","626227","0.0-4.0-1.0-2.36-0.36","u1dc8449d1damrm","prime","5ee3e4110f27710c4dac8a3a","5f60e3c0a3b16e07647b2ff9","5f61dbffbafcd318bec5a133","false","null","<span style=""color: red; font-size: 48px"">Error!</span>","null","","","","feedback","","","","","","","","","","","","","","","",""
"html-keyboard-response","228","628230","0.0-4.0-1.0-3.36","u1dc8449d1damrm","prime","5ee3e4110f27710c4dac8a3a","5f60e3c0a3b16e07647b2ff9","5f61dbffbafcd318bec5a133","false","null","<div style=""align-items: center; display: flex; color: dodgerblue; font-size: 90px""><b>o</b></div>","null","","","","forget_cue","","","","","","","","","","","","","","","",""
"html-keyboard-response","229","628931","0.0-4.0-1.0-0.37","u1dc8449d1damrm","prime","5ee3e4110f27710c4dac8a3a","5f60e3c0a3b16e07647b2ff9","5f61dbffbafcd318bec5a133","false","null","<span style=""color: black; font-size: 48px"">N + M</span>","null","","","","resp_prompt","","","","","","","","","","","","","","","",""
"categorize-image","230","629641","0.0-4.0-1.0-1.37","u1dc8449d1damrm","prime","5ee3e4110f27710c4dac8a3a","5f60e3c0a3b16e07647b2ff9","5f61dbffbafcd318bec5a133","true","702.5549999962095","./Stimuli/SelectedImages/LN/LN150.bmp","83","","","","test","true","N + M","83","switch","LN","LN150.bmp","remember","","86","3","prime1","left","","","",""
"html-keyboard-response","231","631644","0.0-4.0-1.0-3.37","u1dc8449d1damrm","prime","5ee3e4110f27710c4dac8a3a","5f60e3c0a3b16e07647b2ff9","5f61dbffbafcd318bec5a133","false","null","<div style=""align-items: center; display: flex; color: dodgerblue; font-size: 90px""><b>o</b></div>","null","","","","forget_cue","","","","","","","","","","","","","","","",""
"html-keyboard-response","232","632347","0.0-4.0-1.0-0.38","u1dc8449d1damrm","prime","5ee3e4110f27710c4dac8a3a","5f60e3c0a3b16e07647b2ff9","5f61dbffbafcd318bec5a133","false","null","<span style=""color: black; font-size: 48px"">M + N</span>","null","","","","resp_prompt","","","","","","","","","","","","","","","",""
"categorize-image","233","632938","0.0-4.0-1.0-1.38","u1dc8449d1damrm","prime","5ee3e4110f27710c4dac8a3a","5f60e3c0a3b16e07647b2ff9","5f61dbffbafcd318bec5a133","true","584.8849999892991","./Stimuli/SelectedImages/LM/LM59.bmp","83","","","","test","true","M + N","83","switch","LM","LM59.bmp","remember","","87","3","prime1","left","","","",""
"html-keyboard-response","234","634941","0.0-4.0-1.0-3.38","u1dc8449d1damrm","prime","5ee3e4110f27710c4dac8a3a","5f60e3c0a3b16e07647b2ff9","5f61dbffbafcd318bec5a133","false","null","<div style=""align-items: center; display: flex; color: dodgerblue; font-size: 90px""><b>o</b></div>","null","","","","forget_cue","","","","","","","","","","","","","","","",""
"html-keyboard-response","235","635643","0.0-4.0-1.0-0.39","u1dc8449d1damrm","prime","5ee3e4110f27710c4dac8a3a","5f60e3c0a3b16e07647b2ff9","5f61dbffbafcd318bec5a133","false","null","<span style=""color: black; font-size: 48px"">M + N</span>","null","","","","resp_prompt","","","","","","","","","","","","","","","",""
"categorize-image","236","636336","0.0-4.0-1.0-1.39","u1dc8449d1damrm","prime","5ee3e4110f27710c4dac8a3a","5f60e3c0a3b16e07647b2ff9","5f61dbffbafcd318bec5a133","true","686.7400000046473","./Stimuli/SelectedImages/LM/LM157.bmp","83","","","","test","true","M + N","83","repetition","LM","LM157.bmp","remember","","88","3","prime1","left","","","",""
"html-keyboard-response","237","638340","0.0-4.0-1.0-3.39","u1dc8449d1damrm","prime","5ee3e4110f27710c4dac8a3a","5f60e3c0a3b16e07647b2ff9","5f61dbffbafcd318bec5a133","false","null","<div style=""align-items: center; display: flex; color: dodgerblue; font-size: 90px""><b>o</b></div>","null","","","","forget_cue","","","","","","","","","","","","","","","",""
"html-keyboard-response","238","639045","0.0-4.0-1.0-0.40","u1dc8449d1damrm","prime","5ee3e4110f27710c4dac8a3a","5f60e3c0a3b16e07647b2ff9","5f61dbffbafcd318bec5a133","false","null","<span style=""color: black; font-size: 48px"">N + M</span>","null","","","","resp_prompt","","","","","","","","","","","","","","","",""
"categorize-image","239","639949","0.0-4.0-1.0-1.40","u1dc8449d1damrm","prime","5ee3e4110f27710c4dac8a3a","5f60e3c0a3b16e07647b2ff9","5f61dbffbafcd318bec5a133","true","896.9299999880604","./Stimuli/SelectedImages/LN/LN166.bmp","83","","","","test","true","N + M","83","switch","LN","LN166.bmp","remember","","89","3","prime1","left","","","",""
"html-keyboard-response","240","641951","0.0-4.0-1.0-3.40","u1dc8449d1damrm","prime","5ee3e4110f27710c4dac8a3a","5f60e3c0a3b16e07647b2ff9","5f61dbffbafcd318bec5a133","false","null","<div style=""align-items: center; display: flex; color: dodgerblue; font-size: 90px""><b>o</b></div>","null","","","","forget_cue","","","","","","","","","","","","","","","",""
"html-keyboard-response","241","642654","0.0-4.0-1.0-0.41","u1dc8449d1damrm","prime","5ee3e4110f27710c4dac8a3a","5f60e3c0a3b16e07647b2ff9","5f61dbffbafcd318bec5a133","false","null","<span style=""color: black; font-size: 48px"">N + M</span>","null","","","","resp_prompt","","","","","","","","","","","","","","","",""
"categorize-image","242","644001","0.0-4.0-1.0-1.41","u1dc8449d1damrm","prime","5ee3e4110f27710c4dac8a3a","5f60e3c0a3b16e07647b2ff9","5f61dbffbafcd318bec5a133","true","1342.0099999930244","./Stimuli/SelectedImages/SM/SM74.bmp","76","","","","test","true","N + M","76","repetition","SM","SM74.bmp","remember","","90","3","prime1","right","","","",""
"html-keyboard-response","243","646004","0.0-4.0-1.0-3.41","u1dc8449d1damrm","prime","5ee3e4110f27710c4dac8a3a","5f60e3c0a3b16e07647b2ff9","5f61dbffbafcd318bec5a133","false","null","<div style=""align-items: center; display: flex; color: dodgerblue; font-size: 90px""><b>o</b></div>","null","","","","forget_cue","","","","","","","","","","","","","","","",""
"html-keyboard-response","244","646707","0.0-4.0-1.0-0.42","u1dc8449d1damrm","prime","5ee3e4110f27710c4dac8a3a","5f60e3c0a3b16e07647b2ff9","5f61dbffbafcd318bec5a133","false","null","<span style=""color: black; font-size: 48px"">M + N</span>","null","","","","resp_prompt","","","","","","","","","","","","","","","",""
"categorize-image","245","647680","0.0-4.0-1.0-1.42","u1dc8449d1damrm","prime","5ee3e4110f27710c4dac8a3a","5f60e3c0a3b16e07647b2ff9","5f61dbffbafcd318bec5a133","true","966.7800000170246","./Stimuli/SelectedImages/SM/SM76.bmp","83","","","","test","true","M + N","83","repetition","SM","SM76.bmp","forget","","91","3","prime1","left","","","",""
"html-keyboard-response","246","649683","0.0-4.0-1.0-3.42","u1dc8449d1damrm","prime","5ee3e4110f27710c4dac8a3a","5f60e3c0a3b16e07647b2ff9","5f61dbffbafcd318bec5a133","false","null","<div style=""align-items: center; display: flex; color: darkorange; font-size: 90px""><b>ø</b></div>","null","","","","forget_cue","","","","","","","","","","","","","","","",""
"html-keyboard-response","247","650384","0.0-4.0-1.0-0.43","u1dc8449d1damrm","prime","5ee3e4110f27710c4dac8a3a","5f60e3c0a3b16e07647b2ff9","5f61dbffbafcd318bec5a133","false","null","<span style=""color: black; font-size: 48px"">M + N</span>","null","","","","resp_prompt","","","","","","","","","","","","","","","",""
"categorize-image","248","651299","0.0-4.0-1.0-1.43","u1dc8449d1damrm","prime","5ee3e4110f27710c4dac8a3a","5f60e3c0a3b16e07647b2ff9","5f61dbffbafcd318bec5a133","true","907.7149999793619","./Stimuli/SelectedImages/SM/SM128.bmp","76","","","","test","false","M + N","83","switch","SM","SM128.bmp","forget","","92","3","prime1","right","","","",""
"html-keyboard-response","249","651802","0.0-4.0-1.0-2.43-0.43","u1dc8449d1damrm","prime","5ee3e4110f27710c4dac8a3a","5f60e3c0a3b16e07647b2ff9","5f61dbffbafcd318bec5a133","false","null","<span style=""color: red; font-size: 48px"">Error!</span>","null","","","","feedback","","","","","","","","","","","","","","","",""
"html-keyboard-response","250","653805","0.0-4.0-1.0-3.43","u1dc8449d1damrm","prime","5ee3e4110f27710c4dac8a3a","5f60e3c0a3b16e07647b2ff9","5f61dbffbafcd318bec5a133","false","null","<div style=""align-items: center; display: flex; color: darkorange; font-size: 90px""><b>ø</b></div>","null","","","","forget_cue","","","","","","","","","","","","","","","",""
"html-keyboard-response","251","654507","0.0-4.0-1.0-0.44","u1dc8449d1damrm","prime","5ee3e4110f27710c4dac8a3a","5f60e3c0a3b16e07647b2ff9","5f61dbffbafcd318bec5a133","false","null","<span style=""color: black; font-size: 48px"">M + N</span>","null","","","","resp_prompt","","","","","","","","","","","","","","","",""
"categorize-image","252","656082","0.0-4.0-1.0-1.44","u1dc8449d1damrm","prime","5ee3e4110f27710c4dac8a3a","5f60e3c0a3b16e07647b2ff9","5f61dbffbafcd318bec5a133","true","1567.6349999848753","./Stimuli/SelectedImages/SM/SM17.bmp","76","","","","test","false","M + N","83","repetition","SM","SM17.bmp","forget","","93","3","prime1","right","","","",""
