"trial_type","trial_index","time_elapsed","internal_node_id","subject","exp_part","prolific_PID","study_ID","session_ID","use","rt","stimulus","key_press","button_pressed","responses","question_order","trial_part","correct","resp_map","correct_resp","probe_condition","category","image","forget_condition","list","trial_num","block_num","block","response","test_part","n_span","sequence","num_spaces"
"pavlovia","0","4","0.0-0.0","hg9apls8gxq840f","","5f2ece203d736d27675d9496","5f60e3c0a3b16e07647b2ff9","5f646a6bdc404d1fec328c9a","false","","","","","","","","","","","","","","","","","","","","","","",""
"html-keyboard-response","1","58839","0.0-1.0-0.0-0.0","hg9apls8gxq840f","welcome","5f2ece203d736d27675d9496","5f60e3c0a3b16e07647b2ff9","5f646a6bdc404d1fec328c9a","false","58830.87000006344","<div align=left>Dear participant, <br> thank you for participating in an online study of the Cognition, Action, and Sustainability Unit of the University of Freiburg! <br> <br>The aim of this study is to examine our ability to remember previously learned information. <br>Our goal is to find out, whether our memory improves, when we only remember information that is relevant to us. <br>The experiment will take about 35 minutes to complete. <br> <br>Please, note that you can only participate in this study if you are using a device with a keyboard (PC, Laptop etc.) <br>and not if you are using a mobile device such as a tablet or smartphone.<br> <br>Press 'SPACE' to proceed to the experiment. </div>","32","","","","","","","","","","","","","","","","","","","",""
"html-keyboard-response","2","177013","0.0-1.0-0.0-1.0","hg9apls8gxq840f","welcome","5f2ece203d736d27675d9496","5f60e3c0a3b16e07647b2ff9","5f646a6bdc404d1fec328c9a","false","118168.51999994833","<div align=left><strong> Time Course of this experiment: </strong> <br><br> <strong> 1.</strong>  First, please fill in some information regarding your demographic data. <br><br> <strong> 2.</strong>  Next, your task will be to classify everyday objects. <br>In addition, you will be asked to remember certain objects and recall them later. <br>Working on these tasks requires your undivided attention and concentration.<br>It is therefore essential that you eliminate any sources of distraction in your  <br>environment and ensure that you will not be disturbed. <br><br><strong> 3.</strong>  At the end of the experiment, you will be asked to answer a few additional questions. <br> <br><strong> Important:</strong> After finishing the experiment, only close the browser window <br> by clicking on the 'end the experiment'-button when you are asked to do so. <br>Closing the browser window prematurely will make the allocation of your participation credit impossible. <br><br> Press 'SPACE' to start the experiment. </div>","32","","","","","","","","","","","","","","","","","","","",""
"html-button-response","3","187778","0.0-1.0-0.0-2.0","hg9apls8gxq840f","welcome","5f2ece203d736d27675d9496","5f60e3c0a3b16e07647b2ff9","5f646a6bdc404d1fec328c9a","true","10760.069999960251","<div align=left><strong> Informed consent </strong>  <br>The aim of our research is to better understand human behavior and mental processes. <br>In the following study your behavior (e.g. choices, reaction times) will be studied. <br> <br><strong> Voluntariness and Anonymity </strong> <br>Your participation in this study is  <strong> voluntary</strong>.<br>You may withdraw your consent to participate at any time without providing a reason for doing so and without fear of prejudice. <br><br>As no personal data will be collected, <strong>your data and your person cannot be connected after data collection</strong> – the data-set is anonymous. <br>Respectively, deletion of your data will not be possible after data collection has been completed, as we cannot retrace your data-set.<br>The results and anonymized data collected in this study will be published as a scientific publication. <br>This will happen in an <strong>anonymized format</strong>, so that no data can be traced back to a specific person. <br> <br>The anonymized data of this study will be made available to other researchers and/or in a data archive on the Internet as a means of transparency and to enable subsequent re-use. By doing so, this study follows the recommendations of the Deutsche Forschungsgemeinschaft (DFG, German Research Foundation) and Deutsche Gesellschaft für Psychologie (DGPS, German Psychological Society) regarding quality assurance in research.<br>If you have any questions now or after the experiment, please contact our team (experiments@cs.uni-freiburg.de).<br><br><br>I hereby declare, that I understand the above described conditions of participation and I agree to participate under these conditions. <br><br> </div>","","0","","","","","","","","","","","","","","","","","","",""
"html-keyboard-response","4","204822","0.0-1.0-0.0-3.0","hg9apls8gxq840f","welcome","5f2ece203d736d27675d9496","5f60e3c0a3b16e07647b2ff9","5f646a6bdc404d1fec328c9a","false","17042.59500000626","<div align=left><strong> General information concerning the experiment </strong>  <br> <br>Please follow the instructions:<ol> <li><strong> Do not leave this tab (your browser window) during the experiment and do not reload this tab! </strong>  <br>If you do switch tabs/windows during the experiment (to check your mail or visit another website, for example), <br>the experiment will end automatically and you will <strong>not receive credit</strong> for your participation. <br>Repeated participation or resumption of the experiment is impossible.</li> <br><li>Please close all other programs for the duration of your participation. </li> <br><li>Please mute or turn off your phone and put it out of your reach. </li> <br><li>Please also take off any disturbing accessories (such as wristwatches, bracelets, etc.). </li> <br><li>If you have music playing in the background, please turn it off now. </li> <br></ol>Thank you! <br>Press 'SPACE' to continue. </div>","32","","","","","","","","","","","","","","","","","","","",""
"survey-text","5","208451","0.0-1.0-1.0-0.0","hg9apls8gxq840f","demographics","5f2ece203d736d27675d9496","5f60e3c0a3b16e07647b2ff9","5f646a6bdc404d1fec328c9a","true","3619.5049999514595","","","","{""age"":""28""}","","","","","","","","","","","","","","","","","",""
"survey-multi-choice","6","238466","0.0-1.0-1.0-1.0","hg9apls8gxq840f","demographics","5f2ece203d736d27675d9496","5f60e3c0a3b16e07647b2ff9","5f646a6bdc404d1fec328c9a","true","30013.28499999363","","","","{""gender"":""female"",""school"":""high school"",""education"":""Completed university degree or equivalent""}","[0,1,2]","","","","","","","","","","","","","","","","",""
"html-keyboard-response","7","250534","0.0-1.0-2.0","hg9apls8gxq840f","instructions","5f2ece203d736d27675d9496","5f60e3c0a3b16e07647b2ff9","5f646a6bdc404d1fec328c9a","false","12061.879999935627","<div align=left> The experiment is now about to start: <br> <br>In the following part, you will be presented pictures of everyday objects. <br>Your first task is to <strong>classify these objects. </strong> <br> <br> You will classify them either as mechanical or non-mechanical objects. <br> <br>Objects that include any kind of technical mechanism (for example, wheels, switches, levers, <br> electronic components) fall under the category of <strong>mechanical</strong> objects. <br>Only objects without any kind of technical mechanism should be classified as <strong>non-mechanical</strong>. <br><br>Press 'SPACE' to continue. </div>","32","","","","","","","","","","","","","","","","","","","",""
"html-keyboard-response","8","308763","0.0-2.0-0.0","hg9apls8gxq840f","instructions","5f2ece203d736d27675d9496","5f60e3c0a3b16e07647b2ff9","5f646a6bdc404d1fec328c9a","false","58225.05500004627","<div align=justify>You will classify the objects using the <strong>'S'</strong> and the <strong>'L'</strong> keys on your keyboard.<br>For doing so, please place your <strong>left index finger</strong> on the <strong>'S'</strong> key and place your <strong>right index finger</strong> on the <strong>'L'</strong> key. <br><br> Each trial starts with an instruction, indicating which key ('S'/'L') you need to press to classify <br>the object as mechanical (letter M) or non-mechanical (letter N).<br>The instruction <strong>M + N</strong> indicates that, in the current trial, by pressing the left key ('S') you classify the displayed object as mechanical (M) <br> and by pressing the right key ('L') you classify the object as non-mechanical (N). <br>The instruction <strong>N + M</strong> on the other hand indicates that by pressing the left key ('S') you classify the displayed object as non-mechanical (N) <br> and by pressing the right key ('L') you classify the object as mechanical (M). <br><br>Please press the key corresponding to the correct classification as fast as possible as soon as the object is displayed and try to avoid making mistakes.<br>If you do not respond within a 2 second window, a corresponding feedback will be displayed and the next trial will start.<br> The experiment is divided into multiple blocks to give you the opportunity to take a break after each block. <br>First, you can now practice this task. <br><br>Please place your <strong>LEFT INDEX FINGER</strong> on the 'S' key and your <strong>RIGHT INDEX FINGER</strong> on the 'L' key now. <br><br>Press SPACE to continue.</div>","32","","","","","","","","","","","","","","","","","","","",""
"html-keyboard-response","9","320945","0.0-2.0-1.0","hg9apls8gxq840f","instructions","5f2ece203d736d27675d9496","5f60e3c0a3b16e07647b2ff9","5f646a6bdc404d1fec328c9a","false","12178.910000016913","<div align=left> You will now have time to practice this task.<br><br>Remember: <br> <br><li>Please place your index fingers on the <strong>'S'</strong> and <strong>'L'</strong> keys <br>to respond as fast and accurately as possible.</li><li>Every picture can be classified as either mechanical or non-mechanical.</li><li>If you do not respond in time or commit an error, you will receive a corresponding feedback. </li><li> Please try to respond as <strong> fast </strong> and as <strong> accurately as possible </strong> .<br><li>To ensure optimal results, please minimize distractions and stay focused. </li><br><br>Press SPACE to continue.</div>","32","","","","","","","","","","","","","","","","","","","",""
"html-keyboard-response","10","321649","0.0-2.0-2.0-0.0","hg9apls8gxq840f","practice_no_cue","5f2ece203d736d27675d9496","5f60e3c0a3b16e07647b2ff9","5f646a6bdc404d1fec328c9a","false","null","<span style=""color: black; font-size: 48px"">M + N</span>","null","","","","resp_prompt","","","","","","","","","","","","","","","",""
"categorize-image","11","323338","0.0-2.0-2.0-1.0","hg9apls8gxq840f","practice_no_cue","5f2ece203d736d27675d9496","5f60e3c0a3b16e07647b2ff9","5f646a6bdc404d1fec328c9a","true","1180.5399999720976","./Stimuli/ImagesPractice/LM230.jpg","83","","","","test","true","M + N","83","","LM","LM230.jpg","remember","old","1","1","start","left","","","",""
"html-keyboard-response","12","324042","0.0-2.0-2.0-0.1","hg9apls8gxq840f","practice_no_cue","5f2ece203d736d27675d9496","5f60e3c0a3b16e07647b2ff9","5f646a6bdc404d1fec328c9a","false","null","<span style=""color: black; font-size: 48px"">N + M</span>","null","","","","resp_prompt","","","","","","","","","","","","","","","",""
"categorize-image","13","325540","0.0-2.0-2.0-1.1","hg9apls8gxq840f","practice_no_cue","5f2ece203d736d27675d9496","5f60e3c0a3b16e07647b2ff9","5f646a6bdc404d1fec328c9a","true","995.0150001095608","./Stimuli/ImagesPractice/SM61.jpg","76","","","","test","true","N + M","76","","SM","SM61.jpg","forget","old","2","1","start","right","","","",""
"html-keyboard-response","14","326242","0.0-2.0-2.0-0.2","hg9apls8gxq840f","practice_no_cue","5f2ece203d736d27675d9496","5f60e3c0a3b16e07647b2ff9","5f646a6bdc404d1fec328c9a","false","null","<span style=""color: black; font-size: 48px"">N + M</span>","null","","","","resp_prompt","","","","","","","","","","","","","","","",""
"categorize-image","15","327546","0.0-2.0-2.0-1.2","hg9apls8gxq840f","practice_no_cue","5f2ece203d736d27675d9496","5f60e3c0a3b16e07647b2ff9","5f646a6bdc404d1fec328c9a","true","798.3849999727681","./Stimuli/ImagesPractice/SN222.jpg","83","","","","test","true","N + M","83","","SN","SN222.jpg","forget","old","3","1","start","left","","","",""
"html-keyboard-response","16","328249","0.0-2.0-2.0-0.3","hg9apls8gxq840f","practice_no_cue","5f2ece203d736d27675d9496","5f60e3c0a3b16e07647b2ff9","5f646a6bdc404d1fec328c9a","false","null","<span style=""color: black; font-size: 48px"">M + N</span>","null","","","","resp_prompt","","","","","","","","","","","","","","","",""
"categorize-image","17","329713","0.0-2.0-2.0-1.3","hg9apls8gxq840f","practice_no_cue","5f2ece203d736d27675d9496","5f60e3c0a3b16e07647b2ff9","5f646a6bdc404d1fec328c9a","true","959.0699999826029","./Stimuli/ImagesPractice/LM143.jpg","83","","","","test","true","M + N","83","","LM","LM143.jpg","forget","old","4","1","start","left","","","",""
"html-keyboard-response","18","330417","0.0-2.0-2.0-0.4","hg9apls8gxq840f","practice_no_cue","5f2ece203d736d27675d9496","5f60e3c0a3b16e07647b2ff9","5f646a6bdc404d1fec328c9a","false","null","<span style=""color: black; font-size: 48px"">N + M</span>","null","","","","resp_prompt","","","","","","","","","","","","","","","",""
"categorize-image","19","331683","0.0-2.0-2.0-1.4","hg9apls8gxq840f","practice_no_cue","5f2ece203d736d27675d9496","5f60e3c0a3b16e07647b2ff9","5f646a6bdc404d1fec328c9a","true","759.3049999559298","./Stimuli/ImagesPractice/LM55.jpg","76","","","","test","true","N + M","76","","LM","LM55.jpg","remember","old","5","1","start","right","","","",""
"html-keyboard-response","20","332386","0.0-2.0-2.0-0.5","hg9apls8gxq840f","practice_no_cue","5f2ece203d736d27675d9496","5f60e3c0a3b16e07647b2ff9","5f646a6bdc404d1fec328c9a","false","null","<span style=""color: black; font-size: 48px"">M + N</span>","null","","","","resp_prompt","","","","","","","","","","","","","","","",""
"categorize-image","21","333791","0.0-2.0-2.0-1.5","hg9apls8gxq840f","practice_no_cue","5f2ece203d736d27675d9496","5f60e3c0a3b16e07647b2ff9","5f646a6bdc404d1fec328c9a","true","898.3899999875575","./Stimuli/ImagesPractice/SN205.jpg","76","","","","test","true","M + N","76","","SN","SN205.jpg","remember","old","6","1","start","right","","","",""
"html-keyboard-response","22","334494","0.0-2.0-2.0-0.6","hg9apls8gxq840f","practice_no_cue","5f2ece203d736d27675d9496","5f60e3c0a3b16e07647b2ff9","5f646a6bdc404d1fec328c9a","false","null","<span style=""color: black; font-size: 48px"">N + M</span>","null","","","","resp_prompt","","","","","","","","","","","","","","","",""
"categorize-image","23","335787","0.0-2.0-2.0-1.6","hg9apls8gxq840f","practice_no_cue","5f2ece203d736d27675d9496","5f60e3c0a3b16e07647b2ff9","5f646a6bdc404d1fec328c9a","true","785.6750000501052","./Stimuli/ImagesPractice/SM37.jpg","83","","","","test","false","N + M","76","","SM","SM37.jpg","remember","old","7","1","start","left","","","",""
"html-keyboard-response","24","336491","0.0-2.0-2.0-0.7","hg9apls8gxq840f","practice_no_cue","5f2ece203d736d27675d9496","5f60e3c0a3b16e07647b2ff9","5f646a6bdc404d1fec328c9a","false","null","<span style=""color: black; font-size: 48px"">M + N</span>","null","","","","resp_prompt","","","","","","","","","","","","","","","",""
"categorize-image","25","338000","0.0-2.0-2.0-1.7","hg9apls8gxq840f","practice_no_cue","5f2ece203d736d27675d9496","5f60e3c0a3b16e07647b2ff9","5f646a6bdc404d1fec328c9a","true","1005.9200000250712","./Stimuli/ImagesPractice/SN221.jpg","76","","","","test","true","M + N","76","","SN","SN221.jpg","forget","old","8","1","start","right","","","",""
"html-keyboard-response","26","338703","0.0-2.0-2.0-0.8","hg9apls8gxq840f","practice_no_cue","5f2ece203d736d27675d9496","5f60e3c0a3b16e07647b2ff9","5f646a6bdc404d1fec328c9a","false","null","<span style=""color: black; font-size: 48px"">N + M</span>","null","","","","resp_prompt","","","","","","","","","","","","","","","",""
"categorize-image","27","339754","0.0-2.0-2.0-1.8","hg9apls8gxq840f","practice_no_cue","5f2ece203d736d27675d9496","5f60e3c0a3b16e07647b2ff9","5f646a6bdc404d1fec328c9a","true","546.1799999466166","./Stimuli/ImagesPractice/LN17.jpg","83","","","","test","true","N + M","83","","LN","LN17.jpg","forget","old","9","1","start","left","","","",""
"html-keyboard-response","28","340457","0.0-2.0-2.0-0.9","hg9apls8gxq840f","practice_no_cue","5f2ece203d736d27675d9496","5f60e3c0a3b16e07647b2ff9","5f646a6bdc404d1fec328c9a","false","null","<span style=""color: black; font-size: 48px"">N + M</span>","null","","","","resp_prompt","","","","","","","","","","","","","","","",""
"categorize-image","29","341472","0.0-2.0-2.0-1.9","hg9apls8gxq840f","practice_no_cue","5f2ece203d736d27675d9496","5f60e3c0a3b16e07647b2ff9","5f646a6bdc404d1fec328c9a","true","510.2300000144169","./Stimuli/ImagesPractice/SM97.jpg","76","","","","test","true","N + M","76","","SM","SM97.jpg","remember","old","10","1","start","right","","","",""
"html-keyboard-response","30","342177","0.0-2.0-2.0-0.10","hg9apls8gxq840f","practice_no_cue","5f2ece203d736d27675d9496","5f60e3c0a3b16e07647b2ff9","5f646a6bdc404d1fec328c9a","false","null","<span style=""color: black; font-size: 48px"">M + N</span>","null","","","","resp_prompt","","","","","","","","","","","","","","","",""
"categorize-image","31","343404","0.0-2.0-2.0-1.10","hg9apls8gxq840f","practice_no_cue","5f2ece203d736d27675d9496","5f60e3c0a3b16e07647b2ff9","5f646a6bdc404d1fec328c9a","true","720.5799999646842","./Stimuli/ImagesPractice/LN4.jpg","76","","","","test","true","M + N","76","","LN","LN4.jpg","remember","old","11","1","start","right","","","",""
"html-keyboard-response","32","344107","0.0-2.0-2.0-0.11","hg9apls8gxq840f","practice_no_cue","5f2ece203d736d27675d9496","5f60e3c0a3b16e07647b2ff9","5f646a6bdc404d1fec328c9a","false","null","<span style=""color: black; font-size: 48px"">M + N</span>","null","","","","resp_prompt","","","","","","","","","","","","","","","",""
"categorize-image","33","345394","0.0-2.0-2.0-1.11","hg9apls8gxq840f","practice_no_cue","5f2ece203d736d27675d9496","5f60e3c0a3b16e07647b2ff9","5f646a6bdc404d1fec328c9a","true","782.9299999866635","./Stimuli/ImagesPractice/SN76.jpg","76","","","","test","true","M + N","76","","SN","SN76.jpg","forget","old","12","1","start","right","","","",""
"html-keyboard-response","34","346098","0.0-2.0-2.0-0.12","hg9apls8gxq840f","practice_no_cue","5f2ece203d736d27675d9496","5f60e3c0a3b16e07647b2ff9","5f646a6bdc404d1fec328c9a","false","null","<span style=""color: black; font-size: 48px"">M + N</span>","null","","","","resp_prompt","","","","","","","","","","","","","","","",""
"categorize-image","35","347252","0.0-2.0-2.0-1.12","hg9apls8gxq840f","practice_no_cue","5f2ece203d736d27675d9496","5f60e3c0a3b16e07647b2ff9","5f646a6bdc404d1fec328c9a","true","649.1499999538064","./Stimuli/ImagesPractice/LM147.jpg","83","","","","test","true","M + N","83","","LM","LM147.jpg","remember","old","13","1","start","left","","","",""
"html-keyboard-response","36","347957","0.0-2.0-2.0-0.13","hg9apls8gxq840f","practice_no_cue","5f2ece203d736d27675d9496","5f60e3c0a3b16e07647b2ff9","5f646a6bdc404d1fec328c9a","false","null","<span style=""color: black; font-size: 48px"">M + N</span>","null","","","","resp_prompt","","","","","","","","","","","","","","","",""
"categorize-image","37","349179","0.0-2.0-2.0-1.13","hg9apls8gxq840f","practice_no_cue","5f2ece203d736d27675d9496","5f60e3c0a3b16e07647b2ff9","5f646a6bdc404d1fec328c9a","true","716.0200000507757","./Stimuli/ImagesPractice/SN220.jpg","76","","","","test","true","M + N","76","","SN","SN220.jpg","forget","old","14","1","start","right","","","",""
"html-keyboard-response","38","349883","0.0-2.0-2.0-0.14","hg9apls8gxq840f","practice_no_cue","5f2ece203d736d27675d9496","5f60e3c0a3b16e07647b2ff9","5f646a6bdc404d1fec328c9a","false","null","<span style=""color: black; font-size: 48px"">N + M</span>","null","","","","resp_prompt","","","","","","","","","","","","","","","",""
"categorize-image","39","351020","0.0-2.0-2.0-1.14","hg9apls8gxq840f","practice_no_cue","5f2ece203d736d27675d9496","5f60e3c0a3b16e07647b2ff9","5f646a6bdc404d1fec328c9a","true","631.275000050664","./Stimuli/ImagesPractice/LN72.jpg","83","","","","test","true","N + M","83","","LN","LN72.jpg","forget","old","15","1","start","left","","","",""
"html-keyboard-response","40","351724","0.0-2.0-2.0-0.15","hg9apls8gxq840f","practice_no_cue","5f2ece203d736d27675d9496","5f60e3c0a3b16e07647b2ff9","5f646a6bdc404d1fec328c9a","false","null","<span style=""color: black; font-size: 48px"">N + M</span>","null","","","","resp_prompt","","","","","","","","","","","","","","","",""
"categorize-image","41","353294","0.0-2.0-2.0-1.15","hg9apls8gxq840f","practice_no_cue","5f2ece203d736d27675d9496","5f60e3c0a3b16e07647b2ff9","5f646a6bdc404d1fec328c9a","true","1064.5149999763817","./Stimuli/ImagesPractice/LN2.jpg","83","","","","test","true","N + M","83","","LN","LN2.jpg","remember","old","16","1","start","left","","","",""
"html-keyboard-response","42","359071","0.0-2.0-3.0","hg9apls8gxq840f","break","5f2ece203d736d27675d9496","5f60e3c0a3b16e07647b2ff9","5f646a6bdc404d1fec328c9a","false","5771.285000024363","<p style='font-size: 32px;'>Break</><br><br><br><br><br><p style='font-size: 24px;'>In the last block, you committed 1 errors and did not respond in time on 0 trials.
</p><p style='font-size: 24px;'>Try to respond as fast and accurately as possible in the next block as well! </p><p style='font-size: 24px;'>Press SPACE to continue.</p>","32","","","","","","","","","","","","","","","","","","","",""
"html-keyboard-response","43","365442","0.0-2.0-4.0","hg9apls8gxq840f","instructions","5f2ece203d736d27675d9496","5f60e3c0a3b16e07647b2ff9","5f646a6bdc404d1fec328c9a","false","6366.299999994226","<div align=left> Great!<br><br>Are you ready to continue?<br><br>If you want to reread the instructions and redo the practice trials, <br>please press „Z“. <br><br>Press SPACE to CONTINUE with the experiment when you are ready. </div>","32","","","","","","","","","","","","","","","","","","","",""
"html-keyboard-response","44","404750","0.0-3.0-0.0","hg9apls8gxq840f","instructions","5f2ece203d736d27675d9496","5f60e3c0a3b16e07647b2ff9","5f646a6bdc404d1fec328c9a","false","39302.5749999797","<div align=left>Great!<br> <strong>Attention</strong>! You will now receive a second, additional task! <br><br>To this point it was you <strong>first task</strong> to correctly <strong>classify objects</strong>. <br><br>As mentioned in the beginning, we aim to examine how well humans can remember previously learned information.<br>We would like to find out whether our memory improves if we only remember information that is relevant to us. <br><br>Therefore, your <strong>second task</strong> will be to <strong>remember</strong> the pictures you are to categorize. <br> After the learning phase, there will be a memory test phase, in which you will be asked to indicate whether you have seen a picture before or not. <br>Some, but not all pictures shown in the learning phase will appear in the memory test phase.<br>After classifying a picture, you will be told whether you should remember it for the memory test phase or not. <br>Thus, some pictures can be forgotten, whereas others have to be remembered. <br><br>Note: From now on, feedback will only be displayed if you responded incorrectly or not in time.<br><br>Press SPACE to continue.</div>","32","","","","","","","","","","","","","","","","","","","",""
"html-keyboard-response","45","447404","0.0-3.0-1.0","hg9apls8gxq840f","instructions","5f2ece203d736d27675d9496","5f60e3c0a3b16e07647b2ff9","5f646a6bdc404d1fec328c9a","false","42652.10499998648","<div align=left>In the following part, you will thus have to remember only some pictures. <br>Immediately after seeing and classifying the picture, a symbol will be displayed, indicating whether you should remember or forget the previous picture. <br><br>A <span style='color: dodgerblue; font-size: 28px'>O</span> indicates REMEMBER. That means, you have to remember this picture, because it will be tested later. <br><br>A <span style='color: darkorange; font-size:28px'>Ø</span> indicates FORGET. You do not have to remember this picture. <br><br> As you will have to remember a lot of pictures, it will be hard for you to remember all of them. <br>It will put you at an advantage if you instantly forget the pictures you are not asked to remember. <br> This will make it easier for you to remember the pictures that will be tested afterwards. <br><br>Press SPACE to continue.</div>","32","","","","","","","","","","","","","","","","","","","",""
"html-keyboard-response","46","456595","0.0-3.0-2.0","hg9apls8gxq840f","instructions","5f2ece203d736d27675d9496","5f60e3c0a3b16e07647b2ff9","5f646a6bdc404d1fec328c9a","false","9188.39000002481","<div align=left> Now you have the chance to practice both tasks together.<br><br>Remember: <br> <br><li>Please place your index fingers on the <strong>'S'</strong> and <strong>'L'</strong> keys <br>to respond as fast and accurately as possible.</li><li>Every picture can be classified as either mechanical or non-mechanical.</li><li>If you do not respond in time or commit an error, you will receive a corresponding feedback. <br>Please try to respond as <strong> fast </strong> and as <strong> accurately as possible </strong>.</li><li> Please remember only the to-be-remembered <span style='color: dodgerblue; font-size: 28px'>O</span> pictures. <br></li><li> Please minimize distractions and stay focused. </li><br><br>Press SPACE to START</div>","32","","","","","","","","","","","","","","","","","","","",""
"html-keyboard-response","47","457299","0.0-3.0-3.0-0.0","hg9apls8gxq840f","practice_cue","5f2ece203d736d27675d9496","5f60e3c0a3b16e07647b2ff9","5f646a6bdc404d1fec328c9a","false","null","<span style=""color: black; font-size: 48px"">N + M</span>","null","","","","resp_prompt","","","","","","","","","","","","","","","",""
"categorize-image","48","457960","0.0-3.0-3.0-1.0","hg9apls8gxq840f","practice_cue","5f2ece203d736d27675d9496","5f60e3c0a3b16e07647b2ff9","5f646a6bdc404d1fec328c9a","true","651.380000053905","./Stimuli/ImagesPractice/SM97.jpg","83","","","","test","false","N + M","76","","SM","SM97.jpg","remember","old","17","2","practice_forget","left","","","",""
"html-keyboard-response","49","458465","0.0-3.0-3.0-2.0-0.0","hg9apls8gxq840f","practice_cue","5f2ece203d736d27675d9496","5f60e3c0a3b16e07647b2ff9","5f646a6bdc404d1fec328c9a","false","null","<span style=""color: red; font-size: 48px"">Error!</span>","null","","","","feedback","","","","","","","","","","","","","","","",""
"html-keyboard-response","50","460469","0.0-3.0-3.0-3.0","hg9apls8gxq840f","practice_cue","5f2ece203d736d27675d9496","5f60e3c0a3b16e07647b2ff9","5f646a6bdc404d1fec328c9a","false","null","<div style=""align-items: center; display: flex; color: dodgerblue; font-size: 90px""><b>o</b></div>","null","","","","forget_cue","","","","","","","","","","","","","","","",""
"html-keyboard-response","51","461172","0.0-3.0-3.0-0.1","hg9apls8gxq840f","practice_cue","5f2ece203d736d27675d9496","5f60e3c0a3b16e07647b2ff9","5f646a6bdc404d1fec328c9a","false","null","<span style=""color: black; font-size: 48px"">M + N</span>","null","","","","resp_prompt","","","","","","","","","","","","","","","",""
"categorize-image","52","461917","0.0-3.0-3.0-1.1","hg9apls8gxq840f","practice_cue","5f2ece203d736d27675d9496","5f60e3c0a3b16e07647b2ff9","5f646a6bdc404d1fec328c9a","true","735.759999952279","./Stimuli/ImagesPractice/LN4.jpg","76","","","","test","true","M + N","76","","LN","LN4.jpg","remember","old","18","2","practice_forget","right","","","",""
"html-keyboard-response","53","463922","0.0-3.0-3.0-3.1","hg9apls8gxq840f","practice_cue","5f2ece203d736d27675d9496","5f60e3c0a3b16e07647b2ff9","5f646a6bdc404d1fec328c9a","false","null","<div style=""align-items: center; display: flex; color: dodgerblue; font-size: 90px""><b>o</b></div>","null","","","","forget_cue","","","","","","","","","","","","","","","",""
"html-keyboard-response","54","464625","0.0-3.0-3.0-0.2","hg9apls8gxq840f","practice_cue","5f2ece203d736d27675d9496","5f60e3c0a3b16e07647b2ff9","5f646a6bdc404d1fec328c9a","false","null","<span style=""color: black; font-size: 48px"">M + N</span>","null","","","","resp_prompt","","","","","","","","","","","","","","","",""
"categorize-image","55","465225","0.0-3.0-3.0-1.2","hg9apls8gxq840f","practice_cue","5f2ece203d736d27675d9496","5f60e3c0a3b16e07647b2ff9","5f646a6bdc404d1fec328c9a","true","590.5300000449643","./Stimuli/ImagesPractice/SN76.jpg","76","","","","test","true","M + N","76","","SN","SN76.jpg","forget","old","19","2","practice_forget","right","","","",""
"html-keyboard-response","56","467229","0.0-3.0-3.0-3.2","hg9apls8gxq840f","practice_cue","5f2ece203d736d27675d9496","5f60e3c0a3b16e07647b2ff9","5f646a6bdc404d1fec328c9a","false","null","<div style=""align-items: center; display: flex; color: darkorange; font-size: 90px""><b>ø</b></div>","null","","","","forget_cue","","","","","","","","","","","","","","","",""
"html-keyboard-response","57","467932","0.0-3.0-3.0-0.3","hg9apls8gxq840f","practice_cue","5f2ece203d736d27675d9496","5f60e3c0a3b16e07647b2ff9","5f646a6bdc404d1fec328c9a","false","null","<span style=""color: black; font-size: 48px"">N + M</span>","null","","","","resp_prompt","","","","","","","","","","","","","","","",""
"categorize-image","58","468589","0.0-3.0-3.0-1.3","hg9apls8gxq840f","practice_cue","5f2ece203d736d27675d9496","5f60e3c0a3b16e07647b2ff9","5f646a6bdc404d1fec328c9a","true","645.4750000266358","./Stimuli/ImagesPractice/SM61.jpg","83","","","","test","false","N + M","76","","SM","SM61.jpg","forget","old","20","2","practice_forget","left","","","",""
"html-keyboard-response","59","469093","0.0-3.0-3.0-2.3-0.3","hg9apls8gxq840f","practice_cue","5f2ece203d736d27675d9496","5f60e3c0a3b16e07647b2ff9","5f646a6bdc404d1fec328c9a","false","null","<span style=""color: red; font-size: 48px"">Error!</span>","null","","","","feedback","","","","","","","","","","","","","","","",""
"html-keyboard-response","60","471096","0.0-3.0-3.0-3.3","hg9apls8gxq840f","practice_cue","5f2ece203d736d27675d9496","5f60e3c0a3b16e07647b2ff9","5f646a6bdc404d1fec328c9a","false","null","<div style=""align-items: center; display: flex; color: darkorange; font-size: 90px""><b>ø</b></div>","null","","","","forget_cue","","","","","","","","","","","","","","","",""
"html-keyboard-response","61","471801","0.0-3.0-3.0-0.4","hg9apls8gxq840f","practice_cue","5f2ece203d736d27675d9496","5f60e3c0a3b16e07647b2ff9","5f646a6bdc404d1fec328c9a","false","null","<span style=""color: black; font-size: 48px"">N + M</span>","null","","","","resp_prompt","","","","","","","","","","","","","","","",""
"categorize-image","62","472319","0.0-3.0-3.0-1.4","hg9apls8gxq840f","practice_cue","5f2ece203d736d27675d9496","5f60e3c0a3b16e07647b2ff9","5f646a6bdc404d1fec328c9a","true","507.79999990481883","./Stimuli/ImagesPractice/SN222.jpg","83","","","","test","true","N + M","83","","SN","SN222.jpg","forget","old","21","2","practice_forget","left","","","",""
"html-keyboard-response","63","474322","0.0-3.0-3.0-3.4","hg9apls8gxq840f","practice_cue","5f2ece203d736d27675d9496","5f60e3c0a3b16e07647b2ff9","5f646a6bdc404d1fec328c9a","false","null","<div style=""align-items: center; display: flex; color: darkorange; font-size: 90px""><b>ø</b></div>","null","","","","forget_cue","","","","","","","","","","","","","","","",""
"html-keyboard-response","64","475024","0.0-3.0-3.0-0.5","hg9apls8gxq840f","practice_cue","5f2ece203d736d27675d9496","5f60e3c0a3b16e07647b2ff9","5f646a6bdc404d1fec328c9a","false","null","<span style=""color: black; font-size: 48px"">N + M</span>","null","","","","resp_prompt","","","","","","","","","","","","","","","",""
"categorize-image","65","475822","0.0-3.0-3.0-1.5","hg9apls8gxq840f","practice_cue","5f2ece203d736d27675d9496","5f60e3c0a3b16e07647b2ff9","5f646a6bdc404d1fec328c9a","true","789.1550000058487","./Stimuli/ImagesPractice/LN17.jpg","83","","","","test","true","N + M","83","","LN","LN17.jpg","forget","old","22","2","practice_forget","left","","","",""
"html-keyboard-response","66","477825","0.0-3.0-3.0-3.5","hg9apls8gxq840f","practice_cue","5f2ece203d736d27675d9496","5f60e3c0a3b16e07647b2ff9","5f646a6bdc404d1fec328c9a","false","null","<div style=""align-items: center; display: flex; color: darkorange; font-size: 90px""><b>ø</b></div>","null","","","","forget_cue","","","","","","","","","","","","","","","",""
"html-keyboard-response","67","478529","0.0-3.0-3.0-0.6","hg9apls8gxq840f","practice_cue","5f2ece203d736d27675d9496","5f60e3c0a3b16e07647b2ff9","5f646a6bdc404d1fec328c9a","false","null","<span style=""color: black; font-size: 48px"">M + N</span>","null","","","","resp_prompt","","","","","","","","","","","","","","","",""
"categorize-image","68","479243","0.0-3.0-3.0-1.6","hg9apls8gxq840f","practice_cue","5f2ece203d736d27675d9496","5f60e3c0a3b16e07647b2ff9","5f646a6bdc404d1fec328c9a","true","705.7300000451505","./Stimuli/ImagesPractice/LM147.jpg","83","","","","test","true","M + N","83","","LM","LM147.jpg","remember","old","23","2","practice_forget","left","","","",""
"html-keyboard-response","69","481249","0.0-3.0-3.0-3.6","hg9apls8gxq840f","practice_cue","5f2ece203d736d27675d9496","5f60e3c0a3b16e07647b2ff9","5f646a6bdc404d1fec328c9a","false","null","<div style=""align-items: center; display: flex; color: dodgerblue; font-size: 90px""><b>o</b></div>","null","","","","forget_cue","","","","","","","","","","","","","","","",""
"html-keyboard-response","70","481954","0.0-3.0-3.0-0.7","hg9apls8gxq840f","practice_cue","5f2ece203d736d27675d9496","5f60e3c0a3b16e07647b2ff9","5f646a6bdc404d1fec328c9a","false","null","<span style=""color: black; font-size: 48px"">M + N</span>","null","","","","resp_prompt","","","","","","","","","","","","","","","",""
"categorize-image","71","482714","0.0-3.0-3.0-1.7","hg9apls8gxq840f","practice_cue","5f2ece203d736d27675d9496","5f60e3c0a3b16e07647b2ff9","5f646a6bdc404d1fec328c9a","true","750.4099999787286","./Stimuli/ImagesPractice/LM230.jpg","83","","","","test","true","M + N","83","","LM","LM230.jpg","remember","old","24","2","practice_forget","left","","","",""
"html-keyboard-response","72","484717","0.0-3.0-3.0-3.7","hg9apls8gxq840f","practice_cue","5f2ece203d736d27675d9496","5f60e3c0a3b16e07647b2ff9","5f646a6bdc404d1fec328c9a","false","null","<div style=""align-items: center; display: flex; color: dodgerblue; font-size: 90px""><b>o</b></div>","null","","","","forget_cue","","","","","","","","","","","","","","","",""
"html-keyboard-response","73","485420","0.0-3.0-3.0-0.8","hg9apls8gxq840f","practice_cue","5f2ece203d736d27675d9496","5f60e3c0a3b16e07647b2ff9","5f646a6bdc404d1fec328c9a","false","null","<span style=""color: black; font-size: 48px"">N + M</span>","null","","","","resp_prompt","","","","","","","","","","","","","","","",""
"categorize-image","74","486096","0.0-3.0-3.0-1.8","hg9apls8gxq840f","practice_cue","5f2ece203d736d27675d9496","5f60e3c0a3b16e07647b2ff9","5f646a6bdc404d1fec328c9a","true","666.0799999954179","./Stimuli/ImagesPractice/LM55.jpg","76","","","","test","true","N + M","76","","LM","LM55.jpg","remember","old","25","2","practice_forget","right","","","",""
"html-keyboard-response","75","488100","0.0-3.0-3.0-3.8","hg9apls8gxq840f","practice_cue","5f2ece203d736d27675d9496","5f60e3c0a3b16e07647b2ff9","5f646a6bdc404d1fec328c9a","false","null","<div style=""align-items: center; display: flex; color: dodgerblue; font-size: 90px""><b>o</b></div>","null","","","","forget_cue","","","","","","","","","","","","","","","",""
"html-keyboard-response","76","488803","0.0-3.0-3.0-0.9","hg9apls8gxq840f","practice_cue","5f2ece203d736d27675d9496","5f60e3c0a3b16e07647b2ff9","5f646a6bdc404d1fec328c9a","false","null","<span style=""color: black; font-size: 48px"">N + M</span>","null","","","","resp_prompt","","","","","","","","","","","","","","","",""
"categorize-image","77","489498","0.0-3.0-3.0-1.9","hg9apls8gxq840f","practice_cue","5f2ece203d736d27675d9496","5f60e3c0a3b16e07647b2ff9","5f646a6bdc404d1fec328c9a","true","685.1150000002235","./Stimuli/ImagesPractice/LN2.jpg","83","","","","test","true","N + M","83","","LN","LN2.jpg","remember","old","26","2","practice_forget","left","","","",""
"html-keyboard-response","78","491505","0.0-3.0-3.0-3.9","hg9apls8gxq840f","practice_cue","5f2ece203d736d27675d9496","5f60e3c0a3b16e07647b2ff9","5f646a6bdc404d1fec328c9a","false","null","<div style=""align-items: center; display: flex; color: dodgerblue; font-size: 90px""><b>o</b></div>","null","","","","forget_cue","","","","","","","","","","","","","","","",""
"html-keyboard-response","79","492209","0.0-3.0-3.0-0.10","hg9apls8gxq840f","practice_cue","5f2ece203d736d27675d9496","5f60e3c0a3b16e07647b2ff9","5f646a6bdc404d1fec328c9a","false","null","<span style=""color: black; font-size: 48px"">N + M</span>","null","","","","resp_prompt","","","","","","","","","","","","","","","",""
"categorize-image","80","493127","0.0-3.0-3.0-1.10","hg9apls8gxq840f","practice_cue","5f2ece203d736d27675d9496","5f60e3c0a3b16e07647b2ff9","5f646a6bdc404d1fec328c9a","true","909.4999999506399","./Stimuli/ImagesPractice/SM37.jpg","76","","","","test","true","N + M","76","","SM","SM37.jpg","remember","old","27","2","practice_forget","right","","","",""
"html-keyboard-response","81","495131","0.0-3.0-3.0-3.10","hg9apls8gxq840f","practice_cue","5f2ece203d736d27675d9496","5f60e3c0a3b16e07647b2ff9","5f646a6bdc404d1fec328c9a","false","null","<div style=""align-items: center; display: flex; color: dodgerblue; font-size: 90px""><b>o</b></div>","null","","","","forget_cue","","","","","","","","","","","","","","","",""
"html-keyboard-response","82","495834","0.0-3.0-3.0-0.11","hg9apls8gxq840f","practice_cue","5f2ece203d736d27675d9496","5f60e3c0a3b16e07647b2ff9","5f646a6bdc404d1fec328c9a","false","null","<span style=""color: black; font-size: 48px"">M + N</span>","null","","","","resp_prompt","","","","","","","","","","","","","","","",""
"categorize-image","83","496734","0.0-3.0-3.0-1.11","hg9apls8gxq840f","practice_cue","5f2ece203d736d27675d9496","5f60e3c0a3b16e07647b2ff9","5f646a6bdc404d1fec328c9a","true","892.2749999910593","./Stimuli/ImagesPractice/SN221.jpg","76","","","","test","true","M + N","76","","SN","SN221.jpg","forget","old","28","2","practice_forget","right","","","",""
"html-keyboard-response","84","498737","0.0-3.0-3.0-3.11","hg9apls8gxq840f","practice_cue","5f2ece203d736d27675d9496","5f60e3c0a3b16e07647b2ff9","5f646a6bdc404d1fec328c9a","false","null","<div style=""align-items: center; display: flex; color: darkorange; font-size: 90px""><b>ø</b></div>","null","","","","forget_cue","","","","","","","","","","","","","","","",""
"html-keyboard-response","85","499441","0.0-3.0-3.0-0.12","hg9apls8gxq840f","practice_cue","5f2ece203d736d27675d9496","5f60e3c0a3b16e07647b2ff9","5f646a6bdc404d1fec328c9a","false","null","<span style=""color: black; font-size: 48px"">M + N</span>","null","","","","resp_prompt","","","","","","","","","","","","","","","",""
"categorize-image","86","500205","0.0-3.0-3.0-1.12","hg9apls8gxq840f","practice_cue","5f2ece203d736d27675d9496","5f60e3c0a3b16e07647b2ff9","5f646a6bdc404d1fec328c9a","true","754.8700000625104","./Stimuli/ImagesPractice/SN220.jpg","76","","","","test","true","M + N","76","","SN","SN220.jpg","forget","old","29","2","practice_forget","right","","","",""
"html-keyboard-response","87","502209","0.0-3.0-3.0-3.12","hg9apls8gxq840f","practice_cue","5f2ece203d736d27675d9496","5f60e3c0a3b16e07647b2ff9","5f646a6bdc404d1fec328c9a","false","null","<div style=""align-items: center; display: flex; color: darkorange; font-size: 90px""><b>ø</b></div>","null","","","","forget_cue","","","","","","","","","","","","","","","",""
"html-keyboard-response","88","502913","0.0-3.0-3.0-0.13","hg9apls8gxq840f","practice_cue","5f2ece203d736d27675d9496","5f60e3c0a3b16e07647b2ff9","5f646a6bdc404d1fec328c9a","false","null","<span style=""color: black; font-size: 48px"">M + N</span>","null","","","","resp_prompt","","","","","","","","","","","","","","","",""
"categorize-image","89","503847","0.0-3.0-3.0-1.13","hg9apls8gxq840f","practice_cue","5f2ece203d736d27675d9496","5f60e3c0a3b16e07647b2ff9","5f646a6bdc404d1fec328c9a","true","926.7899999395013","./Stimuli/ImagesPractice/SN205.jpg","76","","","","test","true","M + N","76","","SN","SN205.jpg","remember","old","30","2","practice_forget","right","","","",""
"html-keyboard-response","90","505849","0.0-3.0-3.0-3.13","hg9apls8gxq840f","practice_cue","5f2ece203d736d27675d9496","5f60e3c0a3b16e07647b2ff9","5f646a6bdc404d1fec328c9a","false","null","<div style=""align-items: center; display: flex; color: dodgerblue; font-size: 90px""><b>o</b></div>","null","","","","forget_cue","","","","","","","","","","","","","","","",""
"html-keyboard-response","91","506553","0.0-3.0-3.0-0.14","hg9apls8gxq840f","practice_cue","5f2ece203d736d27675d9496","5f60e3c0a3b16e07647b2ff9","5f646a6bdc404d1fec328c9a","false","null","<span style=""color: black; font-size: 48px"">N + M</span>","null","","","","resp_prompt","","","","","","","","","","","","","","","",""
"categorize-image","92","507334","0.0-3.0-3.0-1.14","hg9apls8gxq840f","practice_cue","5f2ece203d736d27675d9496","5f60e3c0a3b16e07647b2ff9","5f646a6bdc404d1fec328c9a","true","772.5199999986216","./Stimuli/ImagesPractice/LN72.jpg","83","","","","test","true","N + M","83","","LN","LN72.jpg","forget","old","31","2","practice_forget","left","","","",""
"html-keyboard-response","93","509338","0.0-3.0-3.0-3.14","hg9apls8gxq840f","practice_cue","5f2ece203d736d27675d9496","5f60e3c0a3b16e07647b2ff9","5f646a6bdc404d1fec328c9a","false","null","<div style=""align-items: center; display: flex; color: darkorange; font-size: 90px""><b>ø</b></div>","null","","","","forget_cue","","","","","","","","","","","","","","","",""
"html-keyboard-response","94","510041","0.0-3.0-3.0-0.15","hg9apls8gxq840f","practice_cue","5f2ece203d736d27675d9496","5f60e3c0a3b16e07647b2ff9","5f646a6bdc404d1fec328c9a","false","null","<span style=""color: black; font-size: 48px"">M + N</span>","null","","","","resp_prompt","","","","","","","","","","","","","","","",""
"categorize-image","95","510806","0.0-3.0-3.0-1.15","hg9apls8gxq840f","practice_cue","5f2ece203d736d27675d9496","5f60e3c0a3b16e07647b2ff9","5f646a6bdc404d1fec328c9a","true","753.1150000868365","./Stimuli/ImagesPractice/LM143.jpg","83","","","","test","true","M + N","83","","LM","LM143.jpg","forget","old","32","2","practice_forget","left","","","",""
"html-keyboard-response","96","512810","0.0-3.0-3.0-3.15","hg9apls8gxq840f","practice_cue","5f2ece203d736d27675d9496","5f60e3c0a3b16e07647b2ff9","5f646a6bdc404d1fec328c9a","false","null","<div style=""align-items: center; display: flex; color: darkorange; font-size: 90px""><b>ø</b></div>","null","","","","forget_cue","","","","","","","","","","","","","","","",""
"html-keyboard-response","97","515533","0.0-3.0-4.0","hg9apls8gxq840f","break","5f2ece203d736d27675d9496","5f60e3c0a3b16e07647b2ff9","5f646a6bdc404d1fec328c9a","false","2719.455000013113","<p style='font-size: 32px;'>Break</><br><br><br><br><br><p style='font-size: 24px;'>In the last block, you committed 2 errors and did not respond in time on 0 trials.
</p><p style='font-size: 24px;'>Try to respond as fast and accurately as possible in the next block as well! </p><p style='font-size: 24px;'>Press SPACE to continue.</p>","32","","","","","","","","","","","","","","","","","","","",""
"html-keyboard-response","98","525095","0.0-3.0-5.0","hg9apls8gxq840f","instructions","5f2ece203d736d27675d9496","5f60e3c0a3b16e07647b2ff9","5f646a6bdc404d1fec328c9a","false","9558.554999995977","<div align=left> Now, to practice, we kindly ask you to remember as many of the to-be-remembered pictures<br>of the previous learning phase as possible.<br><br>The pictures you were instructed to remember were the pictures followed by a <span style='color: dodgerblue; font-size: 28px'>O</span>.<br><br>In this memory test phase, you will also see some new pictures.<br>It is your task to remember whether you were presented with this specific picture in this study so far or not.<br>If you recognize an object (you have already seen it in this study), it is an OLD object. <br>If you do not recognize an object (you have NOT seen it in this study), it is a NEW object. <br><strong> Attention</strong>: As already mentioned, <span style='color: darkorange; font-size:28px'>Ø</span>-pictures will <strong>never</strong> appear in this memory test (neither as new objects). <br><br>Press SPACE to continue. </div>","32","","","","","","","","","","","","","","","","","","","",""
"html-keyboard-response","99","562513","0.0-3.0-6.0","hg9apls8gxq840f","instructions","5f2ece203d736d27675d9496","5f60e3c0a3b16e07647b2ff9","5f646a6bdc404d1fec328c9a","false","37413.650000002235","<div align=left> M and N no longer will appear on the left/right of the fixation cross. <br>Instead there will be a note at the bottom of the left or right side  <br>indicating which key you should press for an old or new object:  <br> <br>Press the <strong>right</strong> key to classify an object as <strong>old</strong> and press the <strong>left</strong>, to classify an object as <strong>new</strong>.<br>Please classify the objects as new/old by again placing your index finger on the 'S' and 'L' keys <br>and press them accordingly.<br><br><strong>Old:</strong> This object has been presented before. <br><strong>New:</strong> This object has <strong>not</strong> been presented.<br><br>Now please put your right and left index fingers on the 'S' and 'L' keys of your keyboard. <br>Please respond as fast and as accurately as possible!<br><br>Press SPACE to continue. </div>","32","","","","","","","","","","","","","","","","","","","",""
"categorize-image","100","564461","0.0-3.0-7.0-0.0","hg9apls8gxq840f","practice_recog","5f2ece203d736d27675d9496","5f60e3c0a3b16e07647b2ff9","5f646a6bdc404d1fec328c9a","true","1437.4199999729171","./Stimuli/ImagesPractice/SN75.jpg","83","","","","test","false","","76","","SN","SN75.jpg","","new","33","3","practice_recog","left","","","",""
"categorize-image","101","567169","0.0-3.0-7.0-0.1","hg9apls8gxq840f","practice_recog","5f2ece203d736d27675d9496","5f60e3c0a3b16e07647b2ff9","5f646a6bdc404d1fec328c9a","true","2204.249999951571","./Stimuli/ImagesPractice/SN205.jpg","83","","","","test","true","","83","","SN","SN205.jpg","","old","34","3","practice_recog","left","","","",""
"categorize-image","102","568833","0.0-3.0-7.0-0.2","hg9apls8gxq840f","practice_recog","5f2ece203d736d27675d9496","5f60e3c0a3b16e07647b2ff9","5f646a6bdc404d1fec328c9a","true","1158.2349999807775","./Stimuli/ImagesPractice/SM98.jpg","76","","","","test","true","","76","","SM","SM98.jpg","","new","35","3","practice_recog","right","","","",""
"categorize-image","103","570537","0.0-3.0-7.0-0.3","hg9apls8gxq840f","practice_recog","5f2ece203d736d27675d9496","5f60e3c0a3b16e07647b2ff9","5f646a6bdc404d1fec328c9a","true","1196.6499999398366","./Stimuli/ImagesPractice/LM239.jpg","76","","","","test","true","","76","","LM","LM239.jpg","","new","36","3","practice_recog","right","","","",""
"categorize-image","104","571867","0.0-3.0-7.0-0.4","hg9apls8gxq840f","practice_recog","5f2ece203d736d27675d9496","5f60e3c0a3b16e07647b2ff9","5f646a6bdc404d1fec328c9a","true","822.2150000510737","./Stimuli/ImagesPractice/LN2.jpg","83","","","","test","true","","83","","LN","LN2.jpg","","old","37","3","practice_recog","left","","","",""
"categorize-image","105","573092","0.0-3.0-7.0-0.5","hg9apls8gxq840f","practice_recog","5f2ece203d736d27675d9496","5f60e3c0a3b16e07647b2ff9","5f646a6bdc404d1fec328c9a","true","717.6800000015646","./Stimuli/ImagesPractice/LM224.jpg","83","","","","test","false","","76","","LM","LM224.jpg","","new","38","3","practice_recog","left","","","",""
"categorize-image","106","574877","0.0-3.0-7.0-0.6","hg9apls8gxq840f","practice_recog","5f2ece203d736d27675d9496","5f60e3c0a3b16e07647b2ff9","5f646a6bdc404d1fec328c9a","true","1279.8649999313056","./Stimuli/ImagesPractice/LN109.jpg","76","","","","test","true","","76","","LN","LN109.jpg","","new","39","3","practice_recog","right","","","",""
"categorize-image","107","577495","0.0-3.0-7.0-0.7","hg9apls8gxq840f","practice_recog","5f2ece203d736d27675d9496","5f60e3c0a3b16e07647b2ff9","5f646a6bdc404d1fec328c9a","true","2110.3350000921637","./Stimuli/ImagesPractice/SM37.jpg","83","","","","test","true","","83","","SM","SM37.jpg","","old","40","3","practice_recog","left","","","",""
"categorize-image","108","579039","0.0-3.0-7.0-0.8","hg9apls8gxq840f","practice_recog","5f2ece203d736d27675d9496","5f60e3c0a3b16e07647b2ff9","5f646a6bdc404d1fec328c9a","true","1037.514999974519","./Stimuli/ImagesPractice/LM55.jpg","83","","","","test","true","","83","","LM","LM55.jpg","","old","41","3","practice_recog","left","","","",""
"categorize-image","109","580419","0.0-3.0-7.0-0.9","hg9apls8gxq840f","practice_recog","5f2ece203d736d27675d9496","5f60e3c0a3b16e07647b2ff9","5f646a6bdc404d1fec328c9a","true","873.4299999196082","./Stimuli/ImagesPractice/LM230.jpg","83","","","","test","true","","83","","LM","LM230.jpg","","old","42","3","practice_recog","left","","","",""
"categorize-image","110","581751","0.0-3.0-7.0-0.10","hg9apls8gxq840f","practice_recog","5f2ece203d736d27675d9496","5f60e3c0a3b16e07647b2ff9","5f646a6bdc404d1fec328c9a","true","827.0349999656901","./Stimuli/ImagesPractice/SM35.jpg","76","","","","test","true","","76","","SM","SM35.jpg","","new","43","3","practice_recog","right","","","",""
"categorize-image","111","582944","0.0-3.0-7.0-0.11","hg9apls8gxq840f","practice_recog","5f2ece203d736d27675d9496","5f60e3c0a3b16e07647b2ff9","5f646a6bdc404d1fec328c9a","true","686.9850000366569","./Stimuli/ImagesPractice/LN15.jpg","76","","","","test","true","","76","","LN","LN15.jpg","","new","44","3","practice_recog","right","","","",""
"categorize-image","112","584460","0.0-3.0-7.0-0.12","hg9apls8gxq840f","practice_recog","5f2ece203d736d27675d9496","5f60e3c0a3b16e07647b2ff9","5f646a6bdc404d1fec328c9a","true","1009.775000042282","./Stimuli/ImagesPractice/SM62.jpg","76","","","","test","true","","76","","SM","SM62.jpg","","new","45","3","practice_recog","right","","","",""
"categorize-image","113","585688","0.0-3.0-7.0-0.13","hg9apls8gxq840f","practice_recog","5f2ece203d736d27675d9496","5f60e3c0a3b16e07647b2ff9","5f646a6bdc404d1fec328c9a","true","721.5749999741092","./Stimuli/ImagesPractice/SM97.jpg","83","","","","test","true","","83","","SM","SM97.jpg","","old","46","3","practice_recog","left","","","",""
"categorize-image","114","586927","0.0-3.0-7.0-0.14","hg9apls8gxq840f","practice_recog","5f2ece203d736d27675d9496","5f60e3c0a3b16e07647b2ff9","5f646a6bdc404d1fec328c9a","true","734.0600000461563","./Stimuli/ImagesPractice/LM147.jpg","83","","","","test","true","","83","","LM","LM147.jpg","","old","47","3","practice_recog","left","","","",""
"categorize-image","115","588276","0.0-3.0-7.0-0.15","hg9apls8gxq840f","practice_recog","5f2ece203d736d27675d9496","5f60e3c0a3b16e07647b2ff9","5f646a6bdc404d1fec328c9a","true","842.4450000748038","./Stimuli/ImagesPractice/LN4.jpg","83","","","","test","true","","83","","LN","LN4.jpg","","old","48","3","practice_recog","left","","","",""
"html-keyboard-response","116","591100","0.0-3.0-8.0","hg9apls8gxq840f","instructions","5f2ece203d736d27675d9496","5f60e3c0a3b16e07647b2ff9","5f646a6bdc404d1fec328c9a","false","2819.865000084974","<div align=left> Great!<br><br>Are you ready to continue?<br>If you want to reread the instructions and redo the practice trials, please <br>press „Z“.<br><br>You can proceed when you are ready.<br><br>After the presentation of each object, you will receive an instruction whether to <br>remember or to forget the object.<br>We will test your memory of the following pictures only at the very end of <br>the experiment after all learning blocks are completed. <br><br>Press SPACE to CONTINUE when you are ready. </div>","32","","","","","","","","","","","","","","","","","","","",""
"html-keyboard-response","117","602661","0.0-4.0-0.0","hg9apls8gxq840f","instructions","5f2ece203d736d27675d9496","5f60e3c0a3b16e07647b2ff9","5f646a6bdc404d1fec328c9a","false","11556.979999993928","<div align=left> The actual experiment is about to start.<br>The practice trials are over!<br><br>Please always respond both fast and accurately!<br><br>Remember: <br> <br><li> Please place your index fingers on the <strong>'S'</strong> and <strong>'L'</strong> keys <br>to respond as fast and accurately as possible.</li><li> Every picture can be classified as either mechanical or non-mechanical.</li><li> If you do not respond in time or commit an error, you will receive a corresponding feedback.<br> Please try to respond as <strong> fast </strong> and as <strong> accurately as possible </strong>.</li><li> Remember the <span style='color: dodgerblue; font-size: 28px'>O</span> pictures. <br></li><li> Please minimize distractions and stay focused. </li><br><br>Press SPACE to START.</div>","32","","","","","","","","","","","","","","","","","","","",""
"html-keyboard-response","118","603364","0.0-4.0-1.0-0.0","hg9apls8gxq840f","prime","5f2ece203d736d27675d9496","5f60e3c0a3b16e07647b2ff9","5f646a6bdc404d1fec328c9a","false","null","<span style=""color: black; font-size: 48px"">N + M</span>","null","","","","resp_prompt","","","","","","","","","","","","","","","",""
"categorize-image","119","604130","0.0-4.0-1.0-1.0","hg9apls8gxq840f","prime","5f2ece203d736d27675d9496","5f60e3c0a3b16e07647b2ff9","5f646a6bdc404d1fec328c9a","true","757.2099999524653","./Stimuli/SelectedImages/LM/LM58.bmp","76","","","","test","true","N + M","76","repetition","LM","LM58.bmp","forget","","49","3","prime1","right","","","",""
"html-keyboard-response","120","606134","0.0-4.0-1.0-3.0","hg9apls8gxq840f","prime","5f2ece203d736d27675d9496","5f60e3c0a3b16e07647b2ff9","5f646a6bdc404d1fec328c9a","false","null","<div style=""align-items: center; display: flex; color: darkorange; font-size: 90px""><b>ø</b></div>","null","","","","forget_cue","","","","","","","","","","","","","","","",""
"html-keyboard-response","121","606836","0.0-4.0-1.0-0.1","hg9apls8gxq840f","prime","5f2ece203d736d27675d9496","5f60e3c0a3b16e07647b2ff9","5f646a6bdc404d1fec328c9a","false","null","<span style=""color: black; font-size: 48px"">N + M</span>","null","","","","resp_prompt","","","","","","","","","","","","","","","",""
"categorize-image","122","607683","0.0-4.0-1.0-1.1","hg9apls8gxq840f","prime","5f2ece203d736d27675d9496","5f60e3c0a3b16e07647b2ff9","5f646a6bdc404d1fec328c9a","true","835.7799999648705","./Stimuli/SelectedImages/LM/LM179.bmp","76","","","","test","true","N + M","76","repetition","LM","LM179.bmp","forget","","50","3","prime1","right","","","",""
"html-keyboard-response","123","609688","0.0-4.0-1.0-3.1","hg9apls8gxq840f","prime","5f2ece203d736d27675d9496","5f60e3c0a3b16e07647b2ff9","5f646a6bdc404d1fec328c9a","false","null","<div style=""align-items: center; display: flex; color: darkorange; font-size: 90px""><b>ø</b></div>","null","","","","forget_cue","","","","","","","","","","","","","","","",""
"html-keyboard-response","124","610391","0.0-4.0-1.0-0.2","hg9apls8gxq840f","prime","5f2ece203d736d27675d9496","5f60e3c0a3b16e07647b2ff9","5f646a6bdc404d1fec328c9a","false","null","<span style=""color: black; font-size: 48px"">M + N</span>","null","","","","resp_prompt","","","","","","","","","","","","","","","",""
"categorize-image","125","611385","0.0-4.0-1.0-1.2","hg9apls8gxq840f","prime","5f2ece203d736d27675d9496","5f60e3c0a3b16e07647b2ff9","5f646a6bdc404d1fec328c9a","true","985.0550000555813","./Stimuli/SelectedImages/LN/LN82.bmp","76","","","","test","true","M + N","76","repetition","LN","LN82.bmp","forget","","51","3","prime1","right","","","",""
"html-keyboard-response","126","613389","0.0-4.0-1.0-3.2","hg9apls8gxq840f","prime","5f2ece203d736d27675d9496","5f60e3c0a3b16e07647b2ff9","5f646a6bdc404d1fec328c9a","false","null","<div style=""align-items: center; display: flex; color: darkorange; font-size: 90px""><b>ø</b></div>","null","","","","forget_cue","","","","","","","","","","","","","","","",""
"html-keyboard-response","127","614092","0.0-4.0-1.0-0.3","hg9apls8gxq840f","prime","5f2ece203d736d27675d9496","5f60e3c0a3b16e07647b2ff9","5f646a6bdc404d1fec328c9a","false","null","<span style=""color: black; font-size: 48px"">M + N</span>","null","","","","resp_prompt","","","","","","","","","","","","","","","",""
"categorize-image","128","614710","0.0-4.0-1.0-1.3","hg9apls8gxq840f","prime","5f2ece203d736d27675d9496","5f60e3c0a3b16e07647b2ff9","5f646a6bdc404d1fec328c9a","true","611.2900000298396","./Stimuli/SelectedImages/LM/LM129.bmp","83","","","","test","true","M + N","83","switch","LM","LM129.bmp","remember","","52","3","prime1","left","","","",""
"html-keyboard-response","129","616714","0.0-4.0-1.0-3.3","hg9apls8gxq840f","prime","5f2ece203d736d27675d9496","5f60e3c0a3b16e07647b2ff9","5f646a6bdc404d1fec328c9a","false","null","<div style=""align-items: center; display: flex; color: dodgerblue; font-size: 90px""><b>o</b></div>","null","","","","forget_cue","","","","","","","","","","","","","","","",""
"html-keyboard-response","130","617418","0.0-4.0-1.0-0.4","hg9apls8gxq840f","prime","5f2ece203d736d27675d9496","5f60e3c0a3b16e07647b2ff9","5f646a6bdc404d1fec328c9a","false","null","<span style=""color: black; font-size: 48px"">M + N</span>","null","","","","resp_prompt","","","","","","","","","","","","","","","",""
"categorize-image","131","617988","0.0-4.0-1.0-1.4","hg9apls8gxq840f","prime","5f2ece203d736d27675d9496","5f60e3c0a3b16e07647b2ff9","5f646a6bdc404d1fec328c9a","true","560.1449999958277","./Stimuli/SelectedImages/SN/SN49.bmp","76","","","","test","true","M + N","76","repetition","SN","SN49.bmp","forget","","53","3","prime1","right","","","",""
"html-keyboard-response","132","619992","0.0-4.0-1.0-3.4","hg9apls8gxq840f","prime","5f2ece203d736d27675d9496","5f60e3c0a3b16e07647b2ff9","5f646a6bdc404d1fec328c9a","false","null","<div style=""align-items: center; display: flex; color: darkorange; font-size: 90px""><b>ø</b></div>","null","","","","forget_cue","","","","","","","","","","","","","","","",""
"html-keyboard-response","133","620695","0.0-4.0-1.0-0.5","hg9apls8gxq840f","prime","5f2ece203d736d27675d9496","5f60e3c0a3b16e07647b2ff9","5f646a6bdc404d1fec328c9a","false","null","<span style=""color: black; font-size: 48px"">N + M</span>","null","","","","resp_prompt","","","","","","","","","","","","","","","",""
"categorize-image","134","621325","0.0-4.0-1.0-1.5","hg9apls8gxq840f","prime","5f2ece203d736d27675d9496","5f60e3c0a3b16e07647b2ff9","5f646a6bdc404d1fec328c9a","true","623.6149999313056","./Stimuli/SelectedImages/SM/SM17.bmp","76","","","","test","true","N + M","76","switch","SM","SM17.bmp","forget","","54","3","prime1","right","","","",""
"html-keyboard-response","135","623327","0.0-4.0-1.0-3.5","hg9apls8gxq840f","prime","5f2ece203d736d27675d9496","5f60e3c0a3b16e07647b2ff9","5f646a6bdc404d1fec328c9a","false","null","<div style=""align-items: center; display: flex; color: darkorange; font-size: 90px""><b>ø</b></div>","null","","","","forget_cue","","","","","","","","","","","","","","","",""
"html-keyboard-response","136","624030","0.0-4.0-1.0-0.6","hg9apls8gxq840f","prime","5f2ece203d736d27675d9496","5f60e3c0a3b16e07647b2ff9","5f646a6bdc404d1fec328c9a","false","null","<span style=""color: black; font-size: 48px"">M + N</span>","null","","","","resp_prompt","","","","","","","","","","","","","","","",""
"categorize-image","137","624667","0.0-4.0-1.0-1.6","hg9apls8gxq840f","prime","5f2ece203d736d27675d9496","5f60e3c0a3b16e07647b2ff9","5f646a6bdc404d1fec328c9a","true","635.0300000049174","./Stimuli/SelectedImages/LM/LM157.bmp","83","","","","test","true","M + N","83","repetition","LM","LM157.bmp","forget","","55","3","prime1","left","","","",""
"html-keyboard-response","138","626670","0.0-4.0-1.0-3.6","hg9apls8gxq840f","prime","5f2ece203d736d27675d9496","5f60e3c0a3b16e07647b2ff9","5f646a6bdc404d1fec328c9a","false","null","<div style=""align-items: center; display: flex; color: darkorange; font-size: 90px""><b>ø</b></div>","null","","","","forget_cue","","","","","","","","","","","","","","","",""
"html-keyboard-response","139","627372","0.0-4.0-1.0-0.7","hg9apls8gxq840f","prime","5f2ece203d736d27675d9496","5f60e3c0a3b16e07647b2ff9","5f646a6bdc404d1fec328c9a","false","null","<span style=""color: black; font-size: 48px"">N + M</span>","null","","","","resp_prompt","","","","","","","","","","","","","","","",""
"categorize-image","140","627995","0.0-4.0-1.0-1.7","hg9apls8gxq840f","prime","5f2ece203d736d27675d9496","5f60e3c0a3b16e07647b2ff9","5f646a6bdc404d1fec328c9a","true","613.5549999307841","./Stimuli/SelectedImages/LN/LN166.bmp","83","","","","test","true","N + M","83","switch","LN","LN166.bmp","forget","","56","3","prime1","left","","","",""
"html-keyboard-response","141","629998","0.0-4.0-1.0-3.7","hg9apls8gxq840f","prime","5f2ece203d736d27675d9496","5f60e3c0a3b16e07647b2ff9","5f646a6bdc404d1fec328c9a","false","null","<div style=""align-items: center; display: flex; color: darkorange; font-size: 90px""><b>ø</b></div>","null","","","","forget_cue","","","","","","","","","","","","","","","",""
"html-keyboard-response","142","630702","0.0-4.0-1.0-0.8","hg9apls8gxq840f","prime","5f2ece203d736d27675d9496","5f60e3c0a3b16e07647b2ff9","5f646a6bdc404d1fec328c9a","false","null","<span style=""color: black; font-size: 48px"">M + N</span>","null","","","","resp_prompt","","","","","","","","","","","","","","","",""
"categorize-image","143","631392","0.0-4.0-1.0-1.8","hg9apls8gxq840f","prime","5f2ece203d736d27675d9496","5f60e3c0a3b16e07647b2ff9","5f646a6bdc404d1fec328c9a","true","681.0599999735132","./Stimuli/SelectedImages/SM/SM128.bmp","83","","","","test","true","M + N","83","repetition","SM","SM128.bmp","remember","","57","3","prime1","left","","","",""
"html-keyboard-response","144","633397","0.0-4.0-1.0-3.8","hg9apls8gxq840f","prime","5f2ece203d736d27675d9496","5f60e3c0a3b16e07647b2ff9","5f646a6bdc404d1fec328c9a","false","null","<div style=""align-items: center; display: flex; color: dodgerblue; font-size: 90px""><b>o</b></div>","null","","","","forget_cue","","","","","","","","","","","","","","","",""
"html-keyboard-response","145","634100","0.0-4.0-1.0-0.9","hg9apls8gxq840f","prime","5f2ece203d736d27675d9496","5f60e3c0a3b16e07647b2ff9","5f646a6bdc404d1fec328c9a","false","null","<span style=""color: black; font-size: 48px"">N + M</span>","null","","","","resp_prompt","","","","","","","","","","","","","","","",""
"categorize-image","146","634672","0.0-4.0-1.0-1.9","hg9apls8gxq840f","prime","5f2ece203d736d27675d9496","5f60e3c0a3b16e07647b2ff9","5f646a6bdc404d1fec328c9a","true","565.2700000209734","./Stimuli/SelectedImages/LN/LN12.bmp","83","","","","test","true","N + M","83","repetition","LN","LN12.bmp","forget","","58","3","prime1","left","","","",""
"html-keyboard-response","147","636674","0.0-4.0-1.0-3.9","hg9apls8gxq840f","prime","5f2ece203d736d27675d9496","5f60e3c0a3b16e07647b2ff9","5f646a6bdc404d1fec328c9a","false","null","<div style=""align-items: center; display: flex; color: darkorange; font-size: 90px""><b>ø</b></div>","null","","","","forget_cue","","","","","","","","","","","","","","","",""
"html-keyboard-response","148","637378","0.0-4.0-1.0-0.10","hg9apls8gxq840f","prime","5f2ece203d736d27675d9496","5f60e3c0a3b16e07647b2ff9","5f646a6bdc404d1fec328c9a","false","null","<span style=""color: black; font-size: 48px"">N + M</span>","null","","","","resp_prompt","","","","","","","","","","","","","","","",""
"categorize-image","149","637916","0.0-4.0-1.0-1.10","hg9apls8gxq840f","prime","5f2ece203d736d27675d9496","5f60e3c0a3b16e07647b2ff9","5f646a6bdc404d1fec328c9a","true","530.5149999912828","./Stimuli/SelectedImages/LN/LN101.bmp","83","","","","test","true","N + M","83","repetition","LN","LN101.bmp","forget","","59","3","prime1","left","","","",""
"html-keyboard-response","150","639919","0.0-4.0-1.0-3.10","hg9apls8gxq840f","prime","5f2ece203d736d27675d9496","5f60e3c0a3b16e07647b2ff9","5f646a6bdc404d1fec328c9a","false","null","<div style=""align-items: center; display: flex; color: darkorange; font-size: 90px""><b>ø</b></div>","null","","","","forget_cue","","","","","","","","","","","","","","","",""
"html-keyboard-response","151","640622","0.0-4.0-1.0-0.11","hg9apls8gxq840f","prime","5f2ece203d736d27675d9496","5f60e3c0a3b16e07647b2ff9","5f646a6bdc404d1fec328c9a","false","null","<span style=""color: black; font-size: 48px"">M + N</span>","null","","","","resp_prompt","","","","","","","","","","","","","","","",""
"categorize-image","152","641444","0.0-4.0-1.0-1.11","hg9apls8gxq840f","prime","5f2ece203d736d27675d9496","5f60e3c0a3b16e07647b2ff9","5f646a6bdc404d1fec328c9a","true","813.5849999962375","./Stimuli/SelectedImages/LN/LN9.bmp","76","","","","test","true","M + N","76","switch","LN","LN9.bmp","remember","","60","3","prime1","right","","","",""
"html-keyboard-response","153","643449","0.0-4.0-1.0-3.11","hg9apls8gxq840f","prime","5f2ece203d736d27675d9496","5f60e3c0a3b16e07647b2ff9","5f646a6bdc404d1fec328c9a","false","null","<div style=""align-items: center; display: flex; color: dodgerblue; font-size: 90px""><b>o</b></div>","null","","","","forget_cue","","","","","","","","","","","","","","","",""
"html-keyboard-response","154","644151","0.0-4.0-1.0-0.12","hg9apls8gxq840f","prime","5f2ece203d736d27675d9496","5f60e3c0a3b16e07647b2ff9","5f646a6bdc404d1fec328c9a","false","null","<span style=""color: black; font-size: 48px"">N + M</span>","null","","","","resp_prompt","","","","","","","","","","","","","","","",""
"categorize-image","155","644939","0.0-4.0-1.0-1.12","hg9apls8gxq840f","prime","5f2ece203d736d27675d9496","5f60e3c0a3b16e07647b2ff9","5f646a6bdc404d1fec328c9a","true","777.7299999725074","./Stimuli/SelectedImages/LN/LN150.bmp","83","","","","test","true","N + M","83","switch","LN","LN150.bmp","remember","","61","3","prime1","left","","","",""
"html-keyboard-response","156","646943","0.0-4.0-1.0-3.12","hg9apls8gxq840f","prime","5f2ece203d736d27675d9496","5f60e3c0a3b16e07647b2ff9","5f646a6bdc404d1fec328c9a","false","null","<div style=""align-items: center; display: flex; color: dodgerblue; font-size: 90px""><b>o</b></div>","null","","","","forget_cue","","","","","","","","","","","","","","","",""
"html-keyboard-response","157","647647","0.0-4.0-1.0-0.13","hg9apls8gxq840f","prime","5f2ece203d736d27675d9496","5f60e3c0a3b16e07647b2ff9","5f646a6bdc404d1fec328c9a","false","null","<span style=""color: black; font-size: 48px"">M + N</span>","null","","","","resp_prompt","","","","","","","","","","","","","","","",""
"categorize-image","158","648552","0.0-4.0-1.0-1.13","hg9apls8gxq840f","prime","5f2ece203d736d27675d9496","5f60e3c0a3b16e07647b2ff9","5f646a6bdc404d1fec328c9a","true","895.0900000054389","./Stimuli/SelectedImages/LM/LM150.bmp","83","","","","test","true","M + N","83","repetition","LM","LM150.bmp","remember","","62","3","prime1","left","","","",""
"html-keyboard-response","159","650562","0.0-4.0-1.0-3.13","hg9apls8gxq840f","prime","5f2ece203d736d27675d9496","5f60e3c0a3b16e07647b2ff9","5f646a6bdc404d1fec328c9a","false","null","<div style=""align-items: center; display: flex; color: dodgerblue; font-size: 90px""><b>o</b></div>","null","","","","forget_cue","","","","","","","","","","","","","","","",""
"html-keyboard-response","160","651264","0.0-4.0-1.0-0.14","hg9apls8gxq840f","prime","5f2ece203d736d27675d9496","5f60e3c0a3b16e07647b2ff9","5f646a6bdc404d1fec328c9a","false","null","<span style=""color: black; font-size: 48px"">N + M</span>","null","","","","resp_prompt","","","","","","","","","","","","","","","",""
"categorize-image","161","651972","0.0-4.0-1.0-1.14","hg9apls8gxq840f","prime","5f2ece203d736d27675d9496","5f60e3c0a3b16e07647b2ff9","5f646a6bdc404d1fec328c9a","true","696.3099999120459","./Stimuli/SelectedImages/LN/LN131.bmp","83","","","","test","true","N + M","83","repetition","LN","LN131.bmp","remember","","63","3","prime1","left","","","",""
"html-keyboard-response","162","653976","0.0-4.0-1.0-3.14","hg9apls8gxq840f","prime","5f2ece203d736d27675d9496","5f60e3c0a3b16e07647b2ff9","5f646a6bdc404d1fec328c9a","false","null","<div style=""align-items: center; display: flex; color: dodgerblue; font-size: 90px""><b>o</b></div>","null","","","","forget_cue","","","","","","","","","","","","","","","",""
"html-keyboard-response","163","654677","0.0-4.0-1.0-0.15","hg9apls8gxq840f","prime","5f2ece203d736d27675d9496","5f60e3c0a3b16e07647b2ff9","5f646a6bdc404d1fec328c9a","false","null","<span style=""color: black; font-size: 48px"">M + N</span>","null","","","","resp_prompt","","","","","","","","","","","","","","","",""
"categorize-image","164","655425","0.0-4.0-1.0-1.15","hg9apls8gxq840f","prime","5f2ece203d736d27675d9496","5f60e3c0a3b16e07647b2ff9","5f646a6bdc404d1fec328c9a","true","741.7600000044331","./Stimuli/SelectedImages/LN/LN28.bmp","76","","","","test","true","M + N","76","switch","LN","LN28.bmp","remember","","64","3","prime1","right","","","",""
"html-keyboard-response","165","657431","0.0-4.0-1.0-3.15","hg9apls8gxq840f","prime","5f2ece203d736d27675d9496","5f60e3c0a3b16e07647b2ff9","5f646a6bdc404d1fec328c9a","false","null","<div style=""align-items: center; display: flex; color: dodgerblue; font-size: 90px""><b>o</b></div>","null","","","","forget_cue","","","","","","","","","","","","","","","",""
"html-keyboard-response","166","658134","0.0-4.0-1.0-0.16","hg9apls8gxq840f","prime","5f2ece203d736d27675d9496","5f60e3c0a3b16e07647b2ff9","5f646a6bdc404d1fec328c9a","false","null","<span style=""color: black; font-size: 48px"">M + N</span>","null","","","","resp_prompt","","","","","","","","","","","","","","","",""
"categorize-image","167","658691","0.0-4.0-1.0-1.16","hg9apls8gxq840f","prime","5f2ece203d736d27675d9496","5f60e3c0a3b16e07647b2ff9","5f646a6bdc404d1fec328c9a","true","547.4999999860302","./Stimuli/SelectedImages/SN/SN182.bmp","76","","","","test","true","M + N","76","switch","SN","SN182.bmp","forget","","65","3","prime1","right","","","",""
"html-keyboard-response","168","660694","0.0-4.0-1.0-3.16","hg9apls8gxq840f","prime","5f2ece203d736d27675d9496","5f60e3c0a3b16e07647b2ff9","5f646a6bdc404d1fec328c9a","false","null","<div style=""align-items: center; display: flex; color: darkorange; font-size: 90px""><b>ø</b></div>","null","","","","forget_cue","","","","","","","","","","","","","","","",""
"html-keyboard-response","169","661399","0.0-4.0-1.0-0.17","hg9apls8gxq840f","prime","5f2ece203d736d27675d9496","5f60e3c0a3b16e07647b2ff9","5f646a6bdc404d1fec328c9a","false","null","<span style=""color: black; font-size: 48px"">M + N</span>","null","","","","resp_prompt","","","","","","","","","","","","","","","",""
"categorize-image","170","661967","0.0-4.0-1.0-1.17","hg9apls8gxq840f","prime","5f2ece203d736d27675d9496","5f60e3c0a3b16e07647b2ff9","5f646a6bdc404d1fec328c9a","true","557.0999999763444","./Stimuli/SelectedImages/SN/SN128.bmp","76","","","","test","true","M + N","76","repetition","SN","SN128.bmp","remember","","66","3","prime1","right","","","",""
"html-keyboard-response","171","663970","0.0-4.0-1.0-3.17","hg9apls8gxq840f","prime","5f2ece203d736d27675d9496","5f60e3c0a3b16e07647b2ff9","5f646a6bdc404d1fec328c9a","false","null","<div style=""align-items: center; display: flex; color: dodgerblue; font-size: 90px""><b>o</b></div>","null","","","","forget_cue","","","","","","","","","","","","","","","",""
"html-keyboard-response","172","664674","0.0-4.0-1.0-0.18","hg9apls8gxq840f","prime","5f2ece203d736d27675d9496","5f60e3c0a3b16e07647b2ff9","5f646a6bdc404d1fec328c9a","false","null","<span style=""color: black; font-size: 48px"">M + N</span>","null","","","","resp_prompt","","","","","","","","","","","","","","","",""
"categorize-image","173","665992","0.0-4.0-1.0-1.18","hg9apls8gxq840f","prime","5f2ece203d736d27675d9496","5f60e3c0a3b16e07647b2ff9","5f646a6bdc404d1fec328c9a","true","1309.5650000032037","./Stimuli/SelectedImages/LM/LM57.bmp","83","","","","test","true","M + N","83","switch","LM","LM57.bmp","remember","","67","3","prime1","left","","","",""
"html-keyboard-response","174","667997","0.0-4.0-1.0-3.18","hg9apls8gxq840f","prime","5f2ece203d736d27675d9496","5f60e3c0a3b16e07647b2ff9","5f646a6bdc404d1fec328c9a","false","null","<div style=""align-items: center; display: flex; color: dodgerblue; font-size: 90px""><b>o</b></div>","null","","","","forget_cue","","","","","","","","","","","","","","","",""
"html-keyboard-response","175","668699","0.0-4.0-1.0-0.19","hg9apls8gxq840f","prime","5f2ece203d736d27675d9496","5f60e3c0a3b16e07647b2ff9","5f646a6bdc404d1fec328c9a","false","null","<span style=""color: black; font-size: 48px"">M + N</span>","null","","","","resp_prompt","","","","","","","","","","","","","","","",""
"categorize-image","176","669486","0.0-4.0-1.0-1.19","hg9apls8gxq840f","prime","5f2ece203d736d27675d9496","5f60e3c0a3b16e07647b2ff9","5f646a6bdc404d1fec328c9a","true","778.1350000295788","./Stimuli/SelectedImages/SM/SM106.bmp","76","","","","test","false","M + N","83","switch","SM","SM106.bmp","remember","","68","3","prime1","right","","","",""
"html-keyboard-response","177","669990","0.0-4.0-1.0-2.19-0.19","hg9apls8gxq840f","prime","5f2ece203d736d27675d9496","5f60e3c0a3b16e07647b2ff9","5f646a6bdc404d1fec328c9a","false","null","<span style=""color: red; font-size: 48px"">Error!</span>","null","","","","feedback","","","","","","","","","","","","","","","",""
"html-keyboard-response","178","671993","0.0-4.0-1.0-3.19","hg9apls8gxq840f","prime","5f2ece203d736d27675d9496","5f60e3c0a3b16e07647b2ff9","5f646a6bdc404d1fec328c9a","false","null","<div style=""align-items: center; display: flex; color: dodgerblue; font-size: 90px""><b>o</b></div>","null","","","","forget_cue","","","","","","","","","","","","","","","",""
"html-keyboard-response","179","672696","0.0-4.0-1.0-0.20","hg9apls8gxq840f","prime","5f2ece203d736d27675d9496","5f60e3c0a3b16e07647b2ff9","5f646a6bdc404d1fec328c9a","false","null","<span style=""color: black; font-size: 48px"">N + M</span>","null","","","","resp_prompt","","","","","","","","","","","","","","","",""
"categorize-image","180","673293","0.0-4.0-1.0-1.20","hg9apls8gxq840f","prime","5f2ece203d736d27675d9496","5f60e3c0a3b16e07647b2ff9","5f646a6bdc404d1fec328c9a","true","589.9300000164658","./Stimuli/SelectedImages/SM/SM205.bmp","76","","","","test","true","N + M","76","switch","SM","SM205.bmp","remember","","69","3","prime1","right","","","",""
"html-keyboard-response","181","675297","0.0-4.0-1.0-3.20","hg9apls8gxq840f","prime","5f2ece203d736d27675d9496","5f60e3c0a3b16e07647b2ff9","5f646a6bdc404d1fec328c9a","false","null","<div style=""align-items: center; display: flex; color: dodgerblue; font-size: 90px""><b>o</b></div>","null","","","","forget_cue","","","","","","","","","","","","","","","",""
"html-keyboard-response","182","676000","0.0-4.0-1.0-0.21","hg9apls8gxq840f","prime","5f2ece203d736d27675d9496","5f60e3c0a3b16e07647b2ff9","5f646a6bdc404d1fec328c9a","false","null","<span style=""color: black; font-size: 48px"">N + M</span>","null","","","","resp_prompt","","","","","","","","","","","","","","","",""
"categorize-image","183","676520","0.0-4.0-1.0-1.21","hg9apls8gxq840f","prime","5f2ece203d736d27675d9496","5f60e3c0a3b16e07647b2ff9","5f646a6bdc404d1fec328c9a","true","510.2399999741465","./Stimuli/SelectedImages/SN/SN179.bmp","83","","","","test","true","N + M","83","repetition","SN","SN179.bmp","remember","","70","3","prime1","left","","","",""
"html-keyboard-response","184","678525","0.0-4.0-1.0-3.21","hg9apls8gxq840f","prime","5f2ece203d736d27675d9496","5f60e3c0a3b16e07647b2ff9","5f646a6bdc404d1fec328c9a","false","null","<div style=""align-items: center; display: flex; color: dodgerblue; font-size: 90px""><b>o</b></div>","null","","","","forget_cue","","","","","","","","","","","","","","","",""
"html-keyboard-response","185","679226","0.0-4.0-1.0-0.22","hg9apls8gxq840f","prime","5f2ece203d736d27675d9496","5f60e3c0a3b16e07647b2ff9","5f646a6bdc404d1fec328c9a","false","null","<span style=""color: black; font-size: 48px"">M + N</span>","null","","","","resp_prompt","","","","","","","","","","","","","","","",""
"categorize-image","186","680366","0.0-4.0-1.0-1.22","hg9apls8gxq840f","prime","5f2ece203d736d27675d9496","5f60e3c0a3b16e07647b2ff9","5f646a6bdc404d1fec328c9a","true","1130.3700000280514","./Stimuli/SelectedImages/LN/LN92.bmp","76","","","","test","true","M + N","76","repetition","LN","LN92.bmp","remember","","71","3","prime1","right","","","",""
"html-keyboard-response","187","682370","0.0-4.0-1.0-3.22","hg9apls8gxq840f","prime","5f2ece203d736d27675d9496","5f60e3c0a3b16e07647b2ff9","5f646a6bdc404d1fec328c9a","false","null","<div style=""align-items: center; display: flex; color: dodgerblue; font-size: 90px""><b>o</b></div>","null","","","","forget_cue","","","","","","","","","","","","","","","",""
"html-keyboard-response","188","683073","0.0-4.0-1.0-0.23","hg9apls8gxq840f","prime","5f2ece203d736d27675d9496","5f60e3c0a3b16e07647b2ff9","5f646a6bdc404d1fec328c9a","false","null","<span style=""color: black; font-size: 48px"">M + N</span>","null","","","","resp_prompt","","","","","","","","","","","","","","","",""
"categorize-image","189","683720","0.0-4.0-1.0-1.23","hg9apls8gxq840f","prime","5f2ece203d736d27675d9496","5f60e3c0a3b16e07647b2ff9","5f646a6bdc404d1fec328c9a","true","640.0500000454485","./Stimuli/SelectedImages/SM/SM24.bmp","83","","","","test","true","M + N","83","repetition","SM","SM24.bmp","forget","","72","3","prime1","left","","","",""
"html-keyboard-response","190","685722","0.0-4.0-1.0-3.23","hg9apls8gxq840f","prime","5f2ece203d736d27675d9496","5f60e3c0a3b16e07647b2ff9","5f646a6bdc404d1fec328c9a","false","null","<div style=""align-items: center; display: flex; color: darkorange; font-size: 90px""><b>ø</b></div>","null","","","","forget_cue","","","","","","","","","","","","","","","",""
"html-keyboard-response","191","686426","0.0-4.0-1.0-0.24","hg9apls8gxq840f","prime","5f2ece203d736d27675d9496","5f60e3c0a3b16e07647b2ff9","5f646a6bdc404d1fec328c9a","false","null","<span style=""color: black; font-size: 48px"">M + N</span>","null","","","","resp_prompt","","","","","","","","","","","","","","","",""
"categorize-image","192","687160","0.0-4.0-1.0-1.24","hg9apls8gxq840f","prime","5f2ece203d736d27675d9496","5f60e3c0a3b16e07647b2ff9","5f646a6bdc404d1fec328c9a","true","725.9750000666827","./Stimuli/SelectedImages/SM/SM73.bmp","83","","","","test","true","M + N","83","repetition","SM","SM73.bmp","remember","","73","3","prime1","left","","","",""
"html-keyboard-response","193","689163","0.0-4.0-1.0-3.24","hg9apls8gxq840f","prime","5f2ece203d736d27675d9496","5f60e3c0a3b16e07647b2ff9","5f646a6bdc404d1fec328c9a","false","null","<div style=""align-items: center; display: flex; color: dodgerblue; font-size: 90px""><b>o</b></div>","null","","","","forget_cue","","","","","","","","","","","","","","","",""
"html-keyboard-response","194","689867","0.0-4.0-1.0-0.25","hg9apls8gxq840f","prime","5f2ece203d736d27675d9496","5f60e3c0a3b16e07647b2ff9","5f646a6bdc404d1fec328c9a","false","null","<span style=""color: black; font-size: 48px"">M + N</span>","null","","","","resp_prompt","","","","","","","","","","","","","","","",""
"categorize-image","195","691161","0.0-4.0-1.0-1.25","hg9apls8gxq840f","prime","5f2ece203d736d27675d9496","5f60e3c0a3b16e07647b2ff9","5f646a6bdc404d1fec328c9a","true","1284.1199999675155","./Stimuli/SelectedImages/SM/SM108.bmp","83","","","","test","true","M + N","83","switch","SM","SM108.bmp","forget","","74","3","prime1","left","","","",""
"html-keyboard-response","196","693164","0.0-4.0-1.0-3.25","hg9apls8gxq840f","prime","5f2ece203d736d27675d9496","5f60e3c0a3b16e07647b2ff9","5f646a6bdc404d1fec328c9a","false","null","<div style=""align-items: center; display: flex; color: darkorange; font-size: 90px""><b>ø</b></div>","null","","","","forget_cue","","","","","","","","","","","","","","","",""
"html-keyboard-response","197","693868","0.0-4.0-1.0-0.26","hg9apls8gxq840f","prime","5f2ece203d736d27675d9496","5f60e3c0a3b16e07647b2ff9","5f646a6bdc404d1fec328c9a","false","null","<span style=""color: black; font-size: 48px"">M + N</span>","null","","","","resp_prompt","","","","","","","","","","","","","","","",""
"categorize-image","198","694599","0.0-4.0-1.0-1.26","hg9apls8gxq840f","prime","5f2ece203d736d27675d9496","5f60e3c0a3b16e07647b2ff9","5f646a6bdc404d1fec328c9a","true","722.9100000113249","./Stimuli/SelectedImages/LM/LM100.bmp","83","","","","test","true","M + N","83","repetition","LM","LM100.bmp","remember","","75","3","prime1","left","","","",""
"html-keyboard-response","199","696603","0.0-4.0-1.0-3.26","hg9apls8gxq840f","prime","5f2ece203d736d27675d9496","5f60e3c0a3b16e07647b2ff9","5f646a6bdc404d1fec328c9a","false","null","<div style=""align-items: center; display: flex; color: dodgerblue; font-size: 90px""><b>o</b></div>","null","","","","forget_cue","","","","","","","","","","","","","","","",""
"html-keyboard-response","200","697306","0.0-4.0-1.0-0.27","hg9apls8gxq840f","prime","5f2ece203d736d27675d9496","5f60e3c0a3b16e07647b2ff9","5f646a6bdc404d1fec328c9a","false","null","<span style=""color: black; font-size: 48px"">N + M</span>","null","","","","resp_prompt","","","","","","","","","","","","","","","",""
"categorize-image","201","698163","0.0-4.0-1.0-1.27","hg9apls8gxq840f","prime","5f2ece203d736d27675d9496","5f60e3c0a3b16e07647b2ff9","5f646a6bdc404d1fec328c9a","true","847.6250000530854","./Stimuli/SelectedImages/SN/SN52.bmp","76","","","","test","false","N + M","83","repetition","SN","SN52.bmp","remember","","76","3","prime1","right","","","",""
"html-keyboard-response","202","698668","0.0-4.0-1.0-2.27-0.27","hg9apls8gxq840f","prime","5f2ece203d736d27675d9496","5f60e3c0a3b16e07647b2ff9","5f646a6bdc404d1fec328c9a","false","null","<span style=""color: red; font-size: 48px"">Error!</span>","null","","","","feedback","","","","","","","","","","","","","","","",""
"html-keyboard-response","203","700671","0.0-4.0-1.0-3.27","hg9apls8gxq840f","prime","5f2ece203d736d27675d9496","5f60e3c0a3b16e07647b2ff9","5f646a6bdc404d1fec328c9a","false","null","<div style=""align-items: center; display: flex; color: dodgerblue; font-size: 90px""><b>o</b></div>","null","","","","forget_cue","","","","","","","","","","","","","","","",""
"html-keyboard-response","204","701375","0.0-4.0-1.0-0.28","hg9apls8gxq840f","prime","5f2ece203d736d27675d9496","5f60e3c0a3b16e07647b2ff9","5f646a6bdc404d1fec328c9a","false","null","<span style=""color: black; font-size: 48px"">M + N</span>","null","","","","resp_prompt","","","","","","","","","","","","","","","",""
"categorize-image","205","702178","0.0-4.0-1.0-1.28","hg9apls8gxq840f","prime","5f2ece203d736d27675d9496","5f60e3c0a3b16e07647b2ff9","5f646a6bdc404d1fec328c9a","true","797.3449999699369","./Stimuli/SelectedImages/SN/SN27.bmp","76","","","","test","true","M + N","76","switch","SN","SN27.bmp","forget","","77","3","prime1","right","","","",""
"html-keyboard-response","206","704180","0.0-4.0-1.0-3.28","hg9apls8gxq840f","prime","5f2ece203d736d27675d9496","5f60e3c0a3b16e07647b2ff9","5f646a6bdc404d1fec328c9a","false","null","<div style=""align-items: center; display: flex; color: darkorange; font-size: 90px""><b>ø</b></div>","null","","","","forget_cue","","","","","","","","","","","","","","","",""
"html-keyboard-response","207","704883","0.0-4.0-1.0-0.29","hg9apls8gxq840f","prime","5f2ece203d736d27675d9496","5f60e3c0a3b16e07647b2ff9","5f646a6bdc404d1fec328c9a","false","null","<span style=""color: black; font-size: 48px"">M + N</span>","null","","","","resp_prompt","","","","","","","","","","","","","","","",""
"categorize-image","208","705727","0.0-4.0-1.0-1.29","hg9apls8gxq840f","prime","5f2ece203d736d27675d9496","5f60e3c0a3b16e07647b2ff9","5f646a6bdc404d1fec328c9a","true","834.584999945946","./Stimuli/SelectedImages/SM/SM184.bmp","83","","","","test","true","M + N","83","switch","SM","SM184.bmp","remember","","78","3","prime1","left","","","",""
"html-keyboard-response","209","707732","0.0-4.0-1.0-3.29","hg9apls8gxq840f","prime","5f2ece203d736d27675d9496","5f60e3c0a3b16e07647b2ff9","5f646a6bdc404d1fec328c9a","false","null","<div style=""align-items: center; display: flex; color: dodgerblue; font-size: 90px""><b>o</b></div>","null","","","","forget_cue","","","","","","","","","","","","","","","",""
"html-keyboard-response","210","708436","0.0-4.0-1.0-0.30","hg9apls8gxq840f","prime","5f2ece203d736d27675d9496","5f60e3c0a3b16e07647b2ff9","5f646a6bdc404d1fec328c9a","false","null","<span style=""color: black; font-size: 48px"">N + M</span>","null","","","","resp_prompt","","","","","","","","","","","","","","","",""
"categorize-image","211","709640","0.0-4.0-1.0-1.30","hg9apls8gxq840f","prime","5f2ece203d736d27675d9496","5f60e3c0a3b16e07647b2ff9","5f646a6bdc404d1fec328c9a","true","1195.6899999640882","./Stimuli/SelectedImages/SM/SM148.bmp","76","","","","test","true","N + M","76","repetition","SM","SM148.bmp","forget","","79","3","prime1","right","","","",""
"html-keyboard-response","212","711644","0.0-4.0-1.0-3.30","hg9apls8gxq840f","prime","5f2ece203d736d27675d9496","5f60e3c0a3b16e07647b2ff9","5f646a6bdc404d1fec328c9a","false","null","<div style=""align-items: center; display: flex; color: darkorange; font-size: 90px""><b>ø</b></div>","null","","","","forget_cue","","","","","","","","","","","","","","","",""
"html-keyboard-response","213","712346","0.0-4.0-1.0-0.31","hg9apls8gxq840f","prime","5f2ece203d736d27675d9496","5f60e3c0a3b16e07647b2ff9","5f646a6bdc404d1fec328c9a","false","null","<span style=""color: black; font-size: 48px"">N + M</span>","null","","","","resp_prompt","","","","","","","","","","","","","","","",""
"categorize-image","214","713222","0.0-4.0-1.0-1.31","hg9apls8gxq840f","prime","5f2ece203d736d27675d9496","5f60e3c0a3b16e07647b2ff9","5f646a6bdc404d1fec328c9a","true","866.4049999788404","./Stimuli/SelectedImages/SN/SN155.bmp","83","","","","test","true","N + M","83","repetition","SN","SN155.bmp","forget","","80","3","prime1","left","","","",""
"html-keyboard-response","215","715226","0.0-4.0-1.0-3.31","hg9apls8gxq840f","prime","5f2ece203d736d27675d9496","5f60e3c0a3b16e07647b2ff9","5f646a6bdc404d1fec328c9a","false","null","<div style=""align-items: center; display: flex; color: darkorange; font-size: 90px""><b>ø</b></div>","null","","","","forget_cue","","","","","","","","","","","","","","","",""
"html-keyboard-response","216","715928","0.0-4.0-1.0-0.32","hg9apls8gxq840f","prime","5f2ece203d736d27675d9496","5f60e3c0a3b16e07647b2ff9","5f646a6bdc404d1fec328c9a","false","null","<span style=""color: black; font-size: 48px"">N + M</span>","null","","","","resp_prompt","","","","","","","","","","","","","","","",""
"categorize-image","217","717094","0.0-4.0-1.0-1.32","hg9apls8gxq840f","prime","5f2ece203d736d27675d9496","5f60e3c0a3b16e07647b2ff9","5f646a6bdc404d1fec328c9a","true","1155.0799999386072","./Stimuli/SelectedImages/LM/LM167.bmp","76","","","","test","true","N + M","76","switch","LM","LM167.bmp","forget","","81","3","prime1","right","","","",""
"html-keyboard-response","218","719098","0.0-4.0-1.0-3.32","hg9apls8gxq840f","prime","5f2ece203d736d27675d9496","5f60e3c0a3b16e07647b2ff9","5f646a6bdc404d1fec328c9a","false","null","<div style=""align-items: center; display: flex; color: darkorange; font-size: 90px""><b>ø</b></div>","null","","","","forget_cue","","","","","","","","","","","","","","","",""
"html-keyboard-response","219","719801","0.0-4.0-1.0-0.33","hg9apls8gxq840f","prime","5f2ece203d736d27675d9496","5f60e3c0a3b16e07647b2ff9","5f646a6bdc404d1fec328c9a","false","null","<span style=""color: black; font-size: 48px"">M + N</span>","null","","","","resp_prompt","","","","","","","","","","","","","","","",""
"categorize-image","220","721812","0.0-4.0-1.0-1.33","hg9apls8gxq840f","prime","5f2ece203d736d27675d9496","5f60e3c0a3b16e07647b2ff9","5f646a6bdc404d1fec328c9a","true","null","./Stimuli/SelectedImages/LN/LN13.bmp","null","","","","test","false","M + N","76","switch","LN","LN13.bmp","forget","","82","3","prime1","too_slow","","","",""
"html-keyboard-response","221","722314","0.0-4.0-1.0-2.33-0.33","hg9apls8gxq840f","prime","5f2ece203d736d27675d9496","5f60e3c0a3b16e07647b2ff9","5f646a6bdc404d1fec328c9a","false","null","<span style=""color: red; font-size: 48px"">Too slow!</span>","null","","","","feedback","","","","","","","","","","","","","","","",""
"html-keyboard-response","222","724317","0.0-4.0-1.0-3.33","hg9apls8gxq840f","prime","5f2ece203d736d27675d9496","5f60e3c0a3b16e07647b2ff9","5f646a6bdc404d1fec328c9a","false","null","<div style=""align-items: center; display: flex; color: darkorange; font-size: 90px""><b>ø</b></div>","null","","","","forget_cue","","","","","","","","","","","","","","","",""
"html-keyboard-response","223","725020","0.0-4.0-1.0-0.34","hg9apls8gxq840f","prime","5f2ece203d736d27675d9496","5f60e3c0a3b16e07647b2ff9","5f646a6bdc404d1fec328c9a","false","null","<span style=""color: black; font-size: 48px"">N + M</span>","null","","","","resp_prompt","","","","","","","","","","","","","","","",""
"categorize-image","224","725519","0.0-4.0-1.0-1.34","hg9apls8gxq840f","prime","5f2ece203d736d27675d9496","5f60e3c0a3b16e07647b2ff9","5f646a6bdc404d1fec328c9a","true","489.47999998927116","./Stimuli/SelectedImages/SN/SN60.bmp","83","","","","test","true","N + M","83","switch","SN","SN60.bmp","remember","","83","3","prime1","left","","","",""
"html-keyboard-response","225","727524","0.0-4.0-1.0-3.34","hg9apls8gxq840f","prime","5f2ece203d736d27675d9496","5f60e3c0a3b16e07647b2ff9","5f646a6bdc404d1fec328c9a","false","null","<div style=""align-items: center; display: flex; color: dodgerblue; font-size: 90px""><b>o</b></div>","null","","","","forget_cue","","","","","","","","","","","","","","","",""
"html-keyboard-response","226","728225","0.0-4.0-1.0-0.35","hg9apls8gxq840f","prime","5f2ece203d736d27675d9496","5f60e3c0a3b16e07647b2ff9","5f646a6bdc404d1fec328c9a","false","null","<span style=""color: black; font-size: 48px"">M + N</span>","null","","","","resp_prompt","","","","","","","","","","","","","","","",""
"categorize-image","227","729305","0.0-4.0-1.0-1.35","hg9apls8gxq840f","prime","5f2ece203d736d27675d9496","5f60e3c0a3b16e07647b2ff9","5f646a6bdc404d1fec328c9a","true","1071.4699999662116","./Stimuli/SelectedImages/SN/SN18.bmp","76","","","","test","true","M + N","76","switch","SN","SN18.bmp","remember","","84","3","prime1","right","","","",""
"html-keyboard-response","228","731309","0.0-4.0-1.0-3.35","hg9apls8gxq840f","prime","5f2ece203d736d27675d9496","5f60e3c0a3b16e07647b2ff9","5f646a6bdc404d1fec328c9a","false","null","<div style=""align-items: center; display: flex; color: dodgerblue; font-size: 90px""><b>o</b></div>","null","","","","forget_cue","","","","","","","","","","","","","","","",""
"html-keyboard-response","229","732012","0.0-4.0-1.0-0.36","hg9apls8gxq840f","prime","5f2ece203d736d27675d9496","5f60e3c0a3b16e07647b2ff9","5f646a6bdc404d1fec328c9a","false","null","<span style=""color: black; font-size: 48px"">N + M</span>","null","","","","resp_prompt","","","","","","","","","","","","","","","",""
"categorize-image","230","732764","0.0-4.0-1.0-1.36","hg9apls8gxq840f","prime","5f2ece203d736d27675d9496","5f60e3c0a3b16e07647b2ff9","5f646a6bdc404d1fec328c9a","true","743.2499999413267","./Stimuli/SelectedImages/SN/SN140.bmp","83","","","","test","true","N + M","83","switch","SN","SN140.bmp","remember","","85","3","prime1","left","","","",""
"html-keyboard-response","231","734766","0.0-4.0-1.0-3.36","hg9apls8gxq840f","prime","5f2ece203d736d27675d9496","5f60e3c0a3b16e07647b2ff9","5f646a6bdc404d1fec328c9a","false","null","<div style=""align-items: center; display: flex; color: dodgerblue; font-size: 90px""><b>o</b></div>","null","","","","forget_cue","","","","","","","","","","","","","","","",""
"html-keyboard-response","232","735471","0.0-4.0-1.0-0.37","hg9apls8gxq840f","prime","5f2ece203d736d27675d9496","5f60e3c0a3b16e07647b2ff9","5f646a6bdc404d1fec328c9a","false","null","<span style=""color: black; font-size: 48px"">N + M</span>","null","","","","resp_prompt","","","","","","","","","","","","","","","",""
"categorize-image","233","736101","0.0-4.0-1.0-1.37","hg9apls8gxq840f","prime","5f2ece203d736d27675d9496","5f60e3c0a3b16e07647b2ff9","5f646a6bdc404d1fec328c9a","true","620.7050000084564","./Stimuli/SelectedImages/SM/SM207.bmp","76","","","","test","true","N + M","76","repetition","SM","SM207.bmp","forget","","86","3","prime1","right","","","",""
"html-keyboard-response","234","738104","0.0-4.0-1.0-3.37","hg9apls8gxq840f","prime","5f2ece203d736d27675d9496","5f60e3c0a3b16e07647b2ff9","5f646a6bdc404d1fec328c9a","false","null","<div style=""align-items: center; display: flex; color: darkorange; font-size: 90px""><b>ø</b></div>","null","","","","forget_cue","","","","","","","","","","","","","","","",""
"html-keyboard-response","235","738807","0.0-4.0-1.0-0.38","hg9apls8gxq840f","prime","5f2ece203d736d27675d9496","5f60e3c0a3b16e07647b2ff9","5f646a6bdc404d1fec328c9a","false","null","<span style=""color: black; font-size: 48px"">M + N</span>","null","","","","resp_prompt","","","","","","","","","","","","","","","",""
"categorize-image","236","740009","0.0-4.0-1.0-1.38","hg9apls8gxq840f","prime","5f2ece203d736d27675d9496","5f60e3c0a3b16e07647b2ff9","5f646a6bdc404d1fec328c9a","true","1190.9349999623373","./Stimuli/SelectedImages/SN/SN187.bmp","76","","","","test","true","M + N","76","repetition","SN","SN187.bmp","forget","","87","3","prime1","right","","","",""
"html-keyboard-response","237","742013","0.0-4.0-1.0-3.38","hg9apls8gxq840f","prime","5f2ece203d736d27675d9496","5f60e3c0a3b16e07647b2ff9","5f646a6bdc404d1fec328c9a","false","null","<div style=""align-items: center; display: flex; color: darkorange; font-size: 90px""><b>ø</b></div>","null","","","","forget_cue","","","","","","","","","","","","","","","",""
"html-keyboard-response","238","742717","0.0-4.0-1.0-0.39","hg9apls8gxq840f","prime","5f2ece203d736d27675d9496","5f60e3c0a3b16e07647b2ff9","5f646a6bdc404d1fec328c9a","false","null","<span style=""color: black; font-size: 48px"">N + M</span>","null","","","","resp_prompt","","","","","","","","","","","","","","","",""
"categorize-image","239","743513","0.0-4.0-1.0-1.39","hg9apls8gxq840f","prime","5f2ece203d736d27675d9496","5f60e3c0a3b16e07647b2ff9","5f646a6bdc404d1fec328c9a","true","791.399999987334","./Stimuli/SelectedImages/SN/SN181.bmp","83","","","","test","true","N + M","83","switch","SN","SN181.bmp","forget","","88","3","prime1","left","","","",""
"html-keyboard-response","240","745515","0.0-4.0-1.0-3.39","hg9apls8gxq840f","prime","5f2ece203d736d27675d9496","5f60e3c0a3b16e07647b2ff9","5f646a6bdc404d1fec328c9a","false","null","<div style=""align-items: center; display: flex; color: darkorange; font-size: 90px""><b>ø</b></div>","null","","","","forget_cue","","","","","","","","","","","","","","","",""
"html-keyboard-response","241","746218","0.0-4.0-1.0-0.40","hg9apls8gxq840f","prime","5f2ece203d736d27675d9496","5f60e3c0a3b16e07647b2ff9","5f646a6bdc404d1fec328c9a","false","null","<span style=""color: black; font-size: 48px"">M + N</span>","null","","","","resp_prompt","","","","","","","","","","","","","","","",""
"categorize-image","242","746764","0.0-4.0-1.0-1.40","hg9apls8gxq840f","prime","5f2ece203d736d27675d9496","5f60e3c0a3b16e07647b2ff9","5f646a6bdc404d1fec328c9a","true","536.4849999314174","./Stimuli/SelectedImages/SM/SM76.bmp","83","","","","test","true","M + N","83","repetition","SM","SM76.bmp","forget","","89","3","prime1","left","","","",""
"html-keyboard-response","243","748769","0.0-4.0-1.0-3.40","hg9apls8gxq840f","prime","5f2ece203d736d27675d9496","5f60e3c0a3b16e07647b2ff9","5f646a6bdc404d1fec328c9a","false","null","<div style=""align-items: center; display: flex; color: darkorange; font-size: 90px""><b>ø</b></div>","null","","","","forget_cue","","","","","","","","","","","","","","","",""
"html-keyboard-response","244","749472","0.0-4.0-1.0-0.41","hg9apls8gxq840f","prime","5f2ece203d736d27675d9496","5f60e3c0a3b16e07647b2ff9","5f646a6bdc404d1fec328c9a","false","null","<span style=""color: black; font-size: 48px"">N + M</span>","null","","","","resp_prompt","","","","","","","","","","","","","","","",""
"categorize-image","245","750036","0.0-4.0-1.0-1.41","hg9apls8gxq840f","prime","5f2ece203d736d27675d9496","5f60e3c0a3b16e07647b2ff9","5f646a6bdc404d1fec328c9a","true","554.134999983944","./Stimuli/SelectedImages/LN/LN42.bmp","83","","","","test","true","N + M","83","switch","LN","LN42.bmp","forget","","90","3","prime1","left","","","",""
"html-keyboard-response","246","752040","0.0-4.0-1.0-3.41","hg9apls8gxq840f","prime","5f2ece203d736d27675d9496","5f60e3c0a3b16e07647b2ff9","5f646a6bdc404d1fec328c9a","false","null","<div style=""align-items: center; display: flex; color: darkorange; font-size: 90px""><b>ø</b></div>","null","","","","forget_cue","","","","","","","","","","","","","","","",""
"html-keyboard-response","247","752744","0.0-4.0-1.0-0.42","hg9apls8gxq840f","prime","5f2ece203d736d27675d9496","5f60e3c0a3b16e07647b2ff9","5f646a6bdc404d1fec328c9a","false","null","<span style=""color: black; font-size: 48px"">M + N</span>","null","","","","resp_prompt","","","","","","","","","","","","","","","",""
"categorize-image","248","753554","0.0-4.0-1.0-1.42","hg9apls8gxq840f","prime","5f2ece203d736d27675d9496","5f60e3c0a3b16e07647b2ff9","5f646a6bdc404d1fec328c9a","true","804.7100000549108","./Stimuli/SelectedImages/LN/LN128.bmp","76","","","","test","true","M + N","76","repetition","LN","LN128.bmp","remember","","91","3","prime1","right","","","",""
"html-keyboard-response","249","755557","0.0-4.0-1.0-3.42","hg9apls8gxq840f","prime","5f2ece203d736d27675d9496","5f60e3c0a3b16e07647b2ff9","5f646a6bdc404d1fec328c9a","false","null","<div style=""align-items: center; display: flex; color: dodgerblue; font-size: 90px""><b>o</b></div>","null","","","","forget_cue","","","","","","","","","","","","","","","",""
"html-keyboard-response","250","756260","0.0-4.0-1.0-0.43","hg9apls8gxq840f","prime","5f2ece203d736d27675d9496","5f60e3c0a3b16e07647b2ff9","5f646a6bdc404d1fec328c9a","false","null","<span style=""color: black; font-size: 48px"">N + M</span>","null","","","","resp_prompt","","","","","","","","","","","","","","","",""
"categorize-image","251","756956","0.0-4.0-1.0-1.43","hg9apls8gxq840f","prime","5f2ece203d736d27675d9496","5f60e3c0a3b16e07647b2ff9","5f646a6bdc404d1fec328c9a","true","686.0850000521168","./Stimuli/SelectedImages/LM/LM216.bmp","76","","","","test","true","N + M","76","repetition","LM","LM216.bmp","remember","","92","3","prime1","right","","","",""
"html-keyboard-response","252","758961","0.0-4.0-1.0-3.43","hg9apls8gxq840f","prime","5f2ece203d736d27675d9496","5f60e3c0a3b16e07647b2ff9","5f646a6bdc404d1fec328c9a","false","null","<div style=""align-items: center; display: flex; color: dodgerblue; font-size: 90px""><b>o</b></div>","null","","","","forget_cue","","","","","","","","","","","","","","","",""
