"trial_type","trial_index","time_elapsed","internal_node_id","subject","exp_part","prolific_PID","study_ID","session_ID","use","rt","stimulus","key_press","button_pressed","responses","question_order","trial_part","correct","resp_map","correct_resp","probe_condition","category","image","forget_condition","list","trial_num","block_num","block","response","test_part","n_span","sequence","num_spaces"
"pavlovia","0","4","0.0-0.0","4yuxk6fvkr5607n","","5c0e87f97804780001837efb","5f60e3c0a3b16e07647b2ff9","5f63802933bdbd070532a067","false","","","","","","","","","","","","","","","","","","","","","","",""
"html-keyboard-response","1","10760","0.0-1.0-0.0-0.0","4yuxk6fvkr5607n","welcome","5c0e87f97804780001837efb","5f60e3c0a3b16e07647b2ff9","5f63802933bdbd070532a067","false","10752.439999952912","<div align=left>Dear participant, <br> thank you for participating in an online study of the Cognition, Action, and Sustainability Unit of the University of Freiburg! <br> <br>The aim of this study is to examine our ability to remember previously learned information. <br>Our goal is to find out, whether our memory improves, when we only remember information that is relevant to us. <br>The experiment will take about 35 minutes to complete. <br> <br>Please, note that you can only participate in this study if you are using a device with a keyboard (PC, Laptop etc.) <br>and not if you are using a mobile device such as a tablet or smartphone.<br> <br>Press 'SPACE' to proceed to the experiment. </div>","32","","","","","","","","","","","","","","","","","","","",""
"html-keyboard-response","2","25434","0.0-1.0-0.0-1.0","4yuxk6fvkr5607n","welcome","5c0e87f97804780001837efb","5f60e3c0a3b16e07647b2ff9","5f63802933bdbd070532a067","false","14669.120000093244","<div align=left><strong> Time Course of this experiment: </strong> <br><br> <strong> 1.</strong>  First, please fill in some information regarding your demographic data. <br><br> <strong> 2.</strong>  Next, your task will be to classify everyday objects. <br>In addition, you will be asked to remember certain objects and recall them later. <br>Working on these tasks requires your undivided attention and concentration.<br>It is therefore essential that you eliminate any sources of distraction in your  <br>environment and ensure that you will not be disturbed. <br><br><strong> 3.</strong>  At the end of the experiment, you will be asked to answer a few additional questions. <br> <br><strong> Important:</strong> After finishing the experiment, only close the browser window <br> by clicking on the 'end the experiment'-button when you are asked to do so. <br>Closing the browser window prematurely will make the allocation of your participation credit impossible. <br><br> Press 'SPACE' to start the experiment. </div>","32","","","","","","","","","","","","","","","","","","","",""
"html-button-response","3","29876","0.0-1.0-0.0-2.0","4yuxk6fvkr5607n","welcome","5c0e87f97804780001837efb","5f60e3c0a3b16e07647b2ff9","5f63802933bdbd070532a067","true","4437.159999972209","<div align=left><strong> Informed consent </strong>  <br>The aim of our research is to better understand human behavior and mental processes. <br>In the following study your behavior (e.g. choices, reaction times) will be studied. <br> <br><strong> Voluntariness and Anonymity </strong> <br>Your participation in this study is  <strong> voluntary</strong>.<br>You may withdraw your consent to participate at any time without providing a reason for doing so and without fear of prejudice. <br><br>As no personal data will be collected, <strong>your data and your person cannot be connected after data collection</strong> – the data-set is anonymous. <br>Respectively, deletion of your data will not be possible after data collection has been completed, as we cannot retrace your data-set.<br>The results and anonymized data collected in this study will be published as a scientific publication. <br>This will happen in an <strong>anonymized format</strong>, so that no data can be traced back to a specific person. <br> <br>The anonymized data of this study will be made available to other researchers and/or in a data archive on the Internet as a means of transparency and to enable subsequent re-use. By doing so, this study follows the recommendations of the Deutsche Forschungsgemeinschaft (DFG, German Research Foundation) and Deutsche Gesellschaft für Psychologie (DGPS, German Psychological Society) regarding quality assurance in research.<br>If you have any questions now or after the experiment, please contact our team (experiments@cs.uni-freiburg.de).<br><br><br>I hereby declare, that I understand the above described conditions of participation and I agree to participate under these conditions. <br><br> </div>","","0","","","","","","","","","","","","","","","","","","",""
"html-keyboard-response","4","50893","0.0-1.0-0.0-3.0","4yuxk6fvkr5607n","welcome","5c0e87f97804780001837efb","5f60e3c0a3b16e07647b2ff9","5f63802933bdbd070532a067","false","21015.645000035875","<div align=left><strong> General information concerning the experiment </strong>  <br> <br>Please follow the instructions:<ol> <li><strong> Do not leave this tab (your browser window) during the experiment and do not reload this tab! </strong>  <br>If you do switch tabs/windows during the experiment (to check your mail or visit another website, for example), <br>the experiment will end automatically and you will <strong>not receive credit</strong> for your participation. <br>Repeated participation or resumption of the experiment is impossible.</li> <br><li>Please close all other programs for the duration of your participation. </li> <br><li>Please mute or turn off your phone and put it out of your reach. </li> <br><li>Please also take off any disturbing accessories (such as wristwatches, bracelets, etc.). </li> <br><li>If you have music playing in the background, please turn it off now. </li> <br></ol>Thank you! <br>Press 'SPACE' to continue. </div>","32","","","","","","","","","","","","","","","","","","","",""
"survey-text","5","56671","0.0-1.0-1.0-0.0","4yuxk6fvkr5607n","demographics","5c0e87f97804780001837efb","5f60e3c0a3b16e07647b2ff9","5f63802933bdbd070532a067","true","5764.910000027157","","","","{""age"":""30""}","","","","","","","","","","","","","","","","","",""
"survey-multi-choice","6","102000","0.0-1.0-1.0-1.0","4yuxk6fvkr5607n","demographics","5c0e87f97804780001837efb","5f60e3c0a3b16e07647b2ff9","5f63802933bdbd070532a067","true","45327.19999994151","","","","{""gender"":""female"",""school"":""high school"",""education"":""Completed university degree or equivalent""}","[0,1,2]","","","","","","","","","","","","","","","","",""
"html-keyboard-response","7","115687","0.0-1.0-2.0","4yuxk6fvkr5607n","instructions","5c0e87f97804780001837efb","5f60e3c0a3b16e07647b2ff9","5f63802933bdbd070532a067","false","13681.824999977835","<div align=left> The experiment is now about to start: <br> <br>In the following part, you will be presented pictures of everyday objects. <br>Your first task is to <strong>classify these objects. </strong> <br> <br> You will classify them either as mechanical or non-mechanical objects. <br> <br>Objects that include any kind of technical mechanism (for example, wheels, switches, levers, <br> electronic components) fall under the category of <strong>mechanical</strong> objects. <br>Only objects without any kind of technical mechanism should be classified as <strong>non-mechanical</strong>. <br><br>Press 'SPACE' to continue. </div>","32","","","","","","","","","","","","","","","","","","","",""
"html-keyboard-response","8","163003","0.0-2.0-0.0","4yuxk6fvkr5607n","instructions","5c0e87f97804780001837efb","5f60e3c0a3b16e07647b2ff9","5f63802933bdbd070532a067","false","47312.945000012405","<div align=justify>You will classify the objects using the <strong>'S'</strong> and the <strong>'L'</strong> keys on your keyboard.<br>For doing so, please place your <strong>left index finger</strong> on the <strong>'S'</strong> key and place your <strong>right index finger</strong> on the <strong>'L'</strong> key. <br><br> Each trial starts with an instruction, indicating which key ('S'/'L') you need to press to classify <br>the object as mechanical (letter M) or non-mechanical (letter N).<br>The instruction <strong>M + N</strong> indicates that, in the current trial, by pressing the left key ('S') you classify the displayed object as mechanical (M) <br> and by pressing the right key ('L') you classify the object as non-mechanical (N). <br>The instruction <strong>N + M</strong> on the other hand indicates that by pressing the left key ('S') you classify the displayed object as non-mechanical (N) <br> and by pressing the right key ('L') you classify the object as mechanical (M). <br><br>Please press the key corresponding to the correct classification as fast as possible as soon as the object is displayed and try to avoid making mistakes.<br>If you do not respond within a 2 second window, a corresponding feedback will be displayed and the next trial will start.<br> The experiment is divided into multiple blocks to give you the opportunity to take a break after each block. <br>First, you can now practice this task. <br><br>Please place your <strong>LEFT INDEX FINGER</strong> on the 'S' key and your <strong>RIGHT INDEX FINGER</strong> on the 'L' key now. <br><br>Press SPACE to continue.</div>","32","","","","","","","","","","","","","","","","","","","",""
"html-keyboard-response","9","173256","0.0-2.0-1.0","4yuxk6fvkr5607n","instructions","5c0e87f97804780001837efb","5f60e3c0a3b16e07647b2ff9","5f63802933bdbd070532a067","false","10250.024999957532","<div align=left> You will now have time to practice this task.<br><br>Remember: <br> <br><li>Please place your index fingers on the <strong>'S'</strong> and <strong>'L'</strong> keys <br>to respond as fast and accurately as possible.</li><li>Every picture can be classified as either mechanical or non-mechanical.</li><li>If you do not respond in time or commit an error, you will receive a corresponding feedback. </li><li> Please try to respond as <strong> fast </strong> and as <strong> accurately as possible </strong> .<br><li>To ensure optimal results, please minimize distractions and stay focused. </li><br><br>Press SPACE to continue.</div>","32","","","","","","","","","","","","","","","","","","","",""
"html-keyboard-response","10","173962","0.0-2.0-2.0-0.0","4yuxk6fvkr5607n","practice_no_cue","5c0e87f97804780001837efb","5f60e3c0a3b16e07647b2ff9","5f63802933bdbd070532a067","false","null","<span style=""color: black; font-size: 48px"">N + M</span>","null","","","","resp_prompt","","","","","","","","","","","","","","","",""
"categorize-image","11","176382","0.0-2.0-2.0-1.0","4yuxk6fvkr5607n","practice_no_cue","5c0e87f97804780001837efb","5f60e3c0a3b16e07647b2ff9","5f63802933bdbd070532a067","true","1912.8949999576434","./Stimuli/ImagesPractice/SN205.jpg","83","","","","test","true","N + M","83","","SN","SN205.jpg","forget","old","1","1","start","left","","","",""
"html-keyboard-response","12","177086","0.0-2.0-2.0-0.1","4yuxk6fvkr5607n","practice_no_cue","5c0e87f97804780001837efb","5f60e3c0a3b16e07647b2ff9","5f63802933bdbd070532a067","false","null","<span style=""color: black; font-size: 48px"">M + N</span>","null","","","","resp_prompt","","","","","","","","","","","","","","","",""
"categorize-image","13","179051","0.0-2.0-2.0-1.1","4yuxk6fvkr5607n","practice_no_cue","5c0e87f97804780001837efb","5f60e3c0a3b16e07647b2ff9","5f63802933bdbd070532a067","true","1459.915000014007","./Stimuli/ImagesPractice/LN4.jpg","76","","","","test","true","M + N","76","","LN","LN4.jpg","forget","old","2","1","start","right","","","",""
"html-keyboard-response","14","179754","0.0-2.0-2.0-0.2","4yuxk6fvkr5607n","practice_no_cue","5c0e87f97804780001837efb","5f60e3c0a3b16e07647b2ff9","5f63802933bdbd070532a067","false","null","<span style=""color: black; font-size: 48px"">M + N</span>","null","","","","resp_prompt","","","","","","","","","","","","","","","",""
"categorize-image","15","181558","0.0-2.0-2.0-1.2","4yuxk6fvkr5607n","practice_no_cue","5c0e87f97804780001837efb","5f60e3c0a3b16e07647b2ff9","5f63802933bdbd070532a067","true","1299.1799999726936","./Stimuli/ImagesPractice/SN220.jpg","76","","","","test","true","M + N","76","","SN","SN220.jpg","remember","old","3","1","start","right","","","",""
"html-keyboard-response","16","182260","0.0-2.0-2.0-0.3","4yuxk6fvkr5607n","practice_no_cue","5c0e87f97804780001837efb","5f60e3c0a3b16e07647b2ff9","5f63802933bdbd070532a067","false","null","<span style=""color: black; font-size: 48px"">M + N</span>","null","","","","resp_prompt","","","","","","","","","","","","","","","",""
"categorize-image","17","183680","0.0-2.0-2.0-1.3","4yuxk6fvkr5607n","practice_no_cue","5c0e87f97804780001837efb","5f60e3c0a3b16e07647b2ff9","5f63802933bdbd070532a067","true","915.1100000599399","./Stimuli/ImagesPractice/LM147.jpg","83","","","","test","true","M + N","83","","LM","LM147.jpg","forget","old","4","1","start","left","","","",""
"html-keyboard-response","18","184384","0.0-2.0-2.0-0.4","4yuxk6fvkr5607n","practice_no_cue","5c0e87f97804780001837efb","5f60e3c0a3b16e07647b2ff9","5f63802933bdbd070532a067","false","null","<span style=""color: black; font-size: 48px"">M + N</span>","null","","","","resp_prompt","","","","","","","","","","","","","","","",""
"categorize-image","19","185674","0.0-2.0-2.0-1.4","4yuxk6fvkr5607n","practice_no_cue","5c0e87f97804780001837efb","5f60e3c0a3b16e07647b2ff9","5f63802933bdbd070532a067","true","786.0450000735","./Stimuli/ImagesPractice/LM230.jpg","83","","","","test","true","M + N","83","","LM","LM230.jpg","remember","old","5","1","start","left","","","",""
"html-keyboard-response","20","186376","0.0-2.0-2.0-0.5","4yuxk6fvkr5607n","practice_no_cue","5c0e87f97804780001837efb","5f60e3c0a3b16e07647b2ff9","5f63802933bdbd070532a067","false","null","<span style=""color: black; font-size: 48px"">N + M</span>","null","","","","resp_prompt","","","","","","","","","","","","","","","",""
"categorize-image","21","188606","0.0-2.0-2.0-1.5","4yuxk6fvkr5607n","practice_no_cue","5c0e87f97804780001837efb","5f60e3c0a3b16e07647b2ff9","5f63802933bdbd070532a067","true","1724.7699999716133","./Stimuli/ImagesPractice/LM239.jpg","83","","","","test","false","N + M","76","","LM","LM239.jpg","remember","old","6","1","start","left","","","",""
"html-keyboard-response","22","189309","0.0-2.0-2.0-0.6","4yuxk6fvkr5607n","practice_no_cue","5c0e87f97804780001837efb","5f60e3c0a3b16e07647b2ff9","5f63802933bdbd070532a067","false","null","<span style=""color: black; font-size: 48px"">M + N</span>","null","","","","resp_prompt","","","","","","","","","","","","","","","",""
"categorize-image","23","191696","0.0-2.0-2.0-1.6","4yuxk6fvkr5607n","practice_no_cue","5c0e87f97804780001837efb","5f60e3c0a3b16e07647b2ff9","5f63802933bdbd070532a067","true","1881.7399999825284","./Stimuli/ImagesPractice/LN17.jpg","76","","","","test","true","M + N","76","","LN","LN17.jpg","forget","old","7","1","start","right","","","",""
"html-keyboard-response","24","192400","0.0-2.0-2.0-0.7","4yuxk6fvkr5607n","practice_no_cue","5c0e87f97804780001837efb","5f60e3c0a3b16e07647b2ff9","5f63802933bdbd070532a067","false","null","<span style=""color: black; font-size: 48px"">M + N</span>","null","","","","resp_prompt","","","","","","","","","","","","","","","",""
"categorize-image","25","194300","0.0-2.0-2.0-1.7","4yuxk6fvkr5607n","practice_no_cue","5c0e87f97804780001837efb","5f60e3c0a3b16e07647b2ff9","5f63802933bdbd070532a067","true","1395.8550000097603","./Stimuli/ImagesPractice/SN76.jpg","76","","","","test","true","M + N","76","","SN","SN76.jpg","remember","old","8","1","start","right","","","",""
"html-keyboard-response","26","195003","0.0-2.0-2.0-0.8","4yuxk6fvkr5607n","practice_no_cue","5c0e87f97804780001837efb","5f60e3c0a3b16e07647b2ff9","5f63802933bdbd070532a067","false","null","<span style=""color: black; font-size: 48px"">N + M</span>","null","","","","resp_prompt","","","","","","","","","","","","","","","",""
"categorize-image","27","197106","0.0-2.0-2.0-1.8","4yuxk6fvkr5607n","practice_no_cue","5c0e87f97804780001837efb","5f60e3c0a3b16e07647b2ff9","5f63802933bdbd070532a067","true","1597.6449999725446","./Stimuli/ImagesPractice/LM224.jpg","76","","","","test","true","N + M","76","","LM","LM224.jpg","forget","old","9","1","start","right","","","",""
"html-keyboard-response","28","197809","0.0-2.0-2.0-0.9","4yuxk6fvkr5607n","practice_no_cue","5c0e87f97804780001837efb","5f60e3c0a3b16e07647b2ff9","5f63802933bdbd070532a067","false","null","<span style=""color: black; font-size: 48px"">N + M</span>","null","","","","resp_prompt","","","","","","","","","","","","","","","",""
"categorize-image","29","199636","0.0-2.0-2.0-1.9","4yuxk6fvkr5607n","practice_no_cue","5c0e87f97804780001837efb","5f60e3c0a3b16e07647b2ff9","5f63802933bdbd070532a067","true","1321.6899998951703","./Stimuli/ImagesPractice/SM37.jpg","76","","","","test","true","N + M","76","","SM","SM37.jpg","remember","old","10","1","start","right","","","",""
"html-keyboard-response","30","200340","0.0-2.0-2.0-0.10","4yuxk6fvkr5607n","practice_no_cue","5c0e87f97804780001837efb","5f60e3c0a3b16e07647b2ff9","5f63802933bdbd070532a067","false","null","<span style=""color: black; font-size: 48px"">N + M</span>","null","","","","resp_prompt","","","","","","","","","","","","","","","",""
"categorize-image","31","202092","0.0-2.0-2.0-1.10","4yuxk6fvkr5607n","practice_no_cue","5c0e87f97804780001837efb","5f60e3c0a3b16e07647b2ff9","5f63802933bdbd070532a067","true","1248.0100000975654","./Stimuli/ImagesPractice/LN109.jpg","76","","","","test","false","N + M","83","","LN","LN109.jpg","remember","old","11","1","start","right","","","",""
"html-keyboard-response","32","202796","0.0-2.0-2.0-0.11","4yuxk6fvkr5607n","practice_no_cue","5c0e87f97804780001837efb","5f60e3c0a3b16e07647b2ff9","5f63802933bdbd070532a067","false","null","<span style=""color: black; font-size: 48px"">M + N</span>","null","","","","resp_prompt","","","","","","","","","","","","","","","",""
"categorize-image","33","204438","0.0-2.0-2.0-1.11","4yuxk6fvkr5607n","practice_no_cue","5c0e87f97804780001837efb","5f60e3c0a3b16e07647b2ff9","5f63802933bdbd070532a067","true","1137.5600000610575","./Stimuli/ImagesPractice/SM35.jpg","83","","","","test","true","M + N","83","","SM","SM35.jpg","remember","old","12","1","start","left","","","",""
"html-keyboard-response","34","205141","0.0-2.0-2.0-0.12","4yuxk6fvkr5607n","practice_no_cue","5c0e87f97804780001837efb","5f60e3c0a3b16e07647b2ff9","5f63802933bdbd070532a067","false","null","<span style=""color: black; font-size: 48px"">N + M</span>","null","","","","resp_prompt","","","","","","","","","","","","","","","",""
"categorize-image","35","207007","0.0-2.0-2.0-1.12","4yuxk6fvkr5607n","practice_no_cue","5c0e87f97804780001837efb","5f60e3c0a3b16e07647b2ff9","5f63802933bdbd070532a067","true","1362.1000000275671","./Stimuli/ImagesPractice/SM62.jpg","76","","","","test","true","N + M","76","","SM","SM62.jpg","forget","old","13","1","start","right","","","",""
"html-keyboard-response","36","207710","0.0-2.0-2.0-0.13","4yuxk6fvkr5607n","practice_no_cue","5c0e87f97804780001837efb","5f60e3c0a3b16e07647b2ff9","5f63802933bdbd070532a067","false","null","<span style=""color: black; font-size: 48px"">N + M</span>","null","","","","resp_prompt","","","","","","","","","","","","","","","",""
"categorize-image","37","209369","0.0-2.0-2.0-1.13","4yuxk6fvkr5607n","practice_no_cue","5c0e87f97804780001837efb","5f60e3c0a3b16e07647b2ff9","5f63802933bdbd070532a067","true","1152.6399999856949","./Stimuli/ImagesPractice/SN222.jpg","83","","","","test","true","N + M","83","","SN","SN222.jpg","remember","old","14","1","start","left","","","",""
"html-keyboard-response","38","210071","0.0-2.0-2.0-0.14","4yuxk6fvkr5607n","practice_no_cue","5c0e87f97804780001837efb","5f60e3c0a3b16e07647b2ff9","5f63802933bdbd070532a067","false","null","<span style=""color: black; font-size: 48px"">N + M</span>","null","","","","resp_prompt","","","","","","","","","","","","","","","",""
"categorize-image","39","211276","0.0-2.0-2.0-1.14","4yuxk6fvkr5607n","practice_no_cue","5c0e87f97804780001837efb","5f60e3c0a3b16e07647b2ff9","5f63802933bdbd070532a067","true","700.2100000390783","./Stimuli/ImagesPractice/SN221.jpg","83","","","","test","true","N + M","83","","SN","SN221.jpg","forget","old","15","1","start","left","","","",""
"html-keyboard-response","40","211978","0.0-2.0-2.0-0.15","4yuxk6fvkr5607n","practice_no_cue","5c0e87f97804780001837efb","5f60e3c0a3b16e07647b2ff9","5f63802933bdbd070532a067","false","null","<span style=""color: black; font-size: 48px"">M + N</span>","null","","","","resp_prompt","","","","","","","","","","","","","","","",""
"categorize-image","41","213990","0.0-2.0-2.0-1.15","4yuxk6fvkr5607n","practice_no_cue","5c0e87f97804780001837efb","5f60e3c0a3b16e07647b2ff9","5f63802933bdbd070532a067","true","1508.0849999794737","./Stimuli/ImagesPractice/SM98.jpg","83","","","","test","true","M + N","83","","SM","SM98.jpg","forget","old","16","1","start","left","","","",""
"html-keyboard-response","42","218518","0.0-2.0-3.0","4yuxk6fvkr5607n","break","5c0e87f97804780001837efb","5f60e3c0a3b16e07647b2ff9","5f63802933bdbd070532a067","false","4523.010000004433","<p style='font-size: 32px;'>Break</><br><br><br><br><br><p style='font-size: 24px;'>In the last block, you committed 2 errors and did not respond in time on 0 trials.
</p><p style='font-size: 24px;'>Try to respond as fast and accurately as possible in the next block as well! </p><p style='font-size: 24px;'>Press SPACE to continue.</p>","32","","","","","","","","","","","","","","","","","","","",""
"html-keyboard-response","43","222114","0.0-2.0-4.0","4yuxk6fvkr5607n","instructions","5c0e87f97804780001837efb","5f60e3c0a3b16e07647b2ff9","5f63802933bdbd070532a067","false","3592.5000000279397","<div align=left> Great!<br><br>Are you ready to continue?<br><br>If you want to reread the instructions and redo the practice trials, <br>please press „Z“. <br><br>Press SPACE to CONTINUE with the experiment when you are ready. </div>","32","","","","","","","","","","","","","","","","","","","",""
"html-keyboard-response","44","250739","0.0-3.0-0.0","4yuxk6fvkr5607n","instructions","5c0e87f97804780001837efb","5f60e3c0a3b16e07647b2ff9","5f63802933bdbd070532a067","false","28620.804999955","<div align=left>Great!<br> <strong>Attention</strong>! You will now receive a second, additional task! <br><br>To this point it was you <strong>first task</strong> to correctly <strong>classify objects</strong>. <br><br>As mentioned in the beginning, we aim to examine how well humans can remember previously learned information.<br>We would like to find out whether our memory improves if we only remember information that is relevant to us. <br><br>Therefore, your <strong>second task</strong> will be to <strong>remember</strong> the pictures you are to categorize. <br> After the learning phase, there will be a memory test phase, in which you will be asked to indicate whether you have seen a picture before or not. <br>Some, but not all pictures shown in the learning phase will appear in the memory test phase.<br>After classifying a picture, you will be told whether you should remember it for the memory test phase or not. <br>Thus, some pictures can be forgotten, whereas others have to be remembered. <br><br>Note: From now on, feedback will only be displayed if you responded incorrectly or not in time.<br><br>Press SPACE to continue.</div>","32","","","","","","","","","","","","","","","","","","","",""
"html-keyboard-response","45","267898","0.0-3.0-1.0","4yuxk6fvkr5607n","instructions","5c0e87f97804780001837efb","5f60e3c0a3b16e07647b2ff9","5f63802933bdbd070532a067","false","17156.87499998603","<div align=left>In the following part, you will thus have to remember only some pictures. <br>Immediately after seeing and classifying the picture, a symbol will be displayed, indicating whether you should remember or forget the previous picture. <br><br>A <span style='color: dodgerblue; font-size: 28px'>O</span> indicates REMEMBER. That means, you have to remember this picture, because it will be tested later. <br><br>A <span style='color: darkorange; font-size:28px'>Ø</span> indicates FORGET. You do not have to remember this picture. <br><br> As you will have to remember a lot of pictures, it will be hard for you to remember all of them. <br>It will put you at an advantage if you instantly forget the pictures you are not asked to remember. <br> This will make it easier for you to remember the pictures that will be tested afterwards. <br><br>Press SPACE to continue.</div>","32","","","","","","","","","","","","","","","","","","","",""
"html-keyboard-response","46","277686","0.0-3.0-2.0","4yuxk6fvkr5607n","instructions","5c0e87f97804780001837efb","5f60e3c0a3b16e07647b2ff9","5f63802933bdbd070532a067","false","9785.39999993518","<div align=left> Now you have the chance to practice both tasks together.<br><br>Remember: <br> <br><li>Please place your index fingers on the <strong>'S'</strong> and <strong>'L'</strong> keys <br>to respond as fast and accurately as possible.</li><li>Every picture can be classified as either mechanical or non-mechanical.</li><li>If you do not respond in time or commit an error, you will receive a corresponding feedback. <br>Please try to respond as <strong> fast </strong> and as <strong> accurately as possible </strong>.</li><li> Please remember only the to-be-remembered <span style='color: dodgerblue; font-size: 28px'>O</span> pictures. <br></li><li> Please minimize distractions and stay focused. </li><br><br>Press SPACE to START</div>","32","","","","","","","","","","","","","","","","","","","",""
"html-keyboard-response","47","278389","0.0-3.0-3.0-0.0","4yuxk6fvkr5607n","practice_cue","5c0e87f97804780001837efb","5f60e3c0a3b16e07647b2ff9","5f63802933bdbd070532a067","false","null","<span style=""color: black; font-size: 48px"">N + M</span>","null","","","","resp_prompt","","","","","","","","","","","","","","","",""
"categorize-image","48","279048","0.0-3.0-3.0-1.0","4yuxk6fvkr5607n","practice_cue","5c0e87f97804780001837efb","5f60e3c0a3b16e07647b2ff9","5f63802933bdbd070532a067","true","653.8850000360981","./Stimuli/ImagesPractice/LM224.jpg","76","","","","test","true","N + M","76","","LM","LM224.jpg","forget","old","17","2","practice_forget","right","","","",""
"html-keyboard-response","49","281052","0.0-3.0-3.0-3.0","4yuxk6fvkr5607n","practice_cue","5c0e87f97804780001837efb","5f60e3c0a3b16e07647b2ff9","5f63802933bdbd070532a067","false","null","<div style=""align-items: center; display: flex; color: darkorange; font-size: 90px""><b>ø</b></div>","null","","","","forget_cue","","","","","","","","","","","","","","","",""
"html-keyboard-response","50","281755","0.0-3.0-3.0-0.1","4yuxk6fvkr5607n","practice_cue","5c0e87f97804780001837efb","5f60e3c0a3b16e07647b2ff9","5f63802933bdbd070532a067","false","null","<span style=""color: black; font-size: 48px"">N + M</span>","null","","","","resp_prompt","","","","","","","","","","","","","","","",""
"categorize-image","51","283298","0.0-3.0-3.0-1.1","4yuxk6fvkr5607n","practice_cue","5c0e87f97804780001837efb","5f60e3c0a3b16e07647b2ff9","5f63802933bdbd070532a067","true","1536.0149999614805","./Stimuli/ImagesPractice/SM37.jpg","76","","","","test","true","N + M","76","","SM","SM37.jpg","remember","old","18","2","practice_forget","right","","","",""
"html-keyboard-response","52","285303","0.0-3.0-3.0-3.1","4yuxk6fvkr5607n","practice_cue","5c0e87f97804780001837efb","5f60e3c0a3b16e07647b2ff9","5f63802933bdbd070532a067","false","null","<div style=""align-items: center; display: flex; color: dodgerblue; font-size: 90px""><b>o</b></div>","null","","","","forget_cue","","","","","","","","","","","","","","","",""
"html-keyboard-response","53","286006","0.0-3.0-3.0-0.2","4yuxk6fvkr5607n","practice_cue","5c0e87f97804780001837efb","5f60e3c0a3b16e07647b2ff9","5f63802933bdbd070532a067","false","null","<span style=""color: black; font-size: 48px"">M + N</span>","null","","","","resp_prompt","","","","","","","","","","","","","","","",""
"categorize-image","54","286821","0.0-3.0-3.0-1.2","4yuxk6fvkr5607n","practice_cue","5c0e87f97804780001837efb","5f60e3c0a3b16e07647b2ff9","5f63802933bdbd070532a067","true","806.8399999756366","./Stimuli/ImagesPractice/LM230.jpg","83","","","","test","true","M + N","83","","LM","LM230.jpg","remember","old","19","2","practice_forget","left","","","",""
"html-keyboard-response","55","288824","0.0-3.0-3.0-3.2","4yuxk6fvkr5607n","practice_cue","5c0e87f97804780001837efb","5f60e3c0a3b16e07647b2ff9","5f63802933bdbd070532a067","false","null","<div style=""align-items: center; display: flex; color: dodgerblue; font-size: 90px""><b>o</b></div>","null","","","","forget_cue","","","","","","","","","","","","","","","",""
"html-keyboard-response","56","289526","0.0-3.0-3.0-0.3","4yuxk6fvkr5607n","practice_cue","5c0e87f97804780001837efb","5f60e3c0a3b16e07647b2ff9","5f63802933bdbd070532a067","false","null","<span style=""color: black; font-size: 48px"">M + N</span>","null","","","","resp_prompt","","","","","","","","","","","","","","","",""
"categorize-image","57","290222","0.0-3.0-3.0-1.3","4yuxk6fvkr5607n","practice_cue","5c0e87f97804780001837efb","5f60e3c0a3b16e07647b2ff9","5f63802933bdbd070532a067","true","688.5450000409037","./Stimuli/ImagesPractice/SN220.jpg","76","","","","test","true","M + N","76","","SN","SN220.jpg","remember","old","20","2","practice_forget","right","","","",""
"html-keyboard-response","58","292224","0.0-3.0-3.0-3.3","4yuxk6fvkr5607n","practice_cue","5c0e87f97804780001837efb","5f60e3c0a3b16e07647b2ff9","5f63802933bdbd070532a067","false","null","<div style=""align-items: center; display: flex; color: dodgerblue; font-size: 90px""><b>o</b></div>","null","","","","forget_cue","","","","","","","","","","","","","","","",""
"html-keyboard-response","59","292927","0.0-3.0-3.0-0.4","4yuxk6fvkr5607n","practice_cue","5c0e87f97804780001837efb","5f60e3c0a3b16e07647b2ff9","5f63802933bdbd070532a067","false","null","<span style=""color: black; font-size: 48px"">M + N</span>","null","","","","resp_prompt","","","","","","","","","","","","","","","",""
"categorize-image","60","293853","0.0-3.0-3.0-1.4","4yuxk6fvkr5607n","practice_cue","5c0e87f97804780001837efb","5f60e3c0a3b16e07647b2ff9","5f63802933bdbd070532a067","true","918.5649999417365","./Stimuli/ImagesPractice/LN17.jpg","76","","","","test","true","M + N","76","","LN","LN17.jpg","forget","old","21","2","practice_forget","right","","","",""
"html-keyboard-response","61","295857","0.0-3.0-3.0-3.4","4yuxk6fvkr5607n","practice_cue","5c0e87f97804780001837efb","5f60e3c0a3b16e07647b2ff9","5f63802933bdbd070532a067","false","null","<div style=""align-items: center; display: flex; color: darkorange; font-size: 90px""><b>ø</b></div>","null","","","","forget_cue","","","","","","","","","","","","","","","",""
"html-keyboard-response","62","296560","0.0-3.0-3.0-0.5","4yuxk6fvkr5607n","practice_cue","5c0e87f97804780001837efb","5f60e3c0a3b16e07647b2ff9","5f63802933bdbd070532a067","false","null","<span style=""color: black; font-size: 48px"">M + N</span>","null","","","","resp_prompt","","","","","","","","","","","","","","","",""
"categorize-image","63","297292","0.0-3.0-3.0-1.5","4yuxk6fvkr5607n","practice_cue","5c0e87f97804780001837efb","5f60e3c0a3b16e07647b2ff9","5f63802933bdbd070532a067","true","723.009999957867","./Stimuli/ImagesPractice/SM35.jpg","83","","","","test","true","M + N","83","","SM","SM35.jpg","remember","old","22","2","practice_forget","left","","","",""
"html-keyboard-response","64","299295","0.0-3.0-3.0-3.5","4yuxk6fvkr5607n","practice_cue","5c0e87f97804780001837efb","5f60e3c0a3b16e07647b2ff9","5f63802933bdbd070532a067","false","null","<div style=""align-items: center; display: flex; color: dodgerblue; font-size: 90px""><b>o</b></div>","null","","","","forget_cue","","","","","","","","","","","","","","","",""
"html-keyboard-response","65","299998","0.0-3.0-3.0-0.6","4yuxk6fvkr5607n","practice_cue","5c0e87f97804780001837efb","5f60e3c0a3b16e07647b2ff9","5f63802933bdbd070532a067","false","null","<span style=""color: black; font-size: 48px"">N + M</span>","null","","","","resp_prompt","","","","","","","","","","","","","","","",""
"categorize-image","66","301522","0.0-3.0-3.0-1.6","4yuxk6fvkr5607n","practice_cue","5c0e87f97804780001837efb","5f60e3c0a3b16e07647b2ff9","5f63802933bdbd070532a067","true","1515.9399999538437","./Stimuli/ImagesPractice/LM239.jpg","76","","","","test","true","N + M","76","","LM","LM239.jpg","remember","old","23","2","practice_forget","right","","","",""
"html-keyboard-response","67","303525","0.0-3.0-3.0-3.6","4yuxk6fvkr5607n","practice_cue","5c0e87f97804780001837efb","5f60e3c0a3b16e07647b2ff9","5f63802933bdbd070532a067","false","null","<div style=""align-items: center; display: flex; color: dodgerblue; font-size: 90px""><b>o</b></div>","null","","","","forget_cue","","","","","","","","","","","","","","","",""
"html-keyboard-response","68","304227","0.0-3.0-3.0-0.7","4yuxk6fvkr5607n","practice_cue","5c0e87f97804780001837efb","5f60e3c0a3b16e07647b2ff9","5f63802933bdbd070532a067","false","null","<span style=""color: black; font-size: 48px"">M + N</span>","null","","","","resp_prompt","","","","","","","","","","","","","","","",""
"categorize-image","69","305447","0.0-3.0-3.0-1.7","4yuxk6fvkr5607n","practice_cue","5c0e87f97804780001837efb","5f60e3c0a3b16e07647b2ff9","5f63802933bdbd070532a067","true","1211.7949998937547","./Stimuli/ImagesPractice/LN4.jpg","83","","","","test","false","M + N","76","","LN","LN4.jpg","forget","old","24","2","practice_forget","left","","","",""
"html-keyboard-response","70","305951","0.0-3.0-3.0-2.7-0.7","4yuxk6fvkr5607n","practice_cue","5c0e87f97804780001837efb","5f60e3c0a3b16e07647b2ff9","5f63802933bdbd070532a067","false","null","<span style=""color: red; font-size: 48px"">Error!</span>","null","","","","feedback","","","","","","","","","","","","","","","",""
"html-keyboard-response","71","307954","0.0-3.0-3.0-3.7","4yuxk6fvkr5607n","practice_cue","5c0e87f97804780001837efb","5f60e3c0a3b16e07647b2ff9","5f63802933bdbd070532a067","false","null","<div style=""align-items: center; display: flex; color: darkorange; font-size: 90px""><b>ø</b></div>","null","","","","forget_cue","","","","","","","","","","","","","","","",""
"html-keyboard-response","72","308657","0.0-3.0-3.0-0.8","4yuxk6fvkr5607n","practice_cue","5c0e87f97804780001837efb","5f60e3c0a3b16e07647b2ff9","5f63802933bdbd070532a067","false","null","<span style=""color: black; font-size: 48px"">M + N</span>","null","","","","resp_prompt","","","","","","","","","","","","","","","",""
"categorize-image","73","309933","0.0-3.0-3.0-1.8","4yuxk6fvkr5607n","practice_cue","5c0e87f97804780001837efb","5f60e3c0a3b16e07647b2ff9","5f63802933bdbd070532a067","true","1271.199999959208","./Stimuli/ImagesPractice/SM98.jpg","83","","","","test","true","M + N","83","","SM","SM98.jpg","forget","old","25","2","practice_forget","left","","","",""
"html-keyboard-response","74","311935","0.0-3.0-3.0-3.8","4yuxk6fvkr5607n","practice_cue","5c0e87f97804780001837efb","5f60e3c0a3b16e07647b2ff9","5f63802933bdbd070532a067","false","null","<div style=""align-items: center; display: flex; color: darkorange; font-size: 90px""><b>ø</b></div>","null","","","","forget_cue","","","","","","","","","","","","","","","",""
"html-keyboard-response","75","312638","0.0-3.0-3.0-0.9","4yuxk6fvkr5607n","practice_cue","5c0e87f97804780001837efb","5f60e3c0a3b16e07647b2ff9","5f63802933bdbd070532a067","false","null","<span style=""color: black; font-size: 48px"">M + N</span>","null","","","","resp_prompt","","","","","","","","","","","","","","","",""
"categorize-image","76","313507","0.0-3.0-3.0-1.9","4yuxk6fvkr5607n","practice_cue","5c0e87f97804780001837efb","5f60e3c0a3b16e07647b2ff9","5f63802933bdbd070532a067","true","860.564999980852","./Stimuli/ImagesPractice/LM147.jpg","83","","","","test","true","M + N","83","","LM","LM147.jpg","forget","old","26","2","practice_forget","left","","","",""
"html-keyboard-response","77","315511","0.0-3.0-3.0-3.9","4yuxk6fvkr5607n","practice_cue","5c0e87f97804780001837efb","5f60e3c0a3b16e07647b2ff9","5f63802933bdbd070532a067","false","null","<div style=""align-items: center; display: flex; color: darkorange; font-size: 90px""><b>ø</b></div>","null","","","","forget_cue","","","","","","","","","","","","","","","",""
"html-keyboard-response","78","316218","0.0-3.0-3.0-0.10","4yuxk6fvkr5607n","practice_cue","5c0e87f97804780001837efb","5f60e3c0a3b16e07647b2ff9","5f63802933bdbd070532a067","false","null","<span style=""color: black; font-size: 48px"">N + M</span>","null","","","","resp_prompt","","","","","","","","","","","","","","","",""
"categorize-image","79","316861","0.0-3.0-3.0-1.10","4yuxk6fvkr5607n","practice_cue","5c0e87f97804780001837efb","5f60e3c0a3b16e07647b2ff9","5f63802933bdbd070532a067","true","636.2700000172481","./Stimuli/ImagesPractice/SN221.jpg","83","","","","test","true","N + M","83","","SN","SN221.jpg","forget","old","27","2","practice_forget","left","","","",""
"html-keyboard-response","80","318864","0.0-3.0-3.0-3.10","4yuxk6fvkr5607n","practice_cue","5c0e87f97804780001837efb","5f60e3c0a3b16e07647b2ff9","5f63802933bdbd070532a067","false","null","<div style=""align-items: center; display: flex; color: darkorange; font-size: 90px""><b>ø</b></div>","null","","","","forget_cue","","","","","","","","","","","","","","","",""
"html-keyboard-response","81","319567","0.0-3.0-3.0-0.11","4yuxk6fvkr5607n","practice_cue","5c0e87f97804780001837efb","5f60e3c0a3b16e07647b2ff9","5f63802933bdbd070532a067","false","null","<span style=""color: black; font-size: 48px"">N + M</span>","null","","","","resp_prompt","","","","","","","","","","","","","","","",""
"categorize-image","82","320318","0.0-3.0-3.0-1.11","4yuxk6fvkr5607n","practice_cue","5c0e87f97804780001837efb","5f60e3c0a3b16e07647b2ff9","5f63802933bdbd070532a067","true","744.2149999551475","./Stimuli/ImagesPractice/SN205.jpg","83","","","","test","true","N + M","83","","SN","SN205.jpg","forget","old","28","2","practice_forget","left","","","",""
"html-keyboard-response","83","322322","0.0-3.0-3.0-3.11","4yuxk6fvkr5607n","practice_cue","5c0e87f97804780001837efb","5f60e3c0a3b16e07647b2ff9","5f63802933bdbd070532a067","false","null","<div style=""align-items: center; display: flex; color: darkorange; font-size: 90px""><b>ø</b></div>","null","","","","forget_cue","","","","","","","","","","","","","","","",""
"html-keyboard-response","84","323024","0.0-3.0-3.0-0.12","4yuxk6fvkr5607n","practice_cue","5c0e87f97804780001837efb","5f60e3c0a3b16e07647b2ff9","5f63802933bdbd070532a067","false","null","<span style=""color: black; font-size: 48px"">N + M</span>","null","","","","resp_prompt","","","","","","","","","","","","","","","",""
"categorize-image","85","323710","0.0-3.0-3.0-1.12","4yuxk6fvkr5607n","practice_cue","5c0e87f97804780001837efb","5f60e3c0a3b16e07647b2ff9","5f63802933bdbd070532a067","true","679.2750000022352","./Stimuli/ImagesPractice/SN222.jpg","83","","","","test","true","N + M","83","","SN","SN222.jpg","remember","old","29","2","practice_forget","left","","","",""
"html-keyboard-response","86","325712","0.0-3.0-3.0-3.12","4yuxk6fvkr5607n","practice_cue","5c0e87f97804780001837efb","5f60e3c0a3b16e07647b2ff9","5f63802933bdbd070532a067","false","null","<div style=""align-items: center; display: flex; color: dodgerblue; font-size: 90px""><b>o</b></div>","null","","","","forget_cue","","","","","","","","","","","","","","","",""
"html-keyboard-response","87","326414","0.0-3.0-3.0-0.13","4yuxk6fvkr5607n","practice_cue","5c0e87f97804780001837efb","5f60e3c0a3b16e07647b2ff9","5f63802933bdbd070532a067","false","null","<span style=""color: black; font-size: 48px"">N + M</span>","null","","","","resp_prompt","","","","","","","","","","","","","","","",""
"categorize-image","88","327366","0.0-3.0-3.0-1.13","4yuxk6fvkr5607n","practice_cue","5c0e87f97804780001837efb","5f60e3c0a3b16e07647b2ff9","5f63802933bdbd070532a067","true","944.0099999774247","./Stimuli/ImagesPractice/LN109.jpg","83","","","","test","true","N + M","83","","LN","LN109.jpg","remember","old","30","2","practice_forget","left","","","",""
"html-keyboard-response","89","329369","0.0-3.0-3.0-3.13","4yuxk6fvkr5607n","practice_cue","5c0e87f97804780001837efb","5f60e3c0a3b16e07647b2ff9","5f63802933bdbd070532a067","false","null","<div style=""align-items: center; display: flex; color: dodgerblue; font-size: 90px""><b>o</b></div>","null","","","","forget_cue","","","","","","","","","","","","","","","",""
"html-keyboard-response","90","330072","0.0-3.0-3.0-0.14","4yuxk6fvkr5607n","practice_cue","5c0e87f97804780001837efb","5f60e3c0a3b16e07647b2ff9","5f63802933bdbd070532a067","false","null","<span style=""color: black; font-size: 48px"">M + N</span>","null","","","","resp_prompt","","","","","","","","","","","","","","","",""
"categorize-image","91","330956","0.0-3.0-3.0-1.14","4yuxk6fvkr5607n","practice_cue","5c0e87f97804780001837efb","5f60e3c0a3b16e07647b2ff9","5f63802933bdbd070532a067","true","874.7999999905005","./Stimuli/ImagesPractice/SN76.jpg","76","","","","test","true","M + N","76","","SN","SN76.jpg","remember","old","31","2","practice_forget","right","","","",""
"html-keyboard-response","92","332959","0.0-3.0-3.0-3.14","4yuxk6fvkr5607n","practice_cue","5c0e87f97804780001837efb","5f60e3c0a3b16e07647b2ff9","5f63802933bdbd070532a067","false","null","<div style=""align-items: center; display: flex; color: dodgerblue; font-size: 90px""><b>o</b></div>","null","","","","forget_cue","","","","","","","","","","","","","","","",""
"html-keyboard-response","93","333661","0.0-3.0-3.0-0.15","4yuxk6fvkr5607n","practice_cue","5c0e87f97804780001837efb","5f60e3c0a3b16e07647b2ff9","5f63802933bdbd070532a067","false","null","<span style=""color: black; font-size: 48px"">N + M</span>","null","","","","resp_prompt","","","","","","","","","","","","","","","",""
"categorize-image","94","334389","0.0-3.0-3.0-1.15","4yuxk6fvkr5607n","practice_cue","5c0e87f97804780001837efb","5f60e3c0a3b16e07647b2ff9","5f63802933bdbd070532a067","true","719.9699999764562","./Stimuli/ImagesPractice/SM62.jpg","76","","","","test","true","N + M","76","","SM","SM62.jpg","forget","old","32","2","practice_forget","right","","","",""
"html-keyboard-response","95","336393","0.0-3.0-3.0-3.15","4yuxk6fvkr5607n","practice_cue","5c0e87f97804780001837efb","5f60e3c0a3b16e07647b2ff9","5f63802933bdbd070532a067","false","null","<div style=""align-items: center; display: flex; color: darkorange; font-size: 90px""><b>ø</b></div>","null","","","","forget_cue","","","","","","","","","","","","","","","",""
"html-keyboard-response","96","339254","0.0-3.0-4.0","4yuxk6fvkr5607n","break","5c0e87f97804780001837efb","5f60e3c0a3b16e07647b2ff9","5f63802933bdbd070532a067","false","2856.709999963641","<p style='font-size: 32px;'>Break</><br><br><br><br><br><p style='font-size: 24px;'>In the last block, you committed 1 errors and did not respond in time on 0 trials.
</p><p style='font-size: 24px;'>Try to respond as fast and accurately as possible in the next block as well! </p><p style='font-size: 24px;'>Press SPACE to continue.</p>","32","","","","","","","","","","","","","","","","","","","",""
"html-keyboard-response","97","353072","0.0-3.0-5.0","4yuxk6fvkr5607n","instructions","5c0e87f97804780001837efb","5f60e3c0a3b16e07647b2ff9","5f63802933bdbd070532a067","false","13815.794999944046","<div align=left> Now, to practice, we kindly ask you to remember as many of the to-be-remembered pictures<br>of the previous learning phase as possible.<br><br>The pictures you were instructed to remember were the pictures followed by a <span style='color: dodgerblue; font-size: 28px'>O</span>.<br><br>In this memory test phase, you will also see some new pictures.<br>It is your task to remember whether you were presented with this specific picture in this study so far or not.<br>If you recognize an object (you have already seen it in this study), it is an OLD object. <br>If you do not recognize an object (you have NOT seen it in this study), it is a NEW object. <br><strong> Attention</strong>: As already mentioned, <span style='color: darkorange; font-size:28px'>Ø</span>-pictures will <strong>never</strong> appear in this memory test (neither as new objects). <br><br>Press SPACE to continue. </div>","32","","","","","","","","","","","","","","","","","","","",""
"html-keyboard-response","98","365653","0.0-3.0-6.0","4yuxk6fvkr5607n","instructions","5c0e87f97804780001837efb","5f60e3c0a3b16e07647b2ff9","5f63802933bdbd070532a067","false","12577.350000035949","<div align=left> M and N no longer will appear on the left/right of the fixation cross. <br>Instead there will be a note at the bottom of the left or right side  <br>indicating which key you should press for an old or new object:  <br> <br>Press the <strong>right</strong> key to classify an object as <strong>old</strong> and press the <strong>left</strong>, to classify an object as <strong>new</strong>.<br>Please classify the objects as new/old by again placing your index finger on the 'S' and 'L' keys <br>and press them accordingly.<br><br><strong>Old:</strong> This object has been presented before. <br><strong>New:</strong> This object has <strong>not</strong> been presented.<br><br>Now please put your right and left index fingers on the 'S' and 'L' keys of your keyboard. <br>Please respond as fast and as accurately as possible!<br><br>Press SPACE to continue. </div>","32","","","","","","","","","","","","","","","","","","","",""
"categorize-image","99","368006","0.0-3.0-7.0-0.0","4yuxk6fvkr5607n","practice_recog","5c0e87f97804780001837efb","5f60e3c0a3b16e07647b2ff9","5f63802933bdbd070532a067","true","1845.4449999844655","./Stimuli/ImagesPractice/LM239.jpg","83","","","","test","true","","83","","LM","LM239.jpg","","old","33","3","practice_recog","left","","","",""
"categorize-image","100","369466","0.0-3.0-7.0-0.1","4yuxk6fvkr5607n","practice_recog","5c0e87f97804780001837efb","5f60e3c0a3b16e07647b2ff9","5f63802933bdbd070532a067","true","955.3799999412149","./Stimuli/ImagesPractice/LN2.jpg","76","","","","test","true","","76","","LN","LN2.jpg","","new","34","3","practice_recog","right","","","",""
"categorize-image","101","370743","0.0-3.0-7.0-0.2","4yuxk6fvkr5607n","practice_recog","5c0e87f97804780001837efb","5f60e3c0a3b16e07647b2ff9","5f63802933bdbd070532a067","true","772.5050000008196","./Stimuli/ImagesPractice/SM97.jpg","76","","","","test","true","","76","","SM","SM97.jpg","","new","35","3","practice_recog","right","","","",""
"categorize-image","102","372281","0.0-3.0-7.0-0.3","4yuxk6fvkr5607n","practice_recog","5c0e87f97804780001837efb","5f60e3c0a3b16e07647b2ff9","5f63802933bdbd070532a067","true","1034.4150000019","./Stimuli/ImagesPractice/SM61.jpg","76","","","","test","true","","76","","SM","SM61.jpg","","new","36","3","practice_recog","right","","","",""
"categorize-image","103","373847","0.0-3.0-7.0-0.4","4yuxk6fvkr5607n","practice_recog","5c0e87f97804780001837efb","5f60e3c0a3b16e07647b2ff9","5f63802933bdbd070532a067","true","1060.9699999913573","./Stimuli/ImagesPractice/LN72.jpg","76","","","","test","true","","76","","LN","LN72.jpg","","new","37","3","practice_recog","right","","","",""
"categorize-image","104","375158","0.0-3.0-7.0-0.5","4yuxk6fvkr5607n","practice_recog","5c0e87f97804780001837efb","5f60e3c0a3b16e07647b2ff9","5f63802933bdbd070532a067","true","805.6949999881908","./Stimuli/ImagesPractice/LM55.jpg","76","","","","test","true","","76","","LM","LM55.jpg","","new","38","3","practice_recog","right","","","",""
"categorize-image","105","376379","0.0-3.0-7.0-0.6","4yuxk6fvkr5607n","practice_recog","5c0e87f97804780001837efb","5f60e3c0a3b16e07647b2ff9","5f63802933bdbd070532a067","true","715.2300000889227","./Stimuli/ImagesPractice/SN220.jpg","83","","","","test","true","","83","","SN","SN220.jpg","","old","39","3","practice_recog","left","","","",""
"categorize-image","106","377680","0.0-3.0-7.0-0.7","4yuxk6fvkr5607n","practice_recog","5c0e87f97804780001837efb","5f60e3c0a3b16e07647b2ff9","5f63802933bdbd070532a067","true","795.3399999532849","./Stimuli/ImagesPractice/SN75.jpg","76","","","","test","true","","76","","SN","SN75.jpg","","new","40","3","practice_recog","right","","","",""
"categorize-image","107","379034","0.0-3.0-7.0-0.8","4yuxk6fvkr5607n","practice_recog","5c0e87f97804780001837efb","5f60e3c0a3b16e07647b2ff9","5f63802933bdbd070532a067","true","848.1400000164285","./Stimuli/ImagesPractice/SM35.jpg","83","","","","test","true","","83","","SM","SM35.jpg","","old","41","3","practice_recog","left","","","",""
"categorize-image","108","380406","0.0-3.0-7.0-0.9","4yuxk6fvkr5607n","practice_recog","5c0e87f97804780001837efb","5f60e3c0a3b16e07647b2ff9","5f63802933bdbd070532a067","true","866.8249999172986","./Stimuli/ImagesPractice/LN109.jpg","83","","","","test","true","","83","","LN","LN109.jpg","","old","42","3","practice_recog","left","","","",""
"categorize-image","109","381520","0.0-3.0-7.0-0.10","4yuxk6fvkr5607n","practice_recog","5c0e87f97804780001837efb","5f60e3c0a3b16e07647b2ff9","5f63802933bdbd070532a067","true","608.4800000535324","./Stimuli/ImagesPractice/LM230.jpg","83","","","","test","true","","83","","LM","LM230.jpg","","old","43","3","practice_recog","left","","","",""
"categorize-image","110","382637","0.0-3.0-7.0-0.11","4yuxk6fvkr5607n","practice_recog","5c0e87f97804780001837efb","5f60e3c0a3b16e07647b2ff9","5f63802933bdbd070532a067","true","611.7849999573082","./Stimuli/ImagesPractice/SM37.jpg","83","","","","test","true","","83","","SM","SM37.jpg","","old","44","3","practice_recog","left","","","",""
"categorize-image","111","384146","0.0-3.0-7.0-0.12","4yuxk6fvkr5607n","practice_recog","5c0e87f97804780001837efb","5f60e3c0a3b16e07647b2ff9","5f63802933bdbd070532a067","true","1006.7000000271946","./Stimuli/ImagesPractice/LM143.jpg","76","","","","test","true","","76","","LM","LM143.jpg","","new","45","3","practice_recog","right","","","",""
"categorize-image","112","385459","0.0-3.0-7.0-0.13","4yuxk6fvkr5607n","practice_recog","5c0e87f97804780001837efb","5f60e3c0a3b16e07647b2ff9","5f63802933bdbd070532a067","true","808.7850000010803","./Stimuli/ImagesPractice/LN15.jpg","76","","","","test","true","","76","","LN","LN15.jpg","","new","46","3","practice_recog","right","","","",""
"categorize-image","113","386678","0.0-3.0-7.0-0.14","4yuxk6fvkr5607n","practice_recog","5c0e87f97804780001837efb","5f60e3c0a3b16e07647b2ff9","5f63802933bdbd070532a067","true","712.7000000327826","./Stimuli/ImagesPractice/SN222.jpg","83","","","","test","true","","83","","SN","SN222.jpg","","old","47","3","practice_recog","left","","","",""
"categorize-image","114","387933","0.0-3.0-7.0-0.15","4yuxk6fvkr5607n","practice_recog","5c0e87f97804780001837efb","5f60e3c0a3b16e07647b2ff9","5f63802933bdbd070532a067","true","748.674999922514","./Stimuli/ImagesPractice/SN76.jpg","83","","","","test","true","","83","","SN","SN76.jpg","","old","48","3","practice_recog","left","","","",""
"html-keyboard-response","115","394175","0.0-3.0-8.0","4yuxk6fvkr5607n","instructions","5c0e87f97804780001837efb","5f60e3c0a3b16e07647b2ff9","5f63802933bdbd070532a067","false","6239.919999963604","<div align=left> Great!<br><br>Are you ready to continue?<br>If you want to reread the instructions and redo the practice trials, please <br>press „Z“.<br><br>You can proceed when you are ready.<br><br>After the presentation of each object, you will receive an instruction whether to <br>remember or to forget the object.<br>We will test your memory of the following pictures only at the very end of <br>the experiment after all learning blocks are completed. <br><br>Press SPACE to CONTINUE when you are ready. </div>","32","","","","","","","","","","","","","","","","","","","",""
"html-keyboard-response","116","401593","0.0-4.0-0.0","4yuxk6fvkr5607n","instructions","5c0e87f97804780001837efb","5f60e3c0a3b16e07647b2ff9","5f63802933bdbd070532a067","false","7414.579999982379","<div align=left> The actual experiment is about to start.<br>The practice trials are over!<br><br>Please always respond both fast and accurately!<br><br>Remember: <br> <br><li> Please place your index fingers on the <strong>'S'</strong> and <strong>'L'</strong> keys <br>to respond as fast and accurately as possible.</li><li> Every picture can be classified as either mechanical or non-mechanical.</li><li> If you do not respond in time or commit an error, you will receive a corresponding feedback.<br> Please try to respond as <strong> fast </strong> and as <strong> accurately as possible </strong>.</li><li> Remember the <span style='color: dodgerblue; font-size: 28px'>O</span> pictures. <br></li><li> Please minimize distractions and stay focused. </li><br><br>Press SPACE to START.</div>","32","","","","","","","","","","","","","","","","","","","",""
"html-keyboard-response","117","402297","0.0-4.0-1.0-0.0","4yuxk6fvkr5607n","prime","5c0e87f97804780001837efb","5f60e3c0a3b16e07647b2ff9","5f63802933bdbd070532a067","false","null","<span style=""color: black; font-size: 48px"">N + M</span>","null","","","","resp_prompt","","","","","","","","","","","","","","","",""
"categorize-image","118","403193","0.0-4.0-1.0-1.0","4yuxk6fvkr5607n","prime","5c0e87f97804780001837efb","5f60e3c0a3b16e07647b2ff9","5f63802933bdbd070532a067","true","888.71999992989","./Stimuli/SelectedImages/LN/LN149.bmp","83","","","","test","true","N + M","83","repetition","LN","LN149.bmp","remember","","49","3","prime1","left","","","",""
"html-keyboard-response","119","405197","0.0-4.0-1.0-3.0","4yuxk6fvkr5607n","prime","5c0e87f97804780001837efb","5f60e3c0a3b16e07647b2ff9","5f63802933bdbd070532a067","false","null","<div style=""align-items: center; display: flex; color: dodgerblue; font-size: 90px""><b>o</b></div>","null","","","","forget_cue","","","","","","","","","","","","","","","",""
"html-keyboard-response","120","405899","0.0-4.0-1.0-0.1","4yuxk6fvkr5607n","prime","5c0e87f97804780001837efb","5f60e3c0a3b16e07647b2ff9","5f63802933bdbd070532a067","false","null","<span style=""color: black; font-size: 48px"">M + N</span>","null","","","","resp_prompt","","","","","","","","","","","","","","","",""
"categorize-image","121","406993","0.0-4.0-1.0-1.1","4yuxk6fvkr5607n","prime","5c0e87f97804780001837efb","5f60e3c0a3b16e07647b2ff9","5f63802933bdbd070532a067","true","1085.8099999604747","./Stimuli/SelectedImages/SN/SN49.bmp","76","","","","test","true","M + N","76","switch","SN","SN49.bmp","remember","","50","3","prime1","right","","","",""
"html-keyboard-response","122","408996","0.0-4.0-1.0-3.1","4yuxk6fvkr5607n","prime","5c0e87f97804780001837efb","5f60e3c0a3b16e07647b2ff9","5f63802933bdbd070532a067","false","null","<div style=""align-items: center; display: flex; color: dodgerblue; font-size: 90px""><b>o</b></div>","null","","","","forget_cue","","","","","","","","","","","","","","","",""
"html-keyboard-response","123","409698","0.0-4.0-1.0-0.2","4yuxk6fvkr5607n","prime","5c0e87f97804780001837efb","5f60e3c0a3b16e07647b2ff9","5f63802933bdbd070532a067","false","null","<span style=""color: black; font-size: 48px"">M + N</span>","null","","","","resp_prompt","","","","","","","","","","","","","","","",""
"categorize-image","124","410405","0.0-4.0-1.0-1.2","4yuxk6fvkr5607n","prime","5c0e87f97804780001837efb","5f60e3c0a3b16e07647b2ff9","5f63802933bdbd070532a067","true","698.8300000084564","./Stimuli/SelectedImages/SN/SN111.bmp","76","","","","test","true","M + N","76","repetition","SN","SN111.bmp","remember","","51","3","prime1","right","","","",""
"html-keyboard-response","125","412408","0.0-4.0-1.0-3.2","4yuxk6fvkr5607n","prime","5c0e87f97804780001837efb","5f60e3c0a3b16e07647b2ff9","5f63802933bdbd070532a067","false","null","<div style=""align-items: center; display: flex; color: dodgerblue; font-size: 90px""><b>o</b></div>","null","","","","forget_cue","","","","","","","","","","","","","","","",""
"html-keyboard-response","126","413110","0.0-4.0-1.0-0.3","4yuxk6fvkr5607n","prime","5c0e87f97804780001837efb","5f60e3c0a3b16e07647b2ff9","5f63802933bdbd070532a067","false","null","<span style=""color: black; font-size: 48px"">M + N</span>","null","","","","resp_prompt","","","","","","","","","","","","","","","",""
"categorize-image","127","413902","0.0-4.0-1.0-1.3","4yuxk6fvkr5607n","prime","5c0e87f97804780001837efb","5f60e3c0a3b16e07647b2ff9","5f63802933bdbd070532a067","true","786.5100000053644","./Stimuli/SelectedImages/LN/LN166.bmp","76","","","","test","true","M + N","76","switch","LN","LN166.bmp","remember","","52","3","prime1","right","","","",""
"html-keyboard-response","128","415906","0.0-4.0-1.0-3.3","4yuxk6fvkr5607n","prime","5c0e87f97804780001837efb","5f60e3c0a3b16e07647b2ff9","5f63802933bdbd070532a067","false","null","<div style=""align-items: center; display: flex; color: dodgerblue; font-size: 90px""><b>o</b></div>","null","","","","forget_cue","","","","","","","","","","","","","","","",""
"html-keyboard-response","129","416610","0.0-4.0-1.0-0.4","4yuxk6fvkr5607n","prime","5c0e87f97804780001837efb","5f60e3c0a3b16e07647b2ff9","5f63802933bdbd070532a067","false","null","<span style=""color: black; font-size: 48px"">N + M</span>","null","","","","resp_prompt","","","","","","","","","","","","","","","",""
"categorize-image","130","417500","0.0-4.0-1.0-1.4","4yuxk6fvkr5607n","prime","5c0e87f97804780001837efb","5f60e3c0a3b16e07647b2ff9","5f63802933bdbd070532a067","true","882.6800000388175","./Stimuli/SelectedImages/LN/LN111.bmp","83","","","","test","true","N + M","83","switch","LN","LN111.bmp","forget","","53","3","prime1","left","","","",""
"html-keyboard-response","131","419504","0.0-4.0-1.0-3.4","4yuxk6fvkr5607n","prime","5c0e87f97804780001837efb","5f60e3c0a3b16e07647b2ff9","5f63802933bdbd070532a067","false","null","<div style=""align-items: center; display: flex; color: darkorange; font-size: 90px""><b>ø</b></div>","null","","","","forget_cue","","","","","","","","","","","","","","","",""
"html-keyboard-response","132","420206","0.0-4.0-1.0-0.5","4yuxk6fvkr5607n","prime","5c0e87f97804780001837efb","5f60e3c0a3b16e07647b2ff9","5f63802933bdbd070532a067","false","null","<span style=""color: black; font-size: 48px"">N + M</span>","null","","","","resp_prompt","","","","","","","","","","","","","","","",""
"categorize-image","133","421273","0.0-4.0-1.0-1.5","4yuxk6fvkr5607n","prime","5c0e87f97804780001837efb","5f60e3c0a3b16e07647b2ff9","5f63802933bdbd070532a067","true","1059.4600000185892","./Stimuli/SelectedImages/SM/SM128.bmp","76","","","","test","true","N + M","76","switch","SM","SM128.bmp","forget","","54","3","prime1","right","","","",""
"html-keyboard-response","134","423277","0.0-4.0-1.0-3.5","4yuxk6fvkr5607n","prime","5c0e87f97804780001837efb","5f60e3c0a3b16e07647b2ff9","5f63802933bdbd070532a067","false","null","<div style=""align-items: center; display: flex; color: darkorange; font-size: 90px""><b>ø</b></div>","null","","","","forget_cue","","","","","","","","","","","","","","","",""
"html-keyboard-response","135","423980","0.0-4.0-1.0-0.6","4yuxk6fvkr5607n","prime","5c0e87f97804780001837efb","5f60e3c0a3b16e07647b2ff9","5f63802933bdbd070532a067","false","null","<span style=""color: black; font-size: 48px"">N + M</span>","null","","","","resp_prompt","","","","","","","","","","","","","","","",""
"categorize-image","136","425119","0.0-4.0-1.0-1.6","4yuxk6fvkr5607n","prime","5c0e87f97804780001837efb","5f60e3c0a3b16e07647b2ff9","5f63802933bdbd070532a067","true","1130.9149999869987","./Stimuli/SelectedImages/SM/SM205.bmp","76","","","","test","true","N + M","76","repetition","SM","SM205.bmp","forget","","55","3","prime1","right","","","",""
"html-keyboard-response","137","427122","0.0-4.0-1.0-3.6","4yuxk6fvkr5607n","prime","5c0e87f97804780001837efb","5f60e3c0a3b16e07647b2ff9","5f63802933bdbd070532a067","false","null","<div style=""align-items: center; display: flex; color: darkorange; font-size: 90px""><b>ø</b></div>","null","","","","forget_cue","","","","","","","","","","","","","","","",""
"html-keyboard-response","138","427824","0.0-4.0-1.0-0.7","4yuxk6fvkr5607n","prime","5c0e87f97804780001837efb","5f60e3c0a3b16e07647b2ff9","5f63802933bdbd070532a067","false","null","<span style=""color: black; font-size: 48px"">N + M</span>","null","","","","resp_prompt","","","","","","","","","","","","","","","",""
"categorize-image","139","428813","0.0-4.0-1.0-1.7","4yuxk6fvkr5607n","prime","5c0e87f97804780001837efb","5f60e3c0a3b16e07647b2ff9","5f63802933bdbd070532a067","true","982.6599999796599","./Stimuli/SelectedImages/LN/LN150.bmp","83","","","","test","true","N + M","83","switch","LN","LN150.bmp","forget","","56","3","prime1","left","","","",""
"html-keyboard-response","140","430816","0.0-4.0-1.0-3.7","4yuxk6fvkr5607n","prime","5c0e87f97804780001837efb","5f60e3c0a3b16e07647b2ff9","5f63802933bdbd070532a067","false","null","<div style=""align-items: center; display: flex; color: darkorange; font-size: 90px""><b>ø</b></div>","null","","","","forget_cue","","","","","","","","","","","","","","","",""
"html-keyboard-response","141","431518","0.0-4.0-1.0-0.8","4yuxk6fvkr5607n","prime","5c0e87f97804780001837efb","5f60e3c0a3b16e07647b2ff9","5f63802933bdbd070532a067","false","null","<span style=""color: black; font-size: 48px"">M + N</span>","null","","","","resp_prompt","","","","","","","","","","","","","","","",""
"categorize-image","142","433187","0.0-4.0-1.0-1.8","4yuxk6fvkr5607n","prime","5c0e87f97804780001837efb","5f60e3c0a3b16e07647b2ff9","5f63802933bdbd070532a067","true","1662.3550000367686","./Stimuli/SelectedImages/LN/LN92.bmp","76","","","","test","true","M + N","76","repetition","LN","LN92.bmp","remember","","57","3","prime1","right","","","",""
"html-keyboard-response","143","435191","0.0-4.0-1.0-3.8","4yuxk6fvkr5607n","prime","5c0e87f97804780001837efb","5f60e3c0a3b16e07647b2ff9","5f63802933bdbd070532a067","false","null","<div style=""align-items: center; display: flex; color: dodgerblue; font-size: 90px""><b>o</b></div>","null","","","","forget_cue","","","","","","","","","","","","","","","",""
"html-keyboard-response","144","435893","0.0-4.0-1.0-0.9","4yuxk6fvkr5607n","prime","5c0e87f97804780001837efb","5f60e3c0a3b16e07647b2ff9","5f63802933bdbd070532a067","false","null","<span style=""color: black; font-size: 48px"">M + N</span>","null","","","","resp_prompt","","","","","","","","","","","","","","","",""
"categorize-image","145","436559","0.0-4.0-1.0-1.9","4yuxk6fvkr5607n","prime","5c0e87f97804780001837efb","5f60e3c0a3b16e07647b2ff9","5f63802933bdbd070532a067","true","659.4499999191612","./Stimuli/SelectedImages/SM/SM195.bmp","83","","","","test","true","M + N","83","repetition","SM","SM195.bmp","forget","","58","3","prime1","left","","","",""
"html-keyboard-response","146","438561","0.0-4.0-1.0-3.9","4yuxk6fvkr5607n","prime","5c0e87f97804780001837efb","5f60e3c0a3b16e07647b2ff9","5f63802933bdbd070532a067","false","null","<div style=""align-items: center; display: flex; color: darkorange; font-size: 90px""><b>ø</b></div>","null","","","","forget_cue","","","","","","","","","","","","","","","",""
"html-keyboard-response","147","439263","0.0-4.0-1.0-0.10","4yuxk6fvkr5607n","prime","5c0e87f97804780001837efb","5f60e3c0a3b16e07647b2ff9","5f63802933bdbd070532a067","false","null","<span style=""color: black; font-size: 48px"">M + N</span>","null","","","","resp_prompt","","","","","","","","","","","","","","","",""
"categorize-image","148","440046","0.0-4.0-1.0-1.10","4yuxk6fvkr5607n","prime","5c0e87f97804780001837efb","5f60e3c0a3b16e07647b2ff9","5f63802933bdbd070532a067","true","775.664999964647","./Stimuli/SelectedImages/SN/SN60.bmp","76","","","","test","true","M + N","76","switch","SN","SN60.bmp","forget","","59","3","prime1","right","","","",""
"html-keyboard-response","149","442050","0.0-4.0-1.0-3.10","4yuxk6fvkr5607n","prime","5c0e87f97804780001837efb","5f60e3c0a3b16e07647b2ff9","5f63802933bdbd070532a067","false","null","<div style=""align-items: center; display: flex; color: darkorange; font-size: 90px""><b>ø</b></div>","null","","","","forget_cue","","","","","","","","","","","","","","","",""
"html-keyboard-response","150","442753","0.0-4.0-1.0-0.11","4yuxk6fvkr5607n","prime","5c0e87f97804780001837efb","5f60e3c0a3b16e07647b2ff9","5f63802933bdbd070532a067","false","null","<span style=""color: black; font-size: 48px"">N + M</span>","null","","","","resp_prompt","","","","","","","","","","","","","","","",""
"categorize-image","151","444008","0.0-4.0-1.0-1.11","4yuxk6fvkr5607n","prime","5c0e87f97804780001837efb","5f60e3c0a3b16e07647b2ff9","5f63802933bdbd070532a067","true","1248.520000022836","./Stimuli/SelectedImages/LM/LM58.bmp","76","","","","test","true","N + M","76","repetition","LM","LM58.bmp","forget","","60","3","prime1","right","","","",""
"html-keyboard-response","152","446011","0.0-4.0-1.0-3.11","4yuxk6fvkr5607n","prime","5c0e87f97804780001837efb","5f60e3c0a3b16e07647b2ff9","5f63802933bdbd070532a067","false","null","<div style=""align-items: center; display: flex; color: darkorange; font-size: 90px""><b>ø</b></div>","null","","","","forget_cue","","","","","","","","","","","","","","","",""
"html-keyboard-response","153","446714","0.0-4.0-1.0-0.12","4yuxk6fvkr5607n","prime","5c0e87f97804780001837efb","5f60e3c0a3b16e07647b2ff9","5f63802933bdbd070532a067","false","null","<span style=""color: black; font-size: 48px"">N + M</span>","null","","","","resp_prompt","","","","","","","","","","","","","","","",""
"categorize-image","154","447386","0.0-4.0-1.0-1.12","4yuxk6fvkr5607n","prime","5c0e87f97804780001837efb","5f60e3c0a3b16e07647b2ff9","5f63802933bdbd070532a067","true","665.8649999881163","./Stimuli/SelectedImages/SN/SN18.bmp","83","","","","test","true","N + M","83","repetition","SN","SN18.bmp","remember","","61","3","prime1","left","","","",""
"html-keyboard-response","155","449390","0.0-4.0-1.0-3.12","4yuxk6fvkr5607n","prime","5c0e87f97804780001837efb","5f60e3c0a3b16e07647b2ff9","5f63802933bdbd070532a067","false","null","<div style=""align-items: center; display: flex; color: dodgerblue; font-size: 90px""><b>o</b></div>","null","","","","forget_cue","","","","","","","","","","","","","","","",""
"html-keyboard-response","156","450093","0.0-4.0-1.0-0.13","4yuxk6fvkr5607n","prime","5c0e87f97804780001837efb","5f60e3c0a3b16e07647b2ff9","5f63802933bdbd070532a067","false","null","<span style=""color: black; font-size: 48px"">N + M</span>","null","","","","resp_prompt","","","","","","","","","","","","","","","",""
"categorize-image","157","451154","0.0-4.0-1.0-1.13","4yuxk6fvkr5607n","prime","5c0e87f97804780001837efb","5f60e3c0a3b16e07647b2ff9","5f63802933bdbd070532a067","true","1054.0000000037253","./Stimuli/SelectedImages/LN/LN82.bmp","83","","","","test","true","N + M","83","repetition","LN","LN82.bmp","remember","","62","3","prime1","left","","","",""
"html-keyboard-response","158","453157","0.0-4.0-1.0-3.13","4yuxk6fvkr5607n","prime","5c0e87f97804780001837efb","5f60e3c0a3b16e07647b2ff9","5f63802933bdbd070532a067","false","null","<div style=""align-items: center; display: flex; color: dodgerblue; font-size: 90px""><b>o</b></div>","null","","","","forget_cue","","","","","","","","","","","","","","","",""
"html-keyboard-response","159","453859","0.0-4.0-1.0-0.14","4yuxk6fvkr5607n","prime","5c0e87f97804780001837efb","5f60e3c0a3b16e07647b2ff9","5f63802933bdbd070532a067","false","null","<span style=""color: black; font-size: 48px"">N + M</span>","null","","","","resp_prompt","","","","","","","","","","","","","","","",""
"categorize-image","160","454576","0.0-4.0-1.0-1.14","4yuxk6fvkr5607n","prime","5c0e87f97804780001837efb","5f60e3c0a3b16e07647b2ff9","5f63802933bdbd070532a067","true","711.7299999808893","./Stimuli/SelectedImages/LN/LN177.bmp","83","","","","test","true","N + M","83","repetition","LN","LN177.bmp","forget","","63","3","prime1","left","","","",""
"html-keyboard-response","161","456579","0.0-4.0-1.0-3.14","4yuxk6fvkr5607n","prime","5c0e87f97804780001837efb","5f60e3c0a3b16e07647b2ff9","5f63802933bdbd070532a067","false","null","<div style=""align-items: center; display: flex; color: darkorange; font-size: 90px""><b>ø</b></div>","null","","","","forget_cue","","","","","","","","","","","","","","","",""
"html-keyboard-response","162","457280","0.0-4.0-1.0-0.15","4yuxk6fvkr5607n","prime","5c0e87f97804780001837efb","5f60e3c0a3b16e07647b2ff9","5f63802933bdbd070532a067","false","null","<span style=""color: black; font-size: 48px"">N + M</span>","null","","","","resp_prompt","","","","","","","","","","","","","","","",""
"categorize-image","163","458011","0.0-4.0-1.0-1.15","4yuxk6fvkr5607n","prime","5c0e87f97804780001837efb","5f60e3c0a3b16e07647b2ff9","5f63802933bdbd070532a067","true","724.3699999526143","./Stimuli/SelectedImages/SM/SM78.bmp","76","","","","test","true","N + M","76","switch","SM","SM78.bmp","remember","","64","3","prime1","right","","","",""
"html-keyboard-response","164","460014","0.0-4.0-1.0-3.15","4yuxk6fvkr5607n","prime","5c0e87f97804780001837efb","5f60e3c0a3b16e07647b2ff9","5f63802933bdbd070532a067","false","null","<div style=""align-items: center; display: flex; color: dodgerblue; font-size: 90px""><b>o</b></div>","null","","","","forget_cue","","","","","","","","","","","","","","","",""
"html-keyboard-response","165","460716","0.0-4.0-1.0-0.16","4yuxk6fvkr5607n","prime","5c0e87f97804780001837efb","5f60e3c0a3b16e07647b2ff9","5f63802933bdbd070532a067","false","null","<span style=""color: black; font-size: 48px"">N + M</span>","null","","","","resp_prompt","","","","","","","","","","","","","","","",""
"categorize-image","166","461536","0.0-4.0-1.0-1.16","4yuxk6fvkr5607n","prime","5c0e87f97804780001837efb","5f60e3c0a3b16e07647b2ff9","5f63802933bdbd070532a067","true","812.2899999143556","./Stimuli/SelectedImages/LM/LM150.bmp","76","","","","test","true","N + M","76","repetition","LM","LM150.bmp","forget","","65","3","prime1","right","","","",""
"html-keyboard-response","167","463540","0.0-4.0-1.0-3.16","4yuxk6fvkr5607n","prime","5c0e87f97804780001837efb","5f60e3c0a3b16e07647b2ff9","5f63802933bdbd070532a067","false","null","<div style=""align-items: center; display: flex; color: darkorange; font-size: 90px""><b>ø</b></div>","null","","","","forget_cue","","","","","","","","","","","","","","","",""
"html-keyboard-response","168","464243","0.0-4.0-1.0-0.17","4yuxk6fvkr5607n","prime","5c0e87f97804780001837efb","5f60e3c0a3b16e07647b2ff9","5f63802933bdbd070532a067","false","null","<span style=""color: black; font-size: 48px"">M + N</span>","null","","","","resp_prompt","","","","","","","","","","","","","","","",""
"categorize-image","169","464819","0.0-4.0-1.0-1.17","4yuxk6fvkr5607n","prime","5c0e87f97804780001837efb","5f60e3c0a3b16e07647b2ff9","5f63802933bdbd070532a067","true","571.2099999655038","./Stimuli/SelectedImages/SM/SM106.bmp","83","","","","test","true","M + N","83","switch","SM","SM106.bmp","forget","","66","3","prime1","left","","","",""
"html-keyboard-response","170","466821","0.0-4.0-1.0-3.17","4yuxk6fvkr5607n","prime","5c0e87f97804780001837efb","5f60e3c0a3b16e07647b2ff9","5f63802933bdbd070532a067","false","null","<div style=""align-items: center; display: flex; color: darkorange; font-size: 90px""><b>ø</b></div>","null","","","","forget_cue","","","","","","","","","","","","","","","",""
"html-keyboard-response","171","467523","0.0-4.0-1.0-0.18","4yuxk6fvkr5607n","prime","5c0e87f97804780001837efb","5f60e3c0a3b16e07647b2ff9","5f63802933bdbd070532a067","false","null","<span style=""color: black; font-size: 48px"">N + M</span>","null","","","","resp_prompt","","","","","","","","","","","","","","","",""
"categorize-image","172","468180","0.0-4.0-1.0-1.18","4yuxk6fvkr5607n","prime","5c0e87f97804780001837efb","5f60e3c0a3b16e07647b2ff9","5f63802933bdbd070532a067","true","651.6650000121444","./Stimuli/SelectedImages/SM/SM213.bmp","76","","","","test","true","N + M","76","repetition","SM","SM213.bmp","remember","","67","3","prime1","right","","","",""
"html-keyboard-response","173","470183","0.0-4.0-1.0-3.18","4yuxk6fvkr5607n","prime","5c0e87f97804780001837efb","5f60e3c0a3b16e07647b2ff9","5f63802933bdbd070532a067","false","null","<div style=""align-items: center; display: flex; color: dodgerblue; font-size: 90px""><b>o</b></div>","null","","","","forget_cue","","","","","","","","","","","","","","","",""
"html-keyboard-response","174","470886","0.0-4.0-1.0-0.19","4yuxk6fvkr5607n","prime","5c0e87f97804780001837efb","5f60e3c0a3b16e07647b2ff9","5f63802933bdbd070532a067","false","null","<span style=""color: black; font-size: 48px"">M + N</span>","null","","","","resp_prompt","","","","","","","","","","","","","","","",""
"categorize-image","175","471589","0.0-4.0-1.0-1.19","4yuxk6fvkr5607n","prime","5c0e87f97804780001837efb","5f60e3c0a3b16e07647b2ff9","5f63802933bdbd070532a067","true","695.729999919422","./Stimuli/SelectedImages/SN/SN181.bmp","76","","","","test","true","M + N","76","repetition","SN","SN181.bmp","forget","","68","3","prime1","right","","","",""
"html-keyboard-response","176","473592","0.0-4.0-1.0-3.19","4yuxk6fvkr5607n","prime","5c0e87f97804780001837efb","5f60e3c0a3b16e07647b2ff9","5f63802933bdbd070532a067","false","null","<div style=""align-items: center; display: flex; color: darkorange; font-size: 90px""><b>ø</b></div>","null","","","","forget_cue","","","","","","","","","","","","","","","",""
"html-keyboard-response","177","474295","0.0-4.0-1.0-0.20","4yuxk6fvkr5607n","prime","5c0e87f97804780001837efb","5f60e3c0a3b16e07647b2ff9","5f63802933bdbd070532a067","false","null","<span style=""color: black; font-size: 48px"">M + N</span>","null","","","","resp_prompt","","","","","","","","","","","","","","","",""
"categorize-image","178","474999","0.0-4.0-1.0-1.20","4yuxk6fvkr5607n","prime","5c0e87f97804780001837efb","5f60e3c0a3b16e07647b2ff9","5f63802933bdbd070532a067","true","697.1599999815226","./Stimuli/SelectedImages/SM/SM74.bmp","83","","","","test","true","M + N","83","switch","SM","SM74.bmp","remember","","69","3","prime1","left","","","",""
"html-keyboard-response","179","477002","0.0-4.0-1.0-3.20","4yuxk6fvkr5607n","prime","5c0e87f97804780001837efb","5f60e3c0a3b16e07647b2ff9","5f63802933bdbd070532a067","false","null","<div style=""align-items: center; display: flex; color: dodgerblue; font-size: 90px""><b>o</b></div>","null","","","","forget_cue","","","","","","","","","","","","","","","",""
"html-keyboard-response","180","477704","0.0-4.0-1.0-0.21","4yuxk6fvkr5607n","prime","5c0e87f97804780001837efb","5f60e3c0a3b16e07647b2ff9","5f63802933bdbd070532a067","false","null","<span style=""color: black; font-size: 48px"">N + M</span>","null","","","","resp_prompt","","","","","","","","","","","","","","","",""
"categorize-image","181","478635","0.0-4.0-1.0-1.21","4yuxk6fvkr5607n","prime","5c0e87f97804780001837efb","5f60e3c0a3b16e07647b2ff9","5f63802933bdbd070532a067","true","922.0849999692291","./Stimuli/SelectedImages/LM/LM100.bmp","76","","","","test","true","N + M","76","switch","LM","LM100.bmp","forget","","70","3","prime1","right","","","",""
"html-keyboard-response","182","480638","0.0-4.0-1.0-3.21","4yuxk6fvkr5607n","prime","5c0e87f97804780001837efb","5f60e3c0a3b16e07647b2ff9","5f63802933bdbd070532a067","false","null","<div style=""align-items: center; display: flex; color: darkorange; font-size: 90px""><b>ø</b></div>","null","","","","forget_cue","","","","","","","","","","","","","","","",""
"html-keyboard-response","183","481341","0.0-4.0-1.0-0.22","4yuxk6fvkr5607n","prime","5c0e87f97804780001837efb","5f60e3c0a3b16e07647b2ff9","5f63802933bdbd070532a067","false","null","<span style=""color: black; font-size: 48px"">N + M</span>","null","","","","resp_prompt","","","","","","","","","","","","","","","",""
"categorize-image","184","482014","0.0-4.0-1.0-1.22","4yuxk6fvkr5607n","prime","5c0e87f97804780001837efb","5f60e3c0a3b16e07647b2ff9","5f63802933bdbd070532a067","true","666.17999994196","./Stimuli/SelectedImages/SN/SN52.bmp","83","","","","test","true","N + M","83","switch","SN","SN52.bmp","forget","","71","3","prime1","left","","","",""
"html-keyboard-response","185","484018","0.0-4.0-1.0-3.22","4yuxk6fvkr5607n","prime","5c0e87f97804780001837efb","5f60e3c0a3b16e07647b2ff9","5f63802933bdbd070532a067","false","null","<div style=""align-items: center; display: flex; color: darkorange; font-size: 90px""><b>ø</b></div>","null","","","","forget_cue","","","","","","","","","","","","","","","",""
"html-keyboard-response","186","484720","0.0-4.0-1.0-0.23","4yuxk6fvkr5607n","prime","5c0e87f97804780001837efb","5f60e3c0a3b16e07647b2ff9","5f63802933bdbd070532a067","false","null","<span style=""color: black; font-size: 48px"">N + M</span>","null","","","","resp_prompt","","","","","","","","","","","","","","","",""
"categorize-image","187","485262","0.0-4.0-1.0-1.23","4yuxk6fvkr5607n","prime","5c0e87f97804780001837efb","5f60e3c0a3b16e07647b2ff9","5f63802933bdbd070532a067","true","535.9100000932813","./Stimuli/SelectedImages/SN/SN27.bmp","83","","","","test","true","N + M","83","repetition","SN","SN27.bmp","remember","","72","3","prime1","left","","","",""
"html-keyboard-response","188","487266","0.0-4.0-1.0-3.23","4yuxk6fvkr5607n","prime","5c0e87f97804780001837efb","5f60e3c0a3b16e07647b2ff9","5f63802933bdbd070532a067","false","null","<div style=""align-items: center; display: flex; color: dodgerblue; font-size: 90px""><b>o</b></div>","null","","","","forget_cue","","","","","","","","","","","","","","","",""
"html-keyboard-response","189","487969","0.0-4.0-1.0-0.24","4yuxk6fvkr5607n","prime","5c0e87f97804780001837efb","5f60e3c0a3b16e07647b2ff9","5f63802933bdbd070532a067","false","null","<span style=""color: black; font-size: 48px"">N + M</span>","null","","","","resp_prompt","","","","","","","","","","","","","","","",""
"categorize-image","190","488594","0.0-4.0-1.0-1.24","4yuxk6fvkr5607n","prime","5c0e87f97804780001837efb","5f60e3c0a3b16e07647b2ff9","5f63802933bdbd070532a067","true","620.519999996759","./Stimuli/SelectedImages/SM/SM76.bmp","76","","","","test","true","N + M","76","repetition","SM","SM76.bmp","forget","","73","3","prime1","right","","","",""
"html-keyboard-response","191","490597","0.0-4.0-1.0-3.24","4yuxk6fvkr5607n","prime","5c0e87f97804780001837efb","5f60e3c0a3b16e07647b2ff9","5f63802933bdbd070532a067","false","null","<div style=""align-items: center; display: flex; color: darkorange; font-size: 90px""><b>ø</b></div>","null","","","","forget_cue","","","","","","","","","","","","","","","",""
"html-keyboard-response","192","491300","0.0-4.0-1.0-0.25","4yuxk6fvkr5607n","prime","5c0e87f97804780001837efb","5f60e3c0a3b16e07647b2ff9","5f63802933bdbd070532a067","false","null","<span style=""color: black; font-size: 48px"">N + M</span>","null","","","","resp_prompt","","","","","","","","","","","","","","","",""
"categorize-image","193","492021","0.0-4.0-1.0-1.25","4yuxk6fvkr5607n","prime","5c0e87f97804780001837efb","5f60e3c0a3b16e07647b2ff9","5f63802933bdbd070532a067","true","714.6049999864772","./Stimuli/SelectedImages/LM/LM167.bmp","76","","","","test","true","N + M","76","switch","LM","LM167.bmp","remember","","74","3","prime1","right","","","",""
"html-keyboard-response","194","494024","0.0-4.0-1.0-3.25","4yuxk6fvkr5607n","prime","5c0e87f97804780001837efb","5f60e3c0a3b16e07647b2ff9","5f63802933bdbd070532a067","false","null","<div style=""align-items: center; display: flex; color: dodgerblue; font-size: 90px""><b>o</b></div>","null","","","","forget_cue","","","","","","","","","","","","","","","",""
"html-keyboard-response","195","494725","0.0-4.0-1.0-0.26","4yuxk6fvkr5607n","prime","5c0e87f97804780001837efb","5f60e3c0a3b16e07647b2ff9","5f63802933bdbd070532a067","false","null","<span style=""color: black; font-size: 48px"">M + N</span>","null","","","","resp_prompt","","","","","","","","","","","","","","","",""
"categorize-image","196","495723","0.0-4.0-1.0-1.26","4yuxk6fvkr5607n","prime","5c0e87f97804780001837efb","5f60e3c0a3b16e07647b2ff9","5f63802933bdbd070532a067","true","992.4999999348074","./Stimuli/SelectedImages/LM/LM235.bmp","83","","","","test","true","M + N","83","switch","LM","LM235.bmp","forget","","75","3","prime1","left","","","",""
"html-keyboard-response","197","497726","0.0-4.0-1.0-3.26","4yuxk6fvkr5607n","prime","5c0e87f97804780001837efb","5f60e3c0a3b16e07647b2ff9","5f63802933bdbd070532a067","false","null","<div style=""align-items: center; display: flex; color: darkorange; font-size: 90px""><b>ø</b></div>","null","","","","forget_cue","","","","","","","","","","","","","","","",""
"html-keyboard-response","198","498428","0.0-4.0-1.0-0.27","4yuxk6fvkr5607n","prime","5c0e87f97804780001837efb","5f60e3c0a3b16e07647b2ff9","5f63802933bdbd070532a067","false","null","<span style=""color: black; font-size: 48px"">M + N</span>","null","","","","resp_prompt","","","","","","","","","","","","","","","",""
"categorize-image","199","499116","0.0-4.0-1.0-1.27","4yuxk6fvkr5607n","prime","5c0e87f97804780001837efb","5f60e3c0a3b16e07647b2ff9","5f63802933bdbd070532a067","true","680.8700000401586","./Stimuli/SelectedImages/LM/LM103.bmp","83","","","","test","true","M + N","83","repetition","LM","LM103.bmp","remember","","76","3","prime1","left","","","",""
"html-keyboard-response","200","501118","0.0-4.0-1.0-3.27","4yuxk6fvkr5607n","prime","5c0e87f97804780001837efb","5f60e3c0a3b16e07647b2ff9","5f63802933bdbd070532a067","false","null","<div style=""align-items: center; display: flex; color: dodgerblue; font-size: 90px""><b>o</b></div>","null","","","","forget_cue","","","","","","","","","","","","","","","",""
"html-keyboard-response","201","501820","0.0-4.0-1.0-0.28","4yuxk6fvkr5607n","prime","5c0e87f97804780001837efb","5f60e3c0a3b16e07647b2ff9","5f63802933bdbd070532a067","false","null","<span style=""color: black; font-size: 48px"">N + M</span>","null","","","","resp_prompt","","","","","","","","","","","","","","","",""
"categorize-image","202","502663","0.0-4.0-1.0-1.28","4yuxk6fvkr5607n","prime","5c0e87f97804780001837efb","5f60e3c0a3b16e07647b2ff9","5f63802933bdbd070532a067","true","835.3349999524653","./Stimuli/SelectedImages/LM/LM129.bmp","76","","","","test","true","N + M","76","switch","LM","LM129.bmp","forget","","77","3","prime1","right","","","",""
"html-keyboard-response","203","504667","0.0-4.0-1.0-3.28","4yuxk6fvkr5607n","prime","5c0e87f97804780001837efb","5f60e3c0a3b16e07647b2ff9","5f63802933bdbd070532a067","false","null","<div style=""align-items: center; display: flex; color: darkorange; font-size: 90px""><b>ø</b></div>","null","","","","forget_cue","","","","","","","","","","","","","","","",""
"html-keyboard-response","204","505370","0.0-4.0-1.0-0.29","4yuxk6fvkr5607n","prime","5c0e87f97804780001837efb","5f60e3c0a3b16e07647b2ff9","5f63802933bdbd070532a067","false","null","<span style=""color: black; font-size: 48px"">N + M</span>","null","","","","resp_prompt","","","","","","","","","","","","","","","",""
"categorize-image","205","506020","0.0-4.0-1.0-1.29","4yuxk6fvkr5607n","prime","5c0e87f97804780001837efb","5f60e3c0a3b16e07647b2ff9","5f63802933bdbd070532a067","true","643.8150000758469","./Stimuli/SelectedImages/SM/SM200.bmp","76","","","","test","true","N + M","76","switch","SM","SM200.bmp","forget","","78","3","prime1","right","","","",""
"html-keyboard-response","206","508024","0.0-4.0-1.0-3.29","4yuxk6fvkr5607n","prime","5c0e87f97804780001837efb","5f60e3c0a3b16e07647b2ff9","5f63802933bdbd070532a067","false","null","<div style=""align-items: center; display: flex; color: darkorange; font-size: 90px""><b>ø</b></div>","null","","","","forget_cue","","","","","","","","","","","","","","","",""
"html-keyboard-response","207","508726","0.0-4.0-1.0-0.30","4yuxk6fvkr5607n","prime","5c0e87f97804780001837efb","5f60e3c0a3b16e07647b2ff9","5f63802933bdbd070532a067","false","null","<span style=""color: black; font-size: 48px"">M + N</span>","null","","","","resp_prompt","","","","","","","","","","","","","","","",""
"categorize-image","208","509604","0.0-4.0-1.0-1.30","4yuxk6fvkr5607n","prime","5c0e87f97804780001837efb","5f60e3c0a3b16e07647b2ff9","5f63802933bdbd070532a067","true","871.4499999769032","./Stimuli/SelectedImages/SN/SN128.bmp","76","","","","test","true","M + N","76","switch","SN","SN128.bmp","forget","","79","3","prime1","right","","","",""
"html-keyboard-response","209","511607","0.0-4.0-1.0-3.30","4yuxk6fvkr5607n","prime","5c0e87f97804780001837efb","5f60e3c0a3b16e07647b2ff9","5f63802933bdbd070532a067","false","null","<div style=""align-items: center; display: flex; color: darkorange; font-size: 90px""><b>ø</b></div>","null","","","","forget_cue","","","","","","","","","","","","","","","",""
"html-keyboard-response","210","512310","0.0-4.0-1.0-0.31","4yuxk6fvkr5607n","prime","5c0e87f97804780001837efb","5f60e3c0a3b16e07647b2ff9","5f63802933bdbd070532a067","false","null","<span style=""color: black; font-size: 48px"">M + N</span>","null","","","","resp_prompt","","","","","","","","","","","","","","","",""
"categorize-image","211","513182","0.0-4.0-1.0-1.31","4yuxk6fvkr5607n","prime","5c0e87f97804780001837efb","5f60e3c0a3b16e07647b2ff9","5f63802933bdbd070532a067","true","864.8549999343231","./Stimuli/SelectedImages/LN/LN9.bmp","76","","","","test","true","M + N","76","switch","LN","LN9.bmp","forget","","80","3","prime1","right","","","",""
"html-keyboard-response","212","515185","0.0-4.0-1.0-3.31","4yuxk6fvkr5607n","prime","5c0e87f97804780001837efb","5f60e3c0a3b16e07647b2ff9","5f63802933bdbd070532a067","false","null","<div style=""align-items: center; display: flex; color: darkorange; font-size: 90px""><b>ø</b></div>","null","","","","forget_cue","","","","","","","","","","","","","","","",""
"html-keyboard-response","213","515888","0.0-4.0-1.0-0.32","4yuxk6fvkr5607n","prime","5c0e87f97804780001837efb","5f60e3c0a3b16e07647b2ff9","5f63802933bdbd070532a067","false","null","<span style=""color: black; font-size: 48px"">M + N</span>","null","","","","resp_prompt","","","","","","","","","","","","","","","",""
"categorize-image","214","517747","0.0-4.0-1.0-1.32","4yuxk6fvkr5607n","prime","5c0e87f97804780001837efb","5f60e3c0a3b16e07647b2ff9","5f63802933bdbd070532a067","true","1854.0349999675527","./Stimuli/SelectedImages/LN/LN13.bmp","76","","","","test","true","M + N","76","switch","LN","LN13.bmp","forget","","81","3","prime1","right","","","",""
"html-keyboard-response","215","519749","0.0-4.0-1.0-3.32","4yuxk6fvkr5607n","prime","5c0e87f97804780001837efb","5f60e3c0a3b16e07647b2ff9","5f63802933bdbd070532a067","false","null","<div style=""align-items: center; display: flex; color: darkorange; font-size: 90px""><b>ø</b></div>","null","","","","forget_cue","","","","","","","","","","","","","","","",""
"html-keyboard-response","216","520451","0.0-4.0-1.0-0.33","4yuxk6fvkr5607n","prime","5c0e87f97804780001837efb","5f60e3c0a3b16e07647b2ff9","5f63802933bdbd070532a067","false","null","<span style=""color: black; font-size: 48px"">N + M</span>","null","","","","resp_prompt","","","","","","","","","","","","","","","",""
"categorize-image","217","521136","0.0-4.0-1.0-1.33","4yuxk6fvkr5607n","prime","5c0e87f97804780001837efb","5f60e3c0a3b16e07647b2ff9","5f63802933bdbd070532a067","true","676.6249999636784","./Stimuli/SelectedImages/LN/LN59.bmp","83","","","","test","true","N + M","83","switch","LN","LN59.bmp","remember","","82","3","prime1","left","","","",""
"html-keyboard-response","218","523139","0.0-4.0-1.0-3.33","4yuxk6fvkr5607n","prime","5c0e87f97804780001837efb","5f60e3c0a3b16e07647b2ff9","5f63802933bdbd070532a067","false","null","<div style=""align-items: center; display: flex; color: dodgerblue; font-size: 90px""><b>o</b></div>","null","","","","forget_cue","","","","","","","","","","","","","","","",""
"html-keyboard-response","219","523842","0.0-4.0-1.0-0.34","4yuxk6fvkr5607n","prime","5c0e87f97804780001837efb","5f60e3c0a3b16e07647b2ff9","5f63802933bdbd070532a067","false","null","<span style=""color: black; font-size: 48px"">M + N</span>","null","","","","resp_prompt","","","","","","","","","","","","","","","",""
"categorize-image","220","524569","0.0-4.0-1.0-1.34","4yuxk6fvkr5607n","prime","5c0e87f97804780001837efb","5f60e3c0a3b16e07647b2ff9","5f63802933bdbd070532a067","true","719.8099999222904","./Stimuli/SelectedImages/SM/SM207.bmp","83","","","","test","true","M + N","83","repetition","SM","SM207.bmp","remember","","83","3","prime1","left","","","",""
"html-keyboard-response","221","526572","0.0-4.0-1.0-3.34","4yuxk6fvkr5607n","prime","5c0e87f97804780001837efb","5f60e3c0a3b16e07647b2ff9","5f63802933bdbd070532a067","false","null","<div style=""align-items: center; display: flex; color: dodgerblue; font-size: 90px""><b>o</b></div>","null","","","","forget_cue","","","","","","","","","","","","","","","",""
"html-keyboard-response","222","527275","0.0-4.0-1.0-0.35","4yuxk6fvkr5607n","prime","5c0e87f97804780001837efb","5f60e3c0a3b16e07647b2ff9","5f63802933bdbd070532a067","false","null","<span style=""color: black; font-size: 48px"">M + N</span>","null","","","","resp_prompt","","","","","","","","","","","","","","","",""
"categorize-image","223","528009","0.0-4.0-1.0-1.35","4yuxk6fvkr5607n","prime","5c0e87f97804780001837efb","5f60e3c0a3b16e07647b2ff9","5f63802933bdbd070532a067","true","727.4999999208376","./Stimuli/SelectedImages/LN/LN42.bmp","76","","","","test","true","M + N","76","switch","LN","LN42.bmp","remember","","84","3","prime1","right","","","",""
"html-keyboard-response","224","530012","0.0-4.0-1.0-3.35","4yuxk6fvkr5607n","prime","5c0e87f97804780001837efb","5f60e3c0a3b16e07647b2ff9","5f63802933bdbd070532a067","false","null","<div style=""align-items: center; display: flex; color: dodgerblue; font-size: 90px""><b>o</b></div>","null","","","","forget_cue","","","","","","","","","","","","","","","",""
"html-keyboard-response","225","530714","0.0-4.0-1.0-0.36","4yuxk6fvkr5607n","prime","5c0e87f97804780001837efb","5f60e3c0a3b16e07647b2ff9","5f63802933bdbd070532a067","false","null","<span style=""color: black; font-size: 48px"">M + N</span>","null","","","","resp_prompt","","","","","","","","","","","","","","","",""
"categorize-image","226","531552","0.0-4.0-1.0-1.36","4yuxk6fvkr5607n","prime","5c0e87f97804780001837efb","5f60e3c0a3b16e07647b2ff9","5f63802933bdbd070532a067","true","830.7700000004843","./Stimuli/SelectedImages/LM/LM157.bmp","83","","","","test","true","M + N","83","repetition","LM","LM157.bmp","forget","","85","3","prime1","left","","","",""
"html-keyboard-response","227","533555","0.0-4.0-1.0-3.36","4yuxk6fvkr5607n","prime","5c0e87f97804780001837efb","5f60e3c0a3b16e07647b2ff9","5f63802933bdbd070532a067","false","null","<div style=""align-items: center; display: flex; color: darkorange; font-size: 90px""><b>ø</b></div>","null","","","","forget_cue","","","","","","","","","","","","","","","",""
"html-keyboard-response","228","534258","0.0-4.0-1.0-0.37","4yuxk6fvkr5607n","prime","5c0e87f97804780001837efb","5f60e3c0a3b16e07647b2ff9","5f63802933bdbd070532a067","false","null","<span style=""color: black; font-size: 48px"">M + N</span>","null","","","","resp_prompt","","","","","","","","","","","","","","","",""
"categorize-image","229","534987","0.0-4.0-1.0-1.37","4yuxk6fvkr5607n","prime","5c0e87f97804780001837efb","5f60e3c0a3b16e07647b2ff9","5f63802933bdbd070532a067","true","722.234999993816","./Stimuli/SelectedImages/LM/LM209.bmp","83","","","","test","true","M + N","83","repetition","LM","LM209.bmp","remember","","86","3","prime1","left","","","",""
"html-keyboard-response","230","536990","0.0-4.0-1.0-3.37","4yuxk6fvkr5607n","prime","5c0e87f97804780001837efb","5f60e3c0a3b16e07647b2ff9","5f63802933bdbd070532a067","false","null","<div style=""align-items: center; display: flex; color: dodgerblue; font-size: 90px""><b>o</b></div>","null","","","","forget_cue","","","","","","","","","","","","","","","",""
"html-keyboard-response","231","537693","0.0-4.0-1.0-0.38","4yuxk6fvkr5607n","prime","5c0e87f97804780001837efb","5f60e3c0a3b16e07647b2ff9","5f63802933bdbd070532a067","false","null","<span style=""color: black; font-size: 48px"">N + M</span>","null","","","","resp_prompt","","","","","","","","","","","","","","","",""
"categorize-image","232","538505","0.0-4.0-1.0-1.38","4yuxk6fvkr5607n","prime","5c0e87f97804780001837efb","5f60e3c0a3b16e07647b2ff9","5f63802933bdbd070532a067","true","804.8900000285357","./Stimuli/SelectedImages/LN/LN128.bmp","76","","","","test","false","N + M","83","switch","LN","LN128.bmp","remember","","87","3","prime1","right","","","",""
"html-keyboard-response","233","539009","0.0-4.0-1.0-2.38-0.38","4yuxk6fvkr5607n","prime","5c0e87f97804780001837efb","5f60e3c0a3b16e07647b2ff9","5f63802933bdbd070532a067","false","null","<span style=""color: red; font-size: 48px"">Error!</span>","null","","","","feedback","","","","","","","","","","","","","","","",""
"html-keyboard-response","234","541012","0.0-4.0-1.0-3.38","4yuxk6fvkr5607n","prime","5c0e87f97804780001837efb","5f60e3c0a3b16e07647b2ff9","5f63802933bdbd070532a067","false","null","<div style=""align-items: center; display: flex; color: dodgerblue; font-size: 90px""><b>o</b></div>","null","","","","forget_cue","","","","","","","","","","","","","","","",""
"html-keyboard-response","235","541715","0.0-4.0-1.0-0.39","4yuxk6fvkr5607n","prime","5c0e87f97804780001837efb","5f60e3c0a3b16e07647b2ff9","5f63802933bdbd070532a067","false","null","<span style=""color: black; font-size: 48px"">N + M</span>","null","","","","resp_prompt","","","","","","","","","","","","","","","",""
"categorize-image","236","542827","0.0-4.0-1.0-1.39","4yuxk6fvkr5607n","prime","5c0e87f97804780001837efb","5f60e3c0a3b16e07647b2ff9","5f63802933bdbd070532a067","true","1103.6349999485537","./Stimuli/SelectedImages/SN/SN182.bmp","83","","","","test","true","N + M","83","repetition","SN","SN182.bmp","forget","","88","3","prime1","left","","","",""
"html-keyboard-response","237","544832","0.0-4.0-1.0-3.39","4yuxk6fvkr5607n","prime","5c0e87f97804780001837efb","5f60e3c0a3b16e07647b2ff9","5f63802933bdbd070532a067","false","null","<div style=""align-items: center; display: flex; color: darkorange; font-size: 90px""><b>ø</b></div>","null","","","","forget_cue","","","","","","","","","","","","","","","",""
"html-keyboard-response","238","545535","0.0-4.0-1.0-0.40","4yuxk6fvkr5607n","prime","5c0e87f97804780001837efb","5f60e3c0a3b16e07647b2ff9","5f63802933bdbd070532a067","false","null","<span style=""color: black; font-size: 48px"">M + N</span>","null","","","","resp_prompt","","","","","","","","","","","","","","","",""
"categorize-image","239","546339","0.0-4.0-1.0-1.40","4yuxk6fvkr5607n","prime","5c0e87f97804780001837efb","5f60e3c0a3b16e07647b2ff9","5f63802933bdbd070532a067","true","796.9149999553338","./Stimuli/SelectedImages/SM/SM73.bmp","83","","","","test","true","M + N","83","repetition","SM","SM73.bmp","forget","","89","3","prime1","left","","","",""
"html-keyboard-response","240","548342","0.0-4.0-1.0-3.40","4yuxk6fvkr5607n","prime","5c0e87f97804780001837efb","5f60e3c0a3b16e07647b2ff9","5f63802933bdbd070532a067","false","null","<div style=""align-items: center; display: flex; color: darkorange; font-size: 90px""><b>ø</b></div>","null","","","","forget_cue","","","","","","","","","","","","","","","",""
"html-keyboard-response","241","549045","0.0-4.0-1.0-0.41","4yuxk6fvkr5607n","prime","5c0e87f97804780001837efb","5f60e3c0a3b16e07647b2ff9","5f63802933bdbd070532a067","false","null","<span style=""color: black; font-size: 48px"">N + M</span>","null","","","","resp_prompt","","","","","","","","","","","","","","","",""
"categorize-image","242","549806","0.0-4.0-1.0-1.41","4yuxk6fvkr5607n","prime","5c0e87f97804780001837efb","5f60e3c0a3b16e07647b2ff9","5f63802933bdbd070532a067","true","754.4050000142306","./Stimuli/SelectedImages/SN/SN93.bmp","83","","","","test","true","N + M","83","switch","SN","SN93.bmp","remember","","90","3","prime1","left","","","",""
"html-keyboard-response","243","551810","0.0-4.0-1.0-3.41","4yuxk6fvkr5607n","prime","5c0e87f97804780001837efb","5f60e3c0a3b16e07647b2ff9","5f63802933bdbd070532a067","false","null","<div style=""align-items: center; display: flex; color: dodgerblue; font-size: 90px""><b>o</b></div>","null","","","","forget_cue","","","","","","","","","","","","","","","",""
"html-keyboard-response","244","552512","0.0-4.0-1.0-0.42","4yuxk6fvkr5607n","prime","5c0e87f97804780001837efb","5f60e3c0a3b16e07647b2ff9","5f63802933bdbd070532a067","false","null","<span style=""color: black; font-size: 48px"">M + N</span>","null","","","","resp_prompt","","","","","","","","","","","","","","","",""
"categorize-image","245","553297","0.0-4.0-1.0-1.42","4yuxk6fvkr5607n","prime","5c0e87f97804780001837efb","5f60e3c0a3b16e07647b2ff9","5f63802933bdbd070532a067","true","779.7499999869615","./Stimuli/SelectedImages/LM/LM216.bmp","76","","","","test","false","M + N","83","switch","LM","LM216.bmp","forget","","91","3","prime1","right","","","",""
"html-keyboard-response","246","553801","0.0-4.0-1.0-2.42-0.42","4yuxk6fvkr5607n","prime","5c0e87f97804780001837efb","5f60e3c0a3b16e07647b2ff9","5f63802933bdbd070532a067","false","null","<span style=""color: red; font-size: 48px"">Error!</span>","null","","","","feedback","","","","","","","","","","","","","","","",""
"html-keyboard-response","247","555803","0.0-4.0-1.0-3.42","4yuxk6fvkr5607n","prime","5c0e87f97804780001837efb","5f60e3c0a3b16e07647b2ff9","5f63802933bdbd070532a067","false","null","<div style=""align-items: center; display: flex; color: darkorange; font-size: 90px""><b>ø</b></div>","null","","","","forget_cue","","","","","","","","","","","","","","","",""
"html-keyboard-response","248","556506","0.0-4.0-1.0-0.43","4yuxk6fvkr5607n","prime","5c0e87f97804780001837efb","5f60e3c0a3b16e07647b2ff9","5f63802933bdbd070532a067","false","null","<span style=""color: black; font-size: 48px"">M + N</span>","null","","","","resp_prompt","","","","","","","","","","","","","","","",""
"categorize-image","249","557293","0.0-4.0-1.0-1.43","4yuxk6fvkr5607n","prime","5c0e87f97804780001837efb","5f60e3c0a3b16e07647b2ff9","5f63802933bdbd070532a067","true","781.6699999384582","./Stimuli/SelectedImages/LM/LM75.bmp","83","","","","test","true","M + N","83","switch","LM","LM75.bmp","remember","","92","3","prime1","left","","","",""
"html-keyboard-response","250","559295","0.0-4.0-1.0-3.43","4yuxk6fvkr5607n","prime","5c0e87f97804780001837efb","5f60e3c0a3b16e07647b2ff9","5f63802933bdbd070532a067","false","null","<div style=""align-items: center; display: flex; color: dodgerblue; font-size: 90px""><b>o</b></div>","null","","","","forget_cue","","","","","","","","","","","","","","","",""
"html-keyboard-response","251","559998","0.0-4.0-1.0-0.44","4yuxk6fvkr5607n","prime","5c0e87f97804780001837efb","5f60e3c0a3b16e07647b2ff9","5f63802933bdbd070532a067","false","null","<span style=""color: black; font-size: 48px"">N + M</span>","null","","","","resp_prompt","","","","","","","","","","","","","","","",""
"categorize-image","252","560715","0.0-4.0-1.0-1.44","4yuxk6fvkr5607n","prime","5c0e87f97804780001837efb","5f60e3c0a3b16e07647b2ff9","5f63802933bdbd070532a067","true","712.6949999947101","./Stimuli/SelectedImages/SM/SM24.bmp","76","","","","test","true","N + M","76","switch","SM","SM24.bmp","remember","","93","3","prime1","right","","","",""
