"trial_type","trial_index","time_elapsed","internal_node_id","subject","exp_part","prolific_PID","study_ID","session_ID","use","rt","stimulus","key_press","button_pressed","responses","question_order","trial_part","correct","resp_map","correct_resp","probe_condition","category","image","forget_condition","list","trial_num","block_num","block","response","test_part","n_span","sequence","num_spaces"
"pavlovia","0","313","0.0-0.0","0vbf9b8df57ckgo","","5f14ad6a589e6c0a6da5cf9b","5f60e3c0a3b16e07647b2ff9","5f60ee2eecc85d015e1747f3","false","","","","","","","","","","","","","","","","","","","","","","",""
"html-keyboard-response","1","7128","0.0-1.0-0.0-0.0","0vbf9b8df57ckgo","welcome","5f14ad6a589e6c0a6da5cf9b","5f60e3c0a3b16e07647b2ff9","5f60ee2eecc85d015e1747f3","false","6809.440000040922","<div align=left>Dear participant, <br> thank you for participating in an online study of the Cognition, Action, and Sustainability Unit of the University of Freiburg! <br> <br>The aim of this study is to examine our ability to remember previously learned information. <br>Our goal is to find out, whether our memory improves, when we only remember information that is relevant to us. <br>The experiment will take about 35 minutes to complete. <br> <br>Please, note that you can only participate in this study if you are using a device with a keyboard (PC, Laptop etc.) <br>and not if you are using a mobile device such as a tablet or smartphone.<br> <br>Press 'SPACE' to proceed to the experiment. </div>","32","","","","","","","","","","","","","","","","","","","",""
"html-keyboard-response","2","16277","0.0-1.0-0.0-1.0","0vbf9b8df57ckgo","welcome","5f14ad6a589e6c0a6da5cf9b","5f60e3c0a3b16e07647b2ff9","5f60ee2eecc85d015e1747f3","false","9145.045000012033","<div align=left><strong> Time Course of this experiment: </strong> <br><br> <strong> 1.</strong>  First, please fill in some information regarding your demographic data. <br><br> <strong> 2.</strong>  Next, your task will be to classify everyday objects. <br>In addition, you will be asked to remember certain objects and recall them later. <br>Working on these tasks requires your undivided attention and concentration.<br>It is therefore essential that you eliminate any sources of distraction in your  <br>environment and ensure that you will not be disturbed. <br><br><strong> 3.</strong>  At the end of the experiment, you will be asked to answer a few additional questions. <br> <br><strong> Important:</strong> After finishing the experiment, only close the browser window <br> by clicking on the 'end the experiment'-button when you are asked to do so. <br>Closing the browser window prematurely will make the allocation of your participation credit impossible. <br><br> Press 'SPACE' to start the experiment. </div>","32","","","","","","","","","","","","","","","","","","","",""
"html-button-response","3","19969","0.0-1.0-0.0-2.0","0vbf9b8df57ckgo","welcome","5f14ad6a589e6c0a6da5cf9b","5f60e3c0a3b16e07647b2ff9","5f60ee2eecc85d015e1747f3","true","3682.08500003675","<div align=left><strong> Informed consent </strong>  <br>The aim of our research is to better understand human behavior and mental processes. <br>In the following study your behavior (e.g. choices, reaction times) will be studied. <br> <br><strong> Voluntariness and Anonymity </strong> <br>Your participation in this study is  <strong> voluntary</strong>.<br>You may withdraw your consent to participate at any time without providing a reason for doing so and without fear of prejudice. <br><br>As no personal data will be collected, <strong>your data and your person cannot be connected after data collection</strong> – the data-set is anonymous. <br>Respectively, deletion of your data will not be possible after data collection has been completed, as we cannot retrace your data-set.<br>The results and anonymized data collected in this study will be published as a scientific publication. <br>This will happen in an <strong>anonymized format</strong>, so that no data can be traced back to a specific person. <br> <br>The anonymized data of this study will be made available to other researchers and/or in a data archive on the Internet as a means of transparency and to enable subsequent re-use. By doing so, this study follows the recommendations of the Deutsche Forschungsgemeinschaft (DFG, German Research Foundation) and Deutsche Gesellschaft für Psychologie (DGPS, German Psychological Society) regarding quality assurance in research.<br>If you have any questions now or after the experiment, please contact our team (experiments@cs.uni-freiburg.de).<br><br><br>I hereby declare, that I understand the above described conditions of participation and I agree to participate under these conditions. <br><br> </div>","","0","","","","","","","","","","","","","","","","","","",""
"html-keyboard-response","4","26910","0.0-1.0-0.0-3.0","0vbf9b8df57ckgo","welcome","5f14ad6a589e6c0a6da5cf9b","5f60e3c0a3b16e07647b2ff9","5f60ee2eecc85d015e1747f3","false","6890.325000043958","<div align=left><strong> General information concerning the experiment </strong>  <br> <br>Please follow the instructions:<ol> <li><strong> Do not leave this tab (your browser window) during the experiment and do not reload this tab! </strong>  <br>If you do switch tabs/windows during the experiment (to check your mail or visit another website, for example), <br>the experiment will end automatically and you will <strong>not receive credit</strong> for your participation. <br>Repeated participation or resumption of the experiment is impossible.</li> <br><li>Please close all other programs for the duration of your participation. </li> <br><li>Please mute or turn off your phone and put it out of your reach. </li> <br><li>Please also take off any disturbing accessories (such as wristwatches, bracelets, etc.). </li> <br><li>If you have music playing in the background, please turn it off now. </li> <br></ol>Thank you! <br>Press 'SPACE' to continue. </div>","32","","","","","","","","","","","","","","","","","","","",""
"survey-text","5","55868","0.0-1.0-1.0-0.0","0vbf9b8df57ckgo","demographics","5f14ad6a589e6c0a6da5cf9b","5f60e3c0a3b16e07647b2ff9","5f60ee2eecc85d015e1747f3","true","28350.225000001956","","","","{""age"":"" 18 ""}","","","","","","","","","","","","","","","","","",""
"survey-multi-choice","6","69059","0.0-1.0-1.0-1.0","0vbf9b8df57ckgo","demographics","5f14ad6a589e6c0a6da5cf9b","5f60e3c0a3b16e07647b2ff9","5f60ee2eecc85d015e1747f3","true","13119.620000012219","","","","{""gender"":""female"",""school"":""middle school/secondary school/ graduation from polytechnic high school"",""education"":""Less than high school diploma""}","[0,1,2]","","","","","","","","","","","","","","","","",""
"html-keyboard-response","7","75873","0.0-1.0-2.0","0vbf9b8df57ckgo","instructions","5f14ad6a589e6c0a6da5cf9b","5f60e3c0a3b16e07647b2ff9","5f60ee2eecc85d015e1747f3","false","6809.0099999681115","<div align=left> The experiment is now about to start: <br> <br>In the following part, you will be presented pictures of everyday objects. <br>Your first task is to <strong>classify these objects. </strong> <br> <br> You will classify them either as mechanical or non-mechanical objects. <br> <br>Objects that include any kind of technical mechanism (for example, wheels, switches, levers, <br> electronic components) fall under the category of <strong>mechanical</strong> objects. <br>Only objects without any kind of technical mechanism should be classified as <strong>non-mechanical</strong>. <br><br>Press 'SPACE' to continue. </div>","32","","","","","","","","","","","","","","","","","","","",""
"html-keyboard-response","8","103693","0.0-2.0-0.0","0vbf9b8df57ckgo","instructions","5f14ad6a589e6c0a6da5cf9b","5f60e3c0a3b16e07647b2ff9","5f60ee2eecc85d015e1747f3","false","27816.42499996815","<div align=justify>You will classify the objects using the <strong>'S'</strong> and the <strong>'L'</strong> keys on your keyboard.<br>For doing so, please place your <strong>left index finger</strong> on the <strong>'S'</strong> key and place your <strong>right index finger</strong> on the <strong>'L'</strong> key. <br><br> Each trial starts with an instruction, indicating which key ('S'/'L') you need to press to classify <br>the object as mechanical (letter M) or non-mechanical (letter N).<br>The instruction <strong>M + N</strong> indicates that, in the current trial, by pressing the left key ('S') you classify the displayed object as mechanical (M) <br> and by pressing the right key ('L') you classify the object as non-mechanical (N). <br>The instruction <strong>N + M</strong> on the other hand indicates that by pressing the left key ('S') you classify the displayed object as non-mechanical (N) <br> and by pressing the right key ('L') you classify the object as mechanical (M). <br><br>Please press the key corresponding to the correct classification as fast as possible as soon as the object is displayed and try to avoid making mistakes.<br>If you do not respond within a 2 second window, a corresponding feedback will be displayed and the next trial will start.<br> The experiment is divided into multiple blocks to give you the opportunity to take a break after each block. <br>First, you can now practice this task. <br><br>Please place your <strong>LEFT INDEX FINGER</strong> on the 'S' key and your <strong>RIGHT INDEX FINGER</strong> on the 'L' key now. <br><br>Press SPACE to continue.</div>","32","","","","","","","","","","","","","","","","","","","",""
"html-keyboard-response","9","107396","0.0-2.0-1.0","0vbf9b8df57ckgo","instructions","5f14ad6a589e6c0a6da5cf9b","5f60e3c0a3b16e07647b2ff9","5f60ee2eecc85d015e1747f3","false","3610.2499999688007","<div align=left> You will now have time to practice this task.<br><br>Remember: <br> <br><li>Please place your index fingers on the <strong>'S'</strong> and <strong>'L'</strong> keys <br>to respond as fast and accurately as possible.</li><li>Every picture can be classified as either mechanical or non-mechanical.</li><li>If you do not respond in time or commit an error, you will receive a corresponding feedback. </li><li> Please try to respond as <strong> fast </strong> and as <strong> accurately as possible </strong> .<br><li>To ensure optimal results, please minimize distractions and stay focused. </li><br><br>Press SPACE to continue.</div>","32","","","","","","","","","","","","","","","","","","","",""
"html-keyboard-response","10","108104","0.0-2.0-2.0-0.0","0vbf9b8df57ckgo","practice_no_cue","5f14ad6a589e6c0a6da5cf9b","5f60e3c0a3b16e07647b2ff9","5f60ee2eecc85d015e1747f3","false","null","<span style=""color: black; font-size: 48px"">M + N</span>","null","","","","resp_prompt","","","","","","","","","","","","","","","",""
"categorize-image","11","109823","0.0-2.0-2.0-1.0","0vbf9b8df57ckgo","practice_no_cue","5f14ad6a589e6c0a6da5cf9b","5f60e3c0a3b16e07647b2ff9","5f60ee2eecc85d015e1747f3","true","1172.595000010915","./Stimuli/ImagesPractice/LN17.jpg","83","","","","test","false","M + N","76","","LN","LN17.jpg","forget","old","1","1","start","left","","","",""
"html-keyboard-response","12","110525","0.0-2.0-2.0-0.1","0vbf9b8df57ckgo","practice_no_cue","5f14ad6a589e6c0a6da5cf9b","5f60e3c0a3b16e07647b2ff9","5f60ee2eecc85d015e1747f3","false","null","<span style=""color: black; font-size: 48px"">N + M</span>","null","","","","resp_prompt","","","","","","","","","","","","","","","",""
"categorize-image","13","111228","0.0-2.0-2.0-1.1","0vbf9b8df57ckgo","practice_no_cue","5f14ad6a589e6c0a6da5cf9b","5f60e3c0a3b16e07647b2ff9","5f60ee2eecc85d015e1747f3","true","199.9599999981001","./Stimuli/ImagesPractice/SN205.jpg","76","","","","test","false","N + M","83","","SN","SN205.jpg","remember","old","2","1","start","right","","","",""
"html-keyboard-response","14","111930","0.0-2.0-2.0-0.2","0vbf9b8df57ckgo","practice_no_cue","5f14ad6a589e6c0a6da5cf9b","5f60e3c0a3b16e07647b2ff9","5f60ee2eecc85d015e1747f3","false","null","<span style=""color: black; font-size: 48px"">N + M</span>","null","","","","resp_prompt","","","","","","","","","","","","","","","",""
"categorize-image","15","114435","0.0-2.0-2.0-1.2","0vbf9b8df57ckgo","practice_no_cue","5f14ad6a589e6c0a6da5cf9b","5f60e3c0a3b16e07647b2ff9","5f60ee2eecc85d015e1747f3","true","null","./Stimuli/ImagesPractice/SM62.jpg","null","","","","test","false","N + M","76","","SM","SM62.jpg","forget","old","3","1","start","too_slow","","","",""
"html-keyboard-response","16","115139","0.0-2.0-2.0-0.3","0vbf9b8df57ckgo","practice_no_cue","5f14ad6a589e6c0a6da5cf9b","5f60e3c0a3b16e07647b2ff9","5f60ee2eecc85d015e1747f3","false","null","<span style=""color: black; font-size: 48px"">M + N</span>","null","","","","resp_prompt","","","","","","","","","","","","","","","",""
"categorize-image","17","117171","0.0-2.0-2.0-1.3","0vbf9b8df57ckgo","practice_no_cue","5f14ad6a589e6c0a6da5cf9b","5f60e3c0a3b16e07647b2ff9","5f60ee2eecc85d015e1747f3","true","1525.374999968335","./Stimuli/ImagesPractice/SM37.jpg","83","","","","test","true","M + N","83","","SM","SM37.jpg","remember","old","4","1","start","left","","","",""
"html-keyboard-response","18","117873","0.0-2.0-2.0-0.4","0vbf9b8df57ckgo","practice_no_cue","5f14ad6a589e6c0a6da5cf9b","5f60e3c0a3b16e07647b2ff9","5f60ee2eecc85d015e1747f3","false","null","<span style=""color: black; font-size: 48px"">N + M</span>","null","","","","resp_prompt","","","","","","","","","","","","","","","",""
"categorize-image","19","119689","0.0-2.0-2.0-1.4","0vbf9b8df57ckgo","practice_no_cue","5f14ad6a589e6c0a6da5cf9b","5f60e3c0a3b16e07647b2ff9","5f60ee2eecc85d015e1747f3","true","1307.9150000121444","./Stimuli/ImagesPractice/LM224.jpg","76","","","","test","true","N + M","76","","LM","LM224.jpg","forget","old","5","1","start","right","","","",""
"html-keyboard-response","20","120392","0.0-2.0-2.0-0.5","0vbf9b8df57ckgo","practice_no_cue","5f14ad6a589e6c0a6da5cf9b","5f60e3c0a3b16e07647b2ff9","5f60ee2eecc85d015e1747f3","false","null","<span style=""color: black; font-size: 48px"">N + M</span>","null","","","","resp_prompt","","","","","","","","","","","","","","","",""
"categorize-image","21","121604","0.0-2.0-2.0-1.5","0vbf9b8df57ckgo","practice_no_cue","5f14ad6a589e6c0a6da5cf9b","5f60e3c0a3b16e07647b2ff9","5f60ee2eecc85d015e1747f3","true","705.8750000433065","./Stimuli/ImagesPractice/SN76.jpg","76","","","","test","false","N + M","83","","SN","SN76.jpg","forget","old","6","1","start","right","","","",""
"html-keyboard-response","22","122308","0.0-2.0-2.0-0.6","0vbf9b8df57ckgo","practice_no_cue","5f14ad6a589e6c0a6da5cf9b","5f60e3c0a3b16e07647b2ff9","5f60ee2eecc85d015e1747f3","false","null","<span style=""color: black; font-size: 48px"">N + M</span>","null","","","","resp_prompt","","","","","","","","","","","","","","","",""
"categorize-image","23","123552","0.0-2.0-2.0-1.6","0vbf9b8df57ckgo","practice_no_cue","5f14ad6a589e6c0a6da5cf9b","5f60e3c0a3b16e07647b2ff9","5f60ee2eecc85d015e1747f3","true","737.2200000099838","./Stimuli/ImagesPractice/SN222.jpg","83","","","","test","true","N + M","83","","SN","SN222.jpg","remember","old","7","1","start","left","","","",""
"html-keyboard-response","24","124256","0.0-2.0-2.0-0.7","0vbf9b8df57ckgo","practice_no_cue","5f14ad6a589e6c0a6da5cf9b","5f60e3c0a3b16e07647b2ff9","5f60ee2eecc85d015e1747f3","false","null","<span style=""color: black; font-size: 48px"">N + M</span>","null","","","","resp_prompt","","","","","","","","","","","","","","","",""
"categorize-image","25","125755","0.0-2.0-2.0-1.7","0vbf9b8df57ckgo","practice_no_cue","5f14ad6a589e6c0a6da5cf9b","5f60e3c0a3b16e07647b2ff9","5f60ee2eecc85d015e1747f3","true","993.285000033211","./Stimuli/ImagesPractice/SM97.jpg","76","","","","test","true","N + M","76","","SM","SM97.jpg","forget","old","8","1","start","right","","","",""
"html-keyboard-response","26","126473","0.0-2.0-2.0-0.8","0vbf9b8df57ckgo","practice_no_cue","5f14ad6a589e6c0a6da5cf9b","5f60e3c0a3b16e07647b2ff9","5f60ee2eecc85d015e1747f3","false","null","<span style=""color: black; font-size: 48px"">M + N</span>","null","","","","resp_prompt","","","","","","","","","","","","","","","",""
"categorize-image","27","127881","0.0-2.0-2.0-1.8","0vbf9b8df57ckgo","practice_no_cue","5f14ad6a589e6c0a6da5cf9b","5f60e3c0a3b16e07647b2ff9","5f60ee2eecc85d015e1747f3","true","903.4899999969639","./Stimuli/ImagesPractice/LN15.jpg","76","","","","test","true","M + N","76","","LN","LN15.jpg","remember","old","9","1","start","right","","","",""
"html-keyboard-response","28","128585","0.0-2.0-2.0-0.9","0vbf9b8df57ckgo","practice_no_cue","5f14ad6a589e6c0a6da5cf9b","5f60e3c0a3b16e07647b2ff9","5f60ee2eecc85d015e1747f3","false","null","<span style=""color: black; font-size: 48px"">N + M</span>","null","","","","resp_prompt","","","","","","","","","","","","","","","",""
"categorize-image","29","130213","0.0-2.0-2.0-1.9","0vbf9b8df57ckgo","practice_no_cue","5f14ad6a589e6c0a6da5cf9b","5f60e3c0a3b16e07647b2ff9","5f60ee2eecc85d015e1747f3","true","1122.0299999695271","./Stimuli/ImagesPractice/SN220.jpg","83","","","","test","true","N + M","83","","SN","SN220.jpg","remember","old","10","1","start","left","","","",""
"html-keyboard-response","30","130915","0.0-2.0-2.0-0.10","0vbf9b8df57ckgo","practice_no_cue","5f14ad6a589e6c0a6da5cf9b","5f60e3c0a3b16e07647b2ff9","5f60ee2eecc85d015e1747f3","false","null","<span style=""color: black; font-size: 48px"">M + N</span>","null","","","","resp_prompt","","","","","","","","","","","","","","","",""
"categorize-image","31","132096","0.0-2.0-2.0-1.10","0vbf9b8df57ckgo","practice_no_cue","5f14ad6a589e6c0a6da5cf9b","5f60e3c0a3b16e07647b2ff9","5f60ee2eecc85d015e1747f3","true","675.4050000454299","./Stimuli/ImagesPractice/LM230.jpg","83","","","","test","true","M + N","83","","LM","LM230.jpg","remember","old","11","1","start","left","","","",""
"html-keyboard-response","32","132799","0.0-2.0-2.0-0.11","0vbf9b8df57ckgo","practice_no_cue","5f14ad6a589e6c0a6da5cf9b","5f60e3c0a3b16e07647b2ff9","5f60ee2eecc85d015e1747f3","false","null","<span style=""color: black; font-size: 48px"">M + N</span>","null","","","","resp_prompt","","","","","","","","","","","","","","","",""
"categorize-image","33","134050","0.0-2.0-2.0-1.11","0vbf9b8df57ckgo","practice_no_cue","5f14ad6a589e6c0a6da5cf9b","5f60e3c0a3b16e07647b2ff9","5f60ee2eecc85d015e1747f3","true","744.4999999715947","./Stimuli/ImagesPractice/SN75.jpg","76","","","","test","true","M + N","76","","SN","SN75.jpg","forget","old","12","1","start","right","","","",""
"html-keyboard-response","34","134754","0.0-2.0-2.0-0.12","0vbf9b8df57ckgo","practice_no_cue","5f14ad6a589e6c0a6da5cf9b","5f60e3c0a3b16e07647b2ff9","5f60ee2eecc85d015e1747f3","false","null","<span style=""color: black; font-size: 48px"">M + N</span>","null","","","","resp_prompt","","","","","","","","","","","","","","","",""
"categorize-image","35","136113","0.0-2.0-2.0-1.12","0vbf9b8df57ckgo","practice_no_cue","5f14ad6a589e6c0a6da5cf9b","5f60e3c0a3b16e07647b2ff9","5f60ee2eecc85d015e1747f3","true","853.8950000074692","./Stimuli/ImagesPractice/LN4.jpg","76","","","","test","true","M + N","76","","LN","LN4.jpg","forget","old","13","1","start","right","","","",""
"html-keyboard-response","36","136817","0.0-2.0-2.0-0.13","0vbf9b8df57ckgo","practice_no_cue","5f14ad6a589e6c0a6da5cf9b","5f60e3c0a3b16e07647b2ff9","5f60ee2eecc85d015e1747f3","false","null","<span style=""color: black; font-size: 48px"">N + M</span>","null","","","","resp_prompt","","","","","","","","","","","","","","","",""
"categorize-image","37","138288","0.0-2.0-2.0-1.13","0vbf9b8df57ckgo","practice_no_cue","5f14ad6a589e6c0a6da5cf9b","5f60e3c0a3b16e07647b2ff9","5f60ee2eecc85d015e1747f3","true","965.0350000010803","./Stimuli/ImagesPractice/LM143.jpg","76","","","","test","true","N + M","76","","LM","LM143.jpg","remember","old","14","1","start","right","","","",""
"html-keyboard-response","38","138992","0.0-2.0-2.0-0.14","0vbf9b8df57ckgo","practice_no_cue","5f14ad6a589e6c0a6da5cf9b","5f60e3c0a3b16e07647b2ff9","5f60ee2eecc85d015e1747f3","false","null","<span style=""color: black; font-size: 48px"">M + N</span>","null","","","","resp_prompt","","","","","","","","","","","","","","","",""
"categorize-image","39","140519","0.0-2.0-2.0-1.14","0vbf9b8df57ckgo","practice_no_cue","5f14ad6a589e6c0a6da5cf9b","5f60e3c0a3b16e07647b2ff9","5f60ee2eecc85d015e1747f3","true","1020.2600000193343","./Stimuli/ImagesPractice/LN2.jpg","76","","","","test","true","M + N","76","","LN","LN2.jpg","remember","old","15","1","start","right","","","",""
"html-keyboard-response","40","141222","0.0-2.0-2.0-0.15","0vbf9b8df57ckgo","practice_no_cue","5f14ad6a589e6c0a6da5cf9b","5f60e3c0a3b16e07647b2ff9","5f60ee2eecc85d015e1747f3","false","null","<span style=""color: black; font-size: 48px"">M + N</span>","null","","","","resp_prompt","","","","","","","","","","","","","","","",""
"categorize-image","41","142842","0.0-2.0-2.0-1.15","0vbf9b8df57ckgo","practice_no_cue","5f14ad6a589e6c0a6da5cf9b","5f60e3c0a3b16e07647b2ff9","5f60ee2eecc85d015e1747f3","true","1112.5800000154413","./Stimuli/ImagesPractice/SM35.jpg","83","","","","test","true","M + N","83","","SM","SM35.jpg","forget","old","16","1","start","left","","","",""
"html-keyboard-response","42","158277","0.0-2.0-3.0","0vbf9b8df57ckgo","break","5f14ad6a589e6c0a6da5cf9b","5f60e3c0a3b16e07647b2ff9","5f60ee2eecc85d015e1747f3","false","15428.169999970123","<p style='font-size: 32px;'>Break</><br><br><br><br><br><p style='font-size: 24px;'>In the last block, you committed 3 errors and did not respond in time on 1 trials.
</p><p style='font-size: 24px;'>Try to respond as fast and accurately as possible in the next block as well! </p><p style='font-size: 24px;'>Press SPACE to continue.</p>","32","","","","","","","","","","","","","","","","","","","",""
"html-keyboard-response","43","163415","0.0-2.0-4.0","0vbf9b8df57ckgo","instructions","5f14ad6a589e6c0a6da5cf9b","5f60e3c0a3b16e07647b2ff9","5f60ee2eecc85d015e1747f3","false","5135.049999982584","<div align=left> Great!<br><br>Are you ready to continue?<br><br>If you want to reread the instructions and redo the practice trials, <br>please press „Z“. <br><br>Press SPACE to CONTINUE with the experiment when you are ready. </div>","32","","","","","","","","","","","","","","","","","","","",""
"html-keyboard-response","44","175759","0.0-3.0-0.0","0vbf9b8df57ckgo","instructions","5f14ad6a589e6c0a6da5cf9b","5f60e3c0a3b16e07647b2ff9","5f60ee2eecc85d015e1747f3","false","12338.954999984708","<div align=left>Great!<br> <strong>Attention</strong>! You will now receive a second, additional task! <br><br>To this point it was you <strong>first task</strong> to correctly <strong>classify objects</strong>. <br><br>As mentioned in the beginning, we aim to examine how well humans can remember previously learned information.<br>We would like to find out whether our memory improves if we only remember information that is relevant to us. <br><br>Therefore, your <strong>second task</strong> will be to <strong>remember</strong> the pictures you are to categorize. <br> After the learning phase, there will be a memory test phase, in which you will be asked to indicate whether you have seen a picture before or not. <br>Some, but not all pictures shown in the learning phase will appear in the memory test phase.<br>After classifying a picture, you will be told whether you should remember it for the memory test phase or not. <br>Thus, some pictures can be forgotten, whereas others have to be remembered. <br><br>Note: From now on, feedback will only be displayed if you responded incorrectly or not in time.<br><br>Press SPACE to continue.</div>","32","","","","","","","","","","","","","","","","","","","",""
"html-keyboard-response","45","186056","0.0-3.0-1.0","0vbf9b8df57ckgo","instructions","5f14ad6a589e6c0a6da5cf9b","5f60e3c0a3b16e07647b2ff9","5f60ee2eecc85d015e1747f3","false","10294.889999961015","<div align=left>In the following part, you will thus have to remember only some pictures. <br>Immediately after seeing and classifying the picture, a symbol will be displayed, indicating whether you should remember or forget the previous picture. <br><br>A <span style='color: dodgerblue; font-size: 28px'>O</span> indicates REMEMBER. That means, you have to remember this picture, because it will be tested later. <br><br>A <span style='color: darkorange; font-size:28px'>Ø</span> indicates FORGET. You do not have to remember this picture. <br><br> As you will have to remember a lot of pictures, it will be hard for you to remember all of them. <br>It will put you at an advantage if you instantly forget the pictures you are not asked to remember. <br> This will make it easier for you to remember the pictures that will be tested afterwards. <br><br>Press SPACE to continue.</div>","32","","","","","","","","","","","","","","","","","","","",""
"html-keyboard-response","46","194847","0.0-3.0-2.0","0vbf9b8df57ckgo","instructions","5f14ad6a589e6c0a6da5cf9b","5f60e3c0a3b16e07647b2ff9","5f60ee2eecc85d015e1747f3","false","8786.019999999553","<div align=left> Now you have the chance to practice both tasks together.<br><br>Remember: <br> <br><li>Please place your index fingers on the <strong>'S'</strong> and <strong>'L'</strong> keys <br>to respond as fast and accurately as possible.</li><li>Every picture can be classified as either mechanical or non-mechanical.</li><li>If you do not respond in time or commit an error, you will receive a corresponding feedback. <br>Please try to respond as <strong> fast </strong> and as <strong> accurately as possible </strong>.</li><li> Please remember only the to-be-remembered <span style='color: dodgerblue; font-size: 28px'>O</span> pictures. <br></li><li> Please minimize distractions and stay focused. </li><br><br>Press SPACE to START</div>","32","","","","","","","","","","","","","","","","","","","",""
"html-keyboard-response","47","195551","0.0-3.0-3.0-0.0","0vbf9b8df57ckgo","practice_cue","5f14ad6a589e6c0a6da5cf9b","5f60e3c0a3b16e07647b2ff9","5f60ee2eecc85d015e1747f3","false","null","<span style=""color: black; font-size: 48px"">M + N</span>","null","","","","resp_prompt","","","","","","","","","","","","","","","",""
"categorize-image","48","196705","0.0-3.0-3.0-1.0","0vbf9b8df57ckgo","practice_cue","5f14ad6a589e6c0a6da5cf9b","5f60e3c0a3b16e07647b2ff9","5f60ee2eecc85d015e1747f3","true","1085.7250000117347","./Stimuli/ImagesPractice/LM230.jpg","83","","","","test","true","M + N","83","","LM","LM230.jpg","remember","old","17","2","practice_forget","left","","","",""
"html-keyboard-response","49","198712","0.0-3.0-3.0-3.0","0vbf9b8df57ckgo","practice_cue","5f14ad6a589e6c0a6da5cf9b","5f60e3c0a3b16e07647b2ff9","5f60ee2eecc85d015e1747f3","false","null","<div style=""align-items: center; display: flex; color: dodgerblue; font-size: 90px""><b>o</b></div>","null","","","","forget_cue","","","","","","","","","","","","","","","",""
"html-keyboard-response","50","199415","0.0-3.0-3.0-0.1","0vbf9b8df57ckgo","practice_cue","5f14ad6a589e6c0a6da5cf9b","5f60e3c0a3b16e07647b2ff9","5f60ee2eecc85d015e1747f3","false","null","<span style=""color: black; font-size: 48px"">N + M</span>","null","","","","resp_prompt","","","","","","","","","","","","","","","",""
"categorize-image","51","200332","0.0-3.0-3.0-1.1","0vbf9b8df57ckgo","practice_cue","5f14ad6a589e6c0a6da5cf9b","5f60e3c0a3b16e07647b2ff9","5f60ee2eecc85d015e1747f3","true","905.3749999729916","./Stimuli/ImagesPractice/LM224.jpg","76","","","","test","true","N + M","76","","LM","LM224.jpg","forget","old","18","2","practice_forget","right","","","",""
"html-keyboard-response","52","202336","0.0-3.0-3.0-3.1","0vbf9b8df57ckgo","practice_cue","5f14ad6a589e6c0a6da5cf9b","5f60e3c0a3b16e07647b2ff9","5f60ee2eecc85d015e1747f3","false","null","<div style=""align-items: center; display: flex; color: darkorange; font-size: 90px""><b>ø</b></div>","null","","","","forget_cue","","","","","","","","","","","","","","","",""
"html-keyboard-response","53","203039","0.0-3.0-3.0-0.2","0vbf9b8df57ckgo","practice_cue","5f14ad6a589e6c0a6da5cf9b","5f60e3c0a3b16e07647b2ff9","5f60ee2eecc85d015e1747f3","false","null","<span style=""color: black; font-size: 48px"">N + M</span>","null","","","","resp_prompt","","","","","","","","","","","","","","","",""
"categorize-image","54","203178","0.0-3.0-3.0-1.2","0vbf9b8df57ckgo","practice_cue","5f14ad6a589e6c0a6da5cf9b","5f60e3c0a3b16e07647b2ff9","5f60ee2eecc85d015e1747f3","true","126.68500002473593","./Stimuli/ImagesPractice/LM143.jpg","83","","","","test","false","N + M","76","","LM","LM143.jpg","remember","old","19","2","practice_forget","left","","","",""
"html-keyboard-response","55","203683","0.0-3.0-3.0-2.2-0.2","0vbf9b8df57ckgo","practice_cue","5f14ad6a589e6c0a6da5cf9b","5f60e3c0a3b16e07647b2ff9","5f60ee2eecc85d015e1747f3","false","null","<span style=""color: red; font-size: 48px"">Error!</span>","null","","","","feedback","","","","","","","","","","","","","","","",""
"html-keyboard-response","56","205686","0.0-3.0-3.0-3.2","0vbf9b8df57ckgo","practice_cue","5f14ad6a589e6c0a6da5cf9b","5f60e3c0a3b16e07647b2ff9","5f60ee2eecc85d015e1747f3","false","null","<div style=""align-items: center; display: flex; color: dodgerblue; font-size: 90px""><b>o</b></div>","null","","","","forget_cue","","","","","","","","","","","","","","","",""
"html-keyboard-response","57","206389","0.0-3.0-3.0-0.3","0vbf9b8df57ckgo","practice_cue","5f14ad6a589e6c0a6da5cf9b","5f60e3c0a3b16e07647b2ff9","5f60ee2eecc85d015e1747f3","false","null","<span style=""color: black; font-size: 48px"">M + N</span>","null","","","","resp_prompt","","","","","","","","","","","","","","","",""
"categorize-image","58","207044","0.0-3.0-3.0-1.3","0vbf9b8df57ckgo","practice_cue","5f14ad6a589e6c0a6da5cf9b","5f60e3c0a3b16e07647b2ff9","5f60ee2eecc85d015e1747f3","true","643.6749999993481","./Stimuli/ImagesPractice/LN15.jpg","76","","","","test","true","M + N","76","","LN","LN15.jpg","remember","old","20","2","practice_forget","right","","","",""
"html-keyboard-response","59","209049","0.0-3.0-3.0-3.3","0vbf9b8df57ckgo","practice_cue","5f14ad6a589e6c0a6da5cf9b","5f60e3c0a3b16e07647b2ff9","5f60ee2eecc85d015e1747f3","false","null","<div style=""align-items: center; display: flex; color: dodgerblue; font-size: 90px""><b>o</b></div>","null","","","","forget_cue","","","","","","","","","","","","","","","",""
"html-keyboard-response","60","209752","0.0-3.0-3.0-0.4","0vbf9b8df57ckgo","practice_cue","5f14ad6a589e6c0a6da5cf9b","5f60e3c0a3b16e07647b2ff9","5f60ee2eecc85d015e1747f3","false","null","<span style=""color: black; font-size: 48px"">M + N</span>","null","","","","resp_prompt","","","","","","","","","","","","","","","",""
"categorize-image","61","210503","0.0-3.0-3.0-1.4","0vbf9b8df57ckgo","practice_cue","5f14ad6a589e6c0a6da5cf9b","5f60e3c0a3b16e07647b2ff9","5f60ee2eecc85d015e1747f3","true","738.7400000006892","./Stimuli/ImagesPractice/SM37.jpg","83","","","","test","true","M + N","83","","SM","SM37.jpg","remember","old","21","2","practice_forget","left","","","",""
"html-keyboard-response","62","212508","0.0-3.0-3.0-3.4","0vbf9b8df57ckgo","practice_cue","5f14ad6a589e6c0a6da5cf9b","5f60e3c0a3b16e07647b2ff9","5f60ee2eecc85d015e1747f3","false","null","<div style=""align-items: center; display: flex; color: dodgerblue; font-size: 90px""><b>o</b></div>","null","","","","forget_cue","","","","","","","","","","","","","","","",""
"html-keyboard-response","63","213211","0.0-3.0-3.0-0.5","0vbf9b8df57ckgo","practice_cue","5f14ad6a589e6c0a6da5cf9b","5f60e3c0a3b16e07647b2ff9","5f60ee2eecc85d015e1747f3","false","null","<span style=""color: black; font-size: 48px"">M + N</span>","null","","","","resp_prompt","","","","","","","","","","","","","","","",""
"categorize-image","64","213741","0.0-3.0-3.0-1.5","0vbf9b8df57ckgo","practice_cue","5f14ad6a589e6c0a6da5cf9b","5f60e3c0a3b16e07647b2ff9","5f60ee2eecc85d015e1747f3","true","521.149999985937","./Stimuli/ImagesPractice/SN75.jpg","76","","","","test","true","M + N","76","","SN","SN75.jpg","forget","old","22","2","practice_forget","right","","","",""
"html-keyboard-response","65","215743","0.0-3.0-3.0-3.5","0vbf9b8df57ckgo","practice_cue","5f14ad6a589e6c0a6da5cf9b","5f60e3c0a3b16e07647b2ff9","5f60ee2eecc85d015e1747f3","false","null","<div style=""align-items: center; display: flex; color: darkorange; font-size: 90px""><b>ø</b></div>","null","","","","forget_cue","","","","","","","","","","","","","","","",""
"html-keyboard-response","66","216446","0.0-3.0-3.0-0.6","0vbf9b8df57ckgo","practice_cue","5f14ad6a589e6c0a6da5cf9b","5f60e3c0a3b16e07647b2ff9","5f60ee2eecc85d015e1747f3","false","null","<span style=""color: black; font-size: 48px"">N + M</span>","null","","","","resp_prompt","","","","","","","","","","","","","","","",""
"categorize-image","67","217059","0.0-3.0-3.0-1.6","0vbf9b8df57ckgo","practice_cue","5f14ad6a589e6c0a6da5cf9b","5f60e3c0a3b16e07647b2ff9","5f60ee2eecc85d015e1747f3","true","597.6199999568053","./Stimuli/ImagesPractice/SN222.jpg","83","","","","test","true","N + M","83","","SN","SN222.jpg","remember","old","23","2","practice_forget","left","","","",""
"html-keyboard-response","68","219063","0.0-3.0-3.0-3.6","0vbf9b8df57ckgo","practice_cue","5f14ad6a589e6c0a6da5cf9b","5f60e3c0a3b16e07647b2ff9","5f60ee2eecc85d015e1747f3","false","null","<div style=""align-items: center; display: flex; color: dodgerblue; font-size: 90px""><b>o</b></div>","null","","","","forget_cue","","","","","","","","","","","","","","","",""
"html-keyboard-response","69","219766","0.0-3.0-3.0-0.7","0vbf9b8df57ckgo","practice_cue","5f14ad6a589e6c0a6da5cf9b","5f60e3c0a3b16e07647b2ff9","5f60ee2eecc85d015e1747f3","false","null","<span style=""color: black; font-size: 48px"">N + M</span>","null","","","","resp_prompt","","","","","","","","","","","","","","","",""
"categorize-image","70","220548","0.0-3.0-3.0-1.7","0vbf9b8df57ckgo","practice_cue","5f14ad6a589e6c0a6da5cf9b","5f60e3c0a3b16e07647b2ff9","5f60ee2eecc85d015e1747f3","true","768.8350000535138","./Stimuli/ImagesPractice/SM97.jpg","76","","","","test","true","N + M","76","","SM","SM97.jpg","forget","old","24","2","practice_forget","right","","","",""
"html-keyboard-response","71","222552","0.0-3.0-3.0-3.7","0vbf9b8df57ckgo","practice_cue","5f14ad6a589e6c0a6da5cf9b","5f60e3c0a3b16e07647b2ff9","5f60ee2eecc85d015e1747f3","false","null","<div style=""align-items: center; display: flex; color: darkorange; font-size: 90px""><b>ø</b></div>","null","","","","forget_cue","","","","","","","","","","","","","","","",""
"html-keyboard-response","72","223255","0.0-3.0-3.0-0.8","0vbf9b8df57ckgo","practice_cue","5f14ad6a589e6c0a6da5cf9b","5f60e3c0a3b16e07647b2ff9","5f60ee2eecc85d015e1747f3","false","null","<span style=""color: black; font-size: 48px"">N + M</span>","null","","","","resp_prompt","","","","","","","","","","","","","","","",""
"categorize-image","73","223796","0.0-3.0-3.0-1.8","0vbf9b8df57ckgo","practice_cue","5f14ad6a589e6c0a6da5cf9b","5f60e3c0a3b16e07647b2ff9","5f60ee2eecc85d015e1747f3","true","533.9200000162236","./Stimuli/ImagesPractice/SN205.jpg","83","","","","test","true","N + M","83","","SN","SN205.jpg","remember","old","25","2","practice_forget","left","","","",""
"html-keyboard-response","74","225801","0.0-3.0-3.0-3.8","0vbf9b8df57ckgo","practice_cue","5f14ad6a589e6c0a6da5cf9b","5f60e3c0a3b16e07647b2ff9","5f60ee2eecc85d015e1747f3","false","null","<div style=""align-items: center; display: flex; color: dodgerblue; font-size: 90px""><b>o</b></div>","null","","","","forget_cue","","","","","","","","","","","","","","","",""
"html-keyboard-response","75","226503","0.0-3.0-3.0-0.9","0vbf9b8df57ckgo","practice_cue","5f14ad6a589e6c0a6da5cf9b","5f60e3c0a3b16e07647b2ff9","5f60ee2eecc85d015e1747f3","false","null","<span style=""color: black; font-size: 48px"">N + M</span>","null","","","","resp_prompt","","","","","","","","","","","","","","","",""
"categorize-image","76","227416","0.0-3.0-3.0-1.9","0vbf9b8df57ckgo","practice_cue","5f14ad6a589e6c0a6da5cf9b","5f60e3c0a3b16e07647b2ff9","5f60ee2eecc85d015e1747f3","true","901.3449999620207","./Stimuli/ImagesPractice/SN220.jpg","83","","","","test","true","N + M","83","","SN","SN220.jpg","remember","old","26","2","practice_forget","left","","","",""
"html-keyboard-response","77","229420","0.0-3.0-3.0-3.9","0vbf9b8df57ckgo","practice_cue","5f14ad6a589e6c0a6da5cf9b","5f60e3c0a3b16e07647b2ff9","5f60ee2eecc85d015e1747f3","false","null","<div style=""align-items: center; display: flex; color: dodgerblue; font-size: 90px""><b>o</b></div>","null","","","","forget_cue","","","","","","","","","","","","","","","",""
"html-keyboard-response","78","230132","0.0-3.0-3.0-0.10","0vbf9b8df57ckgo","practice_cue","5f14ad6a589e6c0a6da5cf9b","5f60e3c0a3b16e07647b2ff9","5f60ee2eecc85d015e1747f3","false","null","<span style=""color: black; font-size: 48px"">M + N</span>","null","","","","resp_prompt","","","","","","","","","","","","","","","",""
"categorize-image","79","230763","0.0-3.0-3.0-1.10","0vbf9b8df57ckgo","practice_cue","5f14ad6a589e6c0a6da5cf9b","5f60e3c0a3b16e07647b2ff9","5f60ee2eecc85d015e1747f3","true","618.4849999845028","./Stimuli/ImagesPractice/LN4.jpg","76","","","","test","true","M + N","76","","LN","LN4.jpg","forget","old","27","2","practice_forget","right","","","",""
"html-keyboard-response","80","232768","0.0-3.0-3.0-3.10","0vbf9b8df57ckgo","practice_cue","5f14ad6a589e6c0a6da5cf9b","5f60e3c0a3b16e07647b2ff9","5f60ee2eecc85d015e1747f3","false","null","<div style=""align-items: center; display: flex; color: darkorange; font-size: 90px""><b>ø</b></div>","null","","","","forget_cue","","","","","","","","","","","","","","","",""
"html-keyboard-response","81","233470","0.0-3.0-3.0-0.11","0vbf9b8df57ckgo","practice_cue","5f14ad6a589e6c0a6da5cf9b","5f60e3c0a3b16e07647b2ff9","5f60ee2eecc85d015e1747f3","false","null","<span style=""color: black; font-size: 48px"">M + N</span>","null","","","","resp_prompt","","","","","","","","","","","","","","","",""
"categorize-image","82","234238","0.0-3.0-3.0-1.11","0vbf9b8df57ckgo","practice_cue","5f14ad6a589e6c0a6da5cf9b","5f60e3c0a3b16e07647b2ff9","5f60ee2eecc85d015e1747f3","true","758.8300000061281","./Stimuli/ImagesPractice/LN17.jpg","76","","","","test","true","M + N","76","","LN","LN17.jpg","forget","old","28","2","practice_forget","right","","","",""
"html-keyboard-response","83","236242","0.0-3.0-3.0-3.11","0vbf9b8df57ckgo","practice_cue","5f14ad6a589e6c0a6da5cf9b","5f60e3c0a3b16e07647b2ff9","5f60ee2eecc85d015e1747f3","false","null","<div style=""align-items: center; display: flex; color: darkorange; font-size: 90px""><b>ø</b></div>","null","","","","forget_cue","","","","","","","","","","","","","","","",""
"html-keyboard-response","84","236945","0.0-3.0-3.0-0.12","0vbf9b8df57ckgo","practice_cue","5f14ad6a589e6c0a6da5cf9b","5f60e3c0a3b16e07647b2ff9","5f60ee2eecc85d015e1747f3","false","null","<span style=""color: black; font-size: 48px"">N + M</span>","null","","","","resp_prompt","","","","","","","","","","","","","","","",""
"categorize-image","85","237804","0.0-3.0-3.0-1.12","0vbf9b8df57ckgo","practice_cue","5f14ad6a589e6c0a6da5cf9b","5f60e3c0a3b16e07647b2ff9","5f60ee2eecc85d015e1747f3","true","849.3449999950826","./Stimuli/ImagesPractice/SM62.jpg","76","","","","test","true","N + M","76","","SM","SM62.jpg","forget","old","29","2","practice_forget","right","","","",""
"html-keyboard-response","86","239807","0.0-3.0-3.0-3.12","0vbf9b8df57ckgo","practice_cue","5f14ad6a589e6c0a6da5cf9b","5f60e3c0a3b16e07647b2ff9","5f60ee2eecc85d015e1747f3","false","null","<div style=""align-items: center; display: flex; color: darkorange; font-size: 90px""><b>ø</b></div>","null","","","","forget_cue","","","","","","","","","","","","","","","",""
"html-keyboard-response","87","240511","0.0-3.0-3.0-0.13","0vbf9b8df57ckgo","practice_cue","5f14ad6a589e6c0a6da5cf9b","5f60e3c0a3b16e07647b2ff9","5f60ee2eecc85d015e1747f3","false","null","<span style=""color: black; font-size: 48px"">M + N</span>","null","","","","resp_prompt","","","","","","","","","","","","","","","",""
"categorize-image","88","241170","0.0-3.0-3.0-1.13","0vbf9b8df57ckgo","practice_cue","5f14ad6a589e6c0a6da5cf9b","5f60e3c0a3b16e07647b2ff9","5f60ee2eecc85d015e1747f3","true","647.9650000110269","./Stimuli/ImagesPractice/SM35.jpg","83","","","","test","true","M + N","83","","SM","SM35.jpg","forget","old","30","2","practice_forget","left","","","",""
"html-keyboard-response","89","243173","0.0-3.0-3.0-3.13","0vbf9b8df57ckgo","practice_cue","5f14ad6a589e6c0a6da5cf9b","5f60e3c0a3b16e07647b2ff9","5f60ee2eecc85d015e1747f3","false","null","<div style=""align-items: center; display: flex; color: darkorange; font-size: 90px""><b>ø</b></div>","null","","","","forget_cue","","","","","","","","","","","","","","","",""
"html-keyboard-response","90","243875","0.0-3.0-3.0-0.14","0vbf9b8df57ckgo","practice_cue","5f14ad6a589e6c0a6da5cf9b","5f60e3c0a3b16e07647b2ff9","5f60ee2eecc85d015e1747f3","false","null","<span style=""color: black; font-size: 48px"">N + M</span>","null","","","","resp_prompt","","","","","","","","","","","","","","","",""
"categorize-image","91","244397","0.0-3.0-3.0-1.14","0vbf9b8df57ckgo","practice_cue","5f14ad6a589e6c0a6da5cf9b","5f60e3c0a3b16e07647b2ff9","5f60ee2eecc85d015e1747f3","true","511.82499999413267","./Stimuli/ImagesPractice/SN76.jpg","83","","","","test","true","N + M","83","","SN","SN76.jpg","forget","old","31","2","practice_forget","left","","","",""
"html-keyboard-response","92","246401","0.0-3.0-3.0-3.14","0vbf9b8df57ckgo","practice_cue","5f14ad6a589e6c0a6da5cf9b","5f60e3c0a3b16e07647b2ff9","5f60ee2eecc85d015e1747f3","false","null","<div style=""align-items: center; display: flex; color: darkorange; font-size: 90px""><b>ø</b></div>","null","","","","forget_cue","","","","","","","","","","","","","","","",""
"html-keyboard-response","93","247104","0.0-3.0-3.0-0.15","0vbf9b8df57ckgo","practice_cue","5f14ad6a589e6c0a6da5cf9b","5f60e3c0a3b16e07647b2ff9","5f60ee2eecc85d015e1747f3","false","null","<span style=""color: black; font-size: 48px"">M + N</span>","null","","","","resp_prompt","","","","","","","","","","","","","","","",""
"categorize-image","94","247718","0.0-3.0-3.0-1.15","0vbf9b8df57ckgo","practice_cue","5f14ad6a589e6c0a6da5cf9b","5f60e3c0a3b16e07647b2ff9","5f60ee2eecc85d015e1747f3","true","602.0600000047125","./Stimuli/ImagesPractice/LN2.jpg","76","","","","test","true","M + N","76","","LN","LN2.jpg","remember","old","32","2","practice_forget","right","","","",""
"html-keyboard-response","95","249722","0.0-3.0-3.0-3.15","0vbf9b8df57ckgo","practice_cue","5f14ad6a589e6c0a6da5cf9b","5f60e3c0a3b16e07647b2ff9","5f60ee2eecc85d015e1747f3","false","null","<div style=""align-items: center; display: flex; color: dodgerblue; font-size: 90px""><b>o</b></div>","null","","","","forget_cue","","","","","","","","","","","","","","","",""
"html-keyboard-response","96","253525","0.0-3.0-4.0","0vbf9b8df57ckgo","break","5f14ad6a589e6c0a6da5cf9b","5f60e3c0a3b16e07647b2ff9","5f60ee2eecc85d015e1747f3","false","3800.5200000479817","<p style='font-size: 32px;'>Break</><br><br><br><br><br><p style='font-size: 24px;'>In the last block, you committed 1 errors and did not respond in time on 0 trials.
</p><p style='font-size: 24px;'>Try to respond as fast and accurately as possible in the next block as well! </p><p style='font-size: 24px;'>Press SPACE to continue.</p>","32","","","","","","","","","","","","","","","","","","","",""
"html-keyboard-response","97","257168","0.0-3.0-5.0","0vbf9b8df57ckgo","instructions","5f14ad6a589e6c0a6da5cf9b","5f60e3c0a3b16e07647b2ff9","5f60ee2eecc85d015e1747f3","false","3639.049999997951","<div align=left> Now, to practice, we kindly ask you to remember as many of the to-be-remembered pictures<br>of the previous learning phase as possible.<br><br>The pictures you were instructed to remember were the pictures followed by a <span style='color: dodgerblue; font-size: 28px'>O</span>.<br><br>In this memory test phase, you will also see some new pictures.<br>It is your task to remember whether you were presented with this specific picture in this study so far or not.<br>If you recognize an object (you have already seen it in this study), it is an OLD object. <br>If you do not recognize an object (you have NOT seen it in this study), it is a NEW object. <br><strong> Attention</strong>: As already mentioned, <span style='color: darkorange; font-size:28px'>Ø</span>-pictures will <strong>never</strong> appear in this memory test (neither as new objects). <br><br>Press SPACE to continue. </div>","32","","","","","","","","","","","","","","","","","","","",""
"html-keyboard-response","98","282790","0.0-3.0-6.0","0vbf9b8df57ckgo","instructions","5f14ad6a589e6c0a6da5cf9b","5f60e3c0a3b16e07647b2ff9","5f60ee2eecc85d015e1747f3","false","25616.984999971464","<div align=left> M and N no longer will appear on the left/right of the fixation cross. <br>Instead there will be a note at the bottom of the left or right side  <br>indicating which key you should press for an old or new object:  <br> <br>Press the <strong>right</strong> key to classify an object as <strong>old</strong> and press the <strong>left</strong>, to classify an object as <strong>new</strong>.<br>Please classify the objects as new/old by again placing your index finger on the 'S' and 'L' keys <br>and press them accordingly.<br><br><strong>Old:</strong> This object has been presented before. <br><strong>New:</strong> This object has <strong>not</strong> been presented.<br><br>Now please put your right and left index fingers on the 'S' and 'L' keys of your keyboard. <br>Please respond as fast and as accurately as possible!<br><br>Press SPACE to continue. </div>","32","","","","","","","","","","","","","","","","","","","",""
"categorize-image","99","286165","0.0-3.0-7.0-0.0","0vbf9b8df57ckgo","practice_recog","5f14ad6a589e6c0a6da5cf9b","5f60e3c0a3b16e07647b2ff9","5f60ee2eecc85d015e1747f3","true","2864.3600000068545","./Stimuli/ImagesPractice/SM98.jpg","76","","","","test","false","","83","","SM","SM98.jpg","","new","33","3","practice_recog","right","","","",""
"categorize-image","100","290144","0.0-3.0-7.0-0.1","0vbf9b8df57ckgo","practice_recog","5f14ad6a589e6c0a6da5cf9b","5f60e3c0a3b16e07647b2ff9","5f60ee2eecc85d015e1747f3","true","3472.074999997858","./Stimuli/ImagesPractice/LM230.jpg","76","","","","test","true","","76","","LM","LM230.jpg","","old","34","3","practice_recog","right","","","",""
"categorize-image","101","291981","0.0-3.0-7.0-0.2","0vbf9b8df57ckgo","practice_recog","5f14ad6a589e6c0a6da5cf9b","5f60e3c0a3b16e07647b2ff9","5f60ee2eecc85d015e1747f3","true","1332.1250000153668","./Stimuli/ImagesPractice/LN109.jpg","83","","","","test","true","","83","","LN","LN109.jpg","","new","35","3","practice_recog","left","","","",""
"categorize-image","102","293512","0.0-3.0-7.0-0.3","0vbf9b8df57ckgo","practice_recog","5f14ad6a589e6c0a6da5cf9b","5f60e3c0a3b16e07647b2ff9","5f60ee2eecc85d015e1747f3","true","1023.7850000266917","./Stimuli/ImagesPractice/LM55.jpg","83","","","","test","true","","83","","LM","LM55.jpg","","new","36","3","practice_recog","left","","","",""
"categorize-image","103","294707","0.0-3.0-7.0-0.4","0vbf9b8df57ckgo","practice_recog","5f14ad6a589e6c0a6da5cf9b","5f60e3c0a3b16e07647b2ff9","5f60ee2eecc85d015e1747f3","true","690.6299999682233","./Stimuli/ImagesPractice/SM37.jpg","76","","","","test","true","","76","","SM","SM37.jpg","","old","37","3","practice_recog","right","","","",""
"categorize-image","104","296447","0.0-3.0-7.0-0.5","0vbf9b8df57ckgo","practice_recog","5f14ad6a589e6c0a6da5cf9b","5f60e3c0a3b16e07647b2ff9","5f60ee2eecc85d015e1747f3","true","1232.8550000092946","./Stimuli/ImagesPractice/LN2.jpg","76","","","","test","true","","76","","LN","LN2.jpg","","old","38","3","practice_recog","right","","","",""
"categorize-image","105","297921","0.0-3.0-7.0-0.6","0vbf9b8df57ckgo","practice_recog","5f14ad6a589e6c0a6da5cf9b","5f60e3c0a3b16e07647b2ff9","5f60ee2eecc85d015e1747f3","true","965.1750000193715","./Stimuli/ImagesPractice/SN205.jpg","76","","","","test","true","","76","","SN","SN205.jpg","","old","39","3","practice_recog","right","","","",""
"categorize-image","106","299435","0.0-3.0-7.0-0.7","0vbf9b8df57ckgo","practice_recog","5f14ad6a589e6c0a6da5cf9b","5f60e3c0a3b16e07647b2ff9","5f60ee2eecc85d015e1747f3","true","1007.5450000003912","./Stimuli/ImagesPractice/SM61.jpg","83","","","","test","true","","83","","SM","SM61.jpg","","new","40","3","practice_recog","left","","","",""
"categorize-image","107","300623","0.0-3.0-7.0-0.8","0vbf9b8df57ckgo","practice_recog","5f14ad6a589e6c0a6da5cf9b","5f60e3c0a3b16e07647b2ff9","5f60ee2eecc85d015e1747f3","true","681.4500000327826","./Stimuli/ImagesPractice/LN15.jpg","76","","","","test","true","","76","","LN","LN15.jpg","","old","41","3","practice_recog","right","","","",""
"categorize-image","108","301825","0.0-3.0-7.0-0.9","0vbf9b8df57ckgo","practice_recog","5f14ad6a589e6c0a6da5cf9b","5f60e3c0a3b16e07647b2ff9","5f60ee2eecc85d015e1747f3","true","695.685000042431","./Stimuli/ImagesPractice/SN220.jpg","76","","","","test","true","","76","","SN","SN220.jpg","","old","42","3","practice_recog","right","","","",""
"categorize-image","109","303085","0.0-3.0-7.0-0.10","0vbf9b8df57ckgo","practice_recog","5f14ad6a589e6c0a6da5cf9b","5f60e3c0a3b16e07647b2ff9","5f60ee2eecc85d015e1747f3","true","754.7149999882095","./Stimuli/ImagesPractice/LM239.jpg","83","","","","test","true","","83","","LM","LM239.jpg","","new","43","3","practice_recog","left","","","",""
"categorize-image","110","304388","0.0-3.0-7.0-0.11","0vbf9b8df57ckgo","practice_recog","5f14ad6a589e6c0a6da5cf9b","5f60e3c0a3b16e07647b2ff9","5f60ee2eecc85d015e1747f3","true","795.5250000231899","./Stimuli/ImagesPractice/LN72.jpg","83","","","","test","true","","83","","LN","LN72.jpg","","new","44","3","practice_recog","left","","","",""
"categorize-image","111","305624","0.0-3.0-7.0-0.12","0vbf9b8df57ckgo","practice_recog","5f14ad6a589e6c0a6da5cf9b","5f60e3c0a3b16e07647b2ff9","5f60ee2eecc85d015e1747f3","true","728.8149999803863","./Stimuli/ImagesPractice/SN222.jpg","76","","","","test","true","","76","","SN","SN222.jpg","","old","45","3","practice_recog","right","","","",""
"categorize-image","112","306903","0.0-3.0-7.0-0.13","0vbf9b8df57ckgo","practice_recog","5f14ad6a589e6c0a6da5cf9b","5f60e3c0a3b16e07647b2ff9","5f60ee2eecc85d015e1747f3","true","772.5150000187568","./Stimuli/ImagesPractice/LM147.jpg","83","","","","test","true","","83","","LM","LM147.jpg","","new","46","3","practice_recog","left","","","",""
"categorize-image","113","308164","0.0-3.0-7.0-0.14","0vbf9b8df57ckgo","practice_recog","5f14ad6a589e6c0a6da5cf9b","5f60e3c0a3b16e07647b2ff9","5f60ee2eecc85d015e1747f3","true","753.2899999641813","./Stimuli/ImagesPractice/LM143.jpg","76","","","","test","true","","76","","LM","LM143.jpg","","old","47","3","practice_recog","right","","","",""
"categorize-image","114","309428","0.0-3.0-7.0-0.15","0vbf9b8df57ckgo","practice_recog","5f14ad6a589e6c0a6da5cf9b","5f60e3c0a3b16e07647b2ff9","5f60ee2eecc85d015e1747f3","true","759.6250000060536","./Stimuli/ImagesPractice/SN221.jpg","83","","","","test","true","","83","","SN","SN221.jpg","","new","48","3","practice_recog","left","","","",""
"html-keyboard-response","115","319093","0.0-3.0-8.0","0vbf9b8df57ckgo","instructions","5f14ad6a589e6c0a6da5cf9b","5f60e3c0a3b16e07647b2ff9","5f60ee2eecc85d015e1747f3","false","9661.28000000026","<div align=left> Great!<br><br>Are you ready to continue?<br>If you want to reread the instructions and redo the practice trials, please <br>press „Z“.<br><br>You can proceed when you are ready.<br><br>After the presentation of each object, you will receive an instruction whether to <br>remember or to forget the object.<br>We will test your memory of the following pictures only at the very end of <br>the experiment after all learning blocks are completed. <br><br>Press SPACE to CONTINUE when you are ready. </div>","32","","","","","","","","","","","","","","","","","","","",""
"html-keyboard-response","116","322651","0.0-4.0-0.0","0vbf9b8df57ckgo","instructions","5f14ad6a589e6c0a6da5cf9b","5f60e3c0a3b16e07647b2ff9","5f60ee2eecc85d015e1747f3","false","3553.3399999840185","<div align=left> The actual experiment is about to start.<br>The practice trials are over!<br><br>Please always respond both fast and accurately!<br><br>Remember: <br> <br><li> Please place your index fingers on the <strong>'S'</strong> and <strong>'L'</strong> keys <br>to respond as fast and accurately as possible.</li><li> Every picture can be classified as either mechanical or non-mechanical.</li><li> If you do not respond in time or commit an error, you will receive a corresponding feedback.<br> Please try to respond as <strong> fast </strong> and as <strong> accurately as possible </strong>.</li><li> Remember the <span style='color: dodgerblue; font-size: 28px'>O</span> pictures. <br></li><li> Please minimize distractions and stay focused. </li><br><br>Press SPACE to START.</div>","32","","","","","","","","","","","","","","","","","","","",""
"html-keyboard-response","117","323352","0.0-4.0-1.0-0.0","0vbf9b8df57ckgo","prime","5f14ad6a589e6c0a6da5cf9b","5f60e3c0a3b16e07647b2ff9","5f60ee2eecc85d015e1747f3","false","null","<span style=""color: black; font-size: 48px"">M + N</span>","null","","","","resp_prompt","","","","","","","","","","","","","","","",""
"categorize-image","118","324750","0.0-4.0-1.0-1.0","0vbf9b8df57ckgo","prime","5f14ad6a589e6c0a6da5cf9b","5f60e3c0a3b16e07647b2ff9","5f60ee2eecc85d015e1747f3","true","1390.4149999725632","./Stimuli/SelectedImages/SN/SN182.bmp","76","","","","test","true","M + N","76","switch","SN","SN182.bmp","remember","","49","3","prime1","right","","","",""
"html-keyboard-response","119","326754","0.0-4.0-1.0-3.0","0vbf9b8df57ckgo","prime","5f14ad6a589e6c0a6da5cf9b","5f60e3c0a3b16e07647b2ff9","5f60ee2eecc85d015e1747f3","false","null","<div style=""align-items: center; display: flex; color: dodgerblue; font-size: 90px""><b>o</b></div>","null","","","","forget_cue","","","","","","","","","","","","","","","",""
"html-keyboard-response","120","327456","0.0-4.0-1.0-0.1","0vbf9b8df57ckgo","prime","5f14ad6a589e6c0a6da5cf9b","5f60e3c0a3b16e07647b2ff9","5f60ee2eecc85d015e1747f3","false","null","<span style=""color: black; font-size: 48px"">N + M</span>","null","","","","resp_prompt","","","","","","","","","","","","","","","",""
"categorize-image","121","328084","0.0-4.0-1.0-1.1","0vbf9b8df57ckgo","prime","5f14ad6a589e6c0a6da5cf9b","5f60e3c0a3b16e07647b2ff9","5f60ee2eecc85d015e1747f3","true","616.1050000227988","./Stimuli/SelectedImages/SN/SN155.bmp","83","","","","test","true","N + M","83","switch","SN","SN155.bmp","forget","","50","3","prime1","left","","","",""
"html-keyboard-response","122","330089","0.0-4.0-1.0-3.1","0vbf9b8df57ckgo","prime","5f14ad6a589e6c0a6da5cf9b","5f60e3c0a3b16e07647b2ff9","5f60ee2eecc85d015e1747f3","false","null","<div style=""align-items: center; display: flex; color: darkorange; font-size: 90px""><b>ø</b></div>","null","","","","forget_cue","","","","","","","","","","","","","","","",""
"html-keyboard-response","123","330792","0.0-4.0-1.0-0.2","0vbf9b8df57ckgo","prime","5f14ad6a589e6c0a6da5cf9b","5f60e3c0a3b16e07647b2ff9","5f60ee2eecc85d015e1747f3","false","null","<span style=""color: black; font-size: 48px"">M + N</span>","null","","","","resp_prompt","","","","","","","","","","","","","","","",""
"categorize-image","124","331390","0.0-4.0-1.0-1.2","0vbf9b8df57ckgo","prime","5f14ad6a589e6c0a6da5cf9b","5f60e3c0a3b16e07647b2ff9","5f60ee2eecc85d015e1747f3","true","587.085000006482","./Stimuli/SelectedImages/SN/SN140.bmp","76","","","","test","true","M + N","76","repetition","SN","SN140.bmp","forget","","51","3","prime1","right","","","",""
"html-keyboard-response","125","333394","0.0-4.0-1.0-3.2","0vbf9b8df57ckgo","prime","5f14ad6a589e6c0a6da5cf9b","5f60e3c0a3b16e07647b2ff9","5f60ee2eecc85d015e1747f3","false","null","<div style=""align-items: center; display: flex; color: darkorange; font-size: 90px""><b>ø</b></div>","null","","","","forget_cue","","","","","","","","","","","","","","","",""
"html-keyboard-response","126","334097","0.0-4.0-1.0-0.3","0vbf9b8df57ckgo","prime","5f14ad6a589e6c0a6da5cf9b","5f60e3c0a3b16e07647b2ff9","5f60ee2eecc85d015e1747f3","false","null","<span style=""color: black; font-size: 48px"">M + N</span>","null","","","","resp_prompt","","","","","","","","","","","","","","","",""
"categorize-image","127","334617","0.0-4.0-1.0-1.3","0vbf9b8df57ckgo","prime","5f14ad6a589e6c0a6da5cf9b","5f60e3c0a3b16e07647b2ff9","5f60ee2eecc85d015e1747f3","true","508.6399999563582","./Stimuli/SelectedImages/SN/SN52.bmp","76","","","","test","true","M + N","76","switch","SN","SN52.bmp","forget","","52","3","prime1","right","","","",""
"html-keyboard-response","128","336622","0.0-4.0-1.0-3.3","0vbf9b8df57ckgo","prime","5f14ad6a589e6c0a6da5cf9b","5f60e3c0a3b16e07647b2ff9","5f60ee2eecc85d015e1747f3","false","null","<div style=""align-items: center; display: flex; color: darkorange; font-size: 90px""><b>ø</b></div>","null","","","","forget_cue","","","","","","","","","","","","","","","",""
"html-keyboard-response","129","337325","0.0-4.0-1.0-0.4","0vbf9b8df57ckgo","prime","5f14ad6a589e6c0a6da5cf9b","5f60e3c0a3b16e07647b2ff9","5f60ee2eecc85d015e1747f3","false","null","<span style=""color: black; font-size: 48px"">M + N</span>","null","","","","resp_prompt","","","","","","","","","","","","","","","",""
"categorize-image","130","338055","0.0-4.0-1.0-1.4","0vbf9b8df57ckgo","prime","5f14ad6a589e6c0a6da5cf9b","5f60e3c0a3b16e07647b2ff9","5f60ee2eecc85d015e1747f3","true","718.7649999978021","./Stimuli/SelectedImages/SM/SM17.bmp","76","","","","test","false","M + N","83","switch","SM","SM17.bmp","forget","","53","3","prime1","right","","","",""
"html-keyboard-response","131","338558","0.0-4.0-1.0-2.4-0.4","0vbf9b8df57ckgo","prime","5f14ad6a589e6c0a6da5cf9b","5f60e3c0a3b16e07647b2ff9","5f60ee2eecc85d015e1747f3","false","null","<span style=""color: red; font-size: 48px"">Error!</span>","null","","","","feedback","","","","","","","","","","","","","","","",""
"html-keyboard-response","132","340561","0.0-4.0-1.0-3.4","0vbf9b8df57ckgo","prime","5f14ad6a589e6c0a6da5cf9b","5f60e3c0a3b16e07647b2ff9","5f60ee2eecc85d015e1747f3","false","null","<div style=""align-items: center; display: flex; color: darkorange; font-size: 90px""><b>ø</b></div>","null","","","","forget_cue","","","","","","","","","","","","","","","",""
"html-keyboard-response","133","341264","0.0-4.0-1.0-0.5","0vbf9b8df57ckgo","prime","5f14ad6a589e6c0a6da5cf9b","5f60e3c0a3b16e07647b2ff9","5f60ee2eecc85d015e1747f3","false","null","<span style=""color: black; font-size: 48px"">N + M</span>","null","","","","resp_prompt","","","","","","","","","","","","","","","",""
"categorize-image","134","342018","0.0-4.0-1.0-1.5","0vbf9b8df57ckgo","prime","5f14ad6a589e6c0a6da5cf9b","5f60e3c0a3b16e07647b2ff9","5f60ee2eecc85d015e1747f3","true","743.5650000115857","./Stimuli/SelectedImages/LN/LN13.bmp","83","","","","test","true","N + M","83","switch","LN","LN13.bmp","remember","","54","3","prime1","left","","","",""
"html-keyboard-response","135","344025","0.0-4.0-1.0-3.5","0vbf9b8df57ckgo","prime","5f14ad6a589e6c0a6da5cf9b","5f60e3c0a3b16e07647b2ff9","5f60ee2eecc85d015e1747f3","false","null","<div style=""align-items: center; display: flex; color: dodgerblue; font-size: 90px""><b>o</b></div>","null","","","","forget_cue","","","","","","","","","","","","","","","",""
"html-keyboard-response","136","344728","0.0-4.0-1.0-0.6","0vbf9b8df57ckgo","prime","5f14ad6a589e6c0a6da5cf9b","5f60e3c0a3b16e07647b2ff9","5f60ee2eecc85d015e1747f3","false","null","<span style=""color: black; font-size: 48px"">M + N</span>","null","","","","resp_prompt","","","","","","","","","","","","","","","",""
"categorize-image","137","345368","0.0-4.0-1.0-1.6","0vbf9b8df57ckgo","prime","5f14ad6a589e6c0a6da5cf9b","5f60e3c0a3b16e07647b2ff9","5f60ee2eecc85d015e1747f3","true","632.3850000044331","./Stimuli/SelectedImages/LN/LN111.bmp","76","","","","test","true","M + N","76","repetition","LN","LN111.bmp","forget","","55","3","prime1","right","","","",""
"html-keyboard-response","138","347370","0.0-4.0-1.0-3.6","0vbf9b8df57ckgo","prime","5f14ad6a589e6c0a6da5cf9b","5f60e3c0a3b16e07647b2ff9","5f60ee2eecc85d015e1747f3","false","null","<div style=""align-items: center; display: flex; color: darkorange; font-size: 90px""><b>ø</b></div>","null","","","","forget_cue","","","","","","","","","","","","","","","",""
"html-keyboard-response","139","348075","0.0-4.0-1.0-0.7","0vbf9b8df57ckgo","prime","5f14ad6a589e6c0a6da5cf9b","5f60e3c0a3b16e07647b2ff9","5f60ee2eecc85d015e1747f3","false","null","<span style=""color: black; font-size: 48px"">M + N</span>","null","","","","resp_prompt","","","","","","","","","","","","","","","",""
"categorize-image","140","348715","0.0-4.0-1.0-1.7","0vbf9b8df57ckgo","prime","5f14ad6a589e6c0a6da5cf9b","5f60e3c0a3b16e07647b2ff9","5f60ee2eecc85d015e1747f3","true","628.2300000311807","./Stimuli/SelectedImages/SN/SN18.bmp","76","","","","test","true","M + N","76","repetition","SN","SN18.bmp","forget","","56","3","prime1","right","","","",""
"html-keyboard-response","141","350719","0.0-4.0-1.0-3.7","0vbf9b8df57ckgo","prime","5f14ad6a589e6c0a6da5cf9b","5f60e3c0a3b16e07647b2ff9","5f60ee2eecc85d015e1747f3","false","null","<div style=""align-items: center; display: flex; color: darkorange; font-size: 90px""><b>ø</b></div>","null","","","","forget_cue","","","","","","","","","","","","","","","",""
"html-keyboard-response","142","351423","0.0-4.0-1.0-0.8","0vbf9b8df57ckgo","prime","5f14ad6a589e6c0a6da5cf9b","5f60e3c0a3b16e07647b2ff9","5f60ee2eecc85d015e1747f3","false","null","<span style=""color: black; font-size: 48px"">M + N</span>","null","","","","resp_prompt","","","","","","","","","","","","","","","",""
"categorize-image","143","352016","0.0-4.0-1.0-1.8","0vbf9b8df57ckgo","prime","5f14ad6a589e6c0a6da5cf9b","5f60e3c0a3b16e07647b2ff9","5f60ee2eecc85d015e1747f3","true","584.6400000154972","./Stimuli/SelectedImages/LM/LM103.bmp","83","","","","test","true","M + N","83","repetition","LM","LM103.bmp","remember","","57","3","prime1","left","","","",""
"html-keyboard-response","144","354018","0.0-4.0-1.0-3.8","0vbf9b8df57ckgo","prime","5f14ad6a589e6c0a6da5cf9b","5f60e3c0a3b16e07647b2ff9","5f60ee2eecc85d015e1747f3","false","null","<div style=""align-items: center; display: flex; color: dodgerblue; font-size: 90px""><b>o</b></div>","null","","","","forget_cue","","","","","","","","","","","","","","","",""
"html-keyboard-response","145","354721","0.0-4.0-1.0-0.9","0vbf9b8df57ckgo","prime","5f14ad6a589e6c0a6da5cf9b","5f60e3c0a3b16e07647b2ff9","5f60ee2eecc85d015e1747f3","false","null","<span style=""color: black; font-size: 48px"">M + N</span>","null","","","","resp_prompt","","","","","","","","","","","","","","","",""
"categorize-image","146","355364","0.0-4.0-1.0-1.9","0vbf9b8df57ckgo","prime","5f14ad6a589e6c0a6da5cf9b","5f60e3c0a3b16e07647b2ff9","5f60ee2eecc85d015e1747f3","true","631.7350000026636","./Stimuli/SelectedImages/SM/SM106.bmp","83","","","","test","true","M + N","83","switch","SM","SM106.bmp","forget","","58","3","prime1","left","","","",""
"html-keyboard-response","147","357367","0.0-4.0-1.0-3.9","0vbf9b8df57ckgo","prime","5f14ad6a589e6c0a6da5cf9b","5f60e3c0a3b16e07647b2ff9","5f60ee2eecc85d015e1747f3","false","null","<div style=""align-items: center; display: flex; color: darkorange; font-size: 90px""><b>ø</b></div>","null","","","","forget_cue","","","","","","","","","","","","","","","",""
"html-keyboard-response","148","358070","0.0-4.0-1.0-0.10","0vbf9b8df57ckgo","prime","5f14ad6a589e6c0a6da5cf9b","5f60e3c0a3b16e07647b2ff9","5f60ee2eecc85d015e1747f3","false","null","<span style=""color: black; font-size: 48px"">N + M</span>","null","","","","resp_prompt","","","","","","","","","","","","","","","",""
"categorize-image","149","359412","0.0-4.0-1.0-1.10","0vbf9b8df57ckgo","prime","5f14ad6a589e6c0a6da5cf9b","5f60e3c0a3b16e07647b2ff9","5f60ee2eecc85d015e1747f3","true","1330.9149999986403","./Stimuli/SelectedImages/SM/SM76.bmp","83","","","","test","false","N + M","76","switch","SM","SM76.bmp","forget","","59","3","prime1","left","","","",""
"html-keyboard-response","150","359916","0.0-4.0-1.0-2.10-0.10","0vbf9b8df57ckgo","prime","5f14ad6a589e6c0a6da5cf9b","5f60e3c0a3b16e07647b2ff9","5f60ee2eecc85d015e1747f3","false","null","<span style=""color: red; font-size: 48px"">Error!</span>","null","","","","feedback","","","","","","","","","","","","","","","",""
"html-keyboard-response","151","361921","0.0-4.0-1.0-3.10","0vbf9b8df57ckgo","prime","5f14ad6a589e6c0a6da5cf9b","5f60e3c0a3b16e07647b2ff9","5f60ee2eecc85d015e1747f3","false","null","<div style=""align-items: center; display: flex; color: darkorange; font-size: 90px""><b>ø</b></div>","null","","","","forget_cue","","","","","","","","","","","","","","","",""
"html-keyboard-response","152","362623","0.0-4.0-1.0-0.11","0vbf9b8df57ckgo","prime","5f14ad6a589e6c0a6da5cf9b","5f60e3c0a3b16e07647b2ff9","5f60ee2eecc85d015e1747f3","false","null","<span style=""color: black; font-size: 48px"">N + M</span>","null","","","","resp_prompt","","","","","","","","","","","","","","","",""
"categorize-image","153","363609","0.0-4.0-1.0-1.11","0vbf9b8df57ckgo","prime","5f14ad6a589e6c0a6da5cf9b","5f60e3c0a3b16e07647b2ff9","5f60ee2eecc85d015e1747f3","true","977.0349999889731","./Stimuli/SelectedImages/SM/SM195.bmp","76","","","","test","true","N + M","76","switch","SM","SM195.bmp","remember","","60","3","prime1","right","","","",""
"html-keyboard-response","154","365612","0.0-4.0-1.0-3.11","0vbf9b8df57ckgo","prime","5f14ad6a589e6c0a6da5cf9b","5f60e3c0a3b16e07647b2ff9","5f60ee2eecc85d015e1747f3","false","null","<div style=""align-items: center; display: flex; color: dodgerblue; font-size: 90px""><b>o</b></div>","null","","","","forget_cue","","","","","","","","","","","","","","","",""
"html-keyboard-response","155","366314","0.0-4.0-1.0-0.12","0vbf9b8df57ckgo","prime","5f14ad6a589e6c0a6da5cf9b","5f60e3c0a3b16e07647b2ff9","5f60ee2eecc85d015e1747f3","false","null","<span style=""color: black; font-size: 48px"">N + M</span>","null","","","","resp_prompt","","","","","","","","","","","","","","","",""
"categorize-image","156","367509","0.0-4.0-1.0-1.12","0vbf9b8df57ckgo","prime","5f14ad6a589e6c0a6da5cf9b","5f60e3c0a3b16e07647b2ff9","5f60ee2eecc85d015e1747f3","true","1180.6099999812432","./Stimuli/SelectedImages/SM/SM148.bmp","76","","","","test","true","N + M","76","repetition","SM","SM148.bmp","remember","","61","3","prime1","right","","","",""
"html-keyboard-response","157","369512","0.0-4.0-1.0-3.12","0vbf9b8df57ckgo","prime","5f14ad6a589e6c0a6da5cf9b","5f60e3c0a3b16e07647b2ff9","5f60ee2eecc85d015e1747f3","false","null","<div style=""align-items: center; display: flex; color: dodgerblue; font-size: 90px""><b>o</b></div>","null","","","","forget_cue","","","","","","","","","","","","","","","",""
"html-keyboard-response","158","370215","0.0-4.0-1.0-0.13","0vbf9b8df57ckgo","prime","5f14ad6a589e6c0a6da5cf9b","5f60e3c0a3b16e07647b2ff9","5f60ee2eecc85d015e1747f3","false","null","<span style=""color: black; font-size: 48px"">M + N</span>","null","","","","resp_prompt","","","","","","","","","","","","","","","",""
"categorize-image","159","371064","0.0-4.0-1.0-1.13","0vbf9b8df57ckgo","prime","5f14ad6a589e6c0a6da5cf9b","5f60e3c0a3b16e07647b2ff9","5f60ee2eecc85d015e1747f3","true","836.6800000076182","./Stimuli/SelectedImages/LM/LM51.bmp","83","","","","test","true","M + N","83","switch","LM","LM51.bmp","forget","","62","3","prime1","left","","","",""
"html-keyboard-response","160","373067","0.0-4.0-1.0-3.13","0vbf9b8df57ckgo","prime","5f14ad6a589e6c0a6da5cf9b","5f60e3c0a3b16e07647b2ff9","5f60ee2eecc85d015e1747f3","false","null","<div style=""align-items: center; display: flex; color: darkorange; font-size: 90px""><b>ø</b></div>","null","","","","forget_cue","","","","","","","","","","","","","","","",""
"html-keyboard-response","161","373771","0.0-4.0-1.0-0.14","0vbf9b8df57ckgo","prime","5f14ad6a589e6c0a6da5cf9b","5f60e3c0a3b16e07647b2ff9","5f60ee2eecc85d015e1747f3","false","null","<span style=""color: black; font-size: 48px"">N + M</span>","null","","","","resp_prompt","","","","","","","","","","","","","","","",""
"categorize-image","162","374555","0.0-4.0-1.0-1.14","0vbf9b8df57ckgo","prime","5f14ad6a589e6c0a6da5cf9b","5f60e3c0a3b16e07647b2ff9","5f60ee2eecc85d015e1747f3","true","771.9250000081956","./Stimuli/SelectedImages/LN/LN166.bmp","83","","","","test","true","N + M","83","switch","LN","LN166.bmp","remember","","63","3","prime1","left","","","",""
"html-keyboard-response","163","376558","0.0-4.0-1.0-3.14","0vbf9b8df57ckgo","prime","5f14ad6a589e6c0a6da5cf9b","5f60e3c0a3b16e07647b2ff9","5f60ee2eecc85d015e1747f3","false","null","<div style=""align-items: center; display: flex; color: dodgerblue; font-size: 90px""><b>o</b></div>","null","","","","forget_cue","","","","","","","","","","","","","","","",""
"html-keyboard-response","164","377261","0.0-4.0-1.0-0.15","0vbf9b8df57ckgo","prime","5f14ad6a589e6c0a6da5cf9b","5f60e3c0a3b16e07647b2ff9","5f60ee2eecc85d015e1747f3","false","null","<span style=""color: black; font-size: 48px"">N + M</span>","null","","","","resp_prompt","","","","","","","","","","","","","","","",""
"categorize-image","165","378033","0.0-4.0-1.0-1.15","0vbf9b8df57ckgo","prime","5f14ad6a589e6c0a6da5cf9b","5f60e3c0a3b16e07647b2ff9","5f60ee2eecc85d015e1747f3","true","764.3849999876693","./Stimuli/SelectedImages/LM/LM179.bmp","76","","","","test","true","N + M","76","switch","LM","LM179.bmp","remember","","64","3","prime1","right","","","",""
"html-keyboard-response","166","380036","0.0-4.0-1.0-3.15","0vbf9b8df57ckgo","prime","5f14ad6a589e6c0a6da5cf9b","5f60e3c0a3b16e07647b2ff9","5f60ee2eecc85d015e1747f3","false","null","<div style=""align-items: center; display: flex; color: dodgerblue; font-size: 90px""><b>o</b></div>","null","","","","forget_cue","","","","","","","","","","","","","","","",""
"html-keyboard-response","167","380741","0.0-4.0-1.0-0.16","0vbf9b8df57ckgo","prime","5f14ad6a589e6c0a6da5cf9b","5f60e3c0a3b16e07647b2ff9","5f60ee2eecc85d015e1747f3","false","null","<span style=""color: black; font-size: 48px"">N + M</span>","null","","","","resp_prompt","","","","","","","","","","","","","","","",""
"categorize-image","168","381395","0.0-4.0-1.0-1.16","0vbf9b8df57ckgo","prime","5f14ad6a589e6c0a6da5cf9b","5f60e3c0a3b16e07647b2ff9","5f60ee2eecc85d015e1747f3","true","644.0249999868684","./Stimuli/SelectedImages/SN/SN27.bmp","83","","","","test","true","N + M","83","repetition","SN","SN27.bmp","remember","","65","3","prime1","left","","","",""
"html-keyboard-response","169","383399","0.0-4.0-1.0-3.16","0vbf9b8df57ckgo","prime","5f14ad6a589e6c0a6da5cf9b","5f60e3c0a3b16e07647b2ff9","5f60ee2eecc85d015e1747f3","false","null","<div style=""align-items: center; display: flex; color: dodgerblue; font-size: 90px""><b>o</b></div>","null","","","","forget_cue","","","","","","","","","","","","","","","",""
"html-keyboard-response","170","384101","0.0-4.0-1.0-0.17","0vbf9b8df57ckgo","prime","5f14ad6a589e6c0a6da5cf9b","5f60e3c0a3b16e07647b2ff9","5f60ee2eecc85d015e1747f3","false","null","<span style=""color: black; font-size: 48px"">N + M</span>","null","","","","resp_prompt","","","","","","","","","","","","","","","",""
"categorize-image","171","385196","0.0-4.0-1.0-1.17","0vbf9b8df57ckgo","prime","5f14ad6a589e6c0a6da5cf9b","5f60e3c0a3b16e07647b2ff9","5f60ee2eecc85d015e1747f3","true","1083.5000000079162","./Stimuli/SelectedImages/SN/SN179.bmp","83","","","","test","true","N + M","83","switch","SN","SN179.bmp","remember","","66","3","prime1","left","","","",""
"html-keyboard-response","172","387200","0.0-4.0-1.0-3.17","0vbf9b8df57ckgo","prime","5f14ad6a589e6c0a6da5cf9b","5f60e3c0a3b16e07647b2ff9","5f60ee2eecc85d015e1747f3","false","null","<div style=""align-items: center; display: flex; color: dodgerblue; font-size: 90px""><b>o</b></div>","null","","","","forget_cue","","","","","","","","","","","","","","","",""
"html-keyboard-response","173","387904","0.0-4.0-1.0-0.18","0vbf9b8df57ckgo","prime","5f14ad6a589e6c0a6da5cf9b","5f60e3c0a3b16e07647b2ff9","5f60ee2eecc85d015e1747f3","false","null","<span style=""color: black; font-size: 48px"">M + N</span>","null","","","","resp_prompt","","","","","","","","","","","","","","","",""
"categorize-image","174","388624","0.0-4.0-1.0-1.18","0vbf9b8df57ckgo","prime","5f14ad6a589e6c0a6da5cf9b","5f60e3c0a3b16e07647b2ff9","5f60ee2eecc85d015e1747f3","true","711.6199999582022","./Stimuli/SelectedImages/SN/SN181.bmp","76","","","","test","true","M + N","76","repetition","SN","SN181.bmp","remember","","67","3","prime1","right","","","",""
"html-keyboard-response","175","390629","0.0-4.0-1.0-3.18","0vbf9b8df57ckgo","prime","5f14ad6a589e6c0a6da5cf9b","5f60e3c0a3b16e07647b2ff9","5f60ee2eecc85d015e1747f3","false","null","<div style=""align-items: center; display: flex; color: dodgerblue; font-size: 90px""><b>o</b></div>","null","","","","forget_cue","","","","","","","","","","","","","","","",""
"html-keyboard-response","176","391332","0.0-4.0-1.0-0.19","0vbf9b8df57ckgo","prime","5f14ad6a589e6c0a6da5cf9b","5f60e3c0a3b16e07647b2ff9","5f60ee2eecc85d015e1747f3","false","null","<span style=""color: black; font-size: 48px"">M + N</span>","null","","","","resp_prompt","","","","","","","","","","","","","","","",""
"categorize-image","177","391801","0.0-4.0-1.0-1.19","0vbf9b8df57ckgo","prime","5f14ad6a589e6c0a6da5cf9b","5f60e3c0a3b16e07647b2ff9","5f60ee2eecc85d015e1747f3","true","457.9599999706261","./Stimuli/SelectedImages/LM/LM150.bmp","83","","","","test","true","M + N","83","switch","LM","LM150.bmp","forget","","68","3","prime1","left","","","",""
"html-keyboard-response","178","393805","0.0-4.0-1.0-3.19","0vbf9b8df57ckgo","prime","5f14ad6a589e6c0a6da5cf9b","5f60e3c0a3b16e07647b2ff9","5f60ee2eecc85d015e1747f3","false","null","<div style=""align-items: center; display: flex; color: darkorange; font-size: 90px""><b>ø</b></div>","null","","","","forget_cue","","","","","","","","","","","","","","","",""
"html-keyboard-response","179","394509","0.0-4.0-1.0-0.20","0vbf9b8df57ckgo","prime","5f14ad6a589e6c0a6da5cf9b","5f60e3c0a3b16e07647b2ff9","5f60ee2eecc85d015e1747f3","false","null","<span style=""color: black; font-size: 48px"">M + N</span>","null","","","","resp_prompt","","","","","","","","","","","","","","","",""
"categorize-image","180","395619","0.0-4.0-1.0-1.20","0vbf9b8df57ckgo","prime","5f14ad6a589e6c0a6da5cf9b","5f60e3c0a3b16e07647b2ff9","5f60ee2eecc85d015e1747f3","true","1100.8349999901839","./Stimuli/SelectedImages/LM/LM48.bmp","76","","","","test","false","M + N","83","repetition","LM","LM48.bmp","forget","","69","3","prime1","right","","","",""
"html-keyboard-response","181","396122","0.0-4.0-1.0-2.20-0.20","0vbf9b8df57ckgo","prime","5f14ad6a589e6c0a6da5cf9b","5f60e3c0a3b16e07647b2ff9","5f60ee2eecc85d015e1747f3","false","null","<span style=""color: red; font-size: 48px"">Error!</span>","null","","","","feedback","","","","","","","","","","","","","","","",""
"html-keyboard-response","182","398125","0.0-4.0-1.0-3.20","0vbf9b8df57ckgo","prime","5f14ad6a589e6c0a6da5cf9b","5f60e3c0a3b16e07647b2ff9","5f60ee2eecc85d015e1747f3","false","null","<div style=""align-items: center; display: flex; color: darkorange; font-size: 90px""><b>ø</b></div>","null","","","","forget_cue","","","","","","","","","","","","","","","",""
"html-keyboard-response","183","398828","0.0-4.0-1.0-0.21","0vbf9b8df57ckgo","prime","5f14ad6a589e6c0a6da5cf9b","5f60e3c0a3b16e07647b2ff9","5f60ee2eecc85d015e1747f3","false","null","<span style=""color: black; font-size: 48px"">M + N</span>","null","","","","resp_prompt","","","","","","","","","","","","","","","",""
"categorize-image","184","399584","0.0-4.0-1.0-1.21","0vbf9b8df57ckgo","prime","5f14ad6a589e6c0a6da5cf9b","5f60e3c0a3b16e07647b2ff9","5f60ee2eecc85d015e1747f3","true","743.8899999833666","./Stimuli/SelectedImages/SM/SM213.bmp","83","","","","test","true","M + N","83","switch","SM","SM213.bmp","remember","","70","3","prime1","left","","","",""
"html-keyboard-response","185","401586","0.0-4.0-1.0-3.21","0vbf9b8df57ckgo","prime","5f14ad6a589e6c0a6da5cf9b","5f60e3c0a3b16e07647b2ff9","5f60ee2eecc85d015e1747f3","false","null","<div style=""align-items: center; display: flex; color: dodgerblue; font-size: 90px""><b>o</b></div>","null","","","","forget_cue","","","","","","","","","","","","","","","",""
"html-keyboard-response","186","402289","0.0-4.0-1.0-0.22","0vbf9b8df57ckgo","prime","5f14ad6a589e6c0a6da5cf9b","5f60e3c0a3b16e07647b2ff9","5f60ee2eecc85d015e1747f3","false","null","<span style=""color: black; font-size: 48px"">M + N</span>","null","","","","resp_prompt","","","","","","","","","","","","","","","",""
"categorize-image","187","403193","0.0-4.0-1.0-1.22","0vbf9b8df57ckgo","prime","5f14ad6a589e6c0a6da5cf9b","5f60e3c0a3b16e07647b2ff9","5f60ee2eecc85d015e1747f3","true","889.6449999883771","./Stimuli/SelectedImages/LN/LN42.bmp","76","","","","test","true","M + N","76","switch","LN","LN42.bmp","remember","","71","3","prime1","right","","","",""
"html-keyboard-response","188","405197","0.0-4.0-1.0-3.22","0vbf9b8df57ckgo","prime","5f14ad6a589e6c0a6da5cf9b","5f60e3c0a3b16e07647b2ff9","5f60ee2eecc85d015e1747f3","false","null","<div style=""align-items: center; display: flex; color: dodgerblue; font-size: 90px""><b>o</b></div>","null","","","","forget_cue","","","","","","","","","","","","","","","",""
"html-keyboard-response","189","405901","0.0-4.0-1.0-0.23","0vbf9b8df57ckgo","prime","5f14ad6a589e6c0a6da5cf9b","5f60e3c0a3b16e07647b2ff9","5f60ee2eecc85d015e1747f3","false","null","<span style=""color: black; font-size: 48px"">N + M</span>","null","","","","resp_prompt","","","","","","","","","","","","","","","",""
"categorize-image","190","406646","0.0-4.0-1.0-1.23","0vbf9b8df57ckgo","prime","5f14ad6a589e6c0a6da5cf9b","5f60e3c0a3b16e07647b2ff9","5f60ee2eecc85d015e1747f3","true","733.8499999605119","./Stimuli/SelectedImages/SN/SN60.bmp","83","","","","test","true","N + M","83","switch","SN","SN60.bmp","remember","","72","3","prime1","left","","","",""
"html-keyboard-response","191","408650","0.0-4.0-1.0-3.23","0vbf9b8df57ckgo","prime","5f14ad6a589e6c0a6da5cf9b","5f60e3c0a3b16e07647b2ff9","5f60ee2eecc85d015e1747f3","false","null","<div style=""align-items: center; display: flex; color: dodgerblue; font-size: 90px""><b>o</b></div>","null","","","","forget_cue","","","","","","","","","","","","","","","",""
"html-keyboard-response","192","409353","0.0-4.0-1.0-0.24","0vbf9b8df57ckgo","prime","5f14ad6a589e6c0a6da5cf9b","5f60e3c0a3b16e07647b2ff9","5f60ee2eecc85d015e1747f3","false","null","<span style=""color: black; font-size: 48px"">N + M</span>","null","","","","resp_prompt","","","","","","","","","","","","","","","",""
"categorize-image","193","409962","0.0-4.0-1.0-1.24","0vbf9b8df57ckgo","prime","5f14ad6a589e6c0a6da5cf9b","5f60e3c0a3b16e07647b2ff9","5f60ee2eecc85d015e1747f3","true","599.9149999697693","./Stimuli/SelectedImages/LM/LM100.bmp","76","","","","test","true","N + M","76","repetition","LM","LM100.bmp","remember","","73","3","prime1","right","","","",""
"html-keyboard-response","194","411965","0.0-4.0-1.0-3.24","0vbf9b8df57ckgo","prime","5f14ad6a589e6c0a6da5cf9b","5f60e3c0a3b16e07647b2ff9","5f60ee2eecc85d015e1747f3","false","null","<div style=""align-items: center; display: flex; color: dodgerblue; font-size: 90px""><b>o</b></div>","null","","","","forget_cue","","","","","","","","","","","","","","","",""
"html-keyboard-response","195","412668","0.0-4.0-1.0-0.25","0vbf9b8df57ckgo","prime","5f14ad6a589e6c0a6da5cf9b","5f60e3c0a3b16e07647b2ff9","5f60ee2eecc85d015e1747f3","false","null","<span style=""color: black; font-size: 48px"">N + M</span>","null","","","","resp_prompt","","","","","","","","","","","","","","","",""
"categorize-image","196","413825","0.0-4.0-1.0-1.25","0vbf9b8df57ckgo","prime","5f14ad6a589e6c0a6da5cf9b","5f60e3c0a3b16e07647b2ff9","5f60ee2eecc85d015e1747f3","true","1144.9649999849498","./Stimuli/SelectedImages/LN/LN9.bmp","83","","","","test","true","N + M","83","repetition","LN","LN9.bmp","forget","","74","3","prime1","left","","","",""
"html-keyboard-response","197","415828","0.0-4.0-1.0-3.25","0vbf9b8df57ckgo","prime","5f14ad6a589e6c0a6da5cf9b","5f60e3c0a3b16e07647b2ff9","5f60ee2eecc85d015e1747f3","false","null","<div style=""align-items: center; display: flex; color: darkorange; font-size: 90px""><b>ø</b></div>","null","","","","forget_cue","","","","","","","","","","","","","","","",""
"html-keyboard-response","198","416531","0.0-4.0-1.0-0.26","0vbf9b8df57ckgo","prime","5f14ad6a589e6c0a6da5cf9b","5f60e3c0a3b16e07647b2ff9","5f60ee2eecc85d015e1747f3","false","null","<span style=""color: black; font-size: 48px"">M + N</span>","null","","","","resp_prompt","","","","","","","","","","","","","","","",""
"categorize-image","199","417357","0.0-4.0-1.0-1.26","0vbf9b8df57ckgo","prime","5f14ad6a589e6c0a6da5cf9b","5f60e3c0a3b16e07647b2ff9","5f60ee2eecc85d015e1747f3","true","814.1000000177883","./Stimuli/SelectedImages/SM/SM24.bmp","83","","","","test","true","M + N","83","repetition","SM","SM24.bmp","forget","","75","3","prime1","left","","","",""
"html-keyboard-response","200","419362","0.0-4.0-1.0-3.26","0vbf9b8df57ckgo","prime","5f14ad6a589e6c0a6da5cf9b","5f60e3c0a3b16e07647b2ff9","5f60ee2eecc85d015e1747f3","false","null","<div style=""align-items: center; display: flex; color: darkorange; font-size: 90px""><b>ø</b></div>","null","","","","forget_cue","","","","","","","","","","","","","","","",""
"html-keyboard-response","201","420065","0.0-4.0-1.0-0.27","0vbf9b8df57ckgo","prime","5f14ad6a589e6c0a6da5cf9b","5f60e3c0a3b16e07647b2ff9","5f60ee2eecc85d015e1747f3","false","null","<span style=""color: black; font-size: 48px"">N + M</span>","null","","","","resp_prompt","","","","","","","","","","","","","","","",""
"categorize-image","202","420838","0.0-4.0-1.0-1.27","0vbf9b8df57ckgo","prime","5f14ad6a589e6c0a6da5cf9b","5f60e3c0a3b16e07647b2ff9","5f60ee2eecc85d015e1747f3","true","760.4500000015832","./Stimuli/SelectedImages/LN/LN150.bmp","76","","","","test","false","N + M","83","switch","LN","LN150.bmp","forget","","76","3","prime1","right","","","",""
"html-keyboard-response","203","421341","0.0-4.0-1.0-2.27-0.27","0vbf9b8df57ckgo","prime","5f14ad6a589e6c0a6da5cf9b","5f60e3c0a3b16e07647b2ff9","5f60ee2eecc85d015e1747f3","false","null","<span style=""color: red; font-size: 48px"">Error!</span>","null","","","","feedback","","","","","","","","","","","","","","","",""
"html-keyboard-response","204","423345","0.0-4.0-1.0-3.27","0vbf9b8df57ckgo","prime","5f14ad6a589e6c0a6da5cf9b","5f60e3c0a3b16e07647b2ff9","5f60ee2eecc85d015e1747f3","false","null","<div style=""align-items: center; display: flex; color: darkorange; font-size: 90px""><b>ø</b></div>","null","","","","forget_cue","","","","","","","","","","","","","","","",""
"html-keyboard-response","205","424049","0.0-4.0-1.0-0.28","0vbf9b8df57ckgo","prime","5f14ad6a589e6c0a6da5cf9b","5f60e3c0a3b16e07647b2ff9","5f60ee2eecc85d015e1747f3","false","null","<span style=""color: black; font-size: 48px"">N + M</span>","null","","","","resp_prompt","","","","","","","","","","","","","","","",""
"categorize-image","206","424756","0.0-4.0-1.0-1.28","0vbf9b8df57ckgo","prime","5f14ad6a589e6c0a6da5cf9b","5f60e3c0a3b16e07647b2ff9","5f60ee2eecc85d015e1747f3","true","695.5849999794737","./Stimuli/SelectedImages/SN/SN240.bmp","83","","","","test","true","N + M","83","repetition","SN","SN240.bmp","forget","","77","3","prime1","left","","","",""
"html-keyboard-response","207","426761","0.0-4.0-1.0-3.28","0vbf9b8df57ckgo","prime","5f14ad6a589e6c0a6da5cf9b","5f60e3c0a3b16e07647b2ff9","5f60ee2eecc85d015e1747f3","false","null","<div style=""align-items: center; display: flex; color: darkorange; font-size: 90px""><b>ø</b></div>","null","","","","forget_cue","","","","","","","","","","","","","","","",""
"html-keyboard-response","208","427464","0.0-4.0-1.0-0.29","0vbf9b8df57ckgo","prime","5f14ad6a589e6c0a6da5cf9b","5f60e3c0a3b16e07647b2ff9","5f60ee2eecc85d015e1747f3","false","null","<span style=""color: black; font-size: 48px"">M + N</span>","null","","","","resp_prompt","","","","","","","","","","","","","","","",""
"categorize-image","209","428198","0.0-4.0-1.0-1.29","0vbf9b8df57ckgo","prime","5f14ad6a589e6c0a6da5cf9b","5f60e3c0a3b16e07647b2ff9","5f60ee2eecc85d015e1747f3","true","722.2600000095554","./Stimuli/SelectedImages/SN/SN49.bmp","76","","","","test","true","M + N","76","switch","SN","SN49.bmp","remember","","78","3","prime1","right","","","",""
"html-keyboard-response","210","430202","0.0-4.0-1.0-3.29","0vbf9b8df57ckgo","prime","5f14ad6a589e6c0a6da5cf9b","5f60e3c0a3b16e07647b2ff9","5f60ee2eecc85d015e1747f3","false","null","<div style=""align-items: center; display: flex; color: dodgerblue; font-size: 90px""><b>o</b></div>","null","","","","forget_cue","","","","","","","","","","","","","","","",""
"html-keyboard-response","211","430907","0.0-4.0-1.0-0.30","0vbf9b8df57ckgo","prime","5f14ad6a589e6c0a6da5cf9b","5f60e3c0a3b16e07647b2ff9","5f60ee2eecc85d015e1747f3","false","null","<span style=""color: black; font-size: 48px"">N + M</span>","null","","","","resp_prompt","","","","","","","","","","","","","","","",""
"categorize-image","212","431646","0.0-4.0-1.0-1.30","0vbf9b8df57ckgo","prime","5f14ad6a589e6c0a6da5cf9b","5f60e3c0a3b16e07647b2ff9","5f60ee2eecc85d015e1747f3","true","729.4899999978952","./Stimuli/SelectedImages/LM/LM57.bmp","76","","","","test","true","N + M","76","repetition","LM","LM57.bmp","remember","","79","3","prime1","right","","","",""
"html-keyboard-response","213","433650","0.0-4.0-1.0-3.30","0vbf9b8df57ckgo","prime","5f14ad6a589e6c0a6da5cf9b","5f60e3c0a3b16e07647b2ff9","5f60ee2eecc85d015e1747f3","false","null","<div style=""align-items: center; display: flex; color: dodgerblue; font-size: 90px""><b>o</b></div>","null","","","","forget_cue","","","","","","","","","","","","","","","",""
"html-keyboard-response","214","434353","0.0-4.0-1.0-0.31","0vbf9b8df57ckgo","prime","5f14ad6a589e6c0a6da5cf9b","5f60e3c0a3b16e07647b2ff9","5f60ee2eecc85d015e1747f3","false","null","<span style=""color: black; font-size: 48px"">N + M</span>","null","","","","resp_prompt","","","","","","","","","","","","","","","",""
"categorize-image","215","435011","0.0-4.0-1.0-1.31","0vbf9b8df57ckgo","prime","5f14ad6a589e6c0a6da5cf9b","5f60e3c0a3b16e07647b2ff9","5f60ee2eecc85d015e1747f3","true","647.0549999503419","./Stimuli/SelectedImages/SN/SN93.bmp","83","","","","test","true","N + M","83","repetition","SN","SN93.bmp","forget","","80","3","prime1","left","","","",""
"html-keyboard-response","216","437014","0.0-4.0-1.0-3.31","0vbf9b8df57ckgo","prime","5f14ad6a589e6c0a6da5cf9b","5f60e3c0a3b16e07647b2ff9","5f60ee2eecc85d015e1747f3","false","null","<div style=""align-items: center; display: flex; color: darkorange; font-size: 90px""><b>ø</b></div>","null","","","","forget_cue","","","","","","","","","","","","","","","",""
"html-keyboard-response","217","437717","0.0-4.0-1.0-0.32","0vbf9b8df57ckgo","prime","5f14ad6a589e6c0a6da5cf9b","5f60e3c0a3b16e07647b2ff9","5f60ee2eecc85d015e1747f3","false","null","<span style=""color: black; font-size: 48px"">M + N</span>","null","","","","resp_prompt","","","","","","","","","","","","","","","",""
"categorize-image","218","438551","0.0-4.0-1.0-1.32","0vbf9b8df57ckgo","prime","5f14ad6a589e6c0a6da5cf9b","5f60e3c0a3b16e07647b2ff9","5f60ee2eecc85d015e1747f3","true","824.5100000058301","./Stimuli/SelectedImages/SN/SN64.bmp","76","","","","test","true","M + N","76","switch","SN","SN64.bmp","forget","","81","3","prime1","right","","","",""
"html-keyboard-response","219","440555","0.0-4.0-1.0-3.32","0vbf9b8df57ckgo","prime","5f14ad6a589e6c0a6da5cf9b","5f60e3c0a3b16e07647b2ff9","5f60ee2eecc85d015e1747f3","false","null","<div style=""align-items: center; display: flex; color: darkorange; font-size: 90px""><b>ø</b></div>","null","","","","forget_cue","","","","","","","","","","","","","","","",""
"html-keyboard-response","220","441258","0.0-4.0-1.0-0.33","0vbf9b8df57ckgo","prime","5f14ad6a589e6c0a6da5cf9b","5f60e3c0a3b16e07647b2ff9","5f60ee2eecc85d015e1747f3","false","null","<span style=""color: black; font-size: 48px"">N + M</span>","null","","","","resp_prompt","","","","","","","","","","","","","","","",""
"categorize-image","221","442043","0.0-4.0-1.0-1.33","0vbf9b8df57ckgo","prime","5f14ad6a589e6c0a6da5cf9b","5f60e3c0a3b16e07647b2ff9","5f60ee2eecc85d015e1747f3","true","773.0800000135787","./Stimuli/SelectedImages/LM/LM129.bmp","76","","","","test","true","N + M","76","switch","LM","LM129.bmp","forget","","82","3","prime1","right","","","",""
"html-keyboard-response","222","444046","0.0-4.0-1.0-3.33","0vbf9b8df57ckgo","prime","5f14ad6a589e6c0a6da5cf9b","5f60e3c0a3b16e07647b2ff9","5f60ee2eecc85d015e1747f3","false","null","<div style=""align-items: center; display: flex; color: darkorange; font-size: 90px""><b>ø</b></div>","null","","","","forget_cue","","","","","","","","","","","","","","","",""
"html-keyboard-response","223","444748","0.0-4.0-1.0-0.34","0vbf9b8df57ckgo","prime","5f14ad6a589e6c0a6da5cf9b","5f60e3c0a3b16e07647b2ff9","5f60ee2eecc85d015e1747f3","false","null","<span style=""color: black; font-size: 48px"">N + M</span>","null","","","","resp_prompt","","","","","","","","","","","","","","","",""
"categorize-image","224","445656","0.0-4.0-1.0-1.34","0vbf9b8df57ckgo","prime","5f14ad6a589e6c0a6da5cf9b","5f60e3c0a3b16e07647b2ff9","5f60ee2eecc85d015e1747f3","true","899.3500000215136","./Stimuli/SelectedImages/LN/LN82.bmp","83","","","","test","true","N + M","83","repetition","LN","LN82.bmp","forget","","83","3","prime1","left","","","",""
"html-keyboard-response","225","447659","0.0-4.0-1.0-3.34","0vbf9b8df57ckgo","prime","5f14ad6a589e6c0a6da5cf9b","5f60e3c0a3b16e07647b2ff9","5f60ee2eecc85d015e1747f3","false","null","<div style=""align-items: center; display: flex; color: darkorange; font-size: 90px""><b>ø</b></div>","null","","","","forget_cue","","","","","","","","","","","","","","","",""
"html-keyboard-response","226","448361","0.0-4.0-1.0-0.35","0vbf9b8df57ckgo","prime","5f14ad6a589e6c0a6da5cf9b","5f60e3c0a3b16e07647b2ff9","5f60ee2eecc85d015e1747f3","false","null","<span style=""color: black; font-size: 48px"">M + N</span>","null","","","","resp_prompt","","","","","","","","","","","","","","","",""
"categorize-image","227","449158","0.0-4.0-1.0-1.35","0vbf9b8df57ckgo","prime","5f14ad6a589e6c0a6da5cf9b","5f60e3c0a3b16e07647b2ff9","5f60ee2eecc85d015e1747f3","true","787.9700000048615","./Stimuli/SelectedImages/SM/SM73.bmp","83","","","","test","true","M + N","83","repetition","SM","SM73.bmp","remember","","84","3","prime1","left","","","",""
"html-keyboard-response","228","451162","0.0-4.0-1.0-3.35","0vbf9b8df57ckgo","prime","5f14ad6a589e6c0a6da5cf9b","5f60e3c0a3b16e07647b2ff9","5f60ee2eecc85d015e1747f3","false","null","<div style=""align-items: center; display: flex; color: dodgerblue; font-size: 90px""><b>o</b></div>","null","","","","forget_cue","","","","","","","","","","","","","","","",""
"html-keyboard-response","229","451866","0.0-4.0-1.0-0.36","0vbf9b8df57ckgo","prime","5f14ad6a589e6c0a6da5cf9b","5f60e3c0a3b16e07647b2ff9","5f60ee2eecc85d015e1747f3","false","null","<span style=""color: black; font-size: 48px"">N + M</span>","null","","","","resp_prompt","","","","","","","","","","","","","","","",""
"categorize-image","230","453018","0.0-4.0-1.0-1.36","0vbf9b8df57ckgo","prime","5f14ad6a589e6c0a6da5cf9b","5f60e3c0a3b16e07647b2ff9","5f60ee2eecc85d015e1747f3","true","1140.6849999912083","./Stimuli/SelectedImages/SN/SN128.bmp","83","","","","test","true","N + M","83","repetition","SN","SN128.bmp","remember","","85","3","prime1","left","","","",""
"html-keyboard-response","231","455022","0.0-4.0-1.0-3.36","0vbf9b8df57ckgo","prime","5f14ad6a589e6c0a6da5cf9b","5f60e3c0a3b16e07647b2ff9","5f60ee2eecc85d015e1747f3","false","null","<div style=""align-items: center; display: flex; color: dodgerblue; font-size: 90px""><b>o</b></div>","null","","","","forget_cue","","","","","","","","","","","","","","","",""
"html-keyboard-response","232","455726","0.0-4.0-1.0-0.37","0vbf9b8df57ckgo","prime","5f14ad6a589e6c0a6da5cf9b","5f60e3c0a3b16e07647b2ff9","5f60ee2eecc85d015e1747f3","false","null","<span style=""color: black; font-size: 48px"">N + M</span>","null","","","","resp_prompt","","","","","","","","","","","","","","","",""
"categorize-image","233","456320","0.0-4.0-1.0-1.37","0vbf9b8df57ckgo","prime","5f14ad6a589e6c0a6da5cf9b","5f60e3c0a3b16e07647b2ff9","5f60ee2eecc85d015e1747f3","true","585.3150000330061","./Stimuli/SelectedImages/LM/LM216.bmp","76","","","","test","true","N + M","76","repetition","LM","LM216.bmp","forget","","86","3","prime1","right","","","",""
"html-keyboard-response","234","458322","0.0-4.0-1.0-3.37","0vbf9b8df57ckgo","prime","5f14ad6a589e6c0a6da5cf9b","5f60e3c0a3b16e07647b2ff9","5f60ee2eecc85d015e1747f3","false","null","<div style=""align-items: center; display: flex; color: darkorange; font-size: 90px""><b>ø</b></div>","null","","","","forget_cue","","","","","","","","","","","","","","","",""
"html-keyboard-response","235","459025","0.0-4.0-1.0-0.38","0vbf9b8df57ckgo","prime","5f14ad6a589e6c0a6da5cf9b","5f60e3c0a3b16e07647b2ff9","5f60ee2eecc85d015e1747f3","false","null","<span style=""color: black; font-size: 48px"">N + M</span>","null","","","","resp_prompt","","","","","","","","","","","","","","","",""
"categorize-image","236","459730","0.0-4.0-1.0-1.38","0vbf9b8df57ckgo","prime","5f14ad6a589e6c0a6da5cf9b","5f60e3c0a3b16e07647b2ff9","5f60ee2eecc85d015e1747f3","true","694.069999968633","./Stimuli/SelectedImages/LN/LN149.bmp","83","","","","test","true","N + M","83","repetition","LN","LN149.bmp","remember","","87","3","prime1","left","","","",""
"html-keyboard-response","237","461734","0.0-4.0-1.0-3.38","0vbf9b8df57ckgo","prime","5f14ad6a589e6c0a6da5cf9b","5f60e3c0a3b16e07647b2ff9","5f60ee2eecc85d015e1747f3","false","null","<div style=""align-items: center; display: flex; color: dodgerblue; font-size: 90px""><b>o</b></div>","null","","","","forget_cue","","","","","","","","","","","","","","","",""
"html-keyboard-response","238","462436","0.0-4.0-1.0-0.39","0vbf9b8df57ckgo","prime","5f14ad6a589e6c0a6da5cf9b","5f60e3c0a3b16e07647b2ff9","5f60ee2eecc85d015e1747f3","false","null","<span style=""color: black; font-size: 48px"">N + M</span>","null","","","","resp_prompt","","","","","","","","","","","","","","","",""
"categorize-image","239","463244","0.0-4.0-1.0-1.39","0vbf9b8df57ckgo","prime","5f14ad6a589e6c0a6da5cf9b","5f60e3c0a3b16e07647b2ff9","5f60ee2eecc85d015e1747f3","true","801.3449999853037","./Stimuli/SelectedImages/SN/SN111.bmp","83","","","","test","true","N + M","83","switch","SN","SN111.bmp","forget","","88","3","prime1","left","","","",""
"html-keyboard-response","240","465246","0.0-4.0-1.0-3.39","0vbf9b8df57ckgo","prime","5f14ad6a589e6c0a6da5cf9b","5f60e3c0a3b16e07647b2ff9","5f60ee2eecc85d015e1747f3","false","null","<div style=""align-items: center; display: flex; color: darkorange; font-size: 90px""><b>ø</b></div>","null","","","","forget_cue","","","","","","","","","","","","","","","",""
"html-keyboard-response","241","465948","0.0-4.0-1.0-0.40","0vbf9b8df57ckgo","prime","5f14ad6a589e6c0a6da5cf9b","5f60e3c0a3b16e07647b2ff9","5f60ee2eecc85d015e1747f3","false","null","<span style=""color: black; font-size: 48px"">M + N</span>","null","","","","resp_prompt","","","","","","","","","","","","","","","",""
"categorize-image","242","466662","0.0-4.0-1.0-1.40","0vbf9b8df57ckgo","prime","5f14ad6a589e6c0a6da5cf9b","5f60e3c0a3b16e07647b2ff9","5f60ee2eecc85d015e1747f3","true","702.3899999912828","./Stimuli/SelectedImages/SM/SM184.bmp","83","","","","test","true","M + N","83","switch","SM","SM184.bmp","remember","","89","3","prime1","left","","","",""
"html-keyboard-response","243","468665","0.0-4.0-1.0-3.40","0vbf9b8df57ckgo","prime","5f14ad6a589e6c0a6da5cf9b","5f60e3c0a3b16e07647b2ff9","5f60ee2eecc85d015e1747f3","false","null","<div style=""align-items: center; display: flex; color: dodgerblue; font-size: 90px""><b>o</b></div>","null","","","","forget_cue","","","","","","","","","","","","","","","",""
"html-keyboard-response","244","469368","0.0-4.0-1.0-0.41","0vbf9b8df57ckgo","prime","5f14ad6a589e6c0a6da5cf9b","5f60e3c0a3b16e07647b2ff9","5f60ee2eecc85d015e1747f3","false","null","<span style=""color: black; font-size: 48px"">N + M</span>","null","","","","resp_prompt","","","","","","","","","","","","","","","",""
"categorize-image","245","470114","0.0-4.0-1.0-1.41","0vbf9b8df57ckgo","prime","5f14ad6a589e6c0a6da5cf9b","5f60e3c0a3b16e07647b2ff9","5f60ee2eecc85d015e1747f3","true","738.7900000321679","./Stimuli/SelectedImages/SM/SM108.bmp","76","","","","test","true","N + M","76","repetition","SM","SM108.bmp","remember","","90","3","prime1","right","","","",""
"html-keyboard-response","246","472117","0.0-4.0-1.0-3.41","0vbf9b8df57ckgo","prime","5f14ad6a589e6c0a6da5cf9b","5f60e3c0a3b16e07647b2ff9","5f60ee2eecc85d015e1747f3","false","null","<div style=""align-items: center; display: flex; color: dodgerblue; font-size: 90px""><b>o</b></div>","null","","","","forget_cue","","","","","","","","","","","","","","","",""
"html-keyboard-response","247","472820","0.0-4.0-1.0-0.42","0vbf9b8df57ckgo","prime","5f14ad6a589e6c0a6da5cf9b","5f60e3c0a3b16e07647b2ff9","5f60ee2eecc85d015e1747f3","false","null","<span style=""color: black; font-size: 48px"">N + M</span>","null","","","","resp_prompt","","","","","","","","","","","","","","","",""
"categorize-image","248","473648","0.0-4.0-1.0-1.42","0vbf9b8df57ckgo","prime","5f14ad6a589e6c0a6da5cf9b","5f60e3c0a3b16e07647b2ff9","5f60ee2eecc85d015e1747f3","true","818.3599999756552","./Stimuli/SelectedImages/LN/LN177.bmp","83","","","","test","true","N + M","83","repetition","LN","LN177.bmp","remember","","91","3","prime1","left","","","",""
"html-keyboard-response","249","475652","0.0-4.0-1.0-3.42","0vbf9b8df57ckgo","prime","5f14ad6a589e6c0a6da5cf9b","5f60e3c0a3b16e07647b2ff9","5f60ee2eecc85d015e1747f3","false","null","<div style=""align-items: center; display: flex; color: dodgerblue; font-size: 90px""><b>o</b></div>","null","","","","forget_cue","","","","","","","","","","","","","","","",""
"html-keyboard-response","250","476355","0.0-4.0-1.0-0.43","0vbf9b8df57ckgo","prime","5f14ad6a589e6c0a6da5cf9b","5f60e3c0a3b16e07647b2ff9","5f60ee2eecc85d015e1747f3","false","null","<span style=""color: black; font-size: 48px"">M + N</span>","null","","","","resp_prompt","","","","","","","","","","","","","","","",""
"categorize-image","251","477073","0.0-4.0-1.0-1.43","0vbf9b8df57ckgo","prime","5f14ad6a589e6c0a6da5cf9b","5f60e3c0a3b16e07647b2ff9","5f60ee2eecc85d015e1747f3","true","706.1699999612756","./Stimuli/SelectedImages/LN/LN128.bmp","76","","","","test","true","M + N","76","switch","LN","LN128.bmp","forget","","92","3","prime1","right","","","",""
"html-keyboard-response","252","479077","0.0-4.0-1.0-3.43","0vbf9b8df57ckgo","prime","5f14ad6a589e6c0a6da5cf9b","5f60e3c0a3b16e07647b2ff9","5f60ee2eecc85d015e1747f3","false","null","<div style=""align-items: center; display: flex; color: darkorange; font-size: 90px""><b>ø</b></div>","null","","","","forget_cue","","","","","","","","","","","","","","","",""
