"trial_type","trial_index","time_elapsed","internal_node_id","subject","exp_part","prolific_PID","study_ID","session_ID","use","rt","stimulus","key_press","button_pressed","responses","question_order","trial_part","correct","resp_map","correct_resp","probe_condition","category","image","forget_condition","list","trial_num","block_num","block","response","test_part","n_span","sequence","num_spaces"
"pavlovia","0","7","0.0-0.0","afamsys0tltav8m","","59b044b4d98aab00019bad5a","5f60e3c0a3b16e07647b2ff9","5f6104be4b543004c124574b","false","","","","","","","","","","","","","","","","","","","","","","",""
"html-keyboard-response","1","25813","0.0-1.0-0.0-0.0","afamsys0tltav8m","welcome","59b044b4d98aab00019bad5a","5f60e3c0a3b16e07647b2ff9","5f6104be4b543004c124574b","false","25802.06999999791","<div align=left>Dear participant, <br> thank you for participating in an online study of the Cognition, Action, and Sustainability Unit of the University of Freiburg! <br> <br>The aim of this study is to examine our ability to remember previously learned information. <br>Our goal is to find out, whether our memory improves, when we only remember information that is relevant to us. <br>The experiment will take about 35 minutes to complete. <br> <br>Please, note that you can only participate in this study if you are using a device with a keyboard (PC, Laptop etc.) <br>and not if you are using a mobile device such as a tablet or smartphone.<br> <br>Press 'SPACE' to proceed to the experiment. </div>","32","","","","","","","","","","","","","","","","","","","",""
"html-keyboard-response","2","49555","0.0-1.0-0.0-1.0","afamsys0tltav8m","welcome","59b044b4d98aab00019bad5a","5f60e3c0a3b16e07647b2ff9","5f6104be4b543004c124574b","false","23741.369999996095","<div align=left><strong> Time Course of this experiment: </strong> <br><br> <strong> 1.</strong>  First, please fill in some information regarding your demographic data. <br><br> <strong> 2.</strong>  Next, your task will be to classify everyday objects. <br>In addition, you will be asked to remember certain objects and recall them later. <br>Working on these tasks requires your undivided attention and concentration.<br>It is therefore essential that you eliminate any sources of distraction in your  <br>environment and ensure that you will not be disturbed. <br><br><strong> 3.</strong>  At the end of the experiment, you will be asked to answer a few additional questions. <br> <br><strong> Important:</strong> After finishing the experiment, only close the browser window <br> by clicking on the 'end the experiment'-button when you are asked to do so. <br>Closing the browser window prematurely will make the allocation of your participation credit impossible. <br><br> Press 'SPACE' to start the experiment. </div>","32","","","","","","","","","","","","","","","","","","","",""
"html-button-response","3","69208","0.0-1.0-0.0-2.0","afamsys0tltav8m","welcome","59b044b4d98aab00019bad5a","5f60e3c0a3b16e07647b2ff9","5f6104be4b543004c124574b","true","19649.62500000547","<div align=left><strong> Informed consent </strong>  <br>The aim of our research is to better understand human behavior and mental processes. <br>In the following study your behavior (e.g. choices, reaction times) will be studied. <br> <br><strong> Voluntariness and Anonymity </strong> <br>Your participation in this study is  <strong> voluntary</strong>.<br>You may withdraw your consent to participate at any time without providing a reason for doing so and without fear of prejudice. <br><br>As no personal data will be collected, <strong>your data and your person cannot be connected after data collection</strong> – the data-set is anonymous. <br>Respectively, deletion of your data will not be possible after data collection has been completed, as we cannot retrace your data-set.<br>The results and anonymized data collected in this study will be published as a scientific publication. <br>This will happen in an <strong>anonymized format</strong>, so that no data can be traced back to a specific person. <br> <br>The anonymized data of this study will be made available to other researchers and/or in a data archive on the Internet as a means of transparency and to enable subsequent re-use. By doing so, this study follows the recommendations of the Deutsche Forschungsgemeinschaft (DFG, German Research Foundation) and Deutsche Gesellschaft für Psychologie (DGPS, German Psychological Society) regarding quality assurance in research.<br>If you have any questions now or after the experiment, please contact our team (experiments@cs.uni-freiburg.de).<br><br><br>I hereby declare, that I understand the above described conditions of participation and I agree to participate under these conditions. <br><br> </div>","","0","","","","","","","","","","","","","","","","","","",""
"html-keyboard-response","4","75795","0.0-1.0-0.0-3.0","afamsys0tltav8m","welcome","59b044b4d98aab00019bad5a","5f60e3c0a3b16e07647b2ff9","5f6104be4b543004c124574b","false","6585.074999995413","<div align=left><strong> General information concerning the experiment </strong>  <br> <br>Please follow the instructions:<ol> <li><strong> Do not leave this tab (your browser window) during the experiment and do not reload this tab! </strong>  <br>If you do switch tabs/windows during the experiment (to check your mail or visit another website, for example), <br>the experiment will end automatically and you will <strong>not receive credit</strong> for your participation. <br>Repeated participation or resumption of the experiment is impossible.</li> <br><li>Please close all other programs for the duration of your participation. </li> <br><li>Please mute or turn off your phone and put it out of your reach. </li> <br><li>Please also take off any disturbing accessories (such as wristwatches, bracelets, etc.). </li> <br><li>If you have music playing in the background, please turn it off now. </li> <br></ol>Thank you! <br>Press 'SPACE' to continue. </div>","32","","","","","","","","","","","","","","","","","","","",""
"survey-text","5","80484","0.0-1.0-1.0-0.0","afamsys0tltav8m","demographics","59b044b4d98aab00019bad5a","5f60e3c0a3b16e07647b2ff9","5f6104be4b543004c124574b","true","4683.389999998326","","","","{""age"":""37""}","","","","","","","","","","","","","","","","","",""
"survey-multi-choice","6","100230","0.0-1.0-1.0-1.0","afamsys0tltav8m","demographics","59b044b4d98aab00019bad5a","5f60e3c0a3b16e07647b2ff9","5f6104be4b543004c124574b","true","19742.000000005646","","","","{""gender"":""female"",""school"":""others"",""education"":""Completed university degree or equivalent""}","[0,1,2]","","","","","","","","","","","","","","","","",""
"html-keyboard-response","7","105891","0.0-1.0-2.0","afamsys0tltav8m","instructions","59b044b4d98aab00019bad5a","5f60e3c0a3b16e07647b2ff9","5f6104be4b543004c124574b","false","5651.805000001332","<div align=left> The experiment is now about to start: <br> <br>In the following part, you will be presented pictures of everyday objects. <br>Your first task is to <strong>classify these objects. </strong> <br> <br> You will classify them either as mechanical or non-mechanical objects. <br> <br>Objects that include any kind of technical mechanism (for example, wheels, switches, levers, <br> electronic components) fall under the category of <strong>mechanical</strong> objects. <br>Only objects without any kind of technical mechanism should be classified as <strong>non-mechanical</strong>. <br><br>Press 'SPACE' to continue. </div>","32","","","","","","","","","","","","","","","","","","","",""
"html-keyboard-response","8","193972","0.0-2.0-0.0","afamsys0tltav8m","instructions","59b044b4d98aab00019bad5a","5f60e3c0a3b16e07647b2ff9","5f6104be4b543004c124574b","false","88079.35500000167","<div align=justify>You will classify the objects using the <strong>'S'</strong> and the <strong>'L'</strong> keys on your keyboard.<br>For doing so, please place your <strong>left index finger</strong> on the <strong>'S'</strong> key and place your <strong>right index finger</strong> on the <strong>'L'</strong> key. <br><br> Each trial starts with an instruction, indicating which key ('S'/'L') you need to press to classify <br>the object as mechanical (letter M) or non-mechanical (letter N).<br>The instruction <strong>M + N</strong> indicates that, in the current trial, by pressing the left key ('S') you classify the displayed object as mechanical (M) <br> and by pressing the right key ('L') you classify the object as non-mechanical (N). <br>The instruction <strong>N + M</strong> on the other hand indicates that by pressing the left key ('S') you classify the displayed object as non-mechanical (N) <br> and by pressing the right key ('L') you classify the object as mechanical (M). <br><br>Please press the key corresponding to the correct classification as fast as possible as soon as the object is displayed and try to avoid making mistakes.<br>If you do not respond within a 2 second window, a corresponding feedback will be displayed and the next trial will start.<br> The experiment is divided into multiple blocks to give you the opportunity to take a break after each block. <br>First, you can now practice this task. <br><br>Please place your <strong>LEFT INDEX FINGER</strong> on the 'S' key and your <strong>RIGHT INDEX FINGER</strong> on the 'L' key now. <br><br>Press SPACE to continue.</div>","32","","","","","","","","","","","","","","","","","","","",""
"html-keyboard-response","9","198595","0.0-2.0-1.0","afamsys0tltav8m","instructions","59b044b4d98aab00019bad5a","5f60e3c0a3b16e07647b2ff9","5f6104be4b543004c124574b","false","4621.960000004037","<div align=left> You will now have time to practice this task.<br><br>Remember: <br> <br><li>Please place your index fingers on the <strong>'S'</strong> and <strong>'L'</strong> keys <br>to respond as fast and accurately as possible.</li><li>Every picture can be classified as either mechanical or non-mechanical.</li><li>If you do not respond in time or commit an error, you will receive a corresponding feedback. </li><li> Please try to respond as <strong> fast </strong> and as <strong> accurately as possible </strong> .<br><li>To ensure optimal results, please minimize distractions and stay focused. </li><br><br>Press SPACE to continue.</div>","32","","","","","","","","","","","","","","","","","","","",""
"html-keyboard-response","10","199299","0.0-2.0-2.0-0.0","afamsys0tltav8m","practice_no_cue","59b044b4d98aab00019bad5a","5f60e3c0a3b16e07647b2ff9","5f6104be4b543004c124574b","false","null","<span style=""color: black; font-size: 48px"">M + N</span>","null","","","","resp_prompt","","","","","","","","","","","","","","","",""
"categorize-image","11","201160","0.0-2.0-2.0-1.0","afamsys0tltav8m","practice_no_cue","59b044b4d98aab00019bad5a","5f60e3c0a3b16e07647b2ff9","5f6104be4b543004c124574b","true","1358.7750000006054","./Stimuli/ImagesPractice/LM55.jpg","83","","","","test","true","M + N","83","","LM","LM55.jpg","remember","old","1","1","start","left","","","",""
"html-keyboard-response","12","201862","0.0-2.0-2.0-0.1","afamsys0tltav8m","practice_no_cue","59b044b4d98aab00019bad5a","5f60e3c0a3b16e07647b2ff9","5f6104be4b543004c124574b","false","null","<span style=""color: black; font-size: 48px"">M + N</span>","null","","","","resp_prompt","","","","","","","","","","","","","","","",""
"categorize-image","13","203305","0.0-2.0-2.0-1.1","afamsys0tltav8m","practice_no_cue","59b044b4d98aab00019bad5a","5f60e3c0a3b16e07647b2ff9","5f6104be4b543004c124574b","true","939.5799999983865","./Stimuli/ImagesPractice/SN221.jpg","76","","","","test","true","M + N","76","","SN","SN221.jpg","remember","old","2","1","start","right","","","",""
"html-keyboard-response","14","204008","0.0-2.0-2.0-0.2","afamsys0tltav8m","practice_no_cue","59b044b4d98aab00019bad5a","5f60e3c0a3b16e07647b2ff9","5f6104be4b543004c124574b","false","null","<span style=""color: black; font-size: 48px"">N + M</span>","null","","","","resp_prompt","","","","","","","","","","","","","","","",""
"categorize-image","15","205594","0.0-2.0-2.0-1.2","afamsys0tltav8m","practice_no_cue","59b044b4d98aab00019bad5a","5f60e3c0a3b16e07647b2ff9","5f6104be4b543004c124574b","true","1083.0150000037975","./Stimuli/ImagesPractice/LM147.jpg","76","","","","test","true","N + M","76","","LM","LM147.jpg","remember","old","3","1","start","right","","","",""
"html-keyboard-response","16","206297","0.0-2.0-2.0-0.3","afamsys0tltav8m","practice_no_cue","59b044b4d98aab00019bad5a","5f60e3c0a3b16e07647b2ff9","5f6104be4b543004c124574b","false","null","<span style=""color: black; font-size: 48px"">M + N</span>","null","","","","resp_prompt","","","","","","","","","","","","","","","",""
"categorize-image","17","207769","0.0-2.0-2.0-1.3","afamsys0tltav8m","practice_no_cue","59b044b4d98aab00019bad5a","5f60e3c0a3b16e07647b2ff9","5f6104be4b543004c124574b","true","969.1499999971711","./Stimuli/ImagesPractice/LM230.jpg","83","","","","test","true","M + N","83","","LM","LM230.jpg","remember","old","4","1","start","left","","","",""
"html-keyboard-response","18","208471","0.0-2.0-2.0-0.4","afamsys0tltav8m","practice_no_cue","59b044b4d98aab00019bad5a","5f60e3c0a3b16e07647b2ff9","5f6104be4b543004c124574b","false","null","<span style=""color: black; font-size: 48px"">N + M</span>","null","","","","resp_prompt","","","","","","","","","","","","","","","",""
"categorize-image","19","209833","0.0-2.0-2.0-1.4","afamsys0tltav8m","practice_no_cue","59b044b4d98aab00019bad5a","5f60e3c0a3b16e07647b2ff9","5f6104be4b543004c124574b","true","859.1200000009849","./Stimuli/ImagesPractice/SM62.jpg","76","","","","test","true","N + M","76","","SM","SM62.jpg","remember","old","5","1","start","right","","","",""
"html-keyboard-response","20","210536","0.0-2.0-2.0-0.5","afamsys0tltav8m","practice_no_cue","59b044b4d98aab00019bad5a","5f60e3c0a3b16e07647b2ff9","5f6104be4b543004c124574b","false","null","<span style=""color: black; font-size: 48px"">M + N</span>","null","","","","resp_prompt","","","","","","","","","","","","","","","",""
"categorize-image","21","212378","0.0-2.0-2.0-1.5","afamsys0tltav8m","practice_no_cue","59b044b4d98aab00019bad5a","5f60e3c0a3b16e07647b2ff9","5f6104be4b543004c124574b","true","1338.7900000016089","./Stimuli/ImagesPractice/LN17.jpg","76","","","","test","true","M + N","76","","LN","LN17.jpg","forget","old","6","1","start","right","","","",""
"html-keyboard-response","22","213080","0.0-2.0-2.0-0.6","afamsys0tltav8m","practice_no_cue","59b044b4d98aab00019bad5a","5f60e3c0a3b16e07647b2ff9","5f6104be4b543004c124574b","false","null","<span style=""color: black; font-size: 48px"">M + N</span>","null","","","","resp_prompt","","","","","","","","","","","","","","","",""
"categorize-image","23","214409","0.0-2.0-2.0-1.6","afamsys0tltav8m","practice_no_cue","59b044b4d98aab00019bad5a","5f60e3c0a3b16e07647b2ff9","5f6104be4b543004c124574b","true","826.855000006617","./Stimuli/ImagesPractice/SM97.jpg","83","","","","test","true","M + N","83","","SM","SM97.jpg","remember","old","7","1","start","left","","","",""
"html-keyboard-response","24","215111","0.0-2.0-2.0-0.7","afamsys0tltav8m","practice_no_cue","59b044b4d98aab00019bad5a","5f60e3c0a3b16e07647b2ff9","5f6104be4b543004c124574b","false","null","<span style=""color: black; font-size: 48px"">M + N</span>","null","","","","resp_prompt","","","","","","","","","","","","","","","",""
"categorize-image","25","216297","0.0-2.0-2.0-1.7","afamsys0tltav8m","practice_no_cue","59b044b4d98aab00019bad5a","5f60e3c0a3b16e07647b2ff9","5f6104be4b543004c124574b","true","683.7850000010803","./Stimuli/ImagesPractice/SM35.jpg","83","","","","test","true","M + N","83","","SM","SM35.jpg","forget","old","8","1","start","left","","","",""
"html-keyboard-response","26","216999","0.0-2.0-2.0-0.8","afamsys0tltav8m","practice_no_cue","59b044b4d98aab00019bad5a","5f60e3c0a3b16e07647b2ff9","5f6104be4b543004c124574b","false","null","<span style=""color: black; font-size: 48px"">N + M</span>","null","","","","resp_prompt","","","","","","","","","","","","","","","",""
"categorize-image","27","218793","0.0-2.0-2.0-1.8","afamsys0tltav8m","practice_no_cue","59b044b4d98aab00019bad5a","5f60e3c0a3b16e07647b2ff9","5f6104be4b543004c124574b","true","1291.2350000042352","./Stimuli/ImagesPractice/LN2.jpg","83","","","","test","true","N + M","83","","LN","LN2.jpg","forget","old","9","1","start","left","","","",""
"html-keyboard-response","28","219495","0.0-2.0-2.0-0.9","afamsys0tltav8m","practice_no_cue","59b044b4d98aab00019bad5a","5f60e3c0a3b16e07647b2ff9","5f6104be4b543004c124574b","false","null","<span style=""color: black; font-size: 48px"">N + M</span>","null","","","","resp_prompt","","","","","","","","","","","","","","","",""
"categorize-image","29","221224","0.0-2.0-2.0-1.9","afamsys0tltav8m","practice_no_cue","59b044b4d98aab00019bad5a","5f60e3c0a3b16e07647b2ff9","5f6104be4b543004c124574b","true","1227.4900000047637","./Stimuli/ImagesPractice/SM61.jpg","76","","","","test","true","N + M","76","","SM","SM61.jpg","remember","old","10","1","start","right","","","",""
"html-keyboard-response","30","221927","0.0-2.0-2.0-0.10","afamsys0tltav8m","practice_no_cue","59b044b4d98aab00019bad5a","5f60e3c0a3b16e07647b2ff9","5f6104be4b543004c124574b","false","null","<span style=""color: black; font-size: 48px"">M + N</span>","null","","","","resp_prompt","","","","","","","","","","","","","","","",""
"categorize-image","31","223241","0.0-2.0-2.0-1.10","afamsys0tltav8m","practice_no_cue","59b044b4d98aab00019bad5a","5f60e3c0a3b16e07647b2ff9","5f6104be4b543004c124574b","true","811.3999999986845","./Stimuli/ImagesPractice/SN222.jpg","76","","","","test","true","M + N","76","","SN","SN222.jpg","forget","old","11","1","start","right","","","",""
"html-keyboard-response","32","223942","0.0-2.0-2.0-0.11","afamsys0tltav8m","practice_no_cue","59b044b4d98aab00019bad5a","5f60e3c0a3b16e07647b2ff9","5f6104be4b543004c124574b","false","null","<span style=""color: black; font-size: 48px"">N + M</span>","null","","","","resp_prompt","","","","","","","","","","","","","","","",""
"categorize-image","33","225240","0.0-2.0-2.0-1.11","afamsys0tltav8m","practice_no_cue","59b044b4d98aab00019bad5a","5f60e3c0a3b16e07647b2ff9","5f6104be4b543004c124574b","true","796.0200000015902","./Stimuli/ImagesPractice/LM224.jpg","83","","","","test","false","N + M","76","","LM","LM224.jpg","forget","old","12","1","start","left","","","",""
"html-keyboard-response","34","225942","0.0-2.0-2.0-0.12","afamsys0tltav8m","practice_no_cue","59b044b4d98aab00019bad5a","5f60e3c0a3b16e07647b2ff9","5f6104be4b543004c124574b","false","null","<span style=""color: black; font-size: 48px"">N + M</span>","null","","","","resp_prompt","","","","","","","","","","","","","","","",""
"categorize-image","35","227610","0.0-2.0-2.0-1.12","afamsys0tltav8m","practice_no_cue","59b044b4d98aab00019bad5a","5f60e3c0a3b16e07647b2ff9","5f6104be4b543004c124574b","true","1165.5449999962002","./Stimuli/ImagesPractice/LN109.jpg","83","","","","test","true","N + M","83","","LN","LN109.jpg","forget","old","13","1","start","left","","","",""
"html-keyboard-response","36","228312","0.0-2.0-2.0-0.13","afamsys0tltav8m","practice_no_cue","59b044b4d98aab00019bad5a","5f60e3c0a3b16e07647b2ff9","5f6104be4b543004c124574b","false","null","<span style=""color: black; font-size: 48px"">M + N</span>","null","","","","resp_prompt","","","","","","","","","","","","","","","",""
"categorize-image","37","229897","0.0-2.0-2.0-1.13","afamsys0tltav8m","practice_no_cue","59b044b4d98aab00019bad5a","5f60e3c0a3b16e07647b2ff9","5f6104be4b543004c124574b","true","1082.5299999996787","./Stimuli/ImagesPractice/SN75.jpg","76","","","","test","true","M + N","76","","SN","SN75.jpg","forget","old","14","1","start","right","","","",""
"html-keyboard-response","38","230599","0.0-2.0-2.0-0.14","afamsys0tltav8m","practice_no_cue","59b044b4d98aab00019bad5a","5f60e3c0a3b16e07647b2ff9","5f6104be4b543004c124574b","false","null","<span style=""color: black; font-size: 48px"">N + M</span>","null","","","","resp_prompt","","","","","","","","","","","","","","","",""
"categorize-image","39","232329","0.0-2.0-2.0-1.14","afamsys0tltav8m","practice_no_cue","59b044b4d98aab00019bad5a","5f60e3c0a3b16e07647b2ff9","5f6104be4b543004c124574b","true","1226.844999997411","./Stimuli/ImagesPractice/LN72.jpg","83","","","","test","true","N + M","83","","LN","LN72.jpg","remember","old","15","1","start","left","","","",""
"html-keyboard-response","40","233031","0.0-2.0-2.0-0.15","afamsys0tltav8m","practice_no_cue","59b044b4d98aab00019bad5a","5f60e3c0a3b16e07647b2ff9","5f6104be4b543004c124574b","false","null","<span style=""color: black; font-size: 48px"">N + M</span>","null","","","","resp_prompt","","","","","","","","","","","","","","","",""
"categorize-image","41","234632","0.0-2.0-2.0-1.15","afamsys0tltav8m","practice_no_cue","59b044b4d98aab00019bad5a","5f60e3c0a3b16e07647b2ff9","5f6104be4b543004c124574b","true","1099.3150000067544","./Stimuli/ImagesPractice/SM37.jpg","76","","","","test","true","N + M","76","","SM","SM37.jpg","forget","old","16","1","start","right","","","",""
"html-keyboard-response","42","238004","0.0-2.0-3.0","afamsys0tltav8m","break","59b044b4d98aab00019bad5a","5f60e3c0a3b16e07647b2ff9","5f6104be4b543004c124574b","false","3370.295000000624","<p style='font-size: 32px;'>Break</><br><br><br><br><br><p style='font-size: 24px;'>In the last block, you committed 1 errors and did not respond in time on 0 trials.
</p><p style='font-size: 24px;'>Try to respond as fast and accurately as possible in the next block as well! </p><p style='font-size: 24px;'>Press SPACE to continue.</p>","32","","","","","","","","","","","","","","","","","","","",""
"html-keyboard-response","43","242596","0.0-2.0-4.0","afamsys0tltav8m","instructions","59b044b4d98aab00019bad5a","5f60e3c0a3b16e07647b2ff9","5f6104be4b543004c124574b","false","4590.109999997367","<div align=left> Great!<br><br>Are you ready to continue?<br><br>If you want to reread the instructions and redo the practice trials, <br>please press „Z“. <br><br>Press SPACE to CONTINUE with the experiment when you are ready. </div>","32","","","","","","","","","","","","","","","","","","","",""
"html-keyboard-response","44","256804","0.0-3.0-0.0","afamsys0tltav8m","instructions","59b044b4d98aab00019bad5a","5f60e3c0a3b16e07647b2ff9","5f6104be4b543004c124574b","false","14206.404999997176","<div align=left>Great!<br> <strong>Attention</strong>! You will now receive a second, additional task! <br><br>To this point it was you <strong>first task</strong> to correctly <strong>classify objects</strong>. <br><br>As mentioned in the beginning, we aim to examine how well humans can remember previously learned information.<br>We would like to find out whether our memory improves if we only remember information that is relevant to us. <br><br>Therefore, your <strong>second task</strong> will be to <strong>remember</strong> the pictures you are to categorize. <br> After the learning phase, there will be a memory test phase, in which you will be asked to indicate whether you have seen a picture before or not. <br>Some, but not all pictures shown in the learning phase will appear in the memory test phase.<br>After classifying a picture, you will be told whether you should remember it for the memory test phase or not. <br>Thus, some pictures can be forgotten, whereas others have to be remembered. <br><br>Note: From now on, feedback will only be displayed if you responded incorrectly or not in time.<br><br>Press SPACE to continue.</div>","32","","","","","","","","","","","","","","","","","","","",""
"html-keyboard-response","45","279908","0.0-3.0-1.0","afamsys0tltav8m","instructions","59b044b4d98aab00019bad5a","5f60e3c0a3b16e07647b2ff9","5f6104be4b543004c124574b","false","23103.210000001127","<div align=left>In the following part, you will thus have to remember only some pictures. <br>Immediately after seeing and classifying the picture, a symbol will be displayed, indicating whether you should remember or forget the previous picture. <br><br>A <span style='color: dodgerblue; font-size: 28px'>O</span> indicates REMEMBER. That means, you have to remember this picture, because it will be tested later. <br><br>A <span style='color: darkorange; font-size:28px'>Ø</span> indicates FORGET. You do not have to remember this picture. <br><br> As you will have to remember a lot of pictures, it will be hard for you to remember all of them. <br>It will put you at an advantage if you instantly forget the pictures you are not asked to remember. <br> This will make it easier for you to remember the pictures that will be tested afterwards. <br><br>Press SPACE to continue.</div>","32","","","","","","","","","","","","","","","","","","","",""
"html-keyboard-response","46","281924","0.0-3.0-2.0","afamsys0tltav8m","instructions","59b044b4d98aab00019bad5a","5f60e3c0a3b16e07647b2ff9","5f6104be4b543004c124574b","false","2014.4549999968149","<div align=left> Now you have the chance to practice both tasks together.<br><br>Remember: <br> <br><li>Please place your index fingers on the <strong>'S'</strong> and <strong>'L'</strong> keys <br>to respond as fast and accurately as possible.</li><li>Every picture can be classified as either mechanical or non-mechanical.</li><li>If you do not respond in time or commit an error, you will receive a corresponding feedback. <br>Please try to respond as <strong> fast </strong> and as <strong> accurately as possible </strong>.</li><li> Please remember only the to-be-remembered <span style='color: dodgerblue; font-size: 28px'>O</span> pictures. <br></li><li> Please minimize distractions and stay focused. </li><br><br>Press SPACE to START</div>","32","","","","","","","","","","","","","","","","","","","",""
"html-keyboard-response","47","282626","0.0-3.0-3.0-0.0","afamsys0tltav8m","practice_cue","59b044b4d98aab00019bad5a","5f60e3c0a3b16e07647b2ff9","5f6104be4b543004c124574b","false","null","<span style=""color: black; font-size: 48px"">M + N</span>","null","","","","resp_prompt","","","","","","","","","","","","","","","",""
"categorize-image","48","283381","0.0-3.0-3.0-1.0","afamsys0tltav8m","practice_cue","59b044b4d98aab00019bad5a","5f60e3c0a3b16e07647b2ff9","5f6104be4b543004c124574b","true","751.7000000007101","./Stimuli/ImagesPractice/SN75.jpg","76","","","","test","true","M + N","76","","SN","SN75.jpg","forget","old","17","2","practice_forget","right","","","",""
"html-keyboard-response","49","285383","0.0-3.0-3.0-3.0","afamsys0tltav8m","practice_cue","59b044b4d98aab00019bad5a","5f60e3c0a3b16e07647b2ff9","5f6104be4b543004c124574b","false","null","<div style=""align-items: center; display: flex; color: darkorange; font-size: 90px""><b>ø</b></div>","null","","","","forget_cue","","","","","","","","","","","","","","","",""
"html-keyboard-response","50","286085","0.0-3.0-3.0-0.1","afamsys0tltav8m","practice_cue","59b044b4d98aab00019bad5a","5f60e3c0a3b16e07647b2ff9","5f6104be4b543004c124574b","false","null","<span style=""color: black; font-size: 48px"">M + N</span>","null","","","","resp_prompt","","","","","","","","","","","","","","","",""
"categorize-image","51","286934","0.0-3.0-3.0-1.1","afamsys0tltav8m","practice_cue","59b044b4d98aab00019bad5a","5f60e3c0a3b16e07647b2ff9","5f6104be4b543004c124574b","true","844.9249999976018","./Stimuli/ImagesPractice/SM35.jpg","83","","","","test","true","M + N","83","","SM","SM35.jpg","forget","old","18","2","practice_forget","left","","","",""
"html-keyboard-response","52","288935","0.0-3.0-3.0-3.1","afamsys0tltav8m","practice_cue","59b044b4d98aab00019bad5a","5f60e3c0a3b16e07647b2ff9","5f6104be4b543004c124574b","false","null","<div style=""align-items: center; display: flex; color: darkorange; font-size: 90px""><b>ø</b></div>","null","","","","forget_cue","","","","","","","","","","","","","","","",""
"html-keyboard-response","53","289637","0.0-3.0-3.0-0.2","afamsys0tltav8m","practice_cue","59b044b4d98aab00019bad5a","5f60e3c0a3b16e07647b2ff9","5f6104be4b543004c124574b","false","null","<span style=""color: black; font-size: 48px"">N + M</span>","null","","","","resp_prompt","","","","","","","","","","","","","","","",""
"categorize-image","54","290646","0.0-3.0-3.0-1.2","afamsys0tltav8m","practice_cue","59b044b4d98aab00019bad5a","5f60e3c0a3b16e07647b2ff9","5f6104be4b543004c124574b","true","1005.7799999995041","./Stimuli/ImagesPractice/LM147.jpg","76","","","","test","true","N + M","76","","LM","LM147.jpg","remember","old","19","2","practice_forget","right","","","",""
"html-keyboard-response","55","292648","0.0-3.0-3.0-3.2","afamsys0tltav8m","practice_cue","59b044b4d98aab00019bad5a","5f60e3c0a3b16e07647b2ff9","5f6104be4b543004c124574b","false","null","<div style=""align-items: center; display: flex; color: dodgerblue; font-size: 90px""><b>o</b></div>","null","","","","forget_cue","","","","","","","","","","","","","","","",""
"html-keyboard-response","56","293349","0.0-3.0-3.0-0.3","afamsys0tltav8m","practice_cue","59b044b4d98aab00019bad5a","5f60e3c0a3b16e07647b2ff9","5f6104be4b543004c124574b","false","null","<span style=""color: black; font-size: 48px"">N + M</span>","null","","","","resp_prompt","","","","","","","","","","","","","","","",""
"categorize-image","57","294261","0.0-3.0-3.0-1.3","afamsys0tltav8m","practice_cue","59b044b4d98aab00019bad5a","5f60e3c0a3b16e07647b2ff9","5f6104be4b543004c124574b","true","908.9899999962654","./Stimuli/ImagesPractice/SM62.jpg","76","","","","test","true","N + M","76","","SM","SM62.jpg","remember","old","20","2","practice_forget","right","","","",""
"html-keyboard-response","58","296264","0.0-3.0-3.0-3.3","afamsys0tltav8m","practice_cue","59b044b4d98aab00019bad5a","5f60e3c0a3b16e07647b2ff9","5f6104be4b543004c124574b","false","null","<div style=""align-items: center; display: flex; color: dodgerblue; font-size: 90px""><b>o</b></div>","null","","","","forget_cue","","","","","","","","","","","","","","","",""
"html-keyboard-response","59","296965","0.0-3.0-3.0-0.4","afamsys0tltav8m","practice_cue","59b044b4d98aab00019bad5a","5f60e3c0a3b16e07647b2ff9","5f6104be4b543004c124574b","false","null","<span style=""color: black; font-size: 48px"">M + N</span>","null","","","","resp_prompt","","","","","","","","","","","","","","","",""
"categorize-image","60","297862","0.0-3.0-3.0-1.4","afamsys0tltav8m","practice_cue","59b044b4d98aab00019bad5a","5f60e3c0a3b16e07647b2ff9","5f6104be4b543004c124574b","true","892.8999999989173","./Stimuli/ImagesPractice/LM230.jpg","83","","","","test","true","M + N","83","","LM","LM230.jpg","remember","old","21","2","practice_forget","left","","","",""
"html-keyboard-response","61","299863","0.0-3.0-3.0-3.4","afamsys0tltav8m","practice_cue","59b044b4d98aab00019bad5a","5f60e3c0a3b16e07647b2ff9","5f6104be4b543004c124574b","false","null","<div style=""align-items: center; display: flex; color: dodgerblue; font-size: 90px""><b>o</b></div>","null","","","","forget_cue","","","","","","","","","","","","","","","",""
"html-keyboard-response","62","300565","0.0-3.0-3.0-0.5","afamsys0tltav8m","practice_cue","59b044b4d98aab00019bad5a","5f60e3c0a3b16e07647b2ff9","5f6104be4b543004c124574b","false","null","<span style=""color: black; font-size: 48px"">M + N</span>","null","","","","resp_prompt","","","","","","","","","","","","","","","",""
"categorize-image","63","301254","0.0-3.0-3.0-1.5","afamsys0tltav8m","practice_cue","59b044b4d98aab00019bad5a","5f60e3c0a3b16e07647b2ff9","5f6104be4b543004c124574b","true","685.2399999988847","./Stimuli/ImagesPractice/SN222.jpg","76","","","","test","true","M + N","76","","SN","SN222.jpg","forget","old","22","2","practice_forget","right","","","",""
"html-keyboard-response","64","303256","0.0-3.0-3.0-3.5","afamsys0tltav8m","practice_cue","59b044b4d98aab00019bad5a","5f60e3c0a3b16e07647b2ff9","5f6104be4b543004c124574b","false","null","<div style=""align-items: center; display: flex; color: darkorange; font-size: 90px""><b>ø</b></div>","null","","","","forget_cue","","","","","","","","","","","","","","","",""
"html-keyboard-response","65","303958","0.0-3.0-3.0-0.6","afamsys0tltav8m","practice_cue","59b044b4d98aab00019bad5a","5f60e3c0a3b16e07647b2ff9","5f6104be4b543004c124574b","false","null","<span style=""color: black; font-size: 48px"">M + N</span>","null","","","","resp_prompt","","","","","","","","","","","","","","","",""
"categorize-image","66","304693","0.0-3.0-3.0-1.6","afamsys0tltav8m","practice_cue","59b044b4d98aab00019bad5a","5f60e3c0a3b16e07647b2ff9","5f6104be4b543004c124574b","true","731.6949999949429","./Stimuli/ImagesPractice/LN17.jpg","76","","","","test","true","M + N","76","","LN","LN17.jpg","forget","old","23","2","practice_forget","right","","","",""
"html-keyboard-response","67","306695","0.0-3.0-3.0-3.6","afamsys0tltav8m","practice_cue","59b044b4d98aab00019bad5a","5f60e3c0a3b16e07647b2ff9","5f6104be4b543004c124574b","false","null","<div style=""align-items: center; display: flex; color: darkorange; font-size: 90px""><b>ø</b></div>","null","","","","forget_cue","","","","","","","","","","","","","","","",""
"html-keyboard-response","68","307397","0.0-3.0-3.0-0.7","afamsys0tltav8m","practice_cue","59b044b4d98aab00019bad5a","5f60e3c0a3b16e07647b2ff9","5f6104be4b543004c124574b","false","null","<span style=""color: black; font-size: 48px"">N + M</span>","null","","","","resp_prompt","","","","","","","","","","","","","","","",""
"categorize-image","69","308134","0.0-3.0-3.0-1.7","afamsys0tltav8m","practice_cue","59b044b4d98aab00019bad5a","5f60e3c0a3b16e07647b2ff9","5f6104be4b543004c124574b","true","733.4550000014133","./Stimuli/ImagesPractice/LN109.jpg","76","","","","test","false","N + M","83","","LN","LN109.jpg","forget","old","24","2","practice_forget","right","","","",""
"html-keyboard-response","70","308636","0.0-3.0-3.0-2.7-0.7","afamsys0tltav8m","practice_cue","59b044b4d98aab00019bad5a","5f60e3c0a3b16e07647b2ff9","5f6104be4b543004c124574b","false","null","<span style=""color: red; font-size: 48px"">Error!</span>","null","","","","feedback","","","","","","","","","","","","","","","",""
"html-keyboard-response","71","310637","0.0-3.0-3.0-3.7","afamsys0tltav8m","practice_cue","59b044b4d98aab00019bad5a","5f60e3c0a3b16e07647b2ff9","5f6104be4b543004c124574b","false","null","<div style=""align-items: center; display: flex; color: darkorange; font-size: 90px""><b>ø</b></div>","null","","","","forget_cue","","","","","","","","","","","","","","","",""
"html-keyboard-response","72","311339","0.0-3.0-3.0-0.8","afamsys0tltav8m","practice_cue","59b044b4d98aab00019bad5a","5f60e3c0a3b16e07647b2ff9","5f6104be4b543004c124574b","false","null","<span style=""color: black; font-size: 48px"">N + M</span>","null","","","","resp_prompt","","","","","","","","","","","","","","","",""
"categorize-image","73","312183","0.0-3.0-3.0-1.8","afamsys0tltav8m","practice_cue","59b044b4d98aab00019bad5a","5f60e3c0a3b16e07647b2ff9","5f6104be4b543004c124574b","true","838.7799999982235","./Stimuli/ImagesPractice/LN2.jpg","76","","","","test","false","N + M","83","","LN","LN2.jpg","forget","old","25","2","practice_forget","right","","","",""
"html-keyboard-response","74","312685","0.0-3.0-3.0-2.8-0.8","afamsys0tltav8m","practice_cue","59b044b4d98aab00019bad5a","5f60e3c0a3b16e07647b2ff9","5f6104be4b543004c124574b","false","null","<span style=""color: red; font-size: 48px"">Error!</span>","null","","","","feedback","","","","","","","","","","","","","","","",""
"html-keyboard-response","75","314688","0.0-3.0-3.0-3.8","afamsys0tltav8m","practice_cue","59b044b4d98aab00019bad5a","5f60e3c0a3b16e07647b2ff9","5f6104be4b543004c124574b","false","null","<div style=""align-items: center; display: flex; color: darkorange; font-size: 90px""><b>ø</b></div>","null","","","","forget_cue","","","","","","","","","","","","","","","",""
"html-keyboard-response","76","315390","0.0-3.0-3.0-0.9","afamsys0tltav8m","practice_cue","59b044b4d98aab00019bad5a","5f60e3c0a3b16e07647b2ff9","5f6104be4b543004c124574b","false","null","<span style=""color: black; font-size: 48px"">N + M</span>","null","","","","resp_prompt","","","","","","","","","","","","","","","",""
"categorize-image","77","316533","0.0-3.0-3.0-1.9","afamsys0tltav8m","practice_cue","59b044b4d98aab00019bad5a","5f60e3c0a3b16e07647b2ff9","5f6104be4b543004c124574b","true","1140.4199999960838","./Stimuli/ImagesPractice/SM61.jpg","76","","","","test","true","N + M","76","","SM","SM61.jpg","remember","old","26","2","practice_forget","right","","","",""
"html-keyboard-response","78","318538","0.0-3.0-3.0-3.9","afamsys0tltav8m","practice_cue","59b044b4d98aab00019bad5a","5f60e3c0a3b16e07647b2ff9","5f6104be4b543004c124574b","false","null","<div style=""align-items: center; display: flex; color: dodgerblue; font-size: 90px""><b>o</b></div>","null","","","","forget_cue","","","","","","","","","","","","","","","",""
"html-keyboard-response","79","319240","0.0-3.0-3.0-0.10","afamsys0tltav8m","practice_cue","59b044b4d98aab00019bad5a","5f60e3c0a3b16e07647b2ff9","5f6104be4b543004c124574b","false","null","<span style=""color: black; font-size: 48px"">M + N</span>","null","","","","resp_prompt","","","","","","","","","","","","","","","",""
"categorize-image","80","320006","0.0-3.0-3.0-1.10","afamsys0tltav8m","practice_cue","59b044b4d98aab00019bad5a","5f60e3c0a3b16e07647b2ff9","5f6104be4b543004c124574b","true","762.4999999970896","./Stimuli/ImagesPractice/SN221.jpg","76","","","","test","true","M + N","76","","SN","SN221.jpg","remember","old","27","2","practice_forget","right","","","",""
"html-keyboard-response","81","322008","0.0-3.0-3.0-3.10","afamsys0tltav8m","practice_cue","59b044b4d98aab00019bad5a","5f60e3c0a3b16e07647b2ff9","5f6104be4b543004c124574b","false","null","<div style=""align-items: center; display: flex; color: dodgerblue; font-size: 90px""><b>o</b></div>","null","","","","forget_cue","","","","","","","","","","","","","","","",""
"html-keyboard-response","82","322710","0.0-3.0-3.0-0.11","afamsys0tltav8m","practice_cue","59b044b4d98aab00019bad5a","5f60e3c0a3b16e07647b2ff9","5f6104be4b543004c124574b","false","null","<span style=""color: black; font-size: 48px"">N + M</span>","null","","","","resp_prompt","","","","","","","","","","","","","","","",""
"categorize-image","83","323510","0.0-3.0-3.0-1.11","afamsys0tltav8m","practice_cue","59b044b4d98aab00019bad5a","5f60e3c0a3b16e07647b2ff9","5f6104be4b543004c124574b","true","796.5599999952246","./Stimuli/ImagesPractice/LM224.jpg","83","","","","test","false","N + M","76","","LM","LM224.jpg","forget","old","28","2","practice_forget","left","","","",""
"html-keyboard-response","84","324011","0.0-3.0-3.0-2.11-0.11","afamsys0tltav8m","practice_cue","59b044b4d98aab00019bad5a","5f60e3c0a3b16e07647b2ff9","5f6104be4b543004c124574b","false","null","<span style=""color: red; font-size: 48px"">Error!</span>","null","","","","feedback","","","","","","","","","","","","","","","",""
"html-keyboard-response","85","326014","0.0-3.0-3.0-3.11","afamsys0tltav8m","practice_cue","59b044b4d98aab00019bad5a","5f60e3c0a3b16e07647b2ff9","5f6104be4b543004c124574b","false","null","<div style=""align-items: center; display: flex; color: darkorange; font-size: 90px""><b>ø</b></div>","null","","","","forget_cue","","","","","","","","","","","","","","","",""
"html-keyboard-response","86","326715","0.0-3.0-3.0-0.12","afamsys0tltav8m","practice_cue","59b044b4d98aab00019bad5a","5f60e3c0a3b16e07647b2ff9","5f6104be4b543004c124574b","false","null","<span style=""color: black; font-size: 48px"">M + N</span>","null","","","","resp_prompt","","","","","","","","","","","","","","","",""
"categorize-image","87","327541","0.0-3.0-3.0-1.12","afamsys0tltav8m","practice_cue","59b044b4d98aab00019bad5a","5f60e3c0a3b16e07647b2ff9","5f6104be4b543004c124574b","true","823.1499999965308","./Stimuli/ImagesPractice/SM97.jpg","83","","","","test","true","M + N","83","","SM","SM97.jpg","remember","old","29","2","practice_forget","left","","","",""
"html-keyboard-response","88","329543","0.0-3.0-3.0-3.12","afamsys0tltav8m","practice_cue","59b044b4d98aab00019bad5a","5f60e3c0a3b16e07647b2ff9","5f6104be4b543004c124574b","false","null","<div style=""align-items: center; display: flex; color: dodgerblue; font-size: 90px""><b>o</b></div>","null","","","","forget_cue","","","","","","","","","","","","","","","",""
"html-keyboard-response","89","330245","0.0-3.0-3.0-0.13","afamsys0tltav8m","practice_cue","59b044b4d98aab00019bad5a","5f60e3c0a3b16e07647b2ff9","5f6104be4b543004c124574b","false","null","<span style=""color: black; font-size: 48px"">N + M</span>","null","","","","resp_prompt","","","","","","","","","","","","","","","",""
"categorize-image","90","331078","0.0-3.0-3.0-1.13","afamsys0tltav8m","practice_cue","59b044b4d98aab00019bad5a","5f60e3c0a3b16e07647b2ff9","5f6104be4b543004c124574b","true","829.4200000018463","./Stimuli/ImagesPractice/SM37.jpg","76","","","","test","true","N + M","76","","SM","SM37.jpg","forget","old","30","2","practice_forget","right","","","",""
"html-keyboard-response","91","333079","0.0-3.0-3.0-3.13","afamsys0tltav8m","practice_cue","59b044b4d98aab00019bad5a","5f60e3c0a3b16e07647b2ff9","5f6104be4b543004c124574b","false","null","<div style=""align-items: center; display: flex; color: darkorange; font-size: 90px""><b>ø</b></div>","null","","","","forget_cue","","","","","","","","","","","","","","","",""
"html-keyboard-response","92","333781","0.0-3.0-3.0-0.14","afamsys0tltav8m","practice_cue","59b044b4d98aab00019bad5a","5f60e3c0a3b16e07647b2ff9","5f6104be4b543004c124574b","false","null","<span style=""color: black; font-size: 48px"">N + M</span>","null","","","","resp_prompt","","","","","","","","","","","","","","","",""
"categorize-image","93","335078","0.0-3.0-3.0-1.14","afamsys0tltav8m","practice_cue","59b044b4d98aab00019bad5a","5f60e3c0a3b16e07647b2ff9","5f6104be4b543004c124574b","true","1293.7299999975949","./Stimuli/ImagesPractice/LN72.jpg","76","","","","test","false","N + M","83","","LN","LN72.jpg","remember","old","31","2","practice_forget","right","","","",""
"html-keyboard-response","94","335580","0.0-3.0-3.0-2.14-0.14","afamsys0tltav8m","practice_cue","59b044b4d98aab00019bad5a","5f60e3c0a3b16e07647b2ff9","5f6104be4b543004c124574b","false","null","<span style=""color: red; font-size: 48px"">Error!</span>","null","","","","feedback","","","","","","","","","","","","","","","",""
"html-keyboard-response","95","337582","0.0-3.0-3.0-3.14","afamsys0tltav8m","practice_cue","59b044b4d98aab00019bad5a","5f60e3c0a3b16e07647b2ff9","5f6104be4b543004c124574b","false","null","<div style=""align-items: center; display: flex; color: dodgerblue; font-size: 90px""><b>o</b></div>","null","","","","forget_cue","","","","","","","","","","","","","","","",""
"html-keyboard-response","96","338284","0.0-3.0-3.0-0.15","afamsys0tltav8m","practice_cue","59b044b4d98aab00019bad5a","5f60e3c0a3b16e07647b2ff9","5f6104be4b543004c124574b","false","null","<span style=""color: black; font-size: 48px"">M + N</span>","null","","","","resp_prompt","","","","","","","","","","","","","","","",""
"categorize-image","97","339206","0.0-3.0-3.0-1.15","afamsys0tltav8m","practice_cue","59b044b4d98aab00019bad5a","5f60e3c0a3b16e07647b2ff9","5f6104be4b543004c124574b","true","918.4850000019651","./Stimuli/ImagesPractice/LM55.jpg","83","","","","test","true","M + N","83","","LM","LM55.jpg","remember","old","32","2","practice_forget","left","","","",""
"html-keyboard-response","98","341207","0.0-3.0-3.0-3.15","afamsys0tltav8m","practice_cue","59b044b4d98aab00019bad5a","5f60e3c0a3b16e07647b2ff9","5f6104be4b543004c124574b","false","null","<div style=""align-items: center; display: flex; color: dodgerblue; font-size: 90px""><b>o</b></div>","null","","","","forget_cue","","","","","","","","","","","","","","","",""
"html-keyboard-response","99","342404","0.0-3.0-4.0","afamsys0tltav8m","break","59b044b4d98aab00019bad5a","5f60e3c0a3b16e07647b2ff9","5f6104be4b543004c124574b","false","1195.2650000021094","<p style='font-size: 32px;'>Break</><br><br><br><br><br><p style='font-size: 24px;'>In the last block, you committed 4 errors and did not respond in time on 0 trials.
</p><p style='font-size: 24px;'>Try to respond as fast and accurately as possible in the next block as well! </p><p style='font-size: 24px;'>Press SPACE to continue.</p>","32","","","","","","","","","","","","","","","","","","","",""
"html-keyboard-response","100","343668","0.0-3.0-5.0","afamsys0tltav8m","instructions","59b044b4d98aab00019bad5a","5f60e3c0a3b16e07647b2ff9","5f6104be4b543004c124574b","false","1262.5049999987823","<div align=left> Now, to practice, we kindly ask you to remember as many of the to-be-remembered pictures<br>of the previous learning phase as possible.<br><br>The pictures you were instructed to remember were the pictures followed by a <span style='color: dodgerblue; font-size: 28px'>O</span>.<br><br>In this memory test phase, you will also see some new pictures.<br>It is your task to remember whether you were presented with this specific picture in this study so far or not.<br>If you recognize an object (you have already seen it in this study), it is an OLD object. <br>If you do not recognize an object (you have NOT seen it in this study), it is a NEW object. <br><strong> Attention</strong>: As already mentioned, <span style='color: darkorange; font-size:28px'>Ø</span>-pictures will <strong>never</strong> appear in this memory test (neither as new objects). <br><br>Press SPACE to continue. </div>","32","","","","","","","","","","","","","","","","","","","",""
"html-keyboard-response","101","344692","0.0-3.0-6.0","afamsys0tltav8m","instructions","59b044b4d98aab00019bad5a","5f60e3c0a3b16e07647b2ff9","5f6104be4b543004c124574b","false","1022.9199999957928","<div align=left> M and N no longer will appear on the left/right of the fixation cross. <br>Instead there will be a note at the bottom of the left or right side  <br>indicating which key you should press for an old or new object:  <br> <br>Press the <strong>right</strong> key to classify an object as <strong>old</strong> and press the <strong>left</strong>, to classify an object as <strong>new</strong>.<br>Please classify the objects as new/old by again placing your index finger on the 'S' and 'L' keys <br>and press them accordingly.<br><br><strong>Old:</strong> This object has been presented before. <br><strong>New:</strong> This object has <strong>not</strong> been presented.<br><br>Now please put your right and left index fingers on the 'S' and 'L' keys of your keyboard. <br>Please respond as fast and as accurately as possible!<br><br>Press SPACE to continue. </div>","32","","","","","","","","","","","","","","","","","","","",""
"categorize-image","102","349593","0.0-3.0-7.0-0.0","afamsys0tltav8m","practice_recog","59b044b4d98aab00019bad5a","5f60e3c0a3b16e07647b2ff9","5f6104be4b543004c124574b","true","4398.1649999986985","./Stimuli/ImagesPractice/SM62.jpg","76","","","","test","false","","83","","SM","SM62.jpg","","old","33","3","practice_recog","right","","","",""
"categorize-image","103","352009","0.0-3.0-7.0-0.1","afamsys0tltav8m","practice_recog","59b044b4d98aab00019bad5a","5f60e3c0a3b16e07647b2ff9","5f6104be4b543004c124574b","true","1912.450000003446","./Stimuli/ImagesPractice/SN221.jpg","83","","","","test","true","","83","","SN","SN221.jpg","","old","34","3","practice_recog","left","","","",""
"categorize-image","104","353561","0.0-3.0-7.0-0.2","afamsys0tltav8m","practice_recog","59b044b4d98aab00019bad5a","5f60e3c0a3b16e07647b2ff9","5f6104be4b543004c124574b","true","1049.0449999997509","./Stimuli/ImagesPractice/LM147.jpg","83","","","","test","true","","83","","LM","LM147.jpg","","old","35","3","practice_recog","left","","","",""
"categorize-image","105","354873","0.0-3.0-7.0-0.3","afamsys0tltav8m","practice_recog","59b044b4d98aab00019bad5a","5f60e3c0a3b16e07647b2ff9","5f6104be4b543004c124574b","true","809.7349999952712","./Stimuli/ImagesPractice/LN15.jpg","76","","","","test","true","","76","","LN","LN15.jpg","","new","36","3","practice_recog","right","","","",""
"categorize-image","106","356265","0.0-3.0-7.0-0.4","afamsys0tltav8m","practice_recog","59b044b4d98aab00019bad5a","5f60e3c0a3b16e07647b2ff9","5f6104be4b543004c124574b","true","889.2300000006799","./Stimuli/ImagesPractice/SM97.jpg","83","","","","test","true","","83","","SM","SM97.jpg","","old","37","3","practice_recog","left","","","",""
"categorize-image","107","358216","0.0-3.0-7.0-0.5","afamsys0tltav8m","practice_recog","59b044b4d98aab00019bad5a","5f60e3c0a3b16e07647b2ff9","5f6104be4b543004c124574b","true","1448.980000001029","./Stimuli/ImagesPractice/SN205.jpg","76","","","","test","true","","76","","SN","SN205.jpg","","new","38","3","practice_recog","right","","","",""
"categorize-image","108","360074","0.0-3.0-7.0-0.6","afamsys0tltav8m","practice_recog","59b044b4d98aab00019bad5a","5f60e3c0a3b16e07647b2ff9","5f6104be4b543004c124574b","true","1354.5050000029732","./Stimuli/ImagesPractice/SM61.jpg","83","","","","test","true","","83","","SM","SM61.jpg","","old","39","3","practice_recog","left","","","",""
"categorize-image","109","361465","0.0-3.0-7.0-0.7","afamsys0tltav8m","practice_recog","59b044b4d98aab00019bad5a","5f60e3c0a3b16e07647b2ff9","5f6104be4b543004c124574b","true","888.4699999980512","./Stimuli/ImagesPractice/LN4.jpg","76","","","","test","true","","76","","LN","LN4.jpg","","new","40","3","practice_recog","right","","","",""
"categorize-image","110","362920","0.0-3.0-7.0-0.8","afamsys0tltav8m","practice_recog","59b044b4d98aab00019bad5a","5f60e3c0a3b16e07647b2ff9","5f6104be4b543004c124574b","true","952.9049999982817","./Stimuli/ImagesPractice/LM55.jpg","83","","","","test","true","","83","","LM","LM55.jpg","","old","41","3","practice_recog","left","","","",""
"categorize-image","111","364313","0.0-3.0-7.0-0.9","afamsys0tltav8m","practice_recog","59b044b4d98aab00019bad5a","5f60e3c0a3b16e07647b2ff9","5f6104be4b543004c124574b","true","889.4450000007055","./Stimuli/ImagesPractice/SN76.jpg","76","","","","test","true","","76","","SN","SN76.jpg","","new","42","3","practice_recog","right","","","",""
"categorize-image","112","366153","0.0-3.0-7.0-0.10","afamsys0tltav8m","practice_recog","59b044b4d98aab00019bad5a","5f60e3c0a3b16e07647b2ff9","5f6104be4b543004c124574b","true","1337.1799999949872","./Stimuli/ImagesPractice/LM230.jpg","83","","","","test","true","","83","","LM","LM230.jpg","","old","43","3","practice_recog","left","","","",""
"categorize-image","113","367497","0.0-3.0-7.0-0.11","afamsys0tltav8m","practice_recog","59b044b4d98aab00019bad5a","5f60e3c0a3b16e07647b2ff9","5f6104be4b543004c124574b","true","841.549999997369","./Stimuli/ImagesPractice/LN72.jpg","76","","","","test","false","","83","","LN","LN72.jpg","","old","44","3","practice_recog","right","","","",""
"categorize-image","114","368857","0.0-3.0-7.0-0.12","afamsys0tltav8m","practice_recog","59b044b4d98aab00019bad5a","5f60e3c0a3b16e07647b2ff9","5f6104be4b543004c124574b","true","857.7299999960815","./Stimuli/ImagesPractice/SN220.jpg","76","","","","test","true","","76","","SN","SN220.jpg","","new","45","3","practice_recog","right","","","",""
"categorize-image","115","370426","0.0-3.0-7.0-0.13","afamsys0tltav8m","practice_recog","59b044b4d98aab00019bad5a","5f60e3c0a3b16e07647b2ff9","5f6104be4b543004c124574b","true","1065.8450000046287","./Stimuli/ImagesPractice/SM98.jpg","76","","","","test","true","","76","","SM","SM98.jpg","","new","46","3","practice_recog","right","","","",""
"categorize-image","116","371817","0.0-3.0-7.0-0.14","afamsys0tltav8m","practice_recog","59b044b4d98aab00019bad5a","5f60e3c0a3b16e07647b2ff9","5f6104be4b543004c124574b","true","889.1700000021956","./Stimuli/ImagesPractice/LM239.jpg","76","","","","test","true","","76","","LM","LM239.jpg","","new","47","3","practice_recog","right","","","",""
"categorize-image","117","373162","0.0-3.0-7.0-0.15","afamsys0tltav8m","practice_recog","59b044b4d98aab00019bad5a","5f60e3c0a3b16e07647b2ff9","5f6104be4b543004c124574b","true","841.7200000039884","./Stimuli/ImagesPractice/LM143.jpg","76","","","","test","true","","76","","LM","LM143.jpg","","new","48","3","practice_recog","right","","","",""
"html-keyboard-response","118","375700","0.0-3.0-8.0","afamsys0tltav8m","instructions","59b044b4d98aab00019bad5a","5f60e3c0a3b16e07647b2ff9","5f6104be4b543004c124574b","false","2537.0999999940977","<div align=left> Great!<br><br>Are you ready to continue?<br>If you want to reread the instructions and redo the practice trials, please <br>press „Z“.<br><br>You can proceed when you are ready.<br><br>After the presentation of each object, you will receive an instruction whether to <br>remember or to forget the object.<br>We will test your memory of the following pictures only at the very end of <br>the experiment after all learning blocks are completed. <br><br>Press SPACE to CONTINUE when you are ready. </div>","32","","","","","","","","","","","","","","","","","","","",""
"html-keyboard-response","119","380676","0.0-4.0-0.0","afamsys0tltav8m","instructions","59b044b4d98aab00019bad5a","5f60e3c0a3b16e07647b2ff9","5f6104be4b543004c124574b","false","4975.115000001097","<div align=left> The actual experiment is about to start.<br>The practice trials are over!<br><br>Please always respond both fast and accurately!<br><br>Remember: <br> <br><li> Please place your index fingers on the <strong>'S'</strong> and <strong>'L'</strong> keys <br>to respond as fast and accurately as possible.</li><li> Every picture can be classified as either mechanical or non-mechanical.</li><li> If you do not respond in time or commit an error, you will receive a corresponding feedback.<br> Please try to respond as <strong> fast </strong> and as <strong> accurately as possible </strong>.</li><li> Remember the <span style='color: dodgerblue; font-size: 28px'>O</span> pictures. <br></li><li> Please minimize distractions and stay focused. </li><br><br>Press SPACE to START.</div>","32","","","","","","","","","","","","","","","","","","","",""
"html-keyboard-response","120","381379","0.0-4.0-1.0-0.0","afamsys0tltav8m","prime","59b044b4d98aab00019bad5a","5f60e3c0a3b16e07647b2ff9","5f6104be4b543004c124574b","false","null","<span style=""color: black; font-size: 48px"">N + M</span>","null","","","","resp_prompt","","","","","","","","","","","","","","","",""
"categorize-image","121","382518","0.0-4.0-1.0-1.0","afamsys0tltav8m","prime","59b044b4d98aab00019bad5a","5f60e3c0a3b16e07647b2ff9","5f6104be4b543004c124574b","true","1134.6750000011525","./Stimuli/SelectedImages/SN/SN128.bmp","83","","","","test","true","N + M","83","repetition","SN","SN128.bmp","forget","","49","3","prime1","left","","","",""
"html-keyboard-response","122","384519","0.0-4.0-1.0-3.0","afamsys0tltav8m","prime","59b044b4d98aab00019bad5a","5f60e3c0a3b16e07647b2ff9","5f6104be4b543004c124574b","false","null","<div style=""align-items: center; display: flex; color: darkorange; font-size: 90px""><b>ø</b></div>","null","","","","forget_cue","","","","","","","","","","","","","","","",""
"html-keyboard-response","123","385220","0.0-4.0-1.0-0.1","afamsys0tltav8m","prime","59b044b4d98aab00019bad5a","5f60e3c0a3b16e07647b2ff9","5f6104be4b543004c124574b","false","null","<span style=""color: black; font-size: 48px"">N + M</span>","null","","","","resp_prompt","","","","","","","","","","","","","","","",""
"categorize-image","124","386134","0.0-4.0-1.0-1.1","afamsys0tltav8m","prime","59b044b4d98aab00019bad5a","5f60e3c0a3b16e07647b2ff9","5f6104be4b543004c124574b","true","909.8449999946752","./Stimuli/SelectedImages/SM/SM200.bmp","76","","","","test","true","N + M","76","switch","SM","SM200.bmp","remember","","50","3","prime1","right","","","",""
"html-keyboard-response","125","388135","0.0-4.0-1.0-3.1","afamsys0tltav8m","prime","59b044b4d98aab00019bad5a","5f60e3c0a3b16e07647b2ff9","5f6104be4b543004c124574b","false","null","<div style=""align-items: center; display: flex; color: dodgerblue; font-size: 90px""><b>o</b></div>","null","","","","forget_cue","","","","","","","","","","","","","","","",""
"html-keyboard-response","126","388837","0.0-4.0-1.0-0.2","afamsys0tltav8m","prime","59b044b4d98aab00019bad5a","5f60e3c0a3b16e07647b2ff9","5f6104be4b543004c124574b","false","null","<span style=""color: black; font-size: 48px"">M + N</span>","null","","","","resp_prompt","","","","","","","","","","","","","","","",""
"categorize-image","127","390261","0.0-4.0-1.0-1.2","afamsys0tltav8m","prime","59b044b4d98aab00019bad5a","5f60e3c0a3b16e07647b2ff9","5f6104be4b543004c124574b","true","1421.3550000058603","./Stimuli/SelectedImages/SN/SN155.bmp","76","","","","test","true","M + N","76","switch","SN","SN155.bmp","forget","","51","3","prime1","right","","","",""
"html-keyboard-response","128","392263","0.0-4.0-1.0-3.2","afamsys0tltav8m","prime","59b044b4d98aab00019bad5a","5f60e3c0a3b16e07647b2ff9","5f6104be4b543004c124574b","false","null","<div style=""align-items: center; display: flex; color: darkorange; font-size: 90px""><b>ø</b></div>","null","","","","forget_cue","","","","","","","","","","","","","","","",""
"html-keyboard-response","129","392965","0.0-4.0-1.0-0.3","afamsys0tltav8m","prime","59b044b4d98aab00019bad5a","5f60e3c0a3b16e07647b2ff9","5f6104be4b543004c124574b","false","null","<span style=""color: black; font-size: 48px"">M + N</span>","null","","","","resp_prompt","","","","","","","","","","","","","","","",""
"categorize-image","130","393878","0.0-4.0-1.0-1.3","afamsys0tltav8m","prime","59b044b4d98aab00019bad5a","5f60e3c0a3b16e07647b2ff9","5f6104be4b543004c124574b","true","909.4750000003842","./Stimuli/SelectedImages/SM/SM17.bmp","83","","","","test","true","M + N","83","switch","SM","SM17.bmp","remember","","52","3","prime1","left","","","",""
"html-keyboard-response","131","395880","0.0-4.0-1.0-3.3","afamsys0tltav8m","prime","59b044b4d98aab00019bad5a","5f60e3c0a3b16e07647b2ff9","5f6104be4b543004c124574b","false","null","<div style=""align-items: center; display: flex; color: dodgerblue; font-size: 90px""><b>o</b></div>","null","","","","forget_cue","","","","","","","","","","","","","","","",""
"html-keyboard-response","132","396582","0.0-4.0-1.0-0.4","afamsys0tltav8m","prime","59b044b4d98aab00019bad5a","5f60e3c0a3b16e07647b2ff9","5f6104be4b543004c124574b","false","null","<span style=""color: black; font-size: 48px"">M + N</span>","null","","","","resp_prompt","","","","","","","","","","","","","","","",""
"categorize-image","133","397637","0.0-4.0-1.0-1.4","afamsys0tltav8m","prime","59b044b4d98aab00019bad5a","5f60e3c0a3b16e07647b2ff9","5f6104be4b543004c124574b","true","1051.8900000024587","./Stimuli/SelectedImages/LM/LM235.bmp","76","","","","test","false","M + N","83","repetition","LM","LM235.bmp","forget","","53","3","prime1","right","","","",""
"html-keyboard-response","134","398140","0.0-4.0-1.0-2.4-0.4","afamsys0tltav8m","prime","59b044b4d98aab00019bad5a","5f60e3c0a3b16e07647b2ff9","5f6104be4b543004c124574b","false","null","<span style=""color: red; font-size: 48px"">Error!</span>","null","","","","feedback","","","","","","","","","","","","","","","",""
"html-keyboard-response","135","400141","0.0-4.0-1.0-3.4","afamsys0tltav8m","prime","59b044b4d98aab00019bad5a","5f60e3c0a3b16e07647b2ff9","5f6104be4b543004c124574b","false","null","<div style=""align-items: center; display: flex; color: darkorange; font-size: 90px""><b>ø</b></div>","null","","","","forget_cue","","","","","","","","","","","","","","","",""
"html-keyboard-response","136","400842","0.0-4.0-1.0-0.5","afamsys0tltav8m","prime","59b044b4d98aab00019bad5a","5f60e3c0a3b16e07647b2ff9","5f6104be4b543004c124574b","false","null","<span style=""color: black; font-size: 48px"">N + M</span>","null","","","","resp_prompt","","","","","","","","","","","","","","","",""
"categorize-image","137","402054","0.0-4.0-1.0-1.5","afamsys0tltav8m","prime","59b044b4d98aab00019bad5a","5f60e3c0a3b16e07647b2ff9","5f6104be4b543004c124574b","true","1208.8599999988219","./Stimuli/SelectedImages/SN/SN60.bmp","76","","","","test","false","N + M","83","repetition","SN","SN60.bmp","remember","","54","3","prime1","right","","","",""
"html-keyboard-response","138","402556","0.0-4.0-1.0-2.5-0.5","afamsys0tltav8m","prime","59b044b4d98aab00019bad5a","5f60e3c0a3b16e07647b2ff9","5f6104be4b543004c124574b","false","null","<span style=""color: red; font-size: 48px"">Error!</span>","null","","","","feedback","","","","","","","","","","","","","","","",""
"html-keyboard-response","139","404558","0.0-4.0-1.0-3.5","afamsys0tltav8m","prime","59b044b4d98aab00019bad5a","5f60e3c0a3b16e07647b2ff9","5f6104be4b543004c124574b","false","null","<div style=""align-items: center; display: flex; color: dodgerblue; font-size: 90px""><b>o</b></div>","null","","","","forget_cue","","","","","","","","","","","","","","","",""
"html-keyboard-response","140","405260","0.0-4.0-1.0-0.6","afamsys0tltav8m","prime","59b044b4d98aab00019bad5a","5f60e3c0a3b16e07647b2ff9","5f6104be4b543004c124574b","false","null","<span style=""color: black; font-size: 48px"">M + N</span>","null","","","","resp_prompt","","","","","","","","","","","","","","","",""
"categorize-image","141","406006","0.0-4.0-1.0-1.6","afamsys0tltav8m","prime","59b044b4d98aab00019bad5a","5f60e3c0a3b16e07647b2ff9","5f6104be4b543004c124574b","true","743.6349999989034","./Stimuli/SelectedImages/LM/LM129.bmp","83","","","","test","true","M + N","83","repetition","LM","LM129.bmp","remember","","55","3","prime1","left","","","",""
"html-keyboard-response","142","408009","0.0-4.0-1.0-3.6","afamsys0tltav8m","prime","59b044b4d98aab00019bad5a","5f60e3c0a3b16e07647b2ff9","5f6104be4b543004c124574b","false","null","<div style=""align-items: center; display: flex; color: dodgerblue; font-size: 90px""><b>o</b></div>","null","","","","forget_cue","","","","","","","","","","","","","","","",""
"html-keyboard-response","143","408711","0.0-4.0-1.0-0.7","afamsys0tltav8m","prime","59b044b4d98aab00019bad5a","5f60e3c0a3b16e07647b2ff9","5f6104be4b543004c124574b","false","null","<span style=""color: black; font-size: 48px"">N + M</span>","null","","","","resp_prompt","","","","","","","","","","","","","","","",""
"categorize-image","144","409542","0.0-4.0-1.0-1.7","afamsys0tltav8m","prime","59b044b4d98aab00019bad5a","5f60e3c0a3b16e07647b2ff9","5f6104be4b543004c124574b","true","827.9899999979534","./Stimuli/SelectedImages/SM/SM128.bmp","83","","","","test","false","N + M","76","switch","SM","SM128.bmp","forget","","56","3","prime1","left","","","",""
"html-keyboard-response","145","410044","0.0-4.0-1.0-2.7-0.7","afamsys0tltav8m","prime","59b044b4d98aab00019bad5a","5f60e3c0a3b16e07647b2ff9","5f6104be4b543004c124574b","false","null","<span style=""color: red; font-size: 48px"">Error!</span>","null","","","","feedback","","","","","","","","","","","","","","","",""
"html-keyboard-response","146","412046","0.0-4.0-1.0-3.7","afamsys0tltav8m","prime","59b044b4d98aab00019bad5a","5f60e3c0a3b16e07647b2ff9","5f6104be4b543004c124574b","false","null","<div style=""align-items: center; display: flex; color: darkorange; font-size: 90px""><b>ø</b></div>","null","","","","forget_cue","","","","","","","","","","","","","","","",""
"html-keyboard-response","147","412748","0.0-4.0-1.0-0.8","afamsys0tltav8m","prime","59b044b4d98aab00019bad5a","5f60e3c0a3b16e07647b2ff9","5f6104be4b543004c124574b","false","null","<span style=""color: black; font-size: 48px"">M + N</span>","null","","","","resp_prompt","","","","","","","","","","","","","","","",""
"categorize-image","148","413718","0.0-4.0-1.0-1.8","afamsys0tltav8m","prime","59b044b4d98aab00019bad5a","5f60e3c0a3b16e07647b2ff9","5f6104be4b543004c124574b","true","967.160000000149","./Stimuli/SelectedImages/LM/LM216.bmp","83","","","","test","true","M + N","83","repetition","LM","LM216.bmp","remember","","57","3","prime1","left","","","",""
"html-keyboard-response","149","415720","0.0-4.0-1.0-3.8","afamsys0tltav8m","prime","59b044b4d98aab00019bad5a","5f60e3c0a3b16e07647b2ff9","5f6104be4b543004c124574b","false","null","<div style=""align-items: center; display: flex; color: dodgerblue; font-size: 90px""><b>o</b></div>","null","","","","forget_cue","","","","","","","","","","","","","","","",""
"html-keyboard-response","150","416422","0.0-4.0-1.0-0.9","afamsys0tltav8m","prime","59b044b4d98aab00019bad5a","5f60e3c0a3b16e07647b2ff9","5f6104be4b543004c124574b","false","null","<span style=""color: black; font-size: 48px"">M + N</span>","null","","","","resp_prompt","","","","","","","","","","","","","","","",""
"categorize-image","151","417414","0.0-4.0-1.0-1.9","afamsys0tltav8m","prime","59b044b4d98aab00019bad5a","5f60e3c0a3b16e07647b2ff9","5f6104be4b543004c124574b","true","988.8900000005378","./Stimuli/SelectedImages/SM/SM195.bmp","83","","","","test","true","M + N","83","switch","SM","SM195.bmp","forget","","58","3","prime1","left","","","",""
"html-keyboard-response","152","419416","0.0-4.0-1.0-3.9","afamsys0tltav8m","prime","59b044b4d98aab00019bad5a","5f60e3c0a3b16e07647b2ff9","5f6104be4b543004c124574b","false","null","<div style=""align-items: center; display: flex; color: darkorange; font-size: 90px""><b>ø</b></div>","null","","","","forget_cue","","","","","","","","","","","","","","","",""
"html-keyboard-response","153","420118","0.0-4.0-1.0-0.10","afamsys0tltav8m","prime","59b044b4d98aab00019bad5a","5f60e3c0a3b16e07647b2ff9","5f6104be4b543004c124574b","false","null","<span style=""color: black; font-size: 48px"">N + M</span>","null","","","","resp_prompt","","","","","","","","","","","","","","","",""
"categorize-image","154","421366","0.0-4.0-1.0-1.10","afamsys0tltav8m","prime","59b044b4d98aab00019bad5a","5f60e3c0a3b16e07647b2ff9","5f6104be4b543004c124574b","true","1244.5599999991828","./Stimuli/SelectedImages/LM/LM75.bmp","76","","","","test","true","N + M","76","repetition","LM","LM75.bmp","remember","","59","3","prime1","right","","","",""
"html-keyboard-response","155","423368","0.0-4.0-1.0-3.10","afamsys0tltav8m","prime","59b044b4d98aab00019bad5a","5f60e3c0a3b16e07647b2ff9","5f6104be4b543004c124574b","false","null","<div style=""align-items: center; display: flex; color: dodgerblue; font-size: 90px""><b>o</b></div>","null","","","","forget_cue","","","","","","","","","","","","","","","",""
"html-keyboard-response","156","424070","0.0-4.0-1.0-0.11","afamsys0tltav8m","prime","59b044b4d98aab00019bad5a","5f60e3c0a3b16e07647b2ff9","5f6104be4b543004c124574b","false","null","<span style=""color: black; font-size: 48px"">N + M</span>","null","","","","resp_prompt","","","","","","","","","","","","","","","",""
"categorize-image","157","425270","0.0-4.0-1.0-1.11","afamsys0tltav8m","prime","59b044b4d98aab00019bad5a","5f60e3c0a3b16e07647b2ff9","5f6104be4b543004c124574b","true","1196.7050000021118","./Stimuli/SelectedImages/LN/LN9.bmp","76","","","","test","false","N + M","83","repetition","LN","LN9.bmp","forget","","60","3","prime1","right","","","",""
"html-keyboard-response","158","425772","0.0-4.0-1.0-2.11-0.11","afamsys0tltav8m","prime","59b044b4d98aab00019bad5a","5f60e3c0a3b16e07647b2ff9","5f6104be4b543004c124574b","false","null","<span style=""color: red; font-size: 48px"">Error!</span>","null","","","","feedback","","","","","","","","","","","","","","","",""
"html-keyboard-response","159","427774","0.0-4.0-1.0-3.11","afamsys0tltav8m","prime","59b044b4d98aab00019bad5a","5f60e3c0a3b16e07647b2ff9","5f6104be4b543004c124574b","false","null","<div style=""align-items: center; display: flex; color: darkorange; font-size: 90px""><b>ø</b></div>","null","","","","forget_cue","","","","","","","","","","","","","","","",""
"html-keyboard-response","160","428476","0.0-4.0-1.0-0.12","afamsys0tltav8m","prime","59b044b4d98aab00019bad5a","5f60e3c0a3b16e07647b2ff9","5f6104be4b543004c124574b","false","null","<span style=""color: black; font-size: 48px"">M + N</span>","null","","","","resp_prompt","","","","","","","","","","","","","","","",""
"categorize-image","161","429350","0.0-4.0-1.0-1.12","afamsys0tltav8m","prime","59b044b4d98aab00019bad5a","5f60e3c0a3b16e07647b2ff9","5f6104be4b543004c124574b","true","871.209999997518","./Stimuli/SelectedImages/SM/SM205.bmp","83","","","","test","true","M + N","83","repetition","SM","SM205.bmp","remember","","61","3","prime1","left","","","",""
"html-keyboard-response","162","431352","0.0-4.0-1.0-3.12","afamsys0tltav8m","prime","59b044b4d98aab00019bad5a","5f60e3c0a3b16e07647b2ff9","5f6104be4b543004c124574b","false","null","<div style=""align-items: center; display: flex; color: dodgerblue; font-size: 90px""><b>o</b></div>","null","","","","forget_cue","","","","","","","","","","","","","","","",""
"html-keyboard-response","163","432054","0.0-4.0-1.0-0.13","afamsys0tltav8m","prime","59b044b4d98aab00019bad5a","5f60e3c0a3b16e07647b2ff9","5f6104be4b543004c124574b","false","null","<span style=""color: black; font-size: 48px"">M + N</span>","null","","","","resp_prompt","","","","","","","","","","","","","","","",""
"categorize-image","164","433158","0.0-4.0-1.0-1.13","afamsys0tltav8m","prime","59b044b4d98aab00019bad5a","5f60e3c0a3b16e07647b2ff9","5f6104be4b543004c124574b","true","1099.9249999949825","./Stimuli/SelectedImages/SM/SM184.bmp","83","","","","test","true","M + N","83","switch","SM","SM184.bmp","forget","","62","3","prime1","left","","","",""
"html-keyboard-response","165","435159","0.0-4.0-1.0-3.13","afamsys0tltav8m","prime","59b044b4d98aab00019bad5a","5f60e3c0a3b16e07647b2ff9","5f6104be4b543004c124574b","false","null","<div style=""align-items: center; display: flex; color: darkorange; font-size: 90px""><b>ø</b></div>","null","","","","forget_cue","","","","","","","","","","","","","","","",""
"html-keyboard-response","166","435861","0.0-4.0-1.0-0.14","afamsys0tltav8m","prime","59b044b4d98aab00019bad5a","5f60e3c0a3b16e07647b2ff9","5f6104be4b543004c124574b","false","null","<span style=""color: black; font-size: 48px"">N + M</span>","null","","","","resp_prompt","","","","","","","","","","","","","","","",""
"categorize-image","167","437446","0.0-4.0-1.0-1.14","afamsys0tltav8m","prime","59b044b4d98aab00019bad5a","5f60e3c0a3b16e07647b2ff9","5f6104be4b543004c124574b","true","1582.4649999995017","./Stimuli/SelectedImages/LM/LM157.bmp","83","","","","test","false","N + M","76","switch","LM","LM157.bmp","remember","","63","3","prime1","left","","","",""
"html-keyboard-response","168","437948","0.0-4.0-1.0-2.14-0.14","afamsys0tltav8m","prime","59b044b4d98aab00019bad5a","5f60e3c0a3b16e07647b2ff9","5f6104be4b543004c124574b","false","null","<span style=""color: red; font-size: 48px"">Error!</span>","null","","","","feedback","","","","","","","","","","","","","","","",""
"html-keyboard-response","169","439949","0.0-4.0-1.0-3.14","afamsys0tltav8m","prime","59b044b4d98aab00019bad5a","5f60e3c0a3b16e07647b2ff9","5f6104be4b543004c124574b","false","null","<div style=""align-items: center; display: flex; color: dodgerblue; font-size: 90px""><b>o</b></div>","null","","","","forget_cue","","","","","","","","","","","","","","","",""
"html-keyboard-response","170","440651","0.0-4.0-1.0-0.15","afamsys0tltav8m","prime","59b044b4d98aab00019bad5a","5f60e3c0a3b16e07647b2ff9","5f6104be4b543004c124574b","false","null","<span style=""color: black; font-size: 48px"">N + M</span>","null","","","","resp_prompt","","","","","","","","","","","","","","","",""
"categorize-image","171","441638","0.0-4.0-1.0-1.15","afamsys0tltav8m","prime","59b044b4d98aab00019bad5a","5f60e3c0a3b16e07647b2ff9","5f6104be4b543004c124574b","true","984.1149999992922","./Stimuli/SelectedImages/LM/LM58.bmp","76","","","","test","true","N + M","76","switch","LM","LM58.bmp","remember","","64","3","prime1","right","","","",""
"html-keyboard-response","172","443641","0.0-4.0-1.0-3.15","afamsys0tltav8m","prime","59b044b4d98aab00019bad5a","5f60e3c0a3b16e07647b2ff9","5f6104be4b543004c124574b","false","null","<div style=""align-items: center; display: flex; color: dodgerblue; font-size: 90px""><b>o</b></div>","null","","","","forget_cue","","","","","","","","","","","","","","","",""
"html-keyboard-response","173","444342","0.0-4.0-1.0-0.16","afamsys0tltav8m","prime","59b044b4d98aab00019bad5a","5f60e3c0a3b16e07647b2ff9","5f6104be4b543004c124574b","false","null","<span style=""color: black; font-size: 48px"">M + N</span>","null","","","","resp_prompt","","","","","","","","","","","","","","","",""
"categorize-image","174","445158","0.0-4.0-1.0-1.16","afamsys0tltav8m","prime","59b044b4d98aab00019bad5a","5f60e3c0a3b16e07647b2ff9","5f6104be4b543004c124574b","true","812.6350000020466","./Stimuli/SelectedImages/LN/LN82.bmp","76","","","","test","true","M + N","76","repetition","LN","LN82.bmp","remember","","65","3","prime1","right","","","",""
"html-keyboard-response","175","447159","0.0-4.0-1.0-3.16","afamsys0tltav8m","prime","59b044b4d98aab00019bad5a","5f60e3c0a3b16e07647b2ff9","5f6104be4b543004c124574b","false","null","<div style=""align-items: center; display: flex; color: dodgerblue; font-size: 90px""><b>o</b></div>","null","","","","forget_cue","","","","","","","","","","","","","","","",""
"html-keyboard-response","176","447861","0.0-4.0-1.0-0.17","afamsys0tltav8m","prime","59b044b4d98aab00019bad5a","5f60e3c0a3b16e07647b2ff9","5f6104be4b543004c124574b","false","null","<span style=""color: black; font-size: 48px"">N + M</span>","null","","","","resp_prompt","","","","","","","","","","","","","","","",""
"categorize-image","177","448918","0.0-4.0-1.0-1.17","afamsys0tltav8m","prime","59b044b4d98aab00019bad5a","5f60e3c0a3b16e07647b2ff9","5f6104be4b543004c124574b","true","1054.4849999932921","./Stimuli/SelectedImages/SM/SM148.bmp","76","","","","test","true","N + M","76","repetition","SM","SM148.bmp","forget","","66","3","prime1","right","","","",""
"html-keyboard-response","178","450920","0.0-4.0-1.0-3.17","afamsys0tltav8m","prime","59b044b4d98aab00019bad5a","5f60e3c0a3b16e07647b2ff9","5f6104be4b543004c124574b","false","null","<div style=""align-items: center; display: flex; color: darkorange; font-size: 90px""><b>ø</b></div>","null","","","","forget_cue","","","","","","","","","","","","","","","",""
"html-keyboard-response","179","451621","0.0-4.0-1.0-0.18","afamsys0tltav8m","prime","59b044b4d98aab00019bad5a","5f60e3c0a3b16e07647b2ff9","5f6104be4b543004c124574b","false","null","<span style=""color: black; font-size: 48px"">M + N</span>","null","","","","resp_prompt","","","","","","","","","","","","","","","",""
"categorize-image","180","452502","0.0-4.0-1.0-1.18","afamsys0tltav8m","prime","59b044b4d98aab00019bad5a","5f60e3c0a3b16e07647b2ff9","5f6104be4b543004c124574b","true","878.0049999986659","./Stimuli/SelectedImages/LN/LN150.bmp","76","","","","test","true","M + N","76","repetition","LN","LN150.bmp","forget","","67","3","prime1","right","","","",""
"html-keyboard-response","181","454504","0.0-4.0-1.0-3.18","afamsys0tltav8m","prime","59b044b4d98aab00019bad5a","5f60e3c0a3b16e07647b2ff9","5f6104be4b543004c124574b","false","null","<div style=""align-items: center; display: flex; color: darkorange; font-size: 90px""><b>ø</b></div>","null","","","","forget_cue","","","","","","","","","","","","","","","",""
"html-keyboard-response","182","455206","0.0-4.0-1.0-0.19","afamsys0tltav8m","prime","59b044b4d98aab00019bad5a","5f60e3c0a3b16e07647b2ff9","5f6104be4b543004c124574b","false","null","<span style=""color: black; font-size: 48px"">N + M</span>","null","","","","resp_prompt","","","","","","","","","","","","","","","",""
"categorize-image","183","456262","0.0-4.0-1.0-1.19","afamsys0tltav8m","prime","59b044b4d98aab00019bad5a","5f60e3c0a3b16e07647b2ff9","5f6104be4b543004c124574b","true","1053.2049999965238","./Stimuli/SelectedImages/SN/SN111.bmp","83","","","","test","true","N + M","83","switch","SN","SN111.bmp","forget","","68","3","prime1","left","","","",""
"html-keyboard-response","184","458264","0.0-4.0-1.0-3.19","afamsys0tltav8m","prime","59b044b4d98aab00019bad5a","5f60e3c0a3b16e07647b2ff9","5f6104be4b543004c124574b","false","null","<div style=""align-items: center; display: flex; color: darkorange; font-size: 90px""><b>ø</b></div>","null","","","","forget_cue","","","","","","","","","","","","","","","",""
"html-keyboard-response","185","458966","0.0-4.0-1.0-0.20","afamsys0tltav8m","prime","59b044b4d98aab00019bad5a","5f60e3c0a3b16e07647b2ff9","5f6104be4b543004c124574b","false","null","<span style=""color: black; font-size: 48px"">N + M</span>","null","","","","resp_prompt","","","","","","","","","","","","","","","",""
"categorize-image","186","459861","0.0-4.0-1.0-1.20","afamsys0tltav8m","prime","59b044b4d98aab00019bad5a","5f60e3c0a3b16e07647b2ff9","5f6104be4b543004c124574b","true","892.809999997553","./Stimuli/SelectedImages/LN/LN128.bmp","83","","","","test","true","N + M","83","repetition","LN","LN128.bmp","remember","","69","3","prime1","left","","","",""
"html-keyboard-response","187","461863","0.0-4.0-1.0-3.20","afamsys0tltav8m","prime","59b044b4d98aab00019bad5a","5f60e3c0a3b16e07647b2ff9","5f6104be4b543004c124574b","false","null","<div style=""align-items: center; display: flex; color: dodgerblue; font-size: 90px""><b>o</b></div>","null","","","","forget_cue","","","","","","","","","","","","","","","",""
"html-keyboard-response","188","462565","0.0-4.0-1.0-0.21","afamsys0tltav8m","prime","59b044b4d98aab00019bad5a","5f60e3c0a3b16e07647b2ff9","5f6104be4b543004c124574b","false","null","<span style=""color: black; font-size: 48px"">N + M</span>","null","","","","resp_prompt","","","","","","","","","","","","","","","",""
"categorize-image","189","463574","0.0-4.0-1.0-1.21","afamsys0tltav8m","prime","59b044b4d98aab00019bad5a","5f60e3c0a3b16e07647b2ff9","5f6104be4b543004c124574b","true","1006.2450000041281","./Stimuli/SelectedImages/LN/LN166.bmp","83","","","","test","true","N + M","83","switch","LN","LN166.bmp","remember","","70","3","prime1","left","","","",""
"html-keyboard-response","190","465577","0.0-4.0-1.0-3.21","afamsys0tltav8m","prime","59b044b4d98aab00019bad5a","5f60e3c0a3b16e07647b2ff9","5f6104be4b543004c124574b","false","null","<div style=""align-items: center; display: flex; color: dodgerblue; font-size: 90px""><b>o</b></div>","null","","","","forget_cue","","","","","","","","","","","","","","","",""
"html-keyboard-response","191","466279","0.0-4.0-1.0-0.22","afamsys0tltav8m","prime","59b044b4d98aab00019bad5a","5f60e3c0a3b16e07647b2ff9","5f6104be4b543004c124574b","false","null","<span style=""color: black; font-size: 48px"">N + M</span>","null","","","","resp_prompt","","","","","","","","","","","","","","","",""
"categorize-image","192","467270","0.0-4.0-1.0-1.22","afamsys0tltav8m","prime","59b044b4d98aab00019bad5a","5f60e3c0a3b16e07647b2ff9","5f6104be4b543004c124574b","true","987.8099999987171","./Stimuli/SelectedImages/LN/LN42.bmp","83","","","","test","true","N + M","83","switch","LN","LN42.bmp","forget","","71","3","prime1","left","","","",""
"html-keyboard-response","193","469271","0.0-4.0-1.0-3.22","afamsys0tltav8m","prime","59b044b4d98aab00019bad5a","5f60e3c0a3b16e07647b2ff9","5f6104be4b543004c124574b","false","null","<div style=""align-items: center; display: flex; color: darkorange; font-size: 90px""><b>ø</b></div>","null","","","","forget_cue","","","","","","","","","","","","","","","",""
"html-keyboard-response","194","469973","0.0-4.0-1.0-0.23","afamsys0tltav8m","prime","59b044b4d98aab00019bad5a","5f60e3c0a3b16e07647b2ff9","5f6104be4b543004c124574b","false","null","<span style=""color: black; font-size: 48px"">M + N</span>","null","","","","resp_prompt","","","","","","","","","","","","","","","",""
"categorize-image","195","471270","0.0-4.0-1.0-1.23","afamsys0tltav8m","prime","59b044b4d98aab00019bad5a","5f60e3c0a3b16e07647b2ff9","5f6104be4b543004c124574b","true","1293.9499999993131","./Stimuli/SelectedImages/SM/SM106.bmp","83","","","","test","true","M + N","83","repetition","SM","SM106.bmp","remember","","72","3","prime1","left","","","",""
"html-keyboard-response","196","473271","0.0-4.0-1.0-3.23","afamsys0tltav8m","prime","59b044b4d98aab00019bad5a","5f60e3c0a3b16e07647b2ff9","5f6104be4b543004c124574b","false","null","<div style=""align-items: center; display: flex; color: dodgerblue; font-size: 90px""><b>o</b></div>","null","","","","forget_cue","","","","","","","","","","","","","","","",""
"html-keyboard-response","197","473973","0.0-4.0-1.0-0.24","afamsys0tltav8m","prime","59b044b4d98aab00019bad5a","5f60e3c0a3b16e07647b2ff9","5f6104be4b543004c124574b","false","null","<span style=""color: black; font-size: 48px"">N + M</span>","null","","","","resp_prompt","","","","","","","","","","","","","","","",""
"categorize-image","198","475206","0.0-4.0-1.0-1.24","afamsys0tltav8m","prime","59b044b4d98aab00019bad5a","5f60e3c0a3b16e07647b2ff9","5f6104be4b543004c124574b","true","1230.520000004617","./Stimuli/SelectedImages/LN/LN101.bmp","83","","","","test","true","N + M","83","repetition","LN","LN101.bmp","remember","","73","3","prime1","left","","","",""
"html-keyboard-response","199","477208","0.0-4.0-1.0-3.24","afamsys0tltav8m","prime","59b044b4d98aab00019bad5a","5f60e3c0a3b16e07647b2ff9","5f6104be4b543004c124574b","false","null","<div style=""align-items: center; display: flex; color: dodgerblue; font-size: 90px""><b>o</b></div>","null","","","","forget_cue","","","","","","","","","","","","","","","",""
"html-keyboard-response","200","477911","0.0-4.0-1.0-0.25","afamsys0tltav8m","prime","59b044b4d98aab00019bad5a","5f60e3c0a3b16e07647b2ff9","5f6104be4b543004c124574b","false","null","<span style=""color: black; font-size: 48px"">M + N</span>","null","","","","resp_prompt","","","","","","","","","","","","","","","",""
"categorize-image","201","479046","0.0-4.0-1.0-1.25","afamsys0tltav8m","prime","59b044b4d98aab00019bad5a","5f60e3c0a3b16e07647b2ff9","5f6104be4b543004c124574b","true","1132.3099999935948","./Stimuli/SelectedImages/SN/SN140.bmp","76","","","","test","true","M + N","76","repetition","SN","SN140.bmp","forget","","74","3","prime1","right","","","",""
"html-keyboard-response","202","481048","0.0-4.0-1.0-3.25","afamsys0tltav8m","prime","59b044b4d98aab00019bad5a","5f60e3c0a3b16e07647b2ff9","5f6104be4b543004c124574b","false","null","<div style=""align-items: center; display: flex; color: darkorange; font-size: 90px""><b>ø</b></div>","null","","","","forget_cue","","","","","","","","","","","","","","","",""
"html-keyboard-response","203","481750","0.0-4.0-1.0-0.26","afamsys0tltav8m","prime","59b044b4d98aab00019bad5a","5f60e3c0a3b16e07647b2ff9","5f6104be4b543004c124574b","false","null","<span style=""color: black; font-size: 48px"">N + M</span>","null","","","","resp_prompt","","","","","","","","","","","","","","","",""
"categorize-image","204","482902","0.0-4.0-1.0-1.26","afamsys0tltav8m","prime","59b044b4d98aab00019bad5a","5f60e3c0a3b16e07647b2ff9","5f6104be4b543004c124574b","true","1148.6749999967287","./Stimuli/SelectedImages/SM/SM24.bmp","83","","","","test","false","N + M","76","repetition","SM","SM24.bmp","remember","","75","3","prime1","left","","","",""
"html-keyboard-response","205","483404","0.0-4.0-1.0-2.26-0.26","afamsys0tltav8m","prime","59b044b4d98aab00019bad5a","5f60e3c0a3b16e07647b2ff9","5f6104be4b543004c124574b","false","null","<span style=""color: red; font-size: 48px"">Error!</span>","null","","","","feedback","","","","","","","","","","","","","","","",""
"html-keyboard-response","206","485406","0.0-4.0-1.0-3.26","afamsys0tltav8m","prime","59b044b4d98aab00019bad5a","5f60e3c0a3b16e07647b2ff9","5f6104be4b543004c124574b","false","null","<div style=""align-items: center; display: flex; color: dodgerblue; font-size: 90px""><b>o</b></div>","null","","","","forget_cue","","","","","","","","","","","","","","","",""
"html-keyboard-response","207","486107","0.0-4.0-1.0-0.27","afamsys0tltav8m","prime","59b044b4d98aab00019bad5a","5f60e3c0a3b16e07647b2ff9","5f6104be4b543004c124574b","false","null","<span style=""color: black; font-size: 48px"">N + M</span>","null","","","","resp_prompt","","","","","","","","","","","","","","","",""
"categorize-image","208","487542","0.0-4.0-1.0-1.27","afamsys0tltav8m","prime","59b044b4d98aab00019bad5a","5f60e3c0a3b16e07647b2ff9","5f6104be4b543004c124574b","true","1431.8899999998393","./Stimuli/SelectedImages/SN/SN179.bmp","76","","","","test","false","N + M","83","switch","SN","SN179.bmp","remember","","76","3","prime1","right","","","",""
"html-keyboard-response","209","488045","0.0-4.0-1.0-2.27-0.27","afamsys0tltav8m","prime","59b044b4d98aab00019bad5a","5f60e3c0a3b16e07647b2ff9","5f6104be4b543004c124574b","false","null","<span style=""color: red; font-size: 48px"">Error!</span>","null","","","","feedback","","","","","","","","","","","","","","","",""
"html-keyboard-response","210","490047","0.0-4.0-1.0-3.27","afamsys0tltav8m","prime","59b044b4d98aab00019bad5a","5f60e3c0a3b16e07647b2ff9","5f6104be4b543004c124574b","false","null","<div style=""align-items: center; display: flex; color: dodgerblue; font-size: 90px""><b>o</b></div>","null","","","","forget_cue","","","","","","","","","","","","","","","",""
"html-keyboard-response","211","490749","0.0-4.0-1.0-0.28","afamsys0tltav8m","prime","59b044b4d98aab00019bad5a","5f60e3c0a3b16e07647b2ff9","5f6104be4b543004c124574b","false","null","<span style=""color: black; font-size: 48px"">N + M</span>","null","","","","resp_prompt","","","","","","","","","","","","","","","",""
"categorize-image","212","491974","0.0-4.0-1.0-1.28","afamsys0tltav8m","prime","59b044b4d98aab00019bad5a","5f60e3c0a3b16e07647b2ff9","5f6104be4b543004c124574b","true","1221.9499999991967","./Stimuli/SelectedImages/SN/SN27.bmp","83","","","","test","true","N + M","83","repetition","SN","SN27.bmp","remember","","77","3","prime1","left","","","",""
"html-keyboard-response","213","493975","0.0-4.0-1.0-3.28","afamsys0tltav8m","prime","59b044b4d98aab00019bad5a","5f60e3c0a3b16e07647b2ff9","5f6104be4b543004c124574b","false","null","<div style=""align-items: center; display: flex; color: dodgerblue; font-size: 90px""><b>o</b></div>","null","","","","forget_cue","","","","","","","","","","","","","","","",""
"html-keyboard-response","214","494677","0.0-4.0-1.0-0.29","afamsys0tltav8m","prime","59b044b4d98aab00019bad5a","5f60e3c0a3b16e07647b2ff9","5f6104be4b543004c124574b","false","null","<span style=""color: black; font-size: 48px"">M + N</span>","null","","","","resp_prompt","","","","","","","","","","","","","","","",""
"categorize-image","215","495670","0.0-4.0-1.0-1.29","afamsys0tltav8m","prime","59b044b4d98aab00019bad5a","5f60e3c0a3b16e07647b2ff9","5f6104be4b543004c124574b","true","989.6950000038487","./Stimuli/SelectedImages/SN/SN182.bmp","76","","","","test","true","M + N","76","switch","SN","SN182.bmp","remember","","78","3","prime1","right","","","",""
"html-keyboard-response","216","497671","0.0-4.0-1.0-3.29","afamsys0tltav8m","prime","59b044b4d98aab00019bad5a","5f60e3c0a3b16e07647b2ff9","5f6104be4b543004c124574b","false","null","<div style=""align-items: center; display: flex; color: dodgerblue; font-size: 90px""><b>o</b></div>","null","","","","forget_cue","","","","","","","","","","","","","","","",""
"html-keyboard-response","217","498373","0.0-4.0-1.0-0.30","afamsys0tltav8m","prime","59b044b4d98aab00019bad5a","5f60e3c0a3b16e07647b2ff9","5f6104be4b543004c124574b","false","null","<span style=""color: black; font-size: 48px"">M + N</span>","null","","","","resp_prompt","","","","","","","","","","","","","","","",""
"categorize-image","218","499510","0.0-4.0-1.0-1.30","afamsys0tltav8m","prime","59b044b4d98aab00019bad5a","5f60e3c0a3b16e07647b2ff9","5f6104be4b543004c124574b","true","1134.5500000024913","./Stimuli/SelectedImages/LN/LN28.bmp","76","","","","test","true","M + N","76","repetition","LN","LN28.bmp","forget","","79","3","prime1","right","","","",""
"html-keyboard-response","219","501512","0.0-4.0-1.0-3.30","afamsys0tltav8m","prime","59b044b4d98aab00019bad5a","5f60e3c0a3b16e07647b2ff9","5f6104be4b543004c124574b","false","null","<div style=""align-items: center; display: flex; color: darkorange; font-size: 90px""><b>ø</b></div>","null","","","","forget_cue","","","","","","","","","","","","","","","",""
"html-keyboard-response","220","502214","0.0-4.0-1.0-0.31","afamsys0tltav8m","prime","59b044b4d98aab00019bad5a","5f60e3c0a3b16e07647b2ff9","5f6104be4b543004c124574b","false","null","<span style=""color: black; font-size: 48px"">N + M</span>","null","","","","resp_prompt","","","","","","","","","","","","","","","",""
"categorize-image","221","503030","0.0-4.0-1.0-1.31","afamsys0tltav8m","prime","59b044b4d98aab00019bad5a","5f60e3c0a3b16e07647b2ff9","5f6104be4b543004c124574b","true","812.2350000048755","./Stimuli/SelectedImages/SN/SN18.bmp","83","","","","test","true","N + M","83","repetition","SN","SN18.bmp","forget","","80","3","prime1","left","","","",""
"html-keyboard-response","222","505032","0.0-4.0-1.0-3.31","afamsys0tltav8m","prime","59b044b4d98aab00019bad5a","5f60e3c0a3b16e07647b2ff9","5f6104be4b543004c124574b","false","null","<div style=""align-items: center; display: flex; color: darkorange; font-size: 90px""><b>ø</b></div>","null","","","","forget_cue","","","","","","","","","","","","","","","",""
"html-keyboard-response","223","505734","0.0-4.0-1.0-0.32","afamsys0tltav8m","prime","59b044b4d98aab00019bad5a","5f60e3c0a3b16e07647b2ff9","5f6104be4b543004c124574b","false","null","<span style=""color: black; font-size: 48px"">M + N</span>","null","","","","resp_prompt","","","","","","","","","","","","","","","",""
"categorize-image","224","506886","0.0-4.0-1.0-1.32","afamsys0tltav8m","prime","59b044b4d98aab00019bad5a","5f60e3c0a3b16e07647b2ff9","5f6104be4b543004c124574b","true","1148.9549999969313","./Stimuli/SelectedImages/LN/LN149.bmp","76","","","","test","true","M + N","76","switch","LN","LN149.bmp","remember","","81","3","prime1","right","","","",""
"html-keyboard-response","225","508887","0.0-4.0-1.0-3.32","afamsys0tltav8m","prime","59b044b4d98aab00019bad5a","5f60e3c0a3b16e07647b2ff9","5f6104be4b543004c124574b","false","null","<div style=""align-items: center; display: flex; color: dodgerblue; font-size: 90px""><b>o</b></div>","null","","","","forget_cue","","","","","","","","","","","","","","","",""
"html-keyboard-response","226","509590","0.0-4.0-1.0-0.33","afamsys0tltav8m","prime","59b044b4d98aab00019bad5a","5f60e3c0a3b16e07647b2ff9","5f6104be4b543004c124574b","false","null","<span style=""color: black; font-size: 48px"">M + N</span>","null","","","","resp_prompt","","","","","","","","","","","","","","","",""
"categorize-image","227","510486","0.0-4.0-1.0-1.33","afamsys0tltav8m","prime","59b044b4d98aab00019bad5a","5f60e3c0a3b16e07647b2ff9","5f6104be4b543004c124574b","true","893.3949999991455","./Stimuli/SelectedImages/LM/LM209.bmp","76","","","","test","false","M + N","83","switch","LM","LM209.bmp","remember","","82","3","prime1","right","","","",""
"html-keyboard-response","228","510989","0.0-4.0-1.0-2.33-0.33","afamsys0tltav8m","prime","59b044b4d98aab00019bad5a","5f60e3c0a3b16e07647b2ff9","5f6104be4b543004c124574b","false","null","<span style=""color: red; font-size: 48px"">Error!</span>","null","","","","feedback","","","","","","","","","","","","","","","",""
"html-keyboard-response","229","512992","0.0-4.0-1.0-3.33","afamsys0tltav8m","prime","59b044b4d98aab00019bad5a","5f60e3c0a3b16e07647b2ff9","5f6104be4b543004c124574b","false","null","<div style=""align-items: center; display: flex; color: dodgerblue; font-size: 90px""><b>o</b></div>","null","","","","forget_cue","","","","","","","","","","","","","","","",""
"html-keyboard-response","230","513694","0.0-4.0-1.0-0.34","afamsys0tltav8m","prime","59b044b4d98aab00019bad5a","5f60e3c0a3b16e07647b2ff9","5f6104be4b543004c124574b","false","null","<span style=""color: black; font-size: 48px"">N + M</span>","null","","","","resp_prompt","","","","","","","","","","","","","","","",""
"categorize-image","231","514774","0.0-4.0-1.0-1.34","afamsys0tltav8m","prime","59b044b4d98aab00019bad5a","5f60e3c0a3b16e07647b2ff9","5f6104be4b543004c124574b","true","1076.3549999974202","./Stimuli/SelectedImages/SM/SM213.bmp","76","","","","test","true","N + M","76","repetition","SM","SM213.bmp","remember","","83","3","prime1","right","","","",""
"html-keyboard-response","232","516776","0.0-4.0-1.0-3.34","afamsys0tltav8m","prime","59b044b4d98aab00019bad5a","5f60e3c0a3b16e07647b2ff9","5f6104be4b543004c124574b","false","null","<div style=""align-items: center; display: flex; color: dodgerblue; font-size: 90px""><b>o</b></div>","null","","","","forget_cue","","","","","","","","","","","","","","","",""
"html-keyboard-response","233","517477","0.0-4.0-1.0-0.35","afamsys0tltav8m","prime","59b044b4d98aab00019bad5a","5f60e3c0a3b16e07647b2ff9","5f6104be4b543004c124574b","false","null","<span style=""color: black; font-size: 48px"">M + N</span>","null","","","","resp_prompt","","","","","","","","","","","","","","","",""
"categorize-image","234","518694","0.0-4.0-1.0-1.35","afamsys0tltav8m","prime","59b044b4d98aab00019bad5a","5f60e3c0a3b16e07647b2ff9","5f6104be4b543004c124574b","true","1214.2700000039767","./Stimuli/SelectedImages/LM/LM100.bmp","83","","","","test","true","M + N","83","switch","LM","LM100.bmp","forget","","84","3","prime1","left","","","",""
"html-keyboard-response","235","520695","0.0-4.0-1.0-3.35","afamsys0tltav8m","prime","59b044b4d98aab00019bad5a","5f60e3c0a3b16e07647b2ff9","5f6104be4b543004c124574b","false","null","<div style=""align-items: center; display: flex; color: darkorange; font-size: 90px""><b>ø</b></div>","null","","","","forget_cue","","","","","","","","","","","","","","","",""
"html-keyboard-response","236","521398","0.0-4.0-1.0-0.36","afamsys0tltav8m","prime","59b044b4d98aab00019bad5a","5f60e3c0a3b16e07647b2ff9","5f6104be4b543004c124574b","false","null","<span style=""color: black; font-size: 48px"">M + N</span>","null","","","","resp_prompt","","","","","","","","","","","","","","","",""
"categorize-image","237","522326","0.0-4.0-1.0-1.36","afamsys0tltav8m","prime","59b044b4d98aab00019bad5a","5f60e3c0a3b16e07647b2ff9","5f6104be4b543004c124574b","true","925.4550000042655","./Stimuli/SelectedImages/SM/SM74.bmp","76","","","","test","false","M + N","83","repetition","SM","SM74.bmp","forget","","85","3","prime1","right","","","",""
"html-keyboard-response","238","522829","0.0-4.0-1.0-2.36-0.36","afamsys0tltav8m","prime","59b044b4d98aab00019bad5a","5f60e3c0a3b16e07647b2ff9","5f6104be4b543004c124574b","false","null","<span style=""color: red; font-size: 48px"">Error!</span>","null","","","","feedback","","","","","","","","","","","","","","","",""
"html-keyboard-response","239","524831","0.0-4.0-1.0-3.36","afamsys0tltav8m","prime","59b044b4d98aab00019bad5a","5f60e3c0a3b16e07647b2ff9","5f6104be4b543004c124574b","false","null","<div style=""align-items: center; display: flex; color: darkorange; font-size: 90px""><b>ø</b></div>","null","","","","forget_cue","","","","","","","","","","","","","","","",""
"html-keyboard-response","240","525533","0.0-4.0-1.0-0.37","afamsys0tltav8m","prime","59b044b4d98aab00019bad5a","5f60e3c0a3b16e07647b2ff9","5f6104be4b543004c124574b","false","null","<span style=""color: black; font-size: 48px"">N + M</span>","null","","","","resp_prompt","","","","","","","","","","","","","","","",""
"categorize-image","241","527142","0.0-4.0-1.0-1.37","afamsys0tltav8m","prime","59b044b4d98aab00019bad5a","5f60e3c0a3b16e07647b2ff9","5f6104be4b543004c124574b","true","1606.0199999992037","./Stimuli/SelectedImages/LM/LM48.bmp","76","","","","test","true","N + M","76","repetition","LM","LM48.bmp","remember","","86","3","prime1","right","","","",""
"html-keyboard-response","242","529143","0.0-4.0-1.0-3.37","afamsys0tltav8m","prime","59b044b4d98aab00019bad5a","5f60e3c0a3b16e07647b2ff9","5f6104be4b543004c124574b","false","null","<div style=""align-items: center; display: flex; color: dodgerblue; font-size: 90px""><b>o</b></div>","null","","","","forget_cue","","","","","","","","","","","","","","","",""
"html-keyboard-response","243","529844","0.0-4.0-1.0-0.38","afamsys0tltav8m","prime","59b044b4d98aab00019bad5a","5f60e3c0a3b16e07647b2ff9","5f6104be4b543004c124574b","false","null","<span style=""color: black; font-size: 48px"">M + N</span>","null","","","","resp_prompt","","","","","","","","","","","","","","","",""
"categorize-image","244","530840","0.0-4.0-1.0-1.38","afamsys0tltav8m","prime","59b044b4d98aab00019bad5a","5f60e3c0a3b16e07647b2ff9","5f6104be4b543004c124574b","true","990.5350000044564","./Stimuli/SelectedImages/SN/SN52.bmp","76","","","","test","true","M + N","76","repetition","SN","SN52.bmp","remember","","87","3","prime1","right","","","",""
"html-keyboard-response","245","532842","0.0-4.0-1.0-3.38","afamsys0tltav8m","prime","59b044b4d98aab00019bad5a","5f60e3c0a3b16e07647b2ff9","5f6104be4b543004c124574b","false","null","<div style=""align-items: center; display: flex; color: dodgerblue; font-size: 90px""><b>o</b></div>","null","","","","forget_cue","","","","","","","","","","","","","","","",""
"html-keyboard-response","246","533544","0.0-4.0-1.0-0.39","afamsys0tltav8m","prime","59b044b4d98aab00019bad5a","5f60e3c0a3b16e07647b2ff9","5f6104be4b543004c124574b","false","null","<span style=""color: black; font-size: 48px"">M + N</span>","null","","","","resp_prompt","","","","","","","","","","","","","","","",""
"categorize-image","247","534407","0.0-4.0-1.0-1.39","afamsys0tltav8m","prime","59b044b4d98aab00019bad5a","5f60e3c0a3b16e07647b2ff9","5f6104be4b543004c124574b","true","858.7800000023562","./Stimuli/SelectedImages/LN/LN131.bmp","76","","","","test","true","M + N","76","switch","LN","LN131.bmp","forget","","88","3","prime1","right","","","",""
"html-keyboard-response","248","536409","0.0-4.0-1.0-3.39","afamsys0tltav8m","prime","59b044b4d98aab00019bad5a","5f60e3c0a3b16e07647b2ff9","5f6104be4b543004c124574b","false","null","<div style=""align-items: center; display: flex; color: darkorange; font-size: 90px""><b>ø</b></div>","null","","","","forget_cue","","","","","","","","","","","","","","","",""
"html-keyboard-response","249","537111","0.0-4.0-1.0-0.40","afamsys0tltav8m","prime","59b044b4d98aab00019bad5a","5f60e3c0a3b16e07647b2ff9","5f6104be4b543004c124574b","false","null","<span style=""color: black; font-size: 48px"">M + N</span>","null","","","","resp_prompt","","","","","","","","","","","","","","","",""
"categorize-image","250","538070","0.0-4.0-1.0-1.40","afamsys0tltav8m","prime","59b044b4d98aab00019bad5a","5f60e3c0a3b16e07647b2ff9","5f6104be4b543004c124574b","true","955.5600000021514","./Stimuli/SelectedImages/LN/LN59.bmp","76","","","","test","true","M + N","76","switch","LN","LN59.bmp","remember","","89","3","prime1","right","","","",""
"html-keyboard-response","251","540073","0.0-4.0-1.0-3.40","afamsys0tltav8m","prime","59b044b4d98aab00019bad5a","5f60e3c0a3b16e07647b2ff9","5f6104be4b543004c124574b","false","null","<div style=""align-items: center; display: flex; color: dodgerblue; font-size: 90px""><b>o</b></div>","null","","","","forget_cue","","","","","","","","","","","","","","","",""
"html-keyboard-response","252","540775","0.0-4.0-1.0-0.41","afamsys0tltav8m","prime","59b044b4d98aab00019bad5a","5f60e3c0a3b16e07647b2ff9","5f6104be4b543004c124574b","false","null","<span style=""color: black; font-size: 48px"">N + M</span>","null","","","","resp_prompt","","","","","","","","","","","","","","","",""
"categorize-image","253","541878","0.0-4.0-1.0-1.41","afamsys0tltav8m","prime","59b044b4d98aab00019bad5a","5f60e3c0a3b16e07647b2ff9","5f6104be4b543004c124574b","true","1099.9599999996135","./Stimuli/SelectedImages/LN/LN177.bmp","83","","","","test","true","N + M","83","repetition","LN","LN177.bmp","forget","","90","3","prime1","left","","","",""
