"trial_type","trial_index","time_elapsed","internal_node_id","subject","exp_part","prolific_PID","study_ID","session_ID","use","rt","stimulus","key_press","button_pressed","responses","question_order","trial_part","correct","resp_map","correct_resp","probe_condition","category","image","forget_condition","list","trial_num","block_num","block","response","test_part","n_span","sequence","num_spaces"
"pavlovia","0","8","0.0-0.0","2dpqn5185o2p7kk","","5ec9d530f7f5db50c71639de","5f60e3c0a3b16e07647b2ff9","5f638023a98c9c06ec257155","false","","","","","","","","","","","","","","","","","","","","","","",""
"html-keyboard-response","1","2700","0.0-1.0-0.0-0.0","2dpqn5185o2p7kk","welcome","5ec9d530f7f5db50c71639de","5f60e3c0a3b16e07647b2ff9","5f638023a98c9c06ec257155","false","2688.0850000306964","<div align=left>Dear participant, <br> thank you for participating in an online study of the Cognition, Action, and Sustainability Unit of the University of Freiburg! <br> <br>The aim of this study is to examine our ability to remember previously learned information. <br>Our goal is to find out, whether our memory improves, when we only remember information that is relevant to us. <br>The experiment will take about 35 minutes to complete. <br> <br>Please, note that you can only participate in this study if you are using a device with a keyboard (PC, Laptop etc.) <br>and not if you are using a mobile device such as a tablet or smartphone.<br> <br>Press 'SPACE' to proceed to the experiment. </div>","32","","","","","","","","","","","","","","","","","","","",""
"html-keyboard-response","2","4016","0.0-1.0-0.0-1.0","2dpqn5185o2p7kk","welcome","5ec9d530f7f5db50c71639de","5f60e3c0a3b16e07647b2ff9","5f638023a98c9c06ec257155","false","1313.6999999405816","<div align=left><strong> Time Course of this experiment: </strong> <br><br> <strong> 1.</strong>  First, please fill in some information regarding your demographic data. <br><br> <strong> 2.</strong>  Next, your task will be to classify everyday objects. <br>In addition, you will be asked to remember certain objects and recall them later. <br>Working on these tasks requires your undivided attention and concentration.<br>It is therefore essential that you eliminate any sources of distraction in your  <br>environment and ensure that you will not be disturbed. <br><br><strong> 3.</strong>  At the end of the experiment, you will be asked to answer a few additional questions. <br> <br><strong> Important:</strong> After finishing the experiment, only close the browser window <br> by clicking on the 'end the experiment'-button when you are asked to do so. <br>Closing the browser window prematurely will make the allocation of your participation credit impossible. <br><br> Press 'SPACE' to start the experiment. </div>","32","","","","","","","","","","","","","","","","","","","",""
"html-button-response","3","5787","0.0-1.0-0.0-2.0","2dpqn5185o2p7kk","welcome","5ec9d530f7f5db50c71639de","5f60e3c0a3b16e07647b2ff9","5f638023a98c9c06ec257155","true","1768.5050000436604","<div align=left><strong> Informed consent </strong>  <br>The aim of our research is to better understand human behavior and mental processes. <br>In the following study your behavior (e.g. choices, reaction times) will be studied. <br> <br><strong> Voluntariness and Anonymity </strong> <br>Your participation in this study is  <strong> voluntary</strong>.<br>You may withdraw your consent to participate at any time without providing a reason for doing so and without fear of prejudice. <br><br>As no personal data will be collected, <strong>your data and your person cannot be connected after data collection</strong> – the data-set is anonymous. <br>Respectively, deletion of your data will not be possible after data collection has been completed, as we cannot retrace your data-set.<br>The results and anonymized data collected in this study will be published as a scientific publication. <br>This will happen in an <strong>anonymized format</strong>, so that no data can be traced back to a specific person. <br> <br>The anonymized data of this study will be made available to other researchers and/or in a data archive on the Internet as a means of transparency and to enable subsequent re-use. By doing so, this study follows the recommendations of the Deutsche Forschungsgemeinschaft (DFG, German Research Foundation) and Deutsche Gesellschaft für Psychologie (DGPS, German Psychological Society) regarding quality assurance in research.<br>If you have any questions now or after the experiment, please contact our team (experiments@cs.uni-freiburg.de).<br><br><br>I hereby declare, that I understand the above described conditions of participation and I agree to participate under these conditions. <br><br> </div>","","0","","","","","","","","","","","","","","","","","","",""
"html-keyboard-response","4","10346","0.0-1.0-0.0-3.0","2dpqn5185o2p7kk","welcome","5ec9d530f7f5db50c71639de","5f60e3c0a3b16e07647b2ff9","5f638023a98c9c06ec257155","false","4556.605000048876","<div align=left><strong> General information concerning the experiment </strong>  <br> <br>Please follow the instructions:<ol> <li><strong> Do not leave this tab (your browser window) during the experiment and do not reload this tab! </strong>  <br>If you do switch tabs/windows during the experiment (to check your mail or visit another website, for example), <br>the experiment will end automatically and you will <strong>not receive credit</strong> for your participation. <br>Repeated participation or resumption of the experiment is impossible.</li> <br><li>Please close all other programs for the duration of your participation. </li> <br><li>Please mute or turn off your phone and put it out of your reach. </li> <br><li>Please also take off any disturbing accessories (such as wristwatches, bracelets, etc.). </li> <br><li>If you have music playing in the background, please turn it off now. </li> <br></ol>Thank you! <br>Press 'SPACE' to continue. </div>","32","","","","","","","","","","","","","","","","","","","",""
"survey-text","5","13293","0.0-1.0-1.0-0.0","2dpqn5185o2p7kk","demographics","5ec9d530f7f5db50c71639de","5f60e3c0a3b16e07647b2ff9","5f638023a98c9c06ec257155","true","2939.3200000049546","","","","{""age"":""21""}","","","","","","","","","","","","","","","","","",""
"survey-multi-choice","6","38369","0.0-1.0-1.0-1.0","2dpqn5185o2p7kk","demographics","5ec9d530f7f5db50c71639de","5f60e3c0a3b16e07647b2ff9","5f638023a98c9c06ec257155","true","25070.399999967776","","","","{""gender"":""male"",""school"":""high school"",""education"":""Still in training/ university""}","[0,1,2]","","","","","","","","","","","","","","","","",""
"survey-text","7","43244","0.0-1.0-1.0-2.0-0.0","2dpqn5185o2p7kk","demographics","5ec9d530f7f5db50c71639de","5f60e3c0a3b16e07647b2ff9","5f638023a98c9c06ec257155","true","4855.435000034049","","","","{""education_text"":""Architecture""}","","","","","","","","","","","","","","","","","",""
"html-keyboard-response","8","59428","0.0-1.0-2.0","2dpqn5185o2p7kk","instructions","5ec9d530f7f5db50c71639de","5f60e3c0a3b16e07647b2ff9","5f638023a98c9c06ec257155","false","16181.380000081845","<div align=left> The experiment is now about to start: <br> <br>In the following part, you will be presented pictures of everyday objects. <br>Your first task is to <strong>classify these objects. </strong> <br> <br> You will classify them either as mechanical or non-mechanical objects. <br> <br>Objects that include any kind of technical mechanism (for example, wheels, switches, levers, <br> electronic components) fall under the category of <strong>mechanical</strong> objects. <br>Only objects without any kind of technical mechanism should be classified as <strong>non-mechanical</strong>. <br><br>Press 'SPACE' to continue. </div>","32","","","","","","","","","","","","","","","","","","","",""
"html-keyboard-response","9","75542","0.0-2.0-0.0","2dpqn5185o2p7kk","instructions","5ec9d530f7f5db50c71639de","5f60e3c0a3b16e07647b2ff9","5f638023a98c9c06ec257155","false","16112.314999918453","<div align=justify>You will classify the objects using the <strong>'S'</strong> and the <strong>'L'</strong> keys on your keyboard.<br>For doing so, please place your <strong>left index finger</strong> on the <strong>'S'</strong> key and place your <strong>right index finger</strong> on the <strong>'L'</strong> key. <br><br> Each trial starts with an instruction, indicating which key ('S'/'L') you need to press to classify <br>the object as mechanical (letter M) or non-mechanical (letter N).<br>The instruction <strong>M + N</strong> indicates that, in the current trial, by pressing the left key ('S') you classify the displayed object as mechanical (M) <br> and by pressing the right key ('L') you classify the object as non-mechanical (N). <br>The instruction <strong>N + M</strong> on the other hand indicates that by pressing the left key ('S') you classify the displayed object as non-mechanical (N) <br> and by pressing the right key ('L') you classify the object as mechanical (M). <br><br>Please press the key corresponding to the correct classification as fast as possible as soon as the object is displayed and try to avoid making mistakes.<br>If you do not respond within a 2 second window, a corresponding feedback will be displayed and the next trial will start.<br> The experiment is divided into multiple blocks to give you the opportunity to take a break after each block. <br>First, you can now practice this task. <br><br>Please place your <strong>LEFT INDEX FINGER</strong> on the 'S' key and your <strong>RIGHT INDEX FINGER</strong> on the 'L' key now. <br><br>Press SPACE to continue.</div>","32","","","","","","","","","","","","","","","","","","","",""
"html-keyboard-response","10","78261","0.0-2.0-1.0","2dpqn5185o2p7kk","instructions","5ec9d530f7f5db50c71639de","5f60e3c0a3b16e07647b2ff9","5f638023a98c9c06ec257155","false","2717.644999967888","<div align=left> You will now have time to practice this task.<br><br>Remember: <br> <br><li>Please place your index fingers on the <strong>'S'</strong> and <strong>'L'</strong> keys <br>to respond as fast and accurately as possible.</li><li>Every picture can be classified as either mechanical or non-mechanical.</li><li>If you do not respond in time or commit an error, you will receive a corresponding feedback. </li><li> Please try to respond as <strong> fast </strong> and as <strong> accurately as possible </strong> .<br><li>To ensure optimal results, please minimize distractions and stay focused. </li><br><br>Press SPACE to continue.</div>","32","","","","","","","","","","","","","","","","","","","",""
"html-keyboard-response","11","78964","0.0-2.0-2.0-0.0","2dpqn5185o2p7kk","practice_no_cue","5ec9d530f7f5db50c71639de","5f60e3c0a3b16e07647b2ff9","5f638023a98c9c06ec257155","false","null","<span style=""color: black; font-size: 48px"">M + N</span>","null","","","","resp_prompt","","","","","","","","","","","","","","","",""
"categorize-image","12","80616","0.0-2.0-2.0-1.0","2dpqn5185o2p7kk","practice_no_cue","5ec9d530f7f5db50c71639de","5f60e3c0a3b16e07647b2ff9","5f638023a98c9c06ec257155","true","1147.0900001004338","./Stimuli/ImagesPractice/SM98.jpg","83","","","","test","true","M + N","83","","SM","SM98.jpg","forget","old","1","1","start","left","","","",""
"html-keyboard-response","13","81319","0.0-2.0-2.0-0.1","2dpqn5185o2p7kk","practice_no_cue","5ec9d530f7f5db50c71639de","5f60e3c0a3b16e07647b2ff9","5f638023a98c9c06ec257155","false","null","<span style=""color: black; font-size: 48px"">M + N</span>","null","","","","resp_prompt","","","","","","","","","","","","","","","",""
"categorize-image","14","82444","0.0-2.0-2.0-1.1","2dpqn5185o2p7kk","practice_no_cue","5ec9d530f7f5db50c71639de","5f60e3c0a3b16e07647b2ff9","5f638023a98c9c06ec257155","true","621.4250000193715","./Stimuli/ImagesPractice/SM61.jpg","83","","","","test","true","M + N","83","","SM","SM61.jpg","remember","old","2","1","start","left","","","",""
"html-keyboard-response","15","83145","0.0-2.0-2.0-0.2","2dpqn5185o2p7kk","practice_no_cue","5ec9d530f7f5db50c71639de","5f60e3c0a3b16e07647b2ff9","5f638023a98c9c06ec257155","false","null","<span style=""color: black; font-size: 48px"">M + N</span>","null","","","","resp_prompt","","","","","","","","","","","","","","","",""
"categorize-image","16","84320","0.0-2.0-2.0-1.2","2dpqn5185o2p7kk","practice_no_cue","5ec9d530f7f5db50c71639de","5f60e3c0a3b16e07647b2ff9","5f638023a98c9c06ec257155","true","672.0750000094995","./Stimuli/ImagesPractice/LN17.jpg","76","","","","test","true","M + N","76","","LN","LN17.jpg","remember","old","3","1","start","right","","","",""
"html-keyboard-response","17","85022","0.0-2.0-2.0-0.3","2dpqn5185o2p7kk","practice_no_cue","5ec9d530f7f5db50c71639de","5f60e3c0a3b16e07647b2ff9","5f638023a98c9c06ec257155","false","null","<span style=""color: black; font-size: 48px"">N + M</span>","null","","","","resp_prompt","","","","","","","","","","","","","","","",""
"categorize-image","18","86791","0.0-2.0-2.0-1.3","2dpqn5185o2p7kk","practice_no_cue","5ec9d530f7f5db50c71639de","5f60e3c0a3b16e07647b2ff9","5f638023a98c9c06ec257155","true","1266.6199998930097","./Stimuli/ImagesPractice/SN220.jpg","83","","","","test","true","N + M","83","","SN","SN220.jpg","forget","old","4","1","start","left","","","",""
"html-keyboard-response","19","87493","0.0-2.0-2.0-0.4","2dpqn5185o2p7kk","practice_no_cue","5ec9d530f7f5db50c71639de","5f60e3c0a3b16e07647b2ff9","5f638023a98c9c06ec257155","false","null","<span style=""color: black; font-size: 48px"">N + M</span>","null","","","","resp_prompt","","","","","","","","","","","","","","","",""
"categorize-image","20","89063","0.0-2.0-2.0-1.4","2dpqn5185o2p7kk","practice_no_cue","5ec9d530f7f5db50c71639de","5f60e3c0a3b16e07647b2ff9","5f638023a98c9c06ec257155","true","1067.1999999321997","./Stimuli/ImagesPractice/LM143.jpg","76","","","","test","true","N + M","76","","LM","LM143.jpg","forget","old","5","1","start","right","","","",""
"html-keyboard-response","21","89765","0.0-2.0-2.0-0.5","2dpqn5185o2p7kk","practice_no_cue","5ec9d530f7f5db50c71639de","5f60e3c0a3b16e07647b2ff9","5f638023a98c9c06ec257155","false","null","<span style=""color: black; font-size: 48px"">N + M</span>","null","","","","resp_prompt","","","","","","","","","","","","","","","",""
"categorize-image","22","91048","0.0-2.0-2.0-1.5","2dpqn5185o2p7kk","practice_no_cue","5ec9d530f7f5db50c71639de","5f60e3c0a3b16e07647b2ff9","5f638023a98c9c06ec257155","true","778.4649999812245","./Stimuli/ImagesPractice/LN15.jpg","83","","","","test","true","N + M","83","","LN","LN15.jpg","remember","old","6","1","start","left","","","",""
"html-keyboard-response","23","91751","0.0-2.0-2.0-0.6","2dpqn5185o2p7kk","practice_no_cue","5ec9d530f7f5db50c71639de","5f60e3c0a3b16e07647b2ff9","5f638023a98c9c06ec257155","false","null","<span style=""color: black; font-size: 48px"">N + M</span>","null","","","","resp_prompt","","","","","","","","","","","","","","","",""
"categorize-image","24","92823","0.0-2.0-2.0-1.6","2dpqn5185o2p7kk","practice_no_cue","5ec9d530f7f5db50c71639de","5f60e3c0a3b16e07647b2ff9","5f638023a98c9c06ec257155","true","569.9099999619648","./Stimuli/ImagesPractice/LM230.jpg","76","","","","test","true","N + M","76","","LM","LM230.jpg","remember","old","7","1","start","right","","","",""
"html-keyboard-response","25","93525","0.0-2.0-2.0-0.7","2dpqn5185o2p7kk","practice_no_cue","5ec9d530f7f5db50c71639de","5f60e3c0a3b16e07647b2ff9","5f638023a98c9c06ec257155","false","null","<span style=""color: black; font-size: 48px"">M + N</span>","null","","","","resp_prompt","","","","","","","","","","","","","","","",""
"categorize-image","26","94649","0.0-2.0-2.0-1.7","2dpqn5185o2p7kk","practice_no_cue","5ec9d530f7f5db50c71639de","5f60e3c0a3b16e07647b2ff9","5f638023a98c9c06ec257155","true","620.725000044331","./Stimuli/ImagesPractice/SN205.jpg","76","","","","test","true","M + N","76","","SN","SN205.jpg","forget","old","8","1","start","right","","","",""
"html-keyboard-response","27","95351","0.0-2.0-2.0-0.8","2dpqn5185o2p7kk","practice_no_cue","5ec9d530f7f5db50c71639de","5f60e3c0a3b16e07647b2ff9","5f638023a98c9c06ec257155","false","null","<span style=""color: black; font-size: 48px"">M + N</span>","null","","","","resp_prompt","","","","","","","","","","","","","","","",""
"categorize-image","28","96617","0.0-2.0-2.0-1.8","2dpqn5185o2p7kk","practice_no_cue","5ec9d530f7f5db50c71639de","5f60e3c0a3b16e07647b2ff9","5f638023a98c9c06ec257155","true","762.8300000214949","./Stimuli/ImagesPractice/LM55.jpg","83","","","","test","true","M + N","83","","LM","LM55.jpg","remember","old","9","1","start","left","","","",""
"html-keyboard-response","29","97320","0.0-2.0-2.0-0.9","2dpqn5185o2p7kk","practice_no_cue","5ec9d530f7f5db50c71639de","5f60e3c0a3b16e07647b2ff9","5f638023a98c9c06ec257155","false","null","<span style=""color: black; font-size: 48px"">N + M</span>","null","","","","resp_prompt","","","","","","","","","","","","","","","",""
"categorize-image","30","98618","0.0-2.0-2.0-1.9","2dpqn5185o2p7kk","practice_no_cue","5ec9d530f7f5db50c71639de","5f60e3c0a3b16e07647b2ff9","5f638023a98c9c06ec257155","true","791.399999987334","./Stimuli/ImagesPractice/LN109.jpg","83","","","","test","true","N + M","83","","LN","LN109.jpg","forget","old","10","1","start","left","","","",""
"html-keyboard-response","31","99320","0.0-2.0-2.0-0.10","2dpqn5185o2p7kk","practice_no_cue","5ec9d530f7f5db50c71639de","5f60e3c0a3b16e07647b2ff9","5f638023a98c9c06ec257155","false","null","<span style=""color: black; font-size: 48px"">M + N</span>","null","","","","resp_prompt","","","","","","","","","","","","","","","",""
"categorize-image","32","100492","0.0-2.0-2.0-1.10","2dpqn5185o2p7kk","practice_no_cue","5ec9d530f7f5db50c71639de","5f60e3c0a3b16e07647b2ff9","5f638023a98c9c06ec257155","true","668.379999930039","./Stimuli/ImagesPractice/SN76.jpg","76","","","","test","true","M + N","76","","SN","SN76.jpg","forget","old","11","1","start","right","","","",""
"html-keyboard-response","33","101194","0.0-2.0-2.0-0.11","2dpqn5185o2p7kk","practice_no_cue","5ec9d530f7f5db50c71639de","5f60e3c0a3b16e07647b2ff9","5f638023a98c9c06ec257155","false","null","<span style=""color: black; font-size: 48px"">N + M</span>","null","","","","resp_prompt","","","","","","","","","","","","","","","",""
"categorize-image","34","102328","0.0-2.0-2.0-1.11","2dpqn5185o2p7kk","practice_no_cue","5ec9d530f7f5db50c71639de","5f60e3c0a3b16e07647b2ff9","5f638023a98c9c06ec257155","true","631.580000044778","./Stimuli/ImagesPractice/LM224.jpg","76","","","","test","true","N + M","76","","LM","LM224.jpg","remember","old","12","1","start","right","","","",""
"html-keyboard-response","35","103030","0.0-2.0-2.0-0.12","2dpqn5185o2p7kk","practice_no_cue","5ec9d530f7f5db50c71639de","5f60e3c0a3b16e07647b2ff9","5f638023a98c9c06ec257155","false","null","<span style=""color: black; font-size: 48px"">M + N</span>","null","","","","resp_prompt","","","","","","","","","","","","","","","",""
"categorize-image","36","104228","0.0-2.0-2.0-1.12","2dpqn5185o2p7kk","practice_no_cue","5ec9d530f7f5db50c71639de","5f60e3c0a3b16e07647b2ff9","5f638023a98c9c06ec257155","true","695.3249999787658","./Stimuli/ImagesPractice/LN2.jpg","76","","","","test","true","M + N","76","","LN","LN2.jpg","remember","old","13","1","start","right","","","",""
"html-keyboard-response","37","104929","0.0-2.0-2.0-0.13","2dpqn5185o2p7kk","practice_no_cue","5ec9d530f7f5db50c71639de","5f60e3c0a3b16e07647b2ff9","5f638023a98c9c06ec257155","false","null","<span style=""color: black; font-size: 48px"">N + M</span>","null","","","","resp_prompt","","","","","","","","","","","","","","","",""
"categorize-image","38","106051","0.0-2.0-2.0-1.13","2dpqn5185o2p7kk","practice_no_cue","5ec9d530f7f5db50c71639de","5f60e3c0a3b16e07647b2ff9","5f638023a98c9c06ec257155","true","618.929999996908","./Stimuli/ImagesPractice/LN4.jpg","83","","","","test","true","N + M","83","","LN","LN4.jpg","forget","old","14","1","start","left","","","",""
"html-keyboard-response","39","106752","0.0-2.0-2.0-0.14","2dpqn5185o2p7kk","practice_no_cue","5ec9d530f7f5db50c71639de","5f60e3c0a3b16e07647b2ff9","5f638023a98c9c06ec257155","false","null","<span style=""color: black; font-size: 48px"">M + N</span>","null","","","","resp_prompt","","","","","","","","","","","","","","","",""
"categorize-image","40","108218","0.0-2.0-2.0-1.14","2dpqn5185o2p7kk","practice_no_cue","5ec9d530f7f5db50c71639de","5f60e3c0a3b16e07647b2ff9","5f638023a98c9c06ec257155","true","963.554999907501","./Stimuli/ImagesPractice/LM239.jpg","76","","","","test","false","M + N","83","","LM","LM239.jpg","forget","old","15","1","start","right","","","",""
"html-keyboard-response","41","108920","0.0-2.0-2.0-0.15","2dpqn5185o2p7kk","practice_no_cue","5ec9d530f7f5db50c71639de","5f60e3c0a3b16e07647b2ff9","5f638023a98c9c06ec257155","false","null","<span style=""color: black; font-size: 48px"">N + M</span>","null","","","","resp_prompt","","","","","","","","","","","","","","","",""
"categorize-image","42","110605","0.0-2.0-2.0-1.15","2dpqn5185o2p7kk","practice_no_cue","5ec9d530f7f5db50c71639de","5f60e3c0a3b16e07647b2ff9","5f638023a98c9c06ec257155","true","1181.0950000071898","./Stimuli/ImagesPractice/SM35.jpg","76","","","","test","true","N + M","76","","SM","SM35.jpg","remember","old","16","1","start","right","","","",""
"html-keyboard-response","43","116847","0.0-2.0-3.0","2dpqn5185o2p7kk","break","5ec9d530f7f5db50c71639de","5f60e3c0a3b16e07647b2ff9","5f638023a98c9c06ec257155","false","6239.350000047125","<p style='font-size: 32px;'>Break</><br><br><br><br><br><p style='font-size: 24px;'>In the last block, you committed 1 errors and did not respond in time on 0 trials.
</p><p style='font-size: 24px;'>Try to respond as fast and accurately as possible in the next block as well! </p><p style='font-size: 24px;'>Press SPACE to continue.</p>","32","","","","","","","","","","","","","","","","","","","",""
"html-keyboard-response","44","121381","0.0-2.0-4.0","2dpqn5185o2p7kk","instructions","5ec9d530f7f5db50c71639de","5f60e3c0a3b16e07647b2ff9","5f638023a98c9c06ec257155","false","4531.669999938458","<div align=left> Great!<br><br>Are you ready to continue?<br><br>If you want to reread the instructions and redo the practice trials, <br>please press „Z“. <br><br>Press SPACE to CONTINUE with the experiment when you are ready. </div>","32","","","","","","","","","","","","","","","","","","","",""
"html-keyboard-response","45","131175","0.0-3.0-0.0","2dpqn5185o2p7kk","instructions","5ec9d530f7f5db50c71639de","5f60e3c0a3b16e07647b2ff9","5f638023a98c9c06ec257155","false","9792.415000032634","<div align=left>Great!<br> <strong>Attention</strong>! You will now receive a second, additional task! <br><br>To this point it was you <strong>first task</strong> to correctly <strong>classify objects</strong>. <br><br>As mentioned in the beginning, we aim to examine how well humans can remember previously learned information.<br>We would like to find out whether our memory improves if we only remember information that is relevant to us. <br><br>Therefore, your <strong>second task</strong> will be to <strong>remember</strong> the pictures you are to categorize. <br> After the learning phase, there will be a memory test phase, in which you will be asked to indicate whether you have seen a picture before or not. <br>Some, but not all pictures shown in the learning phase will appear in the memory test phase.<br>After classifying a picture, you will be told whether you should remember it for the memory test phase or not. <br>Thus, some pictures can be forgotten, whereas others have to be remembered. <br><br>Note: From now on, feedback will only be displayed if you responded incorrectly or not in time.<br><br>Press SPACE to continue.</div>","32","","","","","","","","","","","","","","","","","","","",""
"html-keyboard-response","46","139982","0.0-3.0-1.0","2dpqn5185o2p7kk","instructions","5ec9d530f7f5db50c71639de","5f60e3c0a3b16e07647b2ff9","5f638023a98c9c06ec257155","false","8804.815000039525","<div align=left>In the following part, you will thus have to remember only some pictures. <br>Immediately after seeing and classifying the picture, a symbol will be displayed, indicating whether you should remember or forget the previous picture. <br><br>A <span style='color: dodgerblue; font-size: 28px'>O</span> indicates REMEMBER. That means, you have to remember this picture, because it will be tested later. <br><br>A <span style='color: darkorange; font-size:28px'>Ø</span> indicates FORGET. You do not have to remember this picture. <br><br> As you will have to remember a lot of pictures, it will be hard for you to remember all of them. <br>It will put you at an advantage if you instantly forget the pictures you are not asked to remember. <br> This will make it easier for you to remember the pictures that will be tested afterwards. <br><br>Press SPACE to continue.</div>","32","","","","","","","","","","","","","","","","","","","",""
"html-keyboard-response","47","142488","0.0-3.0-2.0","2dpqn5185o2p7kk","instructions","5ec9d530f7f5db50c71639de","5f60e3c0a3b16e07647b2ff9","5f638023a98c9c06ec257155","false","2504.7499999636784","<div align=left> Now you have the chance to practice both tasks together.<br><br>Remember: <br> <br><li>Please place your index fingers on the <strong>'S'</strong> and <strong>'L'</strong> keys <br>to respond as fast and accurately as possible.</li><li>Every picture can be classified as either mechanical or non-mechanical.</li><li>If you do not respond in time or commit an error, you will receive a corresponding feedback. <br>Please try to respond as <strong> fast </strong> and as <strong> accurately as possible </strong>.</li><li> Please remember only the to-be-remembered <span style='color: dodgerblue; font-size: 28px'>O</span> pictures. <br></li><li> Please minimize distractions and stay focused. </li><br><br>Press SPACE to START</div>","32","","","","","","","","","","","","","","","","","","","",""
"html-keyboard-response","48","143191","0.0-3.0-3.0-0.0","2dpqn5185o2p7kk","practice_cue","5ec9d530f7f5db50c71639de","5f60e3c0a3b16e07647b2ff9","5f638023a98c9c06ec257155","false","null","<span style=""color: black; font-size: 48px"">N + M</span>","null","","","","resp_prompt","","","","","","","","","","","","","","","",""
"categorize-image","49","144064","0.0-3.0-3.0-1.0","2dpqn5185o2p7kk","practice_cue","5ec9d530f7f5db50c71639de","5f60e3c0a3b16e07647b2ff9","5f638023a98c9c06ec257155","true","867.9700000211596","./Stimuli/ImagesPractice/LM230.jpg","76","","","","test","true","N + M","76","","LM","LM230.jpg","remember","old","17","2","practice_forget","right","","","",""
"html-keyboard-response","50","146067","0.0-3.0-3.0-3.0","2dpqn5185o2p7kk","practice_cue","5ec9d530f7f5db50c71639de","5f60e3c0a3b16e07647b2ff9","5f638023a98c9c06ec257155","false","null","<div style=""align-items: center; display: flex; color: dodgerblue; font-size: 90px""><b>o</b></div>","null","","","","forget_cue","","","","","","","","","","","","","","","",""
"html-keyboard-response","51","146769","0.0-3.0-3.0-0.1","2dpqn5185o2p7kk","practice_cue","5ec9d530f7f5db50c71639de","5f60e3c0a3b16e07647b2ff9","5f638023a98c9c06ec257155","false","null","<span style=""color: black; font-size: 48px"">M + N</span>","null","","","","resp_prompt","","","","","","","","","","","","","","","",""
"categorize-image","52","147799","0.0-3.0-3.0-1.1","2dpqn5185o2p7kk","practice_cue","5ec9d530f7f5db50c71639de","5f60e3c0a3b16e07647b2ff9","5f638023a98c9c06ec257155","true","1026.0600000619888","./Stimuli/ImagesPractice/SM98.jpg","83","","","","test","true","M + N","83","","SM","SM98.jpg","forget","old","18","2","practice_forget","left","","","",""
"html-keyboard-response","53","149801","0.0-3.0-3.0-3.1","2dpqn5185o2p7kk","practice_cue","5ec9d530f7f5db50c71639de","5f60e3c0a3b16e07647b2ff9","5f638023a98c9c06ec257155","false","null","<div style=""align-items: center; display: flex; color: darkorange; font-size: 90px""><b>ø</b></div>","null","","","","forget_cue","","","","","","","","","","","","","","","",""
"html-keyboard-response","54","150503","0.0-3.0-3.0-0.2","2dpqn5185o2p7kk","practice_cue","5ec9d530f7f5db50c71639de","5f60e3c0a3b16e07647b2ff9","5f638023a98c9c06ec257155","false","null","<span style=""color: black; font-size: 48px"">N + M</span>","null","","","","resp_prompt","","","","","","","","","","","","","","","",""
"categorize-image","55","151560","0.0-3.0-3.0-1.2","2dpqn5185o2p7kk","practice_cue","5ec9d530f7f5db50c71639de","5f60e3c0a3b16e07647b2ff9","5f638023a98c9c06ec257155","true","1052.8300000587478","./Stimuli/ImagesPractice/LN4.jpg","83","","","","test","true","N + M","83","","LN","LN4.jpg","forget","old","19","2","practice_forget","left","","","",""
"html-keyboard-response","56","153562","0.0-3.0-3.0-3.2","2dpqn5185o2p7kk","practice_cue","5ec9d530f7f5db50c71639de","5f60e3c0a3b16e07647b2ff9","5f638023a98c9c06ec257155","false","null","<div style=""align-items: center; display: flex; color: darkorange; font-size: 90px""><b>ø</b></div>","null","","","","forget_cue","","","","","","","","","","","","","","","",""
"html-keyboard-response","57","154263","0.0-3.0-3.0-0.3","2dpqn5185o2p7kk","practice_cue","5ec9d530f7f5db50c71639de","5f60e3c0a3b16e07647b2ff9","5f638023a98c9c06ec257155","false","null","<span style=""color: black; font-size: 48px"">N + M</span>","null","","","","resp_prompt","","","","","","","","","","","","","","","",""
"categorize-image","58","155052","0.0-3.0-3.0-1.3","2dpqn5185o2p7kk","practice_cue","5ec9d530f7f5db50c71639de","5f60e3c0a3b16e07647b2ff9","5f638023a98c9c06ec257155","true","783.8150000898167","./Stimuli/ImagesPractice/SM35.jpg","76","","","","test","true","N + M","76","","SM","SM35.jpg","remember","old","20","2","practice_forget","right","","","",""
"html-keyboard-response","59","157054","0.0-3.0-3.0-3.3","2dpqn5185o2p7kk","practice_cue","5ec9d530f7f5db50c71639de","5f60e3c0a3b16e07647b2ff9","5f638023a98c9c06ec257155","false","null","<div style=""align-items: center; display: flex; color: dodgerblue; font-size: 90px""><b>o</b></div>","null","","","","forget_cue","","","","","","","","","","","","","","","",""
"html-keyboard-response","60","157756","0.0-3.0-3.0-0.4","2dpqn5185o2p7kk","practice_cue","5ec9d530f7f5db50c71639de","5f60e3c0a3b16e07647b2ff9","5f638023a98c9c06ec257155","false","null","<span style=""color: black; font-size: 48px"">M + N</span>","null","","","","resp_prompt","","","","","","","","","","","","","","","",""
"categorize-image","61","159339","0.0-3.0-3.0-1.4","2dpqn5185o2p7kk","practice_cue","5ec9d530f7f5db50c71639de","5f60e3c0a3b16e07647b2ff9","5f638023a98c9c06ec257155","true","1578.1299999216571","./Stimuli/ImagesPractice/LM239.jpg","76","","","","test","false","M + N","83","","LM","LM239.jpg","forget","old","21","2","practice_forget","right","","","",""
"html-keyboard-response","62","159842","0.0-3.0-3.0-2.4-0.4","2dpqn5185o2p7kk","practice_cue","5ec9d530f7f5db50c71639de","5f60e3c0a3b16e07647b2ff9","5f638023a98c9c06ec257155","false","null","<span style=""color: red; font-size: 48px"">Error!</span>","null","","","","feedback","","","","","","","","","","","","","","","",""
"html-keyboard-response","63","161843","0.0-3.0-3.0-3.4","2dpqn5185o2p7kk","practice_cue","5ec9d530f7f5db50c71639de","5f60e3c0a3b16e07647b2ff9","5f638023a98c9c06ec257155","false","null","<div style=""align-items: center; display: flex; color: darkorange; font-size: 90px""><b>ø</b></div>","null","","","","forget_cue","","","","","","","","","","","","","","","",""
"html-keyboard-response","64","162545","0.0-3.0-3.0-0.5","2dpqn5185o2p7kk","practice_cue","5ec9d530f7f5db50c71639de","5f60e3c0a3b16e07647b2ff9","5f638023a98c9c06ec257155","false","null","<span style=""color: black; font-size: 48px"">M + N</span>","null","","","","resp_prompt","","","","","","","","","","","","","","","",""
"categorize-image","65","163146","0.0-3.0-3.0-1.5","2dpqn5185o2p7kk","practice_cue","5ec9d530f7f5db50c71639de","5f60e3c0a3b16e07647b2ff9","5f638023a98c9c06ec257155","true","597.1099999733269","./Stimuli/ImagesPractice/LN2.jpg","76","","","","test","true","M + N","76","","LN","LN2.jpg","remember","old","22","2","practice_forget","right","","","",""
"html-keyboard-response","66","165148","0.0-3.0-3.0-3.5","2dpqn5185o2p7kk","practice_cue","5ec9d530f7f5db50c71639de","5f60e3c0a3b16e07647b2ff9","5f638023a98c9c06ec257155","false","null","<div style=""align-items: center; display: flex; color: dodgerblue; font-size: 90px""><b>o</b></div>","null","","","","forget_cue","","","","","","","","","","","","","","","",""
"html-keyboard-response","67","165850","0.0-3.0-3.0-0.6","2dpqn5185o2p7kk","practice_cue","5ec9d530f7f5db50c71639de","5f60e3c0a3b16e07647b2ff9","5f638023a98c9c06ec257155","false","null","<span style=""color: black; font-size: 48px"">N + M</span>","null","","","","resp_prompt","","","","","","","","","","","","","","","",""
"categorize-image","68","166837","0.0-3.0-3.0-1.6","2dpqn5185o2p7kk","practice_cue","5ec9d530f7f5db50c71639de","5f60e3c0a3b16e07647b2ff9","5f638023a98c9c06ec257155","true","983.0549999605864","./Stimuli/ImagesPractice/LN15.jpg","83","","","","test","true","N + M","83","","LN","LN15.jpg","remember","old","23","2","practice_forget","left","","","",""
"html-keyboard-response","69","168839","0.0-3.0-3.0-3.6","2dpqn5185o2p7kk","practice_cue","5ec9d530f7f5db50c71639de","5f60e3c0a3b16e07647b2ff9","5f638023a98c9c06ec257155","false","null","<div style=""align-items: center; display: flex; color: dodgerblue; font-size: 90px""><b>o</b></div>","null","","","","forget_cue","","","","","","","","","","","","","","","",""
"html-keyboard-response","70","169540","0.0-3.0-3.0-0.7","2dpqn5185o2p7kk","practice_cue","5ec9d530f7f5db50c71639de","5f60e3c0a3b16e07647b2ff9","5f638023a98c9c06ec257155","false","null","<span style=""color: black; font-size: 48px"">M + N</span>","null","","","","resp_prompt","","","","","","","","","","","","","","","",""
"categorize-image","71","170479","0.0-3.0-3.0-1.7","2dpqn5185o2p7kk","practice_cue","5ec9d530f7f5db50c71639de","5f60e3c0a3b16e07647b2ff9","5f638023a98c9c06ec257155","true","934.0700000757352","./Stimuli/ImagesPractice/LN17.jpg","76","","","","test","true","M + N","76","","LN","LN17.jpg","remember","old","24","2","practice_forget","right","","","",""
"html-keyboard-response","72","172481","0.0-3.0-3.0-3.7","2dpqn5185o2p7kk","practice_cue","5ec9d530f7f5db50c71639de","5f60e3c0a3b16e07647b2ff9","5f638023a98c9c06ec257155","false","null","<div style=""align-items: center; display: flex; color: dodgerblue; font-size: 90px""><b>o</b></div>","null","","","","forget_cue","","","","","","","","","","","","","","","",""
"html-keyboard-response","73","173184","0.0-3.0-3.0-0.8","2dpqn5185o2p7kk","practice_cue","5ec9d530f7f5db50c71639de","5f60e3c0a3b16e07647b2ff9","5f638023a98c9c06ec257155","false","null","<span style=""color: black; font-size: 48px"">M + N</span>","null","","","","resp_prompt","","","","","","","","","","","","","","","",""
"categorize-image","74","173964","0.0-3.0-3.0-1.8","2dpqn5185o2p7kk","practice_cue","5ec9d530f7f5db50c71639de","5f60e3c0a3b16e07647b2ff9","5f638023a98c9c06ec257155","true","775.264999945648","./Stimuli/ImagesPractice/SN76.jpg","76","","","","test","true","M + N","76","","SN","SN76.jpg","forget","old","25","2","practice_forget","right","","","",""
"html-keyboard-response","75","175966","0.0-3.0-3.0-3.8","2dpqn5185o2p7kk","practice_cue","5ec9d530f7f5db50c71639de","5f60e3c0a3b16e07647b2ff9","5f638023a98c9c06ec257155","false","null","<div style=""align-items: center; display: flex; color: darkorange; font-size: 90px""><b>ø</b></div>","null","","","","forget_cue","","","","","","","","","","","","","","","",""
"html-keyboard-response","76","176667","0.0-3.0-3.0-0.9","2dpqn5185o2p7kk","practice_cue","5ec9d530f7f5db50c71639de","5f60e3c0a3b16e07647b2ff9","5f638023a98c9c06ec257155","false","null","<span style=""color: black; font-size: 48px"">N + M</span>","null","","","","resp_prompt","","","","","","","","","","","","","","","",""
"categorize-image","77","177555","0.0-3.0-3.0-1.9","2dpqn5185o2p7kk","practice_cue","5ec9d530f7f5db50c71639de","5f60e3c0a3b16e07647b2ff9","5f638023a98c9c06ec257155","true","882.9849999165162","./Stimuli/ImagesPractice/LM143.jpg","76","","","","test","true","N + M","76","","LM","LM143.jpg","forget","old","26","2","practice_forget","right","","","",""
"html-keyboard-response","78","179559","0.0-3.0-3.0-3.9","2dpqn5185o2p7kk","practice_cue","5ec9d530f7f5db50c71639de","5f60e3c0a3b16e07647b2ff9","5f638023a98c9c06ec257155","false","null","<div style=""align-items: center; display: flex; color: darkorange; font-size: 90px""><b>ø</b></div>","null","","","","forget_cue","","","","","","","","","","","","","","","",""
"html-keyboard-response","79","180260","0.0-3.0-3.0-0.10","2dpqn5185o2p7kk","practice_cue","5ec9d530f7f5db50c71639de","5f60e3c0a3b16e07647b2ff9","5f638023a98c9c06ec257155","false","null","<span style=""color: black; font-size: 48px"">N + M</span>","null","","","","resp_prompt","","","","","","","","","","","","","","","",""
"categorize-image","80","181193","0.0-3.0-3.0-1.10","2dpqn5185o2p7kk","practice_cue","5ec9d530f7f5db50c71639de","5f60e3c0a3b16e07647b2ff9","5f638023a98c9c06ec257155","true","927.4399999994785","./Stimuli/ImagesPractice/LN109.jpg","83","","","","test","true","N + M","83","","LN","LN109.jpg","forget","old","27","2","practice_forget","left","","","",""
"html-keyboard-response","81","183196","0.0-3.0-3.0-3.10","2dpqn5185o2p7kk","practice_cue","5ec9d530f7f5db50c71639de","5f60e3c0a3b16e07647b2ff9","5f638023a98c9c06ec257155","false","null","<div style=""align-items: center; display: flex; color: darkorange; font-size: 90px""><b>ø</b></div>","null","","","","forget_cue","","","","","","","","","","","","","","","",""
"html-keyboard-response","82","183898","0.0-3.0-3.0-0.11","2dpqn5185o2p7kk","practice_cue","5ec9d530f7f5db50c71639de","5f60e3c0a3b16e07647b2ff9","5f638023a98c9c06ec257155","false","null","<span style=""color: black; font-size: 48px"">M + N</span>","null","","","","resp_prompt","","","","","","","","","","","","","","","",""
"categorize-image","83","184892","0.0-3.0-3.0-1.11","2dpqn5185o2p7kk","practice_cue","5ec9d530f7f5db50c71639de","5f60e3c0a3b16e07647b2ff9","5f638023a98c9c06ec257155","true","989.8950000060722","./Stimuli/ImagesPractice/LM55.jpg","76","","","","test","false","M + N","83","","LM","LM55.jpg","remember","old","28","2","practice_forget","right","","","",""
"html-keyboard-response","84","185394","0.0-3.0-3.0-2.11-0.11","2dpqn5185o2p7kk","practice_cue","5ec9d530f7f5db50c71639de","5f60e3c0a3b16e07647b2ff9","5f638023a98c9c06ec257155","false","null","<span style=""color: red; font-size: 48px"">Error!</span>","null","","","","feedback","","","","","","","","","","","","","","","",""
"html-keyboard-response","85","187396","0.0-3.0-3.0-3.11","2dpqn5185o2p7kk","practice_cue","5ec9d530f7f5db50c71639de","5f60e3c0a3b16e07647b2ff9","5f638023a98c9c06ec257155","false","null","<div style=""align-items: center; display: flex; color: dodgerblue; font-size: 90px""><b>o</b></div>","null","","","","forget_cue","","","","","","","","","","","","","","","",""
"html-keyboard-response","86","188098","0.0-3.0-3.0-0.12","2dpqn5185o2p7kk","practice_cue","5ec9d530f7f5db50c71639de","5f60e3c0a3b16e07647b2ff9","5f638023a98c9c06ec257155","false","null","<span style=""color: black; font-size: 48px"">M + N</span>","null","","","","resp_prompt","","","","","","","","","","","","","","","",""
"categorize-image","87","189409","0.0-3.0-3.0-1.12","2dpqn5185o2p7kk","practice_cue","5ec9d530f7f5db50c71639de","5f60e3c0a3b16e07647b2ff9","5f638023a98c9c06ec257155","true","1306.0450000921264","./Stimuli/ImagesPractice/SN205.jpg","76","","","","test","true","M + N","76","","SN","SN205.jpg","forget","old","29","2","practice_forget","right","","","",""
"html-keyboard-response","88","191411","0.0-3.0-3.0-3.12","2dpqn5185o2p7kk","practice_cue","5ec9d530f7f5db50c71639de","5f60e3c0a3b16e07647b2ff9","5f638023a98c9c06ec257155","false","null","<div style=""align-items: center; display: flex; color: darkorange; font-size: 90px""><b>ø</b></div>","null","","","","forget_cue","","","","","","","","","","","","","","","",""
"html-keyboard-response","89","192114","0.0-3.0-3.0-0.13","2dpqn5185o2p7kk","practice_cue","5ec9d530f7f5db50c71639de","5f60e3c0a3b16e07647b2ff9","5f638023a98c9c06ec257155","false","null","<span style=""color: black; font-size: 48px"">M + N</span>","null","","","","resp_prompt","","","","","","","","","","","","","","","",""
"categorize-image","90","193170","0.0-3.0-3.0-1.13","2dpqn5185o2p7kk","practice_cue","5ec9d530f7f5db50c71639de","5f60e3c0a3b16e07647b2ff9","5f638023a98c9c06ec257155","true","1051.8350000493228","./Stimuli/ImagesPractice/SM61.jpg","83","","","","test","true","M + N","83","","SM","SM61.jpg","remember","old","30","2","practice_forget","left","","","",""
"html-keyboard-response","91","195172","0.0-3.0-3.0-3.13","2dpqn5185o2p7kk","practice_cue","5ec9d530f7f5db50c71639de","5f60e3c0a3b16e07647b2ff9","5f638023a98c9c06ec257155","false","null","<div style=""align-items: center; display: flex; color: dodgerblue; font-size: 90px""><b>o</b></div>","null","","","","forget_cue","","","","","","","","","","","","","","","",""
"html-keyboard-response","92","195873","0.0-3.0-3.0-0.14","2dpqn5185o2p7kk","practice_cue","5ec9d530f7f5db50c71639de","5f60e3c0a3b16e07647b2ff9","5f638023a98c9c06ec257155","false","null","<span style=""color: black; font-size: 48px"">N + M</span>","null","","","","resp_prompt","","","","","","","","","","","","","","","",""
"categorize-image","93","196681","0.0-3.0-3.0-1.14","2dpqn5185o2p7kk","practice_cue","5ec9d530f7f5db50c71639de","5f60e3c0a3b16e07647b2ff9","5f638023a98c9c06ec257155","true","803.804999915883","./Stimuli/ImagesPractice/LM224.jpg","76","","","","test","true","N + M","76","","LM","LM224.jpg","remember","old","31","2","practice_forget","right","","","",""
"html-keyboard-response","94","198683","0.0-3.0-3.0-3.14","2dpqn5185o2p7kk","practice_cue","5ec9d530f7f5db50c71639de","5f60e3c0a3b16e07647b2ff9","5f638023a98c9c06ec257155","false","null","<div style=""align-items: center; display: flex; color: dodgerblue; font-size: 90px""><b>o</b></div>","null","","","","forget_cue","","","","","","","","","","","","","","","",""
"html-keyboard-response","95","199384","0.0-3.0-3.0-0.15","2dpqn5185o2p7kk","practice_cue","5ec9d530f7f5db50c71639de","5f60e3c0a3b16e07647b2ff9","5f638023a98c9c06ec257155","false","null","<span style=""color: black; font-size: 48px"">N + M</span>","null","","","","resp_prompt","","","","","","","","","","","","","","","",""
"categorize-image","96","200179","0.0-3.0-3.0-1.15","2dpqn5185o2p7kk","practice_cue","5ec9d530f7f5db50c71639de","5f60e3c0a3b16e07647b2ff9","5f638023a98c9c06ec257155","true","788.8549999333918","./Stimuli/ImagesPractice/SN220.jpg","83","","","","test","true","N + M","83","","SN","SN220.jpg","forget","old","32","2","practice_forget","left","","","",""
"html-keyboard-response","97","202181","0.0-3.0-3.0-3.15","2dpqn5185o2p7kk","practice_cue","5ec9d530f7f5db50c71639de","5f60e3c0a3b16e07647b2ff9","5f638023a98c9c06ec257155","false","null","<div style=""align-items: center; display: flex; color: darkorange; font-size: 90px""><b>ø</b></div>","null","","","","forget_cue","","","","","","","","","","","","","","","",""
"html-keyboard-response","98","203699","0.0-3.0-4.0","2dpqn5185o2p7kk","break","5ec9d530f7f5db50c71639de","5f60e3c0a3b16e07647b2ff9","5f638023a98c9c06ec257155","false","1516.6849999222904","<p style='font-size: 32px;'>Break</><br><br><br><br><br><p style='font-size: 24px;'>In the last block, you committed 2 errors and did not respond in time on 0 trials.
</p><p style='font-size: 24px;'>Try to respond as fast and accurately as possible in the next block as well! </p><p style='font-size: 24px;'>Press SPACE to continue.</p>","32","","","","","","","","","","","","","","","","","","","",""
"html-keyboard-response","99","207035","0.0-3.0-5.0","2dpqn5185o2p7kk","instructions","5ec9d530f7f5db50c71639de","5f60e3c0a3b16e07647b2ff9","5f638023a98c9c06ec257155","false","3334.0750000206754","<div align=left> Now, to practice, we kindly ask you to remember as many of the to-be-remembered pictures<br>of the previous learning phase as possible.<br><br>The pictures you were instructed to remember were the pictures followed by a <span style='color: dodgerblue; font-size: 28px'>O</span>.<br><br>In this memory test phase, you will also see some new pictures.<br>It is your task to remember whether you were presented with this specific picture in this study so far or not.<br>If you recognize an object (you have already seen it in this study), it is an OLD object. <br>If you do not recognize an object (you have NOT seen it in this study), it is a NEW object. <br><strong> Attention</strong>: As already mentioned, <span style='color: darkorange; font-size:28px'>Ø</span>-pictures will <strong>never</strong> appear in this memory test (neither as new objects). <br><br>Press SPACE to continue. </div>","32","","","","","","","","","","","","","","","","","","","",""
"html-keyboard-response","100","219516","0.0-3.0-6.0","2dpqn5185o2p7kk","instructions","5ec9d530f7f5db50c71639de","5f60e3c0a3b16e07647b2ff9","5f638023a98c9c06ec257155","false","12479.105000034906","<div align=left> M and N no longer will appear on the left/right of the fixation cross. <br>Instead there will be a note at the bottom of the left or right side  <br>indicating which key you should press for an old or new object:  <br> <br>Press the <strong>right</strong> key to classify an object as <strong>old</strong> and press the <strong>left</strong>, to classify an object as <strong>new</strong>.<br>Please classify the objects as new/old by again placing your index finger on the 'S' and 'L' keys <br>and press them accordingly.<br><br><strong>Old:</strong> This object has been presented before. <br><strong>New:</strong> This object has <strong>not</strong> been presented.<br><br>Now please put your right and left index fingers on the 'S' and 'L' keys of your keyboard. <br>Please respond as fast and as accurately as possible!<br><br>Press SPACE to continue. </div>","32","","","","","","","","","","","","","","","","","","","",""
"categorize-image","101","221918","0.0-3.0-7.0-0.0","2dpqn5185o2p7kk","practice_recog","5ec9d530f7f5db50c71639de","5f60e3c0a3b16e07647b2ff9","5f638023a98c9c06ec257155","true","1898.5699999611825","./Stimuli/ImagesPractice/SN221.jpg","76","","","","test","true","","76","","SN","SN221.jpg","","new","33","3","practice_recog","right","","","",""
"categorize-image","102","224948","0.0-3.0-7.0-0.1","2dpqn5185o2p7kk","practice_recog","5ec9d530f7f5db50c71639de","5f60e3c0a3b16e07647b2ff9","5f638023a98c9c06ec257155","true","2526.91000001505","./Stimuli/ImagesPractice/SM35.jpg","76","","","","test","false","","83","","SM","SM35.jpg","","old","34","3","practice_recog","right","","","",""
"categorize-image","103","226920","0.0-3.0-7.0-0.2","2dpqn5185o2p7kk","practice_recog","5ec9d530f7f5db50c71639de","5f60e3c0a3b16e07647b2ff9","5f638023a98c9c06ec257155","true","1467.6949999993667","./Stimuli/ImagesPractice/SN75.jpg","83","","","","test","false","","76","","SN","SN75.jpg","","new","35","3","practice_recog","left","","","",""
"categorize-image","104","228856","0.0-3.0-7.0-0.3","2dpqn5185o2p7kk","practice_recog","5ec9d530f7f5db50c71639de","5f60e3c0a3b16e07647b2ff9","5f638023a98c9c06ec257155","true","1433.8650000281632","./Stimuli/ImagesPractice/SM62.jpg","76","","","","test","true","","76","","SM","SM62.jpg","","new","36","3","practice_recog","right","","","",""
"categorize-image","105","230069","0.0-3.0-7.0-0.4","2dpqn5185o2p7kk","practice_recog","5ec9d530f7f5db50c71639de","5f60e3c0a3b16e07647b2ff9","5f638023a98c9c06ec257155","true","709.6149999415502","./Stimuli/ImagesPractice/LN15.jpg","83","","","","test","true","","83","","LN","LN15.jpg","","old","37","3","practice_recog","left","","","",""
"categorize-image","106","231312","0.0-3.0-7.0-0.5","2dpqn5185o2p7kk","practice_recog","5ec9d530f7f5db50c71639de","5f60e3c0a3b16e07647b2ff9","5f638023a98c9c06ec257155","true","739.6850000368431","./Stimuli/ImagesPractice/LM55.jpg","76","","","","test","false","","83","","LM","LM55.jpg","","old","38","3","practice_recog","right","","","",""
"categorize-image","107","232497","0.0-3.0-7.0-0.6","2dpqn5185o2p7kk","practice_recog","5ec9d530f7f5db50c71639de","5f60e3c0a3b16e07647b2ff9","5f638023a98c9c06ec257155","true","681.940000038594","./Stimuli/ImagesPractice/LN2.jpg","83","","","","test","true","","83","","LN","LN2.jpg","","old","39","3","practice_recog","left","","","",""
"categorize-image","108","233827","0.0-3.0-7.0-0.7","2dpqn5185o2p7kk","practice_recog","5ec9d530f7f5db50c71639de","5f60e3c0a3b16e07647b2ff9","5f638023a98c9c06ec257155","true","826.0449999943376","./Stimuli/ImagesPractice/LN17.jpg","83","","","","test","true","","83","","LN","LN17.jpg","","old","40","3","practice_recog","left","","","",""
"categorize-image","109","234941","0.0-3.0-7.0-0.8","2dpqn5185o2p7kk","practice_recog","5ec9d530f7f5db50c71639de","5f60e3c0a3b16e07647b2ff9","5f638023a98c9c06ec257155","true","611.7599999997765","./Stimuli/ImagesPractice/SM61.jpg","83","","","","test","true","","83","","SM","SM61.jpg","","old","41","3","practice_recog","left","","","",""
"categorize-image","110","236124","0.0-3.0-7.0-0.9","2dpqn5185o2p7kk","practice_recog","5ec9d530f7f5db50c71639de","5f60e3c0a3b16e07647b2ff9","5f638023a98c9c06ec257155","true","680.0649999640882","./Stimuli/ImagesPractice/SM97.jpg","76","","","","test","true","","76","","SM","SM97.jpg","","new","42","3","practice_recog","right","","","",""
"categorize-image","111","237724","0.0-3.0-7.0-0.10","2dpqn5185o2p7kk","practice_recog","5ec9d530f7f5db50c71639de","5f60e3c0a3b16e07647b2ff9","5f638023a98c9c06ec257155","true","1096.6049999697134","./Stimuli/ImagesPractice/LM230.jpg","83","","","","test","true","","83","","LM","LM230.jpg","","old","43","3","practice_recog","left","","","",""
"categorize-image","112","238967","0.0-3.0-7.0-0.11","2dpqn5185o2p7kk","practice_recog","5ec9d530f7f5db50c71639de","5f60e3c0a3b16e07647b2ff9","5f638023a98c9c06ec257155","true","739.7150000324473","./Stimuli/ImagesPractice/LN72.jpg","76","","","","test","true","","76","","LN","LN72.jpg","","new","44","3","practice_recog","right","","","",""
"categorize-image","113","240040","0.0-3.0-7.0-0.12","2dpqn5185o2p7kk","practice_recog","5ec9d530f7f5db50c71639de","5f60e3c0a3b16e07647b2ff9","5f638023a98c9c06ec257155","true","569.2050000652671","./Stimuli/ImagesPractice/LM224.jpg","83","","","","test","true","","83","","LM","LM224.jpg","","old","45","3","practice_recog","left","","","",""
"categorize-image","114","241211","0.0-3.0-7.0-0.13","2dpqn5185o2p7kk","practice_recog","5ec9d530f7f5db50c71639de","5f60e3c0a3b16e07647b2ff9","5f638023a98c9c06ec257155","true","667.3149999696761","./Stimuli/ImagesPractice/SN222.jpg","76","","","","test","true","","76","","SN","SN222.jpg","","new","46","3","practice_recog","right","","","",""
"categorize-image","115","242603","0.0-3.0-7.0-0.14","2dpqn5185o2p7kk","practice_recog","5ec9d530f7f5db50c71639de","5f60e3c0a3b16e07647b2ff9","5f638023a98c9c06ec257155","true","889.5349999656901","./Stimuli/ImagesPractice/LM147.jpg","76","","","","test","true","","76","","LM","LM147.jpg","","new","47","3","practice_recog","right","","","",""
"categorize-image","116","243889","0.0-3.0-7.0-0.15","2dpqn5185o2p7kk","practice_recog","5ec9d530f7f5db50c71639de","5f60e3c0a3b16e07647b2ff9","5f638023a98c9c06ec257155","true","782.3149999603629","./Stimuli/ImagesPractice/SM37.jpg","76","","","","test","true","","76","","SM","SM37.jpg","","new","48","3","practice_recog","right","","","",""
"html-keyboard-response","117","302750","0.0-3.0-8.0","2dpqn5185o2p7kk","instructions","5ec9d530f7f5db50c71639de","5f60e3c0a3b16e07647b2ff9","5f638023a98c9c06ec257155","false","58859.9600000307","<div align=left> Great!<br><br>Are you ready to continue?<br>If you want to reread the instructions and redo the practice trials, please <br>press „Z“.<br><br>You can proceed when you are ready.<br><br>After the presentation of each object, you will receive an instruction whether to <br>remember or to forget the object.<br>We will test your memory of the following pictures only at the very end of <br>the experiment after all learning blocks are completed. <br><br>Press SPACE to CONTINUE when you are ready. </div>","32","","","","","","","","","","","","","","","","","","","",""
"html-keyboard-response","118","304572","0.0-4.0-0.0","2dpqn5185o2p7kk","instructions","5ec9d530f7f5db50c71639de","5f60e3c0a3b16e07647b2ff9","5f638023a98c9c06ec257155","false","1820.0450000585988","<div align=left> The actual experiment is about to start.<br>The practice trials are over!<br><br>Please always respond both fast and accurately!<br><br>Remember: <br> <br><li> Please place your index fingers on the <strong>'S'</strong> and <strong>'L'</strong> keys <br>to respond as fast and accurately as possible.</li><li> Every picture can be classified as either mechanical or non-mechanical.</li><li> If you do not respond in time or commit an error, you will receive a corresponding feedback.<br> Please try to respond as <strong> fast </strong> and as <strong> accurately as possible </strong>.</li><li> Remember the <span style='color: dodgerblue; font-size: 28px'>O</span> pictures. <br></li><li> Please minimize distractions and stay focused. </li><br><br>Press SPACE to START.</div>","32","","","","","","","","","","","","","","","","","","","",""
"html-keyboard-response","119","305275","0.0-4.0-1.0-0.0","2dpqn5185o2p7kk","prime","5ec9d530f7f5db50c71639de","5f60e3c0a3b16e07647b2ff9","5f638023a98c9c06ec257155","false","null","<span style=""color: black; font-size: 48px"">M + N</span>","null","","","","resp_prompt","","","","","","","","","","","","","","","",""
"categorize-image","120","306104","0.0-4.0-1.0-1.0","2dpqn5185o2p7kk","prime","5ec9d530f7f5db50c71639de","5f60e3c0a3b16e07647b2ff9","5f638023a98c9c06ec257155","true","824.8700000112876","./Stimuli/SelectedImages/SN/SN128.bmp","76","","","","test","true","M + N","76","repetition","SN","SN128.bmp","forget","","49","3","prime1","right","","","",""
"html-keyboard-response","121","308107","0.0-4.0-1.0-3.0","2dpqn5185o2p7kk","prime","5ec9d530f7f5db50c71639de","5f60e3c0a3b16e07647b2ff9","5f638023a98c9c06ec257155","false","null","<div style=""align-items: center; display: flex; color: darkorange; font-size: 90px""><b>ø</b></div>","null","","","","forget_cue","","","","","","","","","","","","","","","",""
"html-keyboard-response","122","308810","0.0-4.0-1.0-0.1","2dpqn5185o2p7kk","prime","5ec9d530f7f5db50c71639de","5f60e3c0a3b16e07647b2ff9","5f638023a98c9c06ec257155","false","null","<span style=""color: black; font-size: 48px"">M + N</span>","null","","","","resp_prompt","","","","","","","","","","","","","","","",""
"categorize-image","123","309532","0.0-4.0-1.0-1.1","2dpqn5185o2p7kk","prime","5ec9d530f7f5db50c71639de","5f60e3c0a3b16e07647b2ff9","5f638023a98c9c06ec257155","true","717.7199999568984","./Stimuli/SelectedImages/SN/SN18.bmp","76","","","","test","true","M + N","76","repetition","SN","SN18.bmp","remember","","50","3","prime1","right","","","",""
"html-keyboard-response","124","311535","0.0-4.0-1.0-3.1","2dpqn5185o2p7kk","prime","5ec9d530f7f5db50c71639de","5f60e3c0a3b16e07647b2ff9","5f638023a98c9c06ec257155","false","null","<div style=""align-items: center; display: flex; color: dodgerblue; font-size: 90px""><b>o</b></div>","null","","","","forget_cue","","","","","","","","","","","","","","","",""
"html-keyboard-response","125","312236","0.0-4.0-1.0-0.2","2dpqn5185o2p7kk","prime","5ec9d530f7f5db50c71639de","5f60e3c0a3b16e07647b2ff9","5f638023a98c9c06ec257155","false","null","<span style=""color: black; font-size: 48px"">N + M</span>","null","","","","resp_prompt","","","","","","","","","","","","","","","",""
"categorize-image","126","314064","0.0-4.0-1.0-1.2","2dpqn5185o2p7kk","prime","5ec9d530f7f5db50c71639de","5f60e3c0a3b16e07647b2ff9","5f638023a98c9c06ec257155","true","1822.9999999748543","./Stimuli/SelectedImages/SM/SM184.bmp","83","","","","test","false","N + M","76","switch","SM","SM184.bmp","forget","","51","3","prime1","left","","","",""
"html-keyboard-response","127","314567","0.0-4.0-1.0-2.2-0.2","2dpqn5185o2p7kk","prime","5ec9d530f7f5db50c71639de","5f60e3c0a3b16e07647b2ff9","5f638023a98c9c06ec257155","false","null","<span style=""color: red; font-size: 48px"">Error!</span>","null","","","","feedback","","","","","","","","","","","","","","","",""
"html-keyboard-response","128","316569","0.0-4.0-1.0-3.2","2dpqn5185o2p7kk","prime","5ec9d530f7f5db50c71639de","5f60e3c0a3b16e07647b2ff9","5f638023a98c9c06ec257155","false","null","<div style=""align-items: center; display: flex; color: darkorange; font-size: 90px""><b>ø</b></div>","null","","","","forget_cue","","","","","","","","","","","","","","","",""
"html-keyboard-response","129","317270","0.0-4.0-1.0-0.3","2dpqn5185o2p7kk","prime","5ec9d530f7f5db50c71639de","5f60e3c0a3b16e07647b2ff9","5f638023a98c9c06ec257155","false","null","<span style=""color: black; font-size: 48px"">N + M</span>","null","","","","resp_prompt","","","","","","","","","","","","","","","",""
"categorize-image","130","317907","0.0-4.0-1.0-1.3","2dpqn5185o2p7kk","prime","5ec9d530f7f5db50c71639de","5f60e3c0a3b16e07647b2ff9","5f638023a98c9c06ec257155","true","632.0950000081211","./Stimuli/SelectedImages/LN/LN13.bmp","83","","","","test","true","N + M","83","switch","LN","LN13.bmp","forget","","52","3","prime1","left","","","",""
"html-keyboard-response","131","319909","0.0-4.0-1.0-3.3","2dpqn5185o2p7kk","prime","5ec9d530f7f5db50c71639de","5f60e3c0a3b16e07647b2ff9","5f638023a98c9c06ec257155","false","null","<div style=""align-items: center; display: flex; color: darkorange; font-size: 90px""><b>ø</b></div>","null","","","","forget_cue","","","","","","","","","","","","","","","",""
"html-keyboard-response","132","320610","0.0-4.0-1.0-0.4","2dpqn5185o2p7kk","prime","5ec9d530f7f5db50c71639de","5f60e3c0a3b16e07647b2ff9","5f638023a98c9c06ec257155","false","null","<span style=""color: black; font-size: 48px"">N + M</span>","null","","","","resp_prompt","","","","","","","","","","","","","","","",""
"categorize-image","133","321349","0.0-4.0-1.0-1.4","2dpqn5185o2p7kk","prime","5ec9d530f7f5db50c71639de","5f60e3c0a3b16e07647b2ff9","5f638023a98c9c06ec257155","true","734.4049999956042","./Stimuli/SelectedImages/LN/LN12.bmp","83","","","","test","true","N + M","83","switch","LN","LN12.bmp","remember","","53","3","prime1","left","","","",""
"html-keyboard-response","134","323351","0.0-4.0-1.0-3.4","2dpqn5185o2p7kk","prime","5ec9d530f7f5db50c71639de","5f60e3c0a3b16e07647b2ff9","5f638023a98c9c06ec257155","false","null","<div style=""align-items: center; display: flex; color: dodgerblue; font-size: 90px""><b>o</b></div>","null","","","","forget_cue","","","","","","","","","","","","","","","",""
"html-keyboard-response","135","324053","0.0-4.0-1.0-0.5","2dpqn5185o2p7kk","prime","5ec9d530f7f5db50c71639de","5f60e3c0a3b16e07647b2ff9","5f638023a98c9c06ec257155","false","null","<span style=""color: black; font-size: 48px"">M + N</span>","null","","","","resp_prompt","","","","","","","","","","","","","","","",""
"categorize-image","136","324705","0.0-4.0-1.0-1.5","2dpqn5185o2p7kk","prime","5ec9d530f7f5db50c71639de","5f60e3c0a3b16e07647b2ff9","5f638023a98c9c06ec257155","true","647.7550000417978","./Stimuli/SelectedImages/LN/LN150.bmp","76","","","","test","true","M + N","76","repetition","LN","LN150.bmp","remember","","54","3","prime1","right","","","",""
"html-keyboard-response","137","326707","0.0-4.0-1.0-3.5","2dpqn5185o2p7kk","prime","5ec9d530f7f5db50c71639de","5f60e3c0a3b16e07647b2ff9","5f638023a98c9c06ec257155","false","null","<div style=""align-items: center; display: flex; color: dodgerblue; font-size: 90px""><b>o</b></div>","null","","","","forget_cue","","","","","","","","","","","","","","","",""
"html-keyboard-response","138","327410","0.0-4.0-1.0-0.6","2dpqn5185o2p7kk","prime","5ec9d530f7f5db50c71639de","5f60e3c0a3b16e07647b2ff9","5f638023a98c9c06ec257155","false","null","<span style=""color: black; font-size: 48px"">N + M</span>","null","","","","resp_prompt","","","","","","","","","","","","","","","",""
"categorize-image","139","327897","0.0-4.0-1.0-1.6","2dpqn5185o2p7kk","prime","5ec9d530f7f5db50c71639de","5f60e3c0a3b16e07647b2ff9","5f638023a98c9c06ec257155","true","483.3449999568984","./Stimuli/SelectedImages/LM/LM179.bmp","76","","","","test","true","N + M","76","repetition","LM","LM179.bmp","forget","","55","3","prime1","right","","","",""
"html-keyboard-response","140","329899","0.0-4.0-1.0-3.6","2dpqn5185o2p7kk","prime","5ec9d530f7f5db50c71639de","5f60e3c0a3b16e07647b2ff9","5f638023a98c9c06ec257155","false","null","<div style=""align-items: center; display: flex; color: darkorange; font-size: 90px""><b>ø</b></div>","null","","","","forget_cue","","","","","","","","","","","","","","","",""
"html-keyboard-response","141","330601","0.0-4.0-1.0-0.7","2dpqn5185o2p7kk","prime","5ec9d530f7f5db50c71639de","5f60e3c0a3b16e07647b2ff9","5f638023a98c9c06ec257155","false","null","<span style=""color: black; font-size: 48px"">N + M</span>","null","","","","resp_prompt","","","","","","","","","","","","","","","",""
"categorize-image","142","331671","0.0-4.0-1.0-1.7","2dpqn5185o2p7kk","prime","5ec9d530f7f5db50c71639de","5f60e3c0a3b16e07647b2ff9","5f638023a98c9c06ec257155","true","1066.1100000143051","./Stimuli/SelectedImages/SN/SN240.bmp","83","","","","test","true","N + M","83","switch","SN","SN240.bmp","forget","","56","3","prime1","left","","","",""
"html-keyboard-response","143","333674","0.0-4.0-1.0-3.7","2dpqn5185o2p7kk","prime","5ec9d530f7f5db50c71639de","5f60e3c0a3b16e07647b2ff9","5f638023a98c9c06ec257155","false","null","<div style=""align-items: center; display: flex; color: darkorange; font-size: 90px""><b>ø</b></div>","null","","","","forget_cue","","","","","","","","","","","","","","","",""
"html-keyboard-response","144","334375","0.0-4.0-1.0-0.8","2dpqn5185o2p7kk","prime","5ec9d530f7f5db50c71639de","5f60e3c0a3b16e07647b2ff9","5f638023a98c9c06ec257155","false","null","<span style=""color: black; font-size: 48px"">M + N</span>","null","","","","resp_prompt","","","","","","","","","","","","","","","",""
"categorize-image","145","334958","0.0-4.0-1.0-1.8","2dpqn5185o2p7kk","prime","5ec9d530f7f5db50c71639de","5f60e3c0a3b16e07647b2ff9","5f638023a98c9c06ec257155","true","578.20999994874","./Stimuli/SelectedImages/LM/LM57.bmp","83","","","","test","true","M + N","83","repetition","LM","LM57.bmp","remember","","57","3","prime1","left","","","",""
"html-keyboard-response","146","336960","0.0-4.0-1.0-3.8","2dpqn5185o2p7kk","prime","5ec9d530f7f5db50c71639de","5f60e3c0a3b16e07647b2ff9","5f638023a98c9c06ec257155","false","null","<div style=""align-items: center; display: flex; color: dodgerblue; font-size: 90px""><b>o</b></div>","null","","","","forget_cue","","","","","","","","","","","","","","","",""
"html-keyboard-response","147","337662","0.0-4.0-1.0-0.9","2dpqn5185o2p7kk","prime","5ec9d530f7f5db50c71639de","5f60e3c0a3b16e07647b2ff9","5f638023a98c9c06ec257155","false","null","<span style=""color: black; font-size: 48px"">M + N</span>","null","","","","resp_prompt","","","","","","","","","","","","","","","",""
"categorize-image","148","339448","0.0-4.0-1.0-1.9","2dpqn5185o2p7kk","prime","5ec9d530f7f5db50c71639de","5f60e3c0a3b16e07647b2ff9","5f638023a98c9c06ec257155","true","1780.2949999459088","./Stimuli/SelectedImages/SM/SM195.bmp","83","","","","test","true","M + N","83","repetition","SM","SM195.bmp","remember","","58","3","prime1","left","","","",""
"html-keyboard-response","149","341450","0.0-4.0-1.0-3.9","2dpqn5185o2p7kk","prime","5ec9d530f7f5db50c71639de","5f60e3c0a3b16e07647b2ff9","5f638023a98c9c06ec257155","false","null","<div style=""align-items: center; display: flex; color: dodgerblue; font-size: 90px""><b>o</b></div>","null","","","","forget_cue","","","","","","","","","","","","","","","",""
"html-keyboard-response","150","342153","0.0-4.0-1.0-0.10","2dpqn5185o2p7kk","prime","5ec9d530f7f5db50c71639de","5f60e3c0a3b16e07647b2ff9","5f638023a98c9c06ec257155","false","null","<span style=""color: black; font-size: 48px"">M + N</span>","null","","","","resp_prompt","","","","","","","","","","","","","","","",""
"categorize-image","151","342670","0.0-4.0-1.0-1.10","2dpqn5185o2p7kk","prime","5ec9d530f7f5db50c71639de","5f60e3c0a3b16e07647b2ff9","5f638023a98c9c06ec257155","true","512.7100000390783","./Stimuli/SelectedImages/LN/LN28.bmp","76","","","","test","true","M + N","76","switch","LN","LN28.bmp","forget","","59","3","prime1","right","","","",""
"html-keyboard-response","152","344673","0.0-4.0-1.0-3.10","2dpqn5185o2p7kk","prime","5ec9d530f7f5db50c71639de","5f60e3c0a3b16e07647b2ff9","5f638023a98c9c06ec257155","false","null","<div style=""align-items: center; display: flex; color: darkorange; font-size: 90px""><b>ø</b></div>","null","","","","forget_cue","","","","","","","","","","","","","","","",""
"html-keyboard-response","153","345374","0.0-4.0-1.0-0.11","2dpqn5185o2p7kk","prime","5ec9d530f7f5db50c71639de","5f60e3c0a3b16e07647b2ff9","5f638023a98c9c06ec257155","false","null","<span style=""color: black; font-size: 48px"">M + N</span>","null","","","","resp_prompt","","","","","","","","","","","","","","","",""
"categorize-image","154","346187","0.0-4.0-1.0-1.11","2dpqn5185o2p7kk","prime","5ec9d530f7f5db50c71639de","5f60e3c0a3b16e07647b2ff9","5f638023a98c9c06ec257155","true","808.4699999308214","./Stimuli/SelectedImages/LN/LN111.bmp","76","","","","test","true","M + N","76","switch","LN","LN111.bmp","remember","","60","3","prime1","right","","","",""
"html-keyboard-response","155","348190","0.0-4.0-1.0-3.11","2dpqn5185o2p7kk","prime","5ec9d530f7f5db50c71639de","5f60e3c0a3b16e07647b2ff9","5f638023a98c9c06ec257155","false","null","<div style=""align-items: center; display: flex; color: dodgerblue; font-size: 90px""><b>o</b></div>","null","","","","forget_cue","","","","","","","","","","","","","","","",""
"html-keyboard-response","156","348893","0.0-4.0-1.0-0.12","2dpqn5185o2p7kk","prime","5ec9d530f7f5db50c71639de","5f60e3c0a3b16e07647b2ff9","5f638023a98c9c06ec257155","false","null","<span style=""color: black; font-size: 48px"">N + M</span>","null","","","","resp_prompt","","","","","","","","","","","","","","","",""
"categorize-image","157","349645","0.0-4.0-1.0-1.12","2dpqn5185o2p7kk","prime","5ec9d530f7f5db50c71639de","5f60e3c0a3b16e07647b2ff9","5f638023a98c9c06ec257155","true","747.440000064671","./Stimuli/SelectedImages/SM/SM128.bmp","76","","","","test","true","N + M","76","repetition","SM","SM128.bmp","remember","","61","3","prime1","right","","","",""
"html-keyboard-response","158","351647","0.0-4.0-1.0-3.12","2dpqn5185o2p7kk","prime","5ec9d530f7f5db50c71639de","5f60e3c0a3b16e07647b2ff9","5f638023a98c9c06ec257155","false","null","<div style=""align-items: center; display: flex; color: dodgerblue; font-size: 90px""><b>o</b></div>","null","","","","forget_cue","","","","","","","","","","","","","","","",""
"html-keyboard-response","159","352349","0.0-4.0-1.0-0.13","2dpqn5185o2p7kk","prime","5ec9d530f7f5db50c71639de","5f60e3c0a3b16e07647b2ff9","5f638023a98c9c06ec257155","false","null","<span style=""color: black; font-size: 48px"">N + M</span>","null","","","","resp_prompt","","","","","","","","","","","","","","","",""
"categorize-image","160","353263","0.0-4.0-1.0-1.13","2dpqn5185o2p7kk","prime","5ec9d530f7f5db50c71639de","5f60e3c0a3b16e07647b2ff9","5f638023a98c9c06ec257155","true","910.1249999366701","./Stimuli/SelectedImages/SM/SM106.bmp","76","","","","test","true","N + M","76","repetition","SM","SM106.bmp","forget","","62","3","prime1","right","","","",""
"html-keyboard-response","161","355265","0.0-4.0-1.0-3.13","2dpqn5185o2p7kk","prime","5ec9d530f7f5db50c71639de","5f60e3c0a3b16e07647b2ff9","5f638023a98c9c06ec257155","false","null","<div style=""align-items: center; display: flex; color: darkorange; font-size: 90px""><b>ø</b></div>","null","","","","forget_cue","","","","","","","","","","","","","","","",""
"html-keyboard-response","162","355968","0.0-4.0-1.0-0.14","2dpqn5185o2p7kk","prime","5ec9d530f7f5db50c71639de","5f60e3c0a3b16e07647b2ff9","5f638023a98c9c06ec257155","false","null","<span style=""color: black; font-size: 48px"">M + N</span>","null","","","","resp_prompt","","","","","","","","","","","","","","","",""
"categorize-image","163","357140","0.0-4.0-1.0-1.14","2dpqn5185o2p7kk","prime","5ec9d530f7f5db50c71639de","5f60e3c0a3b16e07647b2ff9","5f638023a98c9c06ec257155","true","1166.9400000246242","./Stimuli/SelectedImages/LN/LN128.bmp","83","","","","test","false","M + N","76","repetition","LN","LN128.bmp","forget","","63","3","prime1","left","","","",""
"html-keyboard-response","164","357642","0.0-4.0-1.0-2.14-0.14","2dpqn5185o2p7kk","prime","5ec9d530f7f5db50c71639de","5f60e3c0a3b16e07647b2ff9","5f638023a98c9c06ec257155","false","null","<span style=""color: red; font-size: 48px"">Error!</span>","null","","","","feedback","","","","","","","","","","","","","","","",""
"html-keyboard-response","165","359644","0.0-4.0-1.0-3.14","2dpqn5185o2p7kk","prime","5ec9d530f7f5db50c71639de","5f60e3c0a3b16e07647b2ff9","5f638023a98c9c06ec257155","false","null","<div style=""align-items: center; display: flex; color: darkorange; font-size: 90px""><b>ø</b></div>","null","","","","forget_cue","","","","","","","","","","","","","","","",""
"html-keyboard-response","166","360345","0.0-4.0-1.0-0.15","2dpqn5185o2p7kk","prime","5ec9d530f7f5db50c71639de","5f60e3c0a3b16e07647b2ff9","5f638023a98c9c06ec257155","false","null","<span style=""color: black; font-size: 48px"">M + N</span>","null","","","","resp_prompt","","","","","","","","","","","","","","","",""
"categorize-image","167","361398","0.0-4.0-1.0-1.15","2dpqn5185o2p7kk","prime","5ec9d530f7f5db50c71639de","5f60e3c0a3b16e07647b2ff9","5f638023a98c9c06ec257155","true","1047.77499998454","./Stimuli/SelectedImages/LN/LN82.bmp","76","","","","test","true","M + N","76","switch","LN","LN82.bmp","forget","","64","3","prime1","right","","","",""
"html-keyboard-response","168","363401","0.0-4.0-1.0-3.15","2dpqn5185o2p7kk","prime","5ec9d530f7f5db50c71639de","5f60e3c0a3b16e07647b2ff9","5f638023a98c9c06ec257155","false","null","<div style=""align-items: center; display: flex; color: darkorange; font-size: 90px""><b>ø</b></div>","null","","","","forget_cue","","","","","","","","","","","","","","","",""
"html-keyboard-response","169","364103","0.0-4.0-1.0-0.16","2dpqn5185o2p7kk","prime","5ec9d530f7f5db50c71639de","5f60e3c0a3b16e07647b2ff9","5f638023a98c9c06ec257155","false","null","<span style=""color: black; font-size: 48px"">M + N</span>","null","","","","resp_prompt","","","","","","","","","","","","","","","",""
"categorize-image","170","364665","0.0-4.0-1.0-1.16","2dpqn5185o2p7kk","prime","5ec9d530f7f5db50c71639de","5f60e3c0a3b16e07647b2ff9","5f638023a98c9c06ec257155","true","558.1900000106543","./Stimuli/SelectedImages/LN/LN9.bmp","76","","","","test","true","M + N","76","switch","LN","LN9.bmp","remember","","65","3","prime1","right","","","",""
"html-keyboard-response","171","366668","0.0-4.0-1.0-3.16","2dpqn5185o2p7kk","prime","5ec9d530f7f5db50c71639de","5f60e3c0a3b16e07647b2ff9","5f638023a98c9c06ec257155","false","null","<div style=""align-items: center; display: flex; color: dodgerblue; font-size: 90px""><b>o</b></div>","null","","","","forget_cue","","","","","","","","","","","","","","","",""
"html-keyboard-response","172","367370","0.0-4.0-1.0-0.17","2dpqn5185o2p7kk","prime","5ec9d530f7f5db50c71639de","5f60e3c0a3b16e07647b2ff9","5f638023a98c9c06ec257155","false","null","<span style=""color: black; font-size: 48px"">N + M</span>","null","","","","resp_prompt","","","","","","","","","","","","","","","",""
"categorize-image","173","368317","0.0-4.0-1.0-1.17","2dpqn5185o2p7kk","prime","5ec9d530f7f5db50c71639de","5f60e3c0a3b16e07647b2ff9","5f638023a98c9c06ec257155","true","942.7849999628961","./Stimuli/SelectedImages/LM/LM216.bmp","76","","","","test","true","N + M","76","repetition","LM","LM216.bmp","forget","","66","3","prime1","right","","","",""
"html-keyboard-response","174","370319","0.0-4.0-1.0-3.17","2dpqn5185o2p7kk","prime","5ec9d530f7f5db50c71639de","5f60e3c0a3b16e07647b2ff9","5f638023a98c9c06ec257155","false","null","<div style=""align-items: center; display: flex; color: darkorange; font-size: 90px""><b>ø</b></div>","null","","","","forget_cue","","","","","","","","","","","","","","","",""
"html-keyboard-response","175","371021","0.0-4.0-1.0-0.18","2dpqn5185o2p7kk","prime","5ec9d530f7f5db50c71639de","5f60e3c0a3b16e07647b2ff9","5f638023a98c9c06ec257155","false","null","<span style=""color: black; font-size: 48px"">M + N</span>","null","","","","resp_prompt","","","","","","","","","","","","","","","",""
"categorize-image","176","372427","0.0-4.0-1.0-1.18","2dpqn5185o2p7kk","prime","5ec9d530f7f5db50c71639de","5f60e3c0a3b16e07647b2ff9","5f638023a98c9c06ec257155","true","1400.954999960959","./Stimuli/SelectedImages/LM/LM235.bmp","83","","","","test","true","M + N","83","switch","LM","LM235.bmp","remember","","67","3","prime1","left","","","",""
"html-keyboard-response","177","374429","0.0-4.0-1.0-3.18","2dpqn5185o2p7kk","prime","5ec9d530f7f5db50c71639de","5f60e3c0a3b16e07647b2ff9","5f638023a98c9c06ec257155","false","null","<div style=""align-items: center; display: flex; color: dodgerblue; font-size: 90px""><b>o</b></div>","null","","","","forget_cue","","","","","","","","","","","","","","","",""
"html-keyboard-response","178","375132","0.0-4.0-1.0-0.19","2dpqn5185o2p7kk","prime","5ec9d530f7f5db50c71639de","5f60e3c0a3b16e07647b2ff9","5f638023a98c9c06ec257155","false","null","<span style=""color: black; font-size: 48px"">N + M</span>","null","","","","resp_prompt","","","","","","","","","","","","","","","",""
"categorize-image","179","375984","0.0-4.0-1.0-1.19","2dpqn5185o2p7kk","prime","5ec9d530f7f5db50c71639de","5f60e3c0a3b16e07647b2ff9","5f638023a98c9c06ec257155","true","847.81499998644","./Stimuli/SelectedImages/LM/LM100.bmp","76","","","","test","true","N + M","76","switch","LM","LM100.bmp","remember","","68","3","prime1","right","","","",""
"html-keyboard-response","180","377986","0.0-4.0-1.0-3.19","2dpqn5185o2p7kk","prime","5ec9d530f7f5db50c71639de","5f60e3c0a3b16e07647b2ff9","5f638023a98c9c06ec257155","false","null","<div style=""align-items: center; display: flex; color: dodgerblue; font-size: 90px""><b>o</b></div>","null","","","","forget_cue","","","","","","","","","","","","","","","",""
"html-keyboard-response","181","378689","0.0-4.0-1.0-0.20","2dpqn5185o2p7kk","prime","5ec9d530f7f5db50c71639de","5f60e3c0a3b16e07647b2ff9","5f638023a98c9c06ec257155","false","null","<span style=""color: black; font-size: 48px"">N + M</span>","null","","","","resp_prompt","","","","","","","","","","","","","","","",""
"categorize-image","182","380282","0.0-4.0-1.0-1.20","2dpqn5185o2p7kk","prime","5ec9d530f7f5db50c71639de","5f60e3c0a3b16e07647b2ff9","5f638023a98c9c06ec257155","true","1588.495000032708","./Stimuli/SelectedImages/SM/SM24.bmp","76","","","","test","true","N + M","76","repetition","SM","SM24.bmp","forget","","69","3","prime1","right","","","",""
"html-keyboard-response","183","382284","0.0-4.0-1.0-3.20","2dpqn5185o2p7kk","prime","5ec9d530f7f5db50c71639de","5f60e3c0a3b16e07647b2ff9","5f638023a98c9c06ec257155","false","null","<div style=""align-items: center; display: flex; color: darkorange; font-size: 90px""><b>ø</b></div>","null","","","","forget_cue","","","","","","","","","","","","","","","",""
"html-keyboard-response","184","382986","0.0-4.0-1.0-0.21","2dpqn5185o2p7kk","prime","5ec9d530f7f5db50c71639de","5f60e3c0a3b16e07647b2ff9","5f638023a98c9c06ec257155","false","null","<span style=""color: black; font-size: 48px"">N + M</span>","null","","","","resp_prompt","","","","","","","","","","","","","","","",""
"categorize-image","185","384141","0.0-4.0-1.0-1.21","2dpqn5185o2p7kk","prime","5ec9d530f7f5db50c71639de","5f60e3c0a3b16e07647b2ff9","5f638023a98c9c06ec257155","true","1150.6150000495836","./Stimuli/SelectedImages/SM/SM73.bmp","76","","","","test","true","N + M","76","switch","SM","SM73.bmp","forget","","70","3","prime1","right","","","",""
"html-keyboard-response","186","386143","0.0-4.0-1.0-3.21","2dpqn5185o2p7kk","prime","5ec9d530f7f5db50c71639de","5f60e3c0a3b16e07647b2ff9","5f638023a98c9c06ec257155","false","null","<div style=""align-items: center; display: flex; color: darkorange; font-size: 90px""><b>ø</b></div>","null","","","","forget_cue","","","","","","","","","","","","","","","",""
"html-keyboard-response","187","386846","0.0-4.0-1.0-0.22","2dpqn5185o2p7kk","prime","5ec9d530f7f5db50c71639de","5f60e3c0a3b16e07647b2ff9","5f638023a98c9c06ec257155","false","null","<span style=""color: black; font-size: 48px"">N + M</span>","null","","","","resp_prompt","","","","","","","","","","","","","","","",""
"categorize-image","188","387446","0.0-4.0-1.0-1.22","2dpqn5185o2p7kk","prime","5ec9d530f7f5db50c71639de","5f60e3c0a3b16e07647b2ff9","5f638023a98c9c06ec257155","true","596.224999986589","./Stimuli/SelectedImages/LM/LM129.bmp","76","","","","test","true","N + M","76","repetition","LM","LM129.bmp","remember","","71","3","prime1","right","","","",""
"html-keyboard-response","189","389448","0.0-4.0-1.0-3.22","2dpqn5185o2p7kk","prime","5ec9d530f7f5db50c71639de","5f60e3c0a3b16e07647b2ff9","5f638023a98c9c06ec257155","false","null","<div style=""align-items: center; display: flex; color: dodgerblue; font-size: 90px""><b>o</b></div>","null","","","","forget_cue","","","","","","","","","","","","","","","",""
"html-keyboard-response","190","390150","0.0-4.0-1.0-0.23","2dpqn5185o2p7kk","prime","5ec9d530f7f5db50c71639de","5f60e3c0a3b16e07647b2ff9","5f638023a98c9c06ec257155","false","null","<span style=""color: black; font-size: 48px"">N + M</span>","null","","","","resp_prompt","","","","","","","","","","","","","","","",""
"categorize-image","191","390752","0.0-4.0-1.0-1.23","2dpqn5185o2p7kk","prime","5ec9d530f7f5db50c71639de","5f60e3c0a3b16e07647b2ff9","5f638023a98c9c06ec257155","true","598.424999974668","./Stimuli/SelectedImages/SM/SM205.bmp","76","","","","test","true","N + M","76","repetition","SM","SM205.bmp","remember","","72","3","prime1","right","","","",""
"html-keyboard-response","192","392755","0.0-4.0-1.0-3.23","2dpqn5185o2p7kk","prime","5ec9d530f7f5db50c71639de","5f60e3c0a3b16e07647b2ff9","5f638023a98c9c06ec257155","false","null","<div style=""align-items: center; display: flex; color: dodgerblue; font-size: 90px""><b>o</b></div>","null","","","","forget_cue","","","","","","","","","","","","","","","",""
"html-keyboard-response","193","393457","0.0-4.0-1.0-0.24","2dpqn5185o2p7kk","prime","5ec9d530f7f5db50c71639de","5f60e3c0a3b16e07647b2ff9","5f638023a98c9c06ec257155","false","null","<span style=""color: black; font-size: 48px"">M + N</span>","null","","","","resp_prompt","","","","","","","","","","","","","","","",""
"categorize-image","194","393997","0.0-4.0-1.0-1.24","2dpqn5185o2p7kk","prime","5ec9d530f7f5db50c71639de","5f60e3c0a3b16e07647b2ff9","5f638023a98c9c06ec257155","true","535.1399999344721","./Stimuli/SelectedImages/SM/SM17.bmp","83","","","","test","true","M + N","83","repetition","SM","SM17.bmp","remember","","73","3","prime1","left","","","",""
"html-keyboard-response","195","395998","0.0-4.0-1.0-3.24","2dpqn5185o2p7kk","prime","5ec9d530f7f5db50c71639de","5f60e3c0a3b16e07647b2ff9","5f638023a98c9c06ec257155","false","null","<div style=""align-items: center; display: flex; color: dodgerblue; font-size: 90px""><b>o</b></div>","null","","","","forget_cue","","","","","","","","","","","","","","","",""
"html-keyboard-response","196","396700","0.0-4.0-1.0-0.25","2dpqn5185o2p7kk","prime","5ec9d530f7f5db50c71639de","5f60e3c0a3b16e07647b2ff9","5f638023a98c9c06ec257155","false","null","<span style=""color: black; font-size: 48px"">M + N</span>","null","","","","resp_prompt","","","","","","","","","","","","","","","",""
"categorize-image","197","397646","0.0-4.0-1.0-1.25","2dpqn5185o2p7kk","prime","5ec9d530f7f5db50c71639de","5f60e3c0a3b16e07647b2ff9","5f638023a98c9c06ec257155","true","940.7449999125674","./Stimuli/SelectedImages/SM/SM148.bmp","83","","","","test","true","M + N","83","repetition","SM","SM148.bmp","forget","","74","3","prime1","left","","","",""
"html-keyboard-response","198","399648","0.0-4.0-1.0-3.25","2dpqn5185o2p7kk","prime","5ec9d530f7f5db50c71639de","5f60e3c0a3b16e07647b2ff9","5f638023a98c9c06ec257155","false","null","<div style=""align-items: center; display: flex; color: darkorange; font-size: 90px""><b>ø</b></div>","null","","","","forget_cue","","","","","","","","","","","","","","","",""
"html-keyboard-response","199","400350","0.0-4.0-1.0-0.26","2dpqn5185o2p7kk","prime","5ec9d530f7f5db50c71639de","5f60e3c0a3b16e07647b2ff9","5f638023a98c9c06ec257155","false","null","<span style=""color: black; font-size: 48px"">N + M</span>","null","","","","resp_prompt","","","","","","","","","","","","","","","",""
"categorize-image","200","400929","0.0-4.0-1.0-1.26","2dpqn5185o2p7kk","prime","5ec9d530f7f5db50c71639de","5f60e3c0a3b16e07647b2ff9","5f638023a98c9c06ec257155","true","575.0700000207871","./Stimuli/SelectedImages/LM/LM150.bmp","76","","","","test","true","N + M","76","switch","LM","LM150.bmp","remember","","75","3","prime1","right","","","",""
"html-keyboard-response","201","402932","0.0-4.0-1.0-3.26","2dpqn5185o2p7kk","prime","5ec9d530f7f5db50c71639de","5f60e3c0a3b16e07647b2ff9","5f638023a98c9c06ec257155","false","null","<div style=""align-items: center; display: flex; color: dodgerblue; font-size: 90px""><b>o</b></div>","null","","","","forget_cue","","","","","","","","","","","","","","","",""
"html-keyboard-response","202","403635","0.0-4.0-1.0-0.27","2dpqn5185o2p7kk","prime","5ec9d530f7f5db50c71639de","5f60e3c0a3b16e07647b2ff9","5f638023a98c9c06ec257155","false","null","<span style=""color: black; font-size: 48px"">N + M</span>","null","","","","resp_prompt","","","","","","","","","","","","","","","",""
"categorize-image","203","404782","0.0-4.0-1.0-1.27","2dpqn5185o2p7kk","prime","5ec9d530f7f5db50c71639de","5f60e3c0a3b16e07647b2ff9","5f638023a98c9c06ec257155","true","1143.294999958016","./Stimuli/SelectedImages/SM/SM76.bmp","76","","","","test","true","N + M","76","switch","SM","SM76.bmp","remember","","76","3","prime1","right","","","",""
"html-keyboard-response","204","406785","0.0-4.0-1.0-3.27","2dpqn5185o2p7kk","prime","5ec9d530f7f5db50c71639de","5f60e3c0a3b16e07647b2ff9","5f638023a98c9c06ec257155","false","null","<div style=""align-items: center; display: flex; color: dodgerblue; font-size: 90px""><b>o</b></div>","null","","","","forget_cue","","","","","","","","","","","","","","","",""
"html-keyboard-response","205","407487","0.0-4.0-1.0-0.28","2dpqn5185o2p7kk","prime","5ec9d530f7f5db50c71639de","5f60e3c0a3b16e07647b2ff9","5f638023a98c9c06ec257155","false","null","<span style=""color: black; font-size: 48px"">M + N</span>","null","","","","resp_prompt","","","","","","","","","","","","","","","",""
"categorize-image","206","408147","0.0-4.0-1.0-1.28","2dpqn5185o2p7kk","prime","5ec9d530f7f5db50c71639de","5f60e3c0a3b16e07647b2ff9","5f638023a98c9c06ec257155","true","656.055000028573","./Stimuli/SelectedImages/SM/SM200.bmp","83","","","","test","true","M + N","83","switch","SM","SM200.bmp","remember","","77","3","prime1","left","","","",""
"html-keyboard-response","207","410150","0.0-4.0-1.0-3.28","2dpqn5185o2p7kk","prime","5ec9d530f7f5db50c71639de","5f60e3c0a3b16e07647b2ff9","5f638023a98c9c06ec257155","false","null","<div style=""align-items: center; display: flex; color: dodgerblue; font-size: 90px""><b>o</b></div>","null","","","","forget_cue","","","","","","","","","","","","","","","",""
"html-keyboard-response","208","410852","0.0-4.0-1.0-0.29","2dpqn5185o2p7kk","prime","5ec9d530f7f5db50c71639de","5f60e3c0a3b16e07647b2ff9","5f638023a98c9c06ec257155","false","null","<span style=""color: black; font-size: 48px"">N + M</span>","null","","","","resp_prompt","","","","","","","","","","","","","","","",""
"categorize-image","209","411993","0.0-4.0-1.0-1.29","2dpqn5185o2p7kk","prime","5ec9d530f7f5db50c71639de","5f60e3c0a3b16e07647b2ff9","5f638023a98c9c06ec257155","true","1135.9749999828637","./Stimuli/SelectedImages/LN/LN131.bmp","83","","","","test","true","N + M","83","repetition","LN","LN131.bmp","forget","","78","3","prime1","left","","","",""
"html-keyboard-response","210","413995","0.0-4.0-1.0-3.29","2dpqn5185o2p7kk","prime","5ec9d530f7f5db50c71639de","5f60e3c0a3b16e07647b2ff9","5f638023a98c9c06ec257155","false","null","<div style=""align-items: center; display: flex; color: darkorange; font-size: 90px""><b>ø</b></div>","null","","","","forget_cue","","","","","","","","","","","","","","","",""
"html-keyboard-response","211","414697","0.0-4.0-1.0-0.30","2dpqn5185o2p7kk","prime","5ec9d530f7f5db50c71639de","5f60e3c0a3b16e07647b2ff9","5f638023a98c9c06ec257155","false","null","<span style=""color: black; font-size: 48px"">N + M</span>","null","","","","resp_prompt","","","","","","","","","","","","","","","",""
"categorize-image","212","415449","0.0-4.0-1.0-1.30","2dpqn5185o2p7kk","prime","5ec9d530f7f5db50c71639de","5f60e3c0a3b16e07647b2ff9","5f638023a98c9c06ec257155","true","747.9649999877438","./Stimuli/SelectedImages/SN/SN52.bmp","76","","","","test","false","N + M","83","repetition","SN","SN52.bmp","forget","","79","3","prime1","right","","","",""
"html-keyboard-response","213","415951","0.0-4.0-1.0-2.30-0.30","2dpqn5185o2p7kk","prime","5ec9d530f7f5db50c71639de","5f60e3c0a3b16e07647b2ff9","5f638023a98c9c06ec257155","false","null","<span style=""color: red; font-size: 48px"">Error!</span>","null","","","","feedback","","","","","","","","","","","","","","","",""
"html-keyboard-response","214","417953","0.0-4.0-1.0-3.30","2dpqn5185o2p7kk","prime","5ec9d530f7f5db50c71639de","5f60e3c0a3b16e07647b2ff9","5f638023a98c9c06ec257155","false","null","<div style=""align-items: center; display: flex; color: darkorange; font-size: 90px""><b>ø</b></div>","null","","","","forget_cue","","","","","","","","","","","","","","","",""
"html-keyboard-response","215","418654","0.0-4.0-1.0-0.31","2dpqn5185o2p7kk","prime","5ec9d530f7f5db50c71639de","5f60e3c0a3b16e07647b2ff9","5f638023a98c9c06ec257155","false","null","<span style=""color: black; font-size: 48px"">N + M</span>","null","","","","resp_prompt","","","","","","","","","","","","","","","",""
"categorize-image","216","419262","0.0-4.0-1.0-1.31","2dpqn5185o2p7kk","prime","5ec9d530f7f5db50c71639de","5f60e3c0a3b16e07647b2ff9","5f638023a98c9c06ec257155","true","602.7699999976903","./Stimuli/SelectedImages/LM/LM58.bmp","76","","","","test","true","N + M","76","switch","LM","LM58.bmp","forget","","80","3","prime1","right","","","",""
"html-keyboard-response","217","421264","0.0-4.0-1.0-3.31","2dpqn5185o2p7kk","prime","5ec9d530f7f5db50c71639de","5f60e3c0a3b16e07647b2ff9","5f638023a98c9c06ec257155","false","null","<div style=""align-items: center; display: flex; color: darkorange; font-size: 90px""><b>ø</b></div>","null","","","","forget_cue","","","","","","","","","","","","","","","",""
"html-keyboard-response","218","421965","0.0-4.0-1.0-0.32","2dpqn5185o2p7kk","prime","5ec9d530f7f5db50c71639de","5f60e3c0a3b16e07647b2ff9","5f638023a98c9c06ec257155","false","null","<span style=""color: black; font-size: 48px"">M + N</span>","null","","","","resp_prompt","","","","","","","","","","","","","","","",""
"categorize-image","219","423385","0.0-4.0-1.0-1.32","2dpqn5185o2p7kk","prime","5ec9d530f7f5db50c71639de","5f60e3c0a3b16e07647b2ff9","5f638023a98c9c06ec257155","true","1415.7250000862405","./Stimuli/SelectedImages/SN/SN49.bmp","76","","","","test","true","M + N","76","switch","SN","SN49.bmp","forget","","81","3","prime1","right","","","",""
"html-keyboard-response","220","425388","0.0-4.0-1.0-3.32","2dpqn5185o2p7kk","prime","5ec9d530f7f5db50c71639de","5f60e3c0a3b16e07647b2ff9","5f638023a98c9c06ec257155","false","null","<div style=""align-items: center; display: flex; color: darkorange; font-size: 90px""><b>ø</b></div>","null","","","","forget_cue","","","","","","","","","","","","","","","",""
"html-keyboard-response","221","426089","0.0-4.0-1.0-0.33","2dpqn5185o2p7kk","prime","5ec9d530f7f5db50c71639de","5f60e3c0a3b16e07647b2ff9","5f638023a98c9c06ec257155","false","null","<span style=""color: black; font-size: 48px"">N + M</span>","null","","","","resp_prompt","","","","","","","","","","","","","","","",""
"categorize-image","222","426749","0.0-4.0-1.0-1.33","2dpqn5185o2p7kk","prime","5ec9d530f7f5db50c71639de","5f60e3c0a3b16e07647b2ff9","5f638023a98c9c06ec257155","true","654.9850000301376","./Stimuli/SelectedImages/LN/LN92.bmp","76","","","","test","false","N + M","83","repetition","LN","LN92.bmp","forget","","82","3","prime1","right","","","",""
"html-keyboard-response","223","427252","0.0-4.0-1.0-2.33-0.33","2dpqn5185o2p7kk","prime","5ec9d530f7f5db50c71639de","5f60e3c0a3b16e07647b2ff9","5f638023a98c9c06ec257155","false","null","<span style=""color: red; font-size: 48px"">Error!</span>","null","","","","feedback","","","","","","","","","","","","","","","",""
"html-keyboard-response","224","429254","0.0-4.0-1.0-3.33","2dpqn5185o2p7kk","prime","5ec9d530f7f5db50c71639de","5f60e3c0a3b16e07647b2ff9","5f638023a98c9c06ec257155","false","null","<div style=""align-items: center; display: flex; color: darkorange; font-size: 90px""><b>ø</b></div>","null","","","","forget_cue","","","","","","","","","","","","","","","",""
"html-keyboard-response","225","429956","0.0-4.0-1.0-0.34","2dpqn5185o2p7kk","prime","5ec9d530f7f5db50c71639de","5f60e3c0a3b16e07647b2ff9","5f638023a98c9c06ec257155","false","null","<span style=""color: black; font-size: 48px"">N + M</span>","null","","","","resp_prompt","","","","","","","","","","","","","","","",""
"categorize-image","226","430936","0.0-4.0-1.0-1.34","2dpqn5185o2p7kk","prime","5ec9d530f7f5db50c71639de","5f60e3c0a3b16e07647b2ff9","5f638023a98c9c06ec257155","true","976.2600000249222","./Stimuli/SelectedImages/SN/SN64.bmp","83","","","","test","true","N + M","83","repetition","SN","SN64.bmp","forget","","83","3","prime1","left","","","",""
"html-keyboard-response","227","432939","0.0-4.0-1.0-3.34","2dpqn5185o2p7kk","prime","5ec9d530f7f5db50c71639de","5f60e3c0a3b16e07647b2ff9","5f638023a98c9c06ec257155","false","null","<div style=""align-items: center; display: flex; color: darkorange; font-size: 90px""><b>ø</b></div>","null","","","","forget_cue","","","","","","","","","","","","","","","",""
"html-keyboard-response","228","433640","0.0-4.0-1.0-0.35","2dpqn5185o2p7kk","prime","5ec9d530f7f5db50c71639de","5f60e3c0a3b16e07647b2ff9","5f638023a98c9c06ec257155","false","null","<span style=""color: black; font-size: 48px"">M + N</span>","null","","","","resp_prompt","","","","","","","","","","","","","","","",""
"categorize-image","229","435337","0.0-4.0-1.0-1.35","2dpqn5185o2p7kk","prime","5ec9d530f7f5db50c71639de","5f60e3c0a3b16e07647b2ff9","5f638023a98c9c06ec257155","true","1692.5849999533966","./Stimuli/SelectedImages/LM/LM75.bmp","76","","","","test","false","M + N","83","switch","LM","LM75.bmp","forget","","84","3","prime1","right","","","",""
"html-keyboard-response","230","435840","0.0-4.0-1.0-2.35-0.35","2dpqn5185o2p7kk","prime","5ec9d530f7f5db50c71639de","5f60e3c0a3b16e07647b2ff9","5f638023a98c9c06ec257155","false","null","<span style=""color: red; font-size: 48px"">Error!</span>","null","","","","feedback","","","","","","","","","","","","","","","",""
"html-keyboard-response","231","437842","0.0-4.0-1.0-3.35","2dpqn5185o2p7kk","prime","5ec9d530f7f5db50c71639de","5f60e3c0a3b16e07647b2ff9","5f638023a98c9c06ec257155","false","null","<div style=""align-items: center; display: flex; color: darkorange; font-size: 90px""><b>ø</b></div>","null","","","","forget_cue","","","","","","","","","","","","","","","",""
"html-keyboard-response","232","438544","0.0-4.0-1.0-0.36","2dpqn5185o2p7kk","prime","5ec9d530f7f5db50c71639de","5f60e3c0a3b16e07647b2ff9","5f638023a98c9c06ec257155","false","null","<span style=""color: black; font-size: 48px"">N + M</span>","null","","","","resp_prompt","","","","","","","","","","","","","","","",""
"categorize-image","233","439522","0.0-4.0-1.0-1.36","2dpqn5185o2p7kk","prime","5ec9d530f7f5db50c71639de","5f60e3c0a3b16e07647b2ff9","5f638023a98c9c06ec257155","true","973.4950000420213","./Stimuli/SelectedImages/SN/SN27.bmp","83","","","","test","true","N + M","83","switch","SN","SN27.bmp","remember","","85","3","prime1","left","","","",""
"html-keyboard-response","234","441524","0.0-4.0-1.0-3.36","2dpqn5185o2p7kk","prime","5ec9d530f7f5db50c71639de","5f60e3c0a3b16e07647b2ff9","5f638023a98c9c06ec257155","false","null","<div style=""align-items: center; display: flex; color: dodgerblue; font-size: 90px""><b>o</b></div>","null","","","","forget_cue","","","","","","","","","","","","","","","",""
"html-keyboard-response","235","442226","0.0-4.0-1.0-0.37","2dpqn5185o2p7kk","prime","5ec9d530f7f5db50c71639de","5f60e3c0a3b16e07647b2ff9","5f638023a98c9c06ec257155","false","null","<span style=""color: black; font-size: 48px"">M + N</span>","null","","","","resp_prompt","","","","","","","","","","","","","","","",""
"categorize-image","236","442833","0.0-4.0-1.0-1.37","2dpqn5185o2p7kk","prime","5ec9d530f7f5db50c71639de","5f60e3c0a3b16e07647b2ff9","5f638023a98c9c06ec257155","true","603.400000021793","./Stimuli/SelectedImages/SM/SM74.bmp","83","","","","test","true","M + N","83","switch","SM","SM74.bmp","forget","","86","3","prime1","left","","","",""
"html-keyboard-response","237","444836","0.0-4.0-1.0-3.37","2dpqn5185o2p7kk","prime","5ec9d530f7f5db50c71639de","5f60e3c0a3b16e07647b2ff9","5f638023a98c9c06ec257155","false","null","<div style=""align-items: center; display: flex; color: darkorange; font-size: 90px""><b>ø</b></div>","null","","","","forget_cue","","","","","","","","","","","","","","","",""
"html-keyboard-response","238","445538","0.0-4.0-1.0-0.38","2dpqn5185o2p7kk","prime","5ec9d530f7f5db50c71639de","5f60e3c0a3b16e07647b2ff9","5f638023a98c9c06ec257155","false","null","<span style=""color: black; font-size: 48px"">N + M</span>","null","","","","resp_prompt","","","","","","","","","","","","","","","",""
"categorize-image","239","446095","0.0-4.0-1.0-1.38","2dpqn5185o2p7kk","prime","5ec9d530f7f5db50c71639de","5f60e3c0a3b16e07647b2ff9","5f638023a98c9c06ec257155","true","553.0449999496341","./Stimuli/SelectedImages/SM/SM78.bmp","76","","","","test","true","N + M","76","switch","SM","SM78.bmp","remember","","87","3","prime1","right","","","",""
"html-keyboard-response","240","448097","0.0-4.0-1.0-3.38","2dpqn5185o2p7kk","prime","5ec9d530f7f5db50c71639de","5f60e3c0a3b16e07647b2ff9","5f638023a98c9c06ec257155","false","null","<div style=""align-items: center; display: flex; color: dodgerblue; font-size: 90px""><b>o</b></div>","null","","","","forget_cue","","","","","","","","","","","","","","","",""
"html-keyboard-response","241","448799","0.0-4.0-1.0-0.39","2dpqn5185o2p7kk","prime","5ec9d530f7f5db50c71639de","5f60e3c0a3b16e07647b2ff9","5f638023a98c9c06ec257155","false","null","<span style=""color: black; font-size: 48px"">N + M</span>","null","","","","resp_prompt","","","","","","","","","","","","","","","",""
"categorize-image","242","449294","0.0-4.0-1.0-1.39","2dpqn5185o2p7kk","prime","5ec9d530f7f5db50c71639de","5f60e3c0a3b16e07647b2ff9","5f638023a98c9c06ec257155","true","490.6450000125915","./Stimuli/SelectedImages/SN/SN140.bmp","76","","","","test","false","N + M","83","repetition","SN","SN140.bmp","remember","","88","3","prime1","right","","","",""
"html-keyboard-response","243","449796","0.0-4.0-1.0-2.39-0.39","2dpqn5185o2p7kk","prime","5ec9d530f7f5db50c71639de","5f60e3c0a3b16e07647b2ff9","5f638023a98c9c06ec257155","false","null","<span style=""color: red; font-size: 48px"">Error!</span>","null","","","","feedback","","","","","","","","","","","","","","","",""
"html-keyboard-response","244","451799","0.0-4.0-1.0-3.39","2dpqn5185o2p7kk","prime","5ec9d530f7f5db50c71639de","5f60e3c0a3b16e07647b2ff9","5f638023a98c9c06ec257155","false","null","<div style=""align-items: center; display: flex; color: dodgerblue; font-size: 90px""><b>o</b></div>","null","","","","forget_cue","","","","","","","","","","","","","","","",""
"html-keyboard-response","245","452500","0.0-4.0-1.0-0.40","2dpqn5185o2p7kk","prime","5ec9d530f7f5db50c71639de","5f60e3c0a3b16e07647b2ff9","5f638023a98c9c06ec257155","false","null","<span style=""color: black; font-size: 48px"">N + M</span>","null","","","","resp_prompt","","","","","","","","","","","","","","","",""
"categorize-image","246","453083","0.0-4.0-1.0-1.40","2dpqn5185o2p7kk","prime","5ec9d530f7f5db50c71639de","5f60e3c0a3b16e07647b2ff9","5f638023a98c9c06ec257155","true","577.6599999517202","./Stimuli/SelectedImages/SN/SN60.bmp","83","","","","test","true","N + M","83","switch","SN","SN60.bmp","forget","","89","3","prime1","left","","","",""
"html-keyboard-response","247","455085","0.0-4.0-1.0-3.40","2dpqn5185o2p7kk","prime","5ec9d530f7f5db50c71639de","5f60e3c0a3b16e07647b2ff9","5f638023a98c9c06ec257155","false","null","<div style=""align-items: center; display: flex; color: darkorange; font-size: 90px""><b>ø</b></div>","null","","","","forget_cue","","","","","","","","","","","","","","","",""
"html-keyboard-response","248","455786","0.0-4.0-1.0-0.41","2dpqn5185o2p7kk","prime","5ec9d530f7f5db50c71639de","5f60e3c0a3b16e07647b2ff9","5f638023a98c9c06ec257155","false","null","<span style=""color: black; font-size: 48px"">N + M</span>","null","","","","resp_prompt","","","","","","","","","","","","","","","",""
"categorize-image","249","456512","0.0-4.0-1.0-1.41","2dpqn5185o2p7kk","prime","5ec9d530f7f5db50c71639de","5f60e3c0a3b16e07647b2ff9","5f638023a98c9c06ec257155","true","721.1349999997765","./Stimuli/SelectedImages/LN/LN166.bmp","83","","","","test","true","N + M","83","switch","LN","LN166.bmp","remember","","90","3","prime1","left","","","",""
"html-keyboard-response","250","458514","0.0-4.0-1.0-3.41","2dpqn5185o2p7kk","prime","5ec9d530f7f5db50c71639de","5f60e3c0a3b16e07647b2ff9","5f638023a98c9c06ec257155","false","null","<div style=""align-items: center; display: flex; color: dodgerblue; font-size: 90px""><b>o</b></div>","null","","","","forget_cue","","","","","","","","","","","","","","","",""
"html-keyboard-response","251","459217","0.0-4.0-1.0-0.42","2dpqn5185o2p7kk","prime","5ec9d530f7f5db50c71639de","5f60e3c0a3b16e07647b2ff9","5f638023a98c9c06ec257155","false","null","<span style=""color: black; font-size: 48px"">N + M</span>","null","","","","resp_prompt","","","","","","","","","","","","","","","",""
"categorize-image","252","460828","0.0-4.0-1.0-1.42","2dpqn5185o2p7kk","prime","5ec9d530f7f5db50c71639de","5f60e3c0a3b16e07647b2ff9","5f638023a98c9c06ec257155","true","1606.7700000712648","./Stimuli/SelectedImages/LM/LM209.bmp","76","","","","test","true","N + M","76","switch","LM","LM209.bmp","forget","","91","3","prime1","right","","","",""
"html-keyboard-response","253","462830","0.0-4.0-1.0-3.42","2dpqn5185o2p7kk","prime","5ec9d530f7f5db50c71639de","5f60e3c0a3b16e07647b2ff9","5f638023a98c9c06ec257155","false","null","<div style=""align-items: center; display: flex; color: darkorange; font-size: 90px""><b>ø</b></div>","null","","","","forget_cue","","","","","","","","","","","","","","","",""
