"trial_type","trial_index","time_elapsed","internal_node_id","subject","exp_part","prolific_PID","study_ID","session_ID","use","rt","stimulus","key_press","button_pressed","responses","question_order","trial_part","correct","resp_map","correct_resp","probe_condition","category","image","forget_condition","list","trial_num","block_num","block","response","test_part","n_span","sequence","num_spaces"
"pavlovia","0","10","0.0-0.0","y2yne6vah5kxp3e","","5e59aa5be0777c1aa4e2c2de","5f60e3c0a3b16e07647b2ff9","5f646a5f68efb31fb0bfe668","false","","","","","","","","","","","","","","","","","","","","","","",""
"html-keyboard-response","1","29820","0.0-1.0-0.0-0.0","y2yne6vah5kxp3e","welcome","5e59aa5be0777c1aa4e2c2de","5f60e3c0a3b16e07647b2ff9","5f646a5f68efb31fb0bfe668","false","29800.459999998566","<div align=left>Dear participant, <br> thank you for participating in an online study of the Cognition, Action, and Sustainability Unit of the University of Freiburg! <br> <br>The aim of this study is to examine our ability to remember previously learned information. <br>Our goal is to find out, whether our memory improves, when we only remember information that is relevant to us. <br>The experiment will take about 35 minutes to complete. <br> <br>Please, note that you can only participate in this study if you are using a device with a keyboard (PC, Laptop etc.) <br>and not if you are using a mobile device such as a tablet or smartphone.<br> <br>Press 'SPACE' to proceed to the experiment. </div>","32","","","","","","","","","","","","","","","","","","","",""
"html-keyboard-response","2","52697","0.0-1.0-0.0-1.0","y2yne6vah5kxp3e","welcome","5e59aa5be0777c1aa4e2c2de","5f60e3c0a3b16e07647b2ff9","5f646a5f68efb31fb0bfe668","false","22868.86499999673","<div align=left><strong> Time Course of this experiment: </strong> <br><br> <strong> 1.</strong>  First, please fill in some information regarding your demographic data. <br><br> <strong> 2.</strong>  Next, your task will be to classify everyday objects. <br>In addition, you will be asked to remember certain objects and recall them later. <br>Working on these tasks requires your undivided attention and concentration.<br>It is therefore essential that you eliminate any sources of distraction in your  <br>environment and ensure that you will not be disturbed. <br><br><strong> 3.</strong>  At the end of the experiment, you will be asked to answer a few additional questions. <br> <br><strong> Important:</strong> After finishing the experiment, only close the browser window <br> by clicking on the 'end the experiment'-button when you are asked to do so. <br>Closing the browser window prematurely will make the allocation of your participation credit impossible. <br><br> Press 'SPACE' to start the experiment. </div>","32","","","","","","","","","","","","","","","","","","","",""
"html-button-response","3","68227","0.0-1.0-0.0-2.0","y2yne6vah5kxp3e","welcome","5e59aa5be0777c1aa4e2c2de","5f60e3c0a3b16e07647b2ff9","5f646a5f68efb31fb0bfe668","true","15523.140000004787","<div align=left><strong> Informed consent </strong>  <br>The aim of our research is to better understand human behavior and mental processes. <br>In the following study your behavior (e.g. choices, reaction times) will be studied. <br> <br><strong> Voluntariness and Anonymity </strong> <br>Your participation in this study is  <strong> voluntary</strong>.<br>You may withdraw your consent to participate at any time without providing a reason for doing so and without fear of prejudice. <br><br>As no personal data will be collected, <strong>your data and your person cannot be connected after data collection</strong> – the data-set is anonymous. <br>Respectively, deletion of your data will not be possible after data collection has been completed, as we cannot retrace your data-set.<br>The results and anonymized data collected in this study will be published as a scientific publication. <br>This will happen in an <strong>anonymized format</strong>, so that no data can be traced back to a specific person. <br> <br>The anonymized data of this study will be made available to other researchers and/or in a data archive on the Internet as a means of transparency and to enable subsequent re-use. By doing so, this study follows the recommendations of the Deutsche Forschungsgemeinschaft (DFG, German Research Foundation) and Deutsche Gesellschaft für Psychologie (DGPS, German Psychological Society) regarding quality assurance in research.<br>If you have any questions now or after the experiment, please contact our team (experiments@cs.uni-freiburg.de).<br><br><br>I hereby declare, that I understand the above described conditions of participation and I agree to participate under these conditions. <br><br> </div>","","0","","","","","","","","","","","","","","","","","","",""
"html-keyboard-response","4","143391","0.0-1.0-0.0-3.0","y2yne6vah5kxp3e","welcome","5e59aa5be0777c1aa4e2c2de","5f60e3c0a3b16e07647b2ff9","5f646a5f68efb31fb0bfe668","false","75155.57999999874","<div align=left><strong> General information concerning the experiment </strong>  <br> <br>Please follow the instructions:<ol> <li><strong> Do not leave this tab (your browser window) during the experiment and do not reload this tab! </strong>  <br>If you do switch tabs/windows during the experiment (to check your mail or visit another website, for example), <br>the experiment will end automatically and you will <strong>not receive credit</strong> for your participation. <br>Repeated participation or resumption of the experiment is impossible.</li> <br><li>Please close all other programs for the duration of your participation. </li> <br><li>Please mute or turn off your phone and put it out of your reach. </li> <br><li>Please also take off any disturbing accessories (such as wristwatches, bracelets, etc.). </li> <br><li>If you have music playing in the background, please turn it off now. </li> <br></ol>Thank you! <br>Press 'SPACE' to continue. </div>","32","","","","","","","","","","","","","","","","","","","",""
"survey-text","5","148290","0.0-1.0-1.0-0.0","y2yne6vah5kxp3e","demographics","5e59aa5be0777c1aa4e2c2de","5f60e3c0a3b16e07647b2ff9","5f646a5f68efb31fb0bfe668","true","4885.479999997187","","","","{""age"":""19""}","","","","","","","","","","","","","","","","","",""
"survey-multi-choice","6","168682","0.0-1.0-1.0-1.0","y2yne6vah5kxp3e","demographics","5e59aa5be0777c1aa4e2c2de","5f60e3c0a3b16e07647b2ff9","5f646a5f68efb31fb0bfe668","true","20382.604999998875","","","","{""gender"":""female"",""school"":""others"",""education"":""Still in training/ university""}","[0,1,2]","","","","","","","","","","","","","","","","",""
"survey-text","7","183548","0.0-1.0-1.0-2.0-0.0","y2yne6vah5kxp3e","demographics","5e59aa5be0777c1aa4e2c2de","5f60e3c0a3b16e07647b2ff9","5f646a5f68efb31fb0bfe668","true","14832.72500000021","","","","{""education_text"":""undergraduate degree ""}","","","","","","","","","","","","","","","","","",""
"html-keyboard-response","8","203528","0.0-1.0-2.0","y2yne6vah5kxp3e","instructions","5e59aa5be0777c1aa4e2c2de","5f60e3c0a3b16e07647b2ff9","5f646a5f68efb31fb0bfe668","false","19976.755000003322","<div align=left> The experiment is now about to start: <br> <br>In the following part, you will be presented pictures of everyday objects. <br>Your first task is to <strong>classify these objects. </strong> <br> <br> You will classify them either as mechanical or non-mechanical objects. <br> <br>Objects that include any kind of technical mechanism (for example, wheels, switches, levers, <br> electronic components) fall under the category of <strong>mechanical</strong> objects. <br>Only objects without any kind of technical mechanism should be classified as <strong>non-mechanical</strong>. <br><br>Press 'SPACE' to continue. </div>","32","","","","","","","","","","","","","","","","","","","",""
"html-keyboard-response","9","256860","0.0-2.0-0.0","y2yne6vah5kxp3e","instructions","5e59aa5be0777c1aa4e2c2de","5f60e3c0a3b16e07647b2ff9","5f646a5f68efb31fb0bfe668","false","53325.989999997546","<div align=justify>You will classify the objects using the <strong>'S'</strong> and the <strong>'L'</strong> keys on your keyboard.<br>For doing so, please place your <strong>left index finger</strong> on the <strong>'S'</strong> key and place your <strong>right index finger</strong> on the <strong>'L'</strong> key. <br><br> Each trial starts with an instruction, indicating which key ('S'/'L') you need to press to classify <br>the object as mechanical (letter M) or non-mechanical (letter N).<br>The instruction <strong>M + N</strong> indicates that, in the current trial, by pressing the left key ('S') you classify the displayed object as mechanical (M) <br> and by pressing the right key ('L') you classify the object as non-mechanical (N). <br>The instruction <strong>N + M</strong> on the other hand indicates that by pressing the left key ('S') you classify the displayed object as non-mechanical (N) <br> and by pressing the right key ('L') you classify the object as mechanical (M). <br><br>Please press the key corresponding to the correct classification as fast as possible as soon as the object is displayed and try to avoid making mistakes.<br>If you do not respond within a 2 second window, a corresponding feedback will be displayed and the next trial will start.<br> The experiment is divided into multiple blocks to give you the opportunity to take a break after each block. <br>First, you can now practice this task. <br><br>Please place your <strong>LEFT INDEX FINGER</strong> on the 'S' key and your <strong>RIGHT INDEX FINGER</strong> on the 'L' key now. <br><br>Press SPACE to continue.</div>","32","","","","","","","","","","","","","","","","","","","",""
"html-keyboard-response","10","275623","0.0-2.0-1.0","y2yne6vah5kxp3e","instructions","5e59aa5be0777c1aa4e2c2de","5f60e3c0a3b16e07647b2ff9","5f646a5f68efb31fb0bfe668","false","18755.72999999713","<div align=left> You will now have time to practice this task.<br><br>Remember: <br> <br><li>Please place your index fingers on the <strong>'S'</strong> and <strong>'L'</strong> keys <br>to respond as fast and accurately as possible.</li><li>Every picture can be classified as either mechanical or non-mechanical.</li><li>If you do not respond in time or commit an error, you will receive a corresponding feedback. </li><li> Please try to respond as <strong> fast </strong> and as <strong> accurately as possible </strong> .<br><li>To ensure optimal results, please minimize distractions and stay focused. </li><br><br>Press SPACE to continue.</div>","32","","","","","","","","","","","","","","","","","","","",""
"html-keyboard-response","11","276331","0.0-2.0-2.0-0.0","y2yne6vah5kxp3e","practice_no_cue","5e59aa5be0777c1aa4e2c2de","5f60e3c0a3b16e07647b2ff9","5f646a5f68efb31fb0bfe668","false","null","<span style=""color: black; font-size: 48px"">N + M</span>","null","","","","resp_prompt","","","","","","","","","","","","","","","",""
"categorize-image","12","277862","0.0-2.0-2.0-1.0","y2yne6vah5kxp3e","practice_no_cue","5e59aa5be0777c1aa4e2c2de","5f60e3c0a3b16e07647b2ff9","5f646a5f68efb31fb0bfe668","true","1011.8000000002212","./Stimuli/ImagesPractice/SN75.jpg","76","","","","test","false","N + M","83","","SN","SN75.jpg","forget","old","1","1","start","right","","","",""
"html-keyboard-response","13","278570","0.0-2.0-2.0-0.1","y2yne6vah5kxp3e","practice_no_cue","5e59aa5be0777c1aa4e2c2de","5f60e3c0a3b16e07647b2ff9","5f646a5f68efb31fb0bfe668","false","null","<span style=""color: black; font-size: 48px"">M + N</span>","null","","","","resp_prompt","","","","","","","","","","","","","","","",""
"categorize-image","14","280101","0.0-2.0-2.0-1.1","y2yne6vah5kxp3e","practice_no_cue","5e59aa5be0777c1aa4e2c2de","5f60e3c0a3b16e07647b2ff9","5f646a5f68efb31fb0bfe668","true","1021.7149999953108","./Stimuli/ImagesPractice/SM35.jpg","83","","","","test","true","M + N","83","","SM","SM35.jpg","forget","old","2","1","start","left","","","",""
"html-keyboard-response","15","280804","0.0-2.0-2.0-0.2","y2yne6vah5kxp3e","practice_no_cue","5e59aa5be0777c1aa4e2c2de","5f60e3c0a3b16e07647b2ff9","5f646a5f68efb31fb0bfe668","false","null","<span style=""color: black; font-size: 48px"">M + N</span>","null","","","","resp_prompt","","","","","","","","","","","","","","","",""
"categorize-image","16","282062","0.0-2.0-2.0-1.2","y2yne6vah5kxp3e","practice_no_cue","5e59aa5be0777c1aa4e2c2de","5f60e3c0a3b16e07647b2ff9","5f646a5f68efb31fb0bfe668","true","751.4000000010128","./Stimuli/ImagesPractice/LM224.jpg","83","","","","test","true","M + N","83","","LM","LM224.jpg","remember","old","3","1","start","left","","","",""
"html-keyboard-response","17","282767","0.0-2.0-2.0-0.3","y2yne6vah5kxp3e","practice_no_cue","5e59aa5be0777c1aa4e2c2de","5f60e3c0a3b16e07647b2ff9","5f646a5f68efb31fb0bfe668","false","null","<span style=""color: black; font-size: 48px"">N + M</span>","null","","","","resp_prompt","","","","","","","","","","","","","","","",""
"categorize-image","18","283889","0.0-2.0-2.0-1.3","y2yne6vah5kxp3e","practice_no_cue","5e59aa5be0777c1aa4e2c2de","5f60e3c0a3b16e07647b2ff9","5f646a5f68efb31fb0bfe668","true","609.745000001567","./Stimuli/ImagesPractice/LN72.jpg","76","","","","test","false","N + M","83","","LN","LN72.jpg","remember","old","4","1","start","right","","","",""
"html-keyboard-response","19","284595","0.0-2.0-2.0-0.4","y2yne6vah5kxp3e","practice_no_cue","5e59aa5be0777c1aa4e2c2de","5f60e3c0a3b16e07647b2ff9","5f646a5f68efb31fb0bfe668","false","null","<span style=""color: black; font-size: 48px"">N + M</span>","null","","","","resp_prompt","","","","","","","","","","","","","","","",""
"categorize-image","20","286374","0.0-2.0-2.0-1.4","y2yne6vah5kxp3e","practice_no_cue","5e59aa5be0777c1aa4e2c2de","5f60e3c0a3b16e07647b2ff9","5f646a5f68efb31fb0bfe668","true","1265.8300000039162","./Stimuli/ImagesPractice/LM143.jpg","76","","","","test","true","N + M","76","","LM","LM143.jpg","forget","old","5","1","start","right","","","",""
"html-keyboard-response","21","287080","0.0-2.0-2.0-0.5","y2yne6vah5kxp3e","practice_no_cue","5e59aa5be0777c1aa4e2c2de","5f60e3c0a3b16e07647b2ff9","5f646a5f68efb31fb0bfe668","false","null","<span style=""color: black; font-size: 48px"">N + M</span>","null","","","","resp_prompt","","","","","","","","","","","","","","","",""
"categorize-image","22","288645","0.0-2.0-2.0-1.5","y2yne6vah5kxp3e","practice_no_cue","5e59aa5be0777c1aa4e2c2de","5f60e3c0a3b16e07647b2ff9","5f646a5f68efb31fb0bfe668","true","1054.4300000037765","./Stimuli/ImagesPractice/SM97.jpg","83","","","","test","false","N + M","76","","SM","SM97.jpg","forget","old","6","1","start","left","","","",""
"html-keyboard-response","23","289350","0.0-2.0-2.0-0.6","y2yne6vah5kxp3e","practice_no_cue","5e59aa5be0777c1aa4e2c2de","5f60e3c0a3b16e07647b2ff9","5f646a5f68efb31fb0bfe668","false","null","<span style=""color: black; font-size: 48px"">M + N</span>","null","","","","resp_prompt","","","","","","","","","","","","","","","",""
"categorize-image","24","290913","0.0-2.0-2.0-1.6","y2yne6vah5kxp3e","practice_no_cue","5e59aa5be0777c1aa4e2c2de","5f60e3c0a3b16e07647b2ff9","5f646a5f68efb31fb0bfe668","true","1051.500000001397","./Stimuli/ImagesPractice/LN15.jpg","76","","","","test","true","M + N","76","","LN","LN15.jpg","remember","old","7","1","start","right","","","",""
"html-keyboard-response","25","291618","0.0-2.0-2.0-0.7","y2yne6vah5kxp3e","practice_no_cue","5e59aa5be0777c1aa4e2c2de","5f60e3c0a3b16e07647b2ff9","5f646a5f68efb31fb0bfe668","false","null","<span style=""color: black; font-size: 48px"">M + N</span>","null","","","","resp_prompt","","","","","","","","","","","","","","","",""
"categorize-image","26","293037","0.0-2.0-2.0-1.7","y2yne6vah5kxp3e","practice_no_cue","5e59aa5be0777c1aa4e2c2de","5f60e3c0a3b16e07647b2ff9","5f646a5f68efb31fb0bfe668","true","901.8250000008265","./Stimuli/ImagesPractice/LM55.jpg","83","","","","test","true","M + N","83","","LM","LM55.jpg","forget","old","8","1","start","left","","","",""
"html-keyboard-response","27","293742","0.0-2.0-2.0-0.8","y2yne6vah5kxp3e","practice_no_cue","5e59aa5be0777c1aa4e2c2de","5f60e3c0a3b16e07647b2ff9","5f646a5f68efb31fb0bfe668","false","null","<span style=""color: black; font-size: 48px"">M + N</span>","null","","","","resp_prompt","","","","","","","","","","","","","","","",""
"categorize-image","28","294840","0.0-2.0-2.0-1.8","y2yne6vah5kxp3e","practice_no_cue","5e59aa5be0777c1aa4e2c2de","5f60e3c0a3b16e07647b2ff9","5f646a5f68efb31fb0bfe668","true","587.9750000021886","./Stimuli/ImagesPractice/SM98.jpg","83","","","","test","true","M + N","83","","SM","SM98.jpg","forget","old","9","1","start","left","","","",""
"html-keyboard-response","29","295545","0.0-2.0-2.0-0.9","y2yne6vah5kxp3e","practice_no_cue","5e59aa5be0777c1aa4e2c2de","5f60e3c0a3b16e07647b2ff9","5f646a5f68efb31fb0bfe668","false","null","<span style=""color: black; font-size: 48px"">N + M</span>","null","","","","resp_prompt","","","","","","","","","","","","","","","",""
"categorize-image","30","296898","0.0-2.0-2.0-1.9","y2yne6vah5kxp3e","practice_no_cue","5e59aa5be0777c1aa4e2c2de","5f60e3c0a3b16e07647b2ff9","5f646a5f68efb31fb0bfe668","true","845.4449999990175","./Stimuli/ImagesPractice/SN205.jpg","83","","","","test","true","N + M","83","","SN","SN205.jpg","remember","old","10","1","start","left","","","",""
"html-keyboard-response","31","297604","0.0-2.0-2.0-0.10","y2yne6vah5kxp3e","practice_no_cue","5e59aa5be0777c1aa4e2c2de","5f60e3c0a3b16e07647b2ff9","5f646a5f68efb31fb0bfe668","false","null","<span style=""color: black; font-size: 48px"">M + N</span>","null","","","","resp_prompt","","","","","","","","","","","","","","","",""
"categorize-image","32","299095","0.0-2.0-2.0-1.10","y2yne6vah5kxp3e","practice_no_cue","5e59aa5be0777c1aa4e2c2de","5f60e3c0a3b16e07647b2ff9","5f646a5f68efb31fb0bfe668","true","980.489999994461","./Stimuli/ImagesPractice/SN220.jpg","76","","","","test","true","M + N","76","","SN","SN220.jpg","forget","old","11","1","start","right","","","",""
"html-keyboard-response","33","299800","0.0-2.0-2.0-0.11","y2yne6vah5kxp3e","practice_no_cue","5e59aa5be0777c1aa4e2c2de","5f60e3c0a3b16e07647b2ff9","5f646a5f68efb31fb0bfe668","false","null","<span style=""color: black; font-size: 48px"">M + N</span>","null","","","","resp_prompt","","","","","","","","","","","","","","","",""
"categorize-image","34","300907","0.0-2.0-2.0-1.11","y2yne6vah5kxp3e","practice_no_cue","5e59aa5be0777c1aa4e2c2de","5f60e3c0a3b16e07647b2ff9","5f646a5f68efb31fb0bfe668","true","597.8150000009919","./Stimuli/ImagesPractice/SN76.jpg","76","","","","test","true","M + N","76","","SN","SN76.jpg","remember","old","12","1","start","right","","","",""
"html-keyboard-response","35","301611","0.0-2.0-2.0-0.12","y2yne6vah5kxp3e","practice_no_cue","5e59aa5be0777c1aa4e2c2de","5f60e3c0a3b16e07647b2ff9","5f646a5f68efb31fb0bfe668","false","null","<span style=""color: black; font-size: 48px"">N + M</span>","null","","","","resp_prompt","","","","","","","","","","","","","","","",""
"categorize-image","36","303016","0.0-2.0-2.0-1.12","y2yne6vah5kxp3e","practice_no_cue","5e59aa5be0777c1aa4e2c2de","5f60e3c0a3b16e07647b2ff9","5f646a5f68efb31fb0bfe668","true","895.3500000061467","./Stimuli/ImagesPractice/LN2.jpg","83","","","","test","true","N + M","83","","LN","LN2.jpg","remember","old","13","1","start","left","","","",""
"html-keyboard-response","37","303721","0.0-2.0-2.0-0.13","y2yne6vah5kxp3e","practice_no_cue","5e59aa5be0777c1aa4e2c2de","5f60e3c0a3b16e07647b2ff9","5f646a5f68efb31fb0bfe668","false","null","<span style=""color: black; font-size: 48px"">N + M</span>","null","","","","resp_prompt","","","","","","","","","","","","","","","",""
"categorize-image","38","305284","0.0-2.0-2.0-1.13","y2yne6vah5kxp3e","practice_no_cue","5e59aa5be0777c1aa4e2c2de","5f60e3c0a3b16e07647b2ff9","5f646a5f68efb31fb0bfe668","true","1050.2199999973527","./Stimuli/ImagesPractice/SM62.jpg","76","","","","test","true","N + M","76","","SM","SM62.jpg","forget","old","14","1","start","right","","","",""
"html-keyboard-response","39","305990","0.0-2.0-2.0-0.14","y2yne6vah5kxp3e","practice_no_cue","5e59aa5be0777c1aa4e2c2de","5f60e3c0a3b16e07647b2ff9","5f646a5f68efb31fb0bfe668","false","null","<span style=""color: black; font-size: 48px"">M + N</span>","null","","","","resp_prompt","","","","","","","","","","","","","","","",""
"categorize-image","40","308135","0.0-2.0-2.0-1.14","y2yne6vah5kxp3e","practice_no_cue","5e59aa5be0777c1aa4e2c2de","5f60e3c0a3b16e07647b2ff9","5f646a5f68efb31fb0bfe668","true","1635.4449999998906","./Stimuli/ImagesPractice/LN109.jpg","76","","","","test","true","M + N","76","","LN","LN109.jpg","remember","old","15","1","start","right","","","",""
"html-keyboard-response","41","308841","0.0-2.0-2.0-0.15","y2yne6vah5kxp3e","practice_no_cue","5e59aa5be0777c1aa4e2c2de","5f60e3c0a3b16e07647b2ff9","5f646a5f68efb31fb0bfe668","false","null","<span style=""color: black; font-size: 48px"">N + M</span>","null","","","","resp_prompt","","","","","","","","","","","","","","","",""
"categorize-image","42","310271","0.0-2.0-2.0-1.15","y2yne6vah5kxp3e","practice_no_cue","5e59aa5be0777c1aa4e2c2de","5f60e3c0a3b16e07647b2ff9","5f646a5f68efb31fb0bfe668","true","920.7800000003772","./Stimuli/ImagesPractice/LN4.jpg","76","","","","test","false","N + M","83","","LN","LN4.jpg","remember","old","16","1","start","right","","","",""
"html-keyboard-response","43","325697","0.0-2.0-3.0","y2yne6vah5kxp3e","break","5e59aa5be0777c1aa4e2c2de","5f60e3c0a3b16e07647b2ff9","5f646a5f68efb31fb0bfe668","false","15417.31499999878","<p style='font-size: 32px;'>Break</><br><br><br><br><br><p style='font-size: 24px;'>In the last block, you committed 4 errors and did not respond in time on 0 trials.
</p><p style='font-size: 24px;'>Try to respond as fast and accurately as possible in the next block as well! </p><p style='font-size: 24px;'>Press SPACE to continue.</p>","32","","","","","","","","","","","","","","","","","","","",""
"html-keyboard-response","44","329169","0.0-2.0-4.0","y2yne6vah5kxp3e","instructions","5e59aa5be0777c1aa4e2c2de","5f60e3c0a3b16e07647b2ff9","5f646a5f68efb31fb0bfe668","false","3468.4500000003027","<div align=left> Great!<br><br>Are you ready to continue?<br><br>If you want to reread the instructions and redo the practice trials, <br>please press „Z“. <br><br>Press SPACE to CONTINUE with the experiment when you are ready. </div>","32","","","","","","","","","","","","","","","","","","","",""
"html-keyboard-response","45","370724","0.0-3.0-0.0","y2yne6vah5kxp3e","instructions","5e59aa5be0777c1aa4e2c2de","5f60e3c0a3b16e07647b2ff9","5f646a5f68efb31fb0bfe668","false","41546.030000004976","<div align=left>Great!<br> <strong>Attention</strong>! You will now receive a second, additional task! <br><br>To this point it was you <strong>first task</strong> to correctly <strong>classify objects</strong>. <br><br>As mentioned in the beginning, we aim to examine how well humans can remember previously learned information.<br>We would like to find out whether our memory improves if we only remember information that is relevant to us. <br><br>Therefore, your <strong>second task</strong> will be to <strong>remember</strong> the pictures you are to categorize. <br> After the learning phase, there will be a memory test phase, in which you will be asked to indicate whether you have seen a picture before or not. <br>Some, but not all pictures shown in the learning phase will appear in the memory test phase.<br>After classifying a picture, you will be told whether you should remember it for the memory test phase or not. <br>Thus, some pictures can be forgotten, whereas others have to be remembered. <br><br>Note: From now on, feedback will only be displayed if you responded incorrectly or not in time.<br><br>Press SPACE to continue.</div>","32","","","","","","","","","","","","","","","","","","","",""
"html-keyboard-response","46","407432","0.0-3.0-1.0","y2yne6vah5kxp3e","instructions","5e59aa5be0777c1aa4e2c2de","5f60e3c0a3b16e07647b2ff9","5f646a5f68efb31fb0bfe668","false","36700.40000000154","<div align=left>In the following part, you will thus have to remember only some pictures. <br>Immediately after seeing and classifying the picture, a symbol will be displayed, indicating whether you should remember or forget the previous picture. <br><br>A <span style='color: dodgerblue; font-size: 28px'>O</span> indicates REMEMBER. That means, you have to remember this picture, because it will be tested later. <br><br>A <span style='color: darkorange; font-size:28px'>Ø</span> indicates FORGET. You do not have to remember this picture. <br><br> As you will have to remember a lot of pictures, it will be hard for you to remember all of them. <br>It will put you at an advantage if you instantly forget the pictures you are not asked to remember. <br> This will make it easier for you to remember the pictures that will be tested afterwards. <br><br>Press SPACE to continue.</div>","32","","","","","","","","","","","","","","","","","","","",""
"html-keyboard-response","47","417501","0.0-3.0-2.0","y2yne6vah5kxp3e","instructions","5e59aa5be0777c1aa4e2c2de","5f60e3c0a3b16e07647b2ff9","5f646a5f68efb31fb0bfe668","false","10061.994999996386","<div align=left> Now you have the chance to practice both tasks together.<br><br>Remember: <br> <br><li>Please place your index fingers on the <strong>'S'</strong> and <strong>'L'</strong> keys <br>to respond as fast and accurately as possible.</li><li>Every picture can be classified as either mechanical or non-mechanical.</li><li>If you do not respond in time or commit an error, you will receive a corresponding feedback. <br>Please try to respond as <strong> fast </strong> and as <strong> accurately as possible </strong>.</li><li> Please remember only the to-be-remembered <span style='color: dodgerblue; font-size: 28px'>O</span> pictures. <br></li><li> Please minimize distractions and stay focused. </li><br><br>Press SPACE to START</div>","32","","","","","","","","","","","","","","","","","","","",""
"html-keyboard-response","48","418209","0.0-3.0-3.0-0.0","y2yne6vah5kxp3e","practice_cue","5e59aa5be0777c1aa4e2c2de","5f60e3c0a3b16e07647b2ff9","5f646a5f68efb31fb0bfe668","false","null","<span style=""color: black; font-size: 48px"">M + N</span>","null","","","","resp_prompt","","","","","","","","","","","","","","","",""
"categorize-image","49","418790","0.0-3.0-3.0-1.0","y2yne6vah5kxp3e","practice_cue","5e59aa5be0777c1aa4e2c2de","5f60e3c0a3b16e07647b2ff9","5f646a5f68efb31fb0bfe668","true","560.7299999974202","./Stimuli/ImagesPractice/SM98.jpg","83","","","","test","true","M + N","83","","SM","SM98.jpg","forget","old","17","2","practice_forget","left","","","",""
"html-keyboard-response","50","420793","0.0-3.0-3.0-3.0","y2yne6vah5kxp3e","practice_cue","5e59aa5be0777c1aa4e2c2de","5f60e3c0a3b16e07647b2ff9","5f646a5f68efb31fb0bfe668","false","null","<div style=""align-items: center; display: flex; color: darkorange; font-size: 90px""><b>ø</b></div>","null","","","","forget_cue","","","","","","","","","","","","","","","",""
"html-keyboard-response","51","421498","0.0-3.0-3.0-0.1","y2yne6vah5kxp3e","practice_cue","5e59aa5be0777c1aa4e2c2de","5f60e3c0a3b16e07647b2ff9","5f646a5f68efb31fb0bfe668","false","null","<span style=""color: black; font-size: 48px"">N + M</span>","null","","","","resp_prompt","","","","","","","","","","","","","","","",""
"categorize-image","52","422532","0.0-3.0-3.0-1.1","y2yne6vah5kxp3e","practice_cue","5e59aa5be0777c1aa4e2c2de","5f60e3c0a3b16e07647b2ff9","5f646a5f68efb31fb0bfe668","true","1014.9550000060117","./Stimuli/ImagesPractice/LM143.jpg","83","","","","test","false","N + M","76","","LM","LM143.jpg","forget","old","18","2","practice_forget","left","","","",""
"html-keyboard-response","53","423035","0.0-3.0-3.0-2.1-0.1","y2yne6vah5kxp3e","practice_cue","5e59aa5be0777c1aa4e2c2de","5f60e3c0a3b16e07647b2ff9","5f646a5f68efb31fb0bfe668","false","null","<span style=""color: red; font-size: 48px"">Error!</span>","null","","","","feedback","","","","","","","","","","","","","","","",""
"html-keyboard-response","54","425040","0.0-3.0-3.0-3.1","y2yne6vah5kxp3e","practice_cue","5e59aa5be0777c1aa4e2c2de","5f60e3c0a3b16e07647b2ff9","5f646a5f68efb31fb0bfe668","false","null","<div style=""align-items: center; display: flex; color: darkorange; font-size: 90px""><b>ø</b></div>","null","","","","forget_cue","","","","","","","","","","","","","","","",""
"html-keyboard-response","55","425745","0.0-3.0-3.0-0.2","y2yne6vah5kxp3e","practice_cue","5e59aa5be0777c1aa4e2c2de","5f60e3c0a3b16e07647b2ff9","5f646a5f68efb31fb0bfe668","false","null","<span style=""color: black; font-size: 48px"">M + N</span>","null","","","","resp_prompt","","","","","","","","","","","","","","","",""
"categorize-image","56","426717","0.0-3.0-3.0-1.2","y2yne6vah5kxp3e","practice_cue","5e59aa5be0777c1aa4e2c2de","5f60e3c0a3b16e07647b2ff9","5f646a5f68efb31fb0bfe668","true","951.0099999970407","./Stimuli/ImagesPractice/SM35.jpg","83","","","","test","true","M + N","83","","SM","SM35.jpg","forget","old","19","2","practice_forget","left","","","",""
"html-keyboard-response","57","428719","0.0-3.0-3.0-3.2","y2yne6vah5kxp3e","practice_cue","5e59aa5be0777c1aa4e2c2de","5f60e3c0a3b16e07647b2ff9","5f646a5f68efb31fb0bfe668","false","null","<div style=""align-items: center; display: flex; color: darkorange; font-size: 90px""><b>ø</b></div>","null","","","","forget_cue","","","","","","","","","","","","","","","",""
"html-keyboard-response","58","429424","0.0-3.0-3.0-0.3","y2yne6vah5kxp3e","practice_cue","5e59aa5be0777c1aa4e2c2de","5f60e3c0a3b16e07647b2ff9","5f646a5f68efb31fb0bfe668","false","null","<span style=""color: black; font-size: 48px"">M + N</span>","null","","","","resp_prompt","","","","","","","","","","","","","","","",""
"categorize-image","59","430021","0.0-3.0-3.0-1.3","y2yne6vah5kxp3e","practice_cue","5e59aa5be0777c1aa4e2c2de","5f60e3c0a3b16e07647b2ff9","5f646a5f68efb31fb0bfe668","true","584.3049999966752","./Stimuli/ImagesPractice/LM55.jpg","83","","","","test","true","M + N","83","","LM","LM55.jpg","forget","old","20","2","practice_forget","left","","","",""
"html-keyboard-response","60","432027","0.0-3.0-3.0-3.3","y2yne6vah5kxp3e","practice_cue","5e59aa5be0777c1aa4e2c2de","5f60e3c0a3b16e07647b2ff9","5f646a5f68efb31fb0bfe668","false","null","<div style=""align-items: center; display: flex; color: darkorange; font-size: 90px""><b>ø</b></div>","null","","","","forget_cue","","","","","","","","","","","","","","","",""
"html-keyboard-response","61","432734","0.0-3.0-3.0-0.4","y2yne6vah5kxp3e","practice_cue","5e59aa5be0777c1aa4e2c2de","5f60e3c0a3b16e07647b2ff9","5f646a5f68efb31fb0bfe668","false","null","<span style=""color: black; font-size: 48px"">M + N</span>","null","","","","resp_prompt","","","","","","","","","","","","","","","",""
"categorize-image","62","433569","0.0-3.0-3.0-1.4","y2yne6vah5kxp3e","practice_cue","5e59aa5be0777c1aa4e2c2de","5f60e3c0a3b16e07647b2ff9","5f646a5f68efb31fb0bfe668","true","815.9250000026077","./Stimuli/ImagesPractice/LN109.jpg","76","","","","test","true","M + N","76","","LN","LN109.jpg","remember","old","21","2","practice_forget","right","","","",""
"html-keyboard-response","63","435575","0.0-3.0-3.0-3.4","y2yne6vah5kxp3e","practice_cue","5e59aa5be0777c1aa4e2c2de","5f60e3c0a3b16e07647b2ff9","5f646a5f68efb31fb0bfe668","false","null","<div style=""align-items: center; display: flex; color: dodgerblue; font-size: 90px""><b>o</b></div>","null","","","","forget_cue","","","","","","","","","","","","","","","",""
"html-keyboard-response","64","436280","0.0-3.0-3.0-0.5","y2yne6vah5kxp3e","practice_cue","5e59aa5be0777c1aa4e2c2de","5f60e3c0a3b16e07647b2ff9","5f646a5f68efb31fb0bfe668","false","null","<span style=""color: black; font-size: 48px"">N + M</span>","null","","","","resp_prompt","","","","","","","","","","","","","","","",""
"categorize-image","65","437174","0.0-3.0-3.0-1.5","y2yne6vah5kxp3e","practice_cue","5e59aa5be0777c1aa4e2c2de","5f60e3c0a3b16e07647b2ff9","5f646a5f68efb31fb0bfe668","true","876.2549999955809","./Stimuli/ImagesPractice/LN72.jpg","83","","","","test","true","N + M","83","","LN","LN72.jpg","remember","old","22","2","practice_forget","left","","","",""
"html-keyboard-response","66","439177","0.0-3.0-3.0-3.5","y2yne6vah5kxp3e","practice_cue","5e59aa5be0777c1aa4e2c2de","5f60e3c0a3b16e07647b2ff9","5f646a5f68efb31fb0bfe668","false","null","<div style=""align-items: center; display: flex; color: dodgerblue; font-size: 90px""><b>o</b></div>","null","","","","forget_cue","","","","","","","","","","","","","","","",""
"html-keyboard-response","67","439881","0.0-3.0-3.0-0.6","y2yne6vah5kxp3e","practice_cue","5e59aa5be0777c1aa4e2c2de","5f60e3c0a3b16e07647b2ff9","5f646a5f68efb31fb0bfe668","false","null","<span style=""color: black; font-size: 48px"">M + N</span>","null","","","","resp_prompt","","","","","","","","","","","","","","","",""
"categorize-image","68","440838","0.0-3.0-3.0-1.6","y2yne6vah5kxp3e","practice_cue","5e59aa5be0777c1aa4e2c2de","5f60e3c0a3b16e07647b2ff9","5f646a5f68efb31fb0bfe668","true","932.63499999739","./Stimuli/ImagesPractice/LN15.jpg","76","","","","test","true","M + N","76","","LN","LN15.jpg","remember","old","23","2","practice_forget","right","","","",""
"html-keyboard-response","69","442843","0.0-3.0-3.0-3.6","y2yne6vah5kxp3e","practice_cue","5e59aa5be0777c1aa4e2c2de","5f60e3c0a3b16e07647b2ff9","5f646a5f68efb31fb0bfe668","false","null","<div style=""align-items: center; display: flex; color: dodgerblue; font-size: 90px""><b>o</b></div>","null","","","","forget_cue","","","","","","","","","","","","","","","",""
"html-keyboard-response","70","443550","0.0-3.0-3.0-0.7","y2yne6vah5kxp3e","practice_cue","5e59aa5be0777c1aa4e2c2de","5f60e3c0a3b16e07647b2ff9","5f646a5f68efb31fb0bfe668","false","null","<span style=""color: black; font-size: 48px"">M + N</span>","null","","","","resp_prompt","","","","","","","","","","","","","","","",""
"categorize-image","71","444525","0.0-3.0-3.0-1.7","y2yne6vah5kxp3e","practice_cue","5e59aa5be0777c1aa4e2c2de","5f60e3c0a3b16e07647b2ff9","5f646a5f68efb31fb0bfe668","true","953.9799999984098","./Stimuli/ImagesPractice/LM224.jpg","83","","","","test","true","M + N","83","","LM","LM224.jpg","remember","old","24","2","practice_forget","left","","","",""
"html-keyboard-response","72","446528","0.0-3.0-3.0-3.7","y2yne6vah5kxp3e","practice_cue","5e59aa5be0777c1aa4e2c2de","5f60e3c0a3b16e07647b2ff9","5f646a5f68efb31fb0bfe668","false","null","<div style=""align-items: center; display: flex; color: dodgerblue; font-size: 90px""><b>o</b></div>","null","","","","forget_cue","","","","","","","","","","","","","","","",""
"html-keyboard-response","73","447231","0.0-3.0-3.0-0.8","y2yne6vah5kxp3e","practice_cue","5e59aa5be0777c1aa4e2c2de","5f60e3c0a3b16e07647b2ff9","5f646a5f68efb31fb0bfe668","false","null","<span style=""color: black; font-size: 48px"">N + M</span>","null","","","","resp_prompt","","","","","","","","","","","","","","","",""
"categorize-image","74","448066","0.0-3.0-3.0-1.8","y2yne6vah5kxp3e","practice_cue","5e59aa5be0777c1aa4e2c2de","5f60e3c0a3b16e07647b2ff9","5f646a5f68efb31fb0bfe668","true","818.0350000038743","./Stimuli/ImagesPractice/LN2.jpg","83","","","","test","true","N + M","83","","LN","LN2.jpg","remember","old","25","2","practice_forget","left","","","",""
"html-keyboard-response","75","450069","0.0-3.0-3.0-3.8","y2yne6vah5kxp3e","practice_cue","5e59aa5be0777c1aa4e2c2de","5f60e3c0a3b16e07647b2ff9","5f646a5f68efb31fb0bfe668","false","null","<div style=""align-items: center; display: flex; color: dodgerblue; font-size: 90px""><b>o</b></div>","null","","","","forget_cue","","","","","","","","","","","","","","","",""
"html-keyboard-response","76","450774","0.0-3.0-3.0-0.9","y2yne6vah5kxp3e","practice_cue","5e59aa5be0777c1aa4e2c2de","5f60e3c0a3b16e07647b2ff9","5f646a5f68efb31fb0bfe668","false","null","<span style=""color: black; font-size: 48px"">N + M</span>","null","","","","resp_prompt","","","","","","","","","","","","","","","",""
"categorize-image","77","451671","0.0-3.0-3.0-1.9","y2yne6vah5kxp3e","practice_cue","5e59aa5be0777c1aa4e2c2de","5f60e3c0a3b16e07647b2ff9","5f646a5f68efb31fb0bfe668","true","881.4750000019558","./Stimuli/ImagesPractice/SM62.jpg","76","","","","test","true","N + M","76","","SM","SM62.jpg","forget","old","26","2","practice_forget","right","","","",""
"html-keyboard-response","78","453683","0.0-3.0-3.0-3.9","y2yne6vah5kxp3e","practice_cue","5e59aa5be0777c1aa4e2c2de","5f60e3c0a3b16e07647b2ff9","5f646a5f68efb31fb0bfe668","false","null","<div style=""align-items: center; display: flex; color: darkorange; font-size: 90px""><b>ø</b></div>","null","","","","forget_cue","","","","","","","","","","","","","","","",""
"html-keyboard-response","79","454389","0.0-3.0-3.0-0.10","y2yne6vah5kxp3e","practice_cue","5e59aa5be0777c1aa4e2c2de","5f60e3c0a3b16e07647b2ff9","5f646a5f68efb31fb0bfe668","false","null","<span style=""color: black; font-size: 48px"">N + M</span>","null","","","","resp_prompt","","","","","","","","","","","","","","","",""
"categorize-image","80","455119","0.0-3.0-3.0-1.10","y2yne6vah5kxp3e","practice_cue","5e59aa5be0777c1aa4e2c2de","5f60e3c0a3b16e07647b2ff9","5f646a5f68efb31fb0bfe668","true","710.6850000054692","./Stimuli/ImagesPractice/SN205.jpg","83","","","","test","true","N + M","83","","SN","SN205.jpg","remember","old","27","2","practice_forget","left","","","",""
"html-keyboard-response","81","457128","0.0-3.0-3.0-3.10","y2yne6vah5kxp3e","practice_cue","5e59aa5be0777c1aa4e2c2de","5f60e3c0a3b16e07647b2ff9","5f646a5f68efb31fb0bfe668","false","null","<div style=""align-items: center; display: flex; color: dodgerblue; font-size: 90px""><b>o</b></div>","null","","","","forget_cue","","","","","","","","","","","","","","","",""
"html-keyboard-response","82","457830","0.0-3.0-3.0-0.11","y2yne6vah5kxp3e","practice_cue","5e59aa5be0777c1aa4e2c2de","5f60e3c0a3b16e07647b2ff9","5f646a5f68efb31fb0bfe668","false","null","<span style=""color: black; font-size: 48px"">M + N</span>","null","","","","resp_prompt","","","","","","","","","","","","","","","",""
"categorize-image","83","458636","0.0-3.0-3.0-1.11","y2yne6vah5kxp3e","practice_cue","5e59aa5be0777c1aa4e2c2de","5f60e3c0a3b16e07647b2ff9","5f646a5f68efb31fb0bfe668","true","790.3999999980442","./Stimuli/ImagesPractice/SN76.jpg","76","","","","test","true","M + N","76","","SN","SN76.jpg","remember","old","28","2","practice_forget","right","","","",""
"html-keyboard-response","84","460640","0.0-3.0-3.0-3.11","y2yne6vah5kxp3e","practice_cue","5e59aa5be0777c1aa4e2c2de","5f60e3c0a3b16e07647b2ff9","5f646a5f68efb31fb0bfe668","false","null","<div style=""align-items: center; display: flex; color: dodgerblue; font-size: 90px""><b>o</b></div>","null","","","","forget_cue","","","","","","","","","","","","","","","",""
"html-keyboard-response","85","461347","0.0-3.0-3.0-0.12","y2yne6vah5kxp3e","practice_cue","5e59aa5be0777c1aa4e2c2de","5f60e3c0a3b16e07647b2ff9","5f646a5f68efb31fb0bfe668","false","null","<span style=""color: black; font-size: 48px"">N + M</span>","null","","","","resp_prompt","","","","","","","","","","","","","","","",""
"categorize-image","86","462787","0.0-3.0-3.0-1.12","y2yne6vah5kxp3e","practice_cue","5e59aa5be0777c1aa4e2c2de","5f60e3c0a3b16e07647b2ff9","5f646a5f68efb31fb0bfe668","true","1423.9050000032876","./Stimuli/ImagesPractice/SM97.jpg","76","","","","test","true","N + M","76","","SM","SM97.jpg","forget","old","29","2","practice_forget","right","","","",""
"html-keyboard-response","87","464793","0.0-3.0-3.0-3.12","y2yne6vah5kxp3e","practice_cue","5e59aa5be0777c1aa4e2c2de","5f60e3c0a3b16e07647b2ff9","5f646a5f68efb31fb0bfe668","false","null","<div style=""align-items: center; display: flex; color: darkorange; font-size: 90px""><b>ø</b></div>","null","","","","forget_cue","","","","","","","","","","","","","","","",""
"html-keyboard-response","88","465498","0.0-3.0-3.0-0.13","y2yne6vah5kxp3e","practice_cue","5e59aa5be0777c1aa4e2c2de","5f60e3c0a3b16e07647b2ff9","5f646a5f68efb31fb0bfe668","false","null","<span style=""color: black; font-size: 48px"">M + N</span>","null","","","","resp_prompt","","","","","","","","","","","","","","","",""
"categorize-image","89","466127","0.0-3.0-3.0-1.13","y2yne6vah5kxp3e","practice_cue","5e59aa5be0777c1aa4e2c2de","5f60e3c0a3b16e07647b2ff9","5f646a5f68efb31fb0bfe668","true","615.1749999989988","./Stimuli/ImagesPractice/SN220.jpg","76","","","","test","true","M + N","76","","SN","SN220.jpg","forget","old","30","2","practice_forget","right","","","",""
"html-keyboard-response","90","468131","0.0-3.0-3.0-3.13","y2yne6vah5kxp3e","practice_cue","5e59aa5be0777c1aa4e2c2de","5f60e3c0a3b16e07647b2ff9","5f646a5f68efb31fb0bfe668","false","null","<div style=""align-items: center; display: flex; color: darkorange; font-size: 90px""><b>ø</b></div>","null","","","","forget_cue","","","","","","","","","","","","","","","",""
"html-keyboard-response","91","468836","0.0-3.0-3.0-0.14","y2yne6vah5kxp3e","practice_cue","5e59aa5be0777c1aa4e2c2de","5f60e3c0a3b16e07647b2ff9","5f646a5f68efb31fb0bfe668","false","null","<span style=""color: black; font-size: 48px"">N + M</span>","null","","","","resp_prompt","","","","","","","","","","","","","","","",""
"categorize-image","92","469390","0.0-3.0-3.0-1.14","y2yne6vah5kxp3e","practice_cue","5e59aa5be0777c1aa4e2c2de","5f60e3c0a3b16e07647b2ff9","5f646a5f68efb31fb0bfe668","true","531.8699999988894","./Stimuli/ImagesPractice/SN75.jpg","83","","","","test","true","N + M","83","","SN","SN75.jpg","forget","old","31","2","practice_forget","left","","","",""
"html-keyboard-response","93","471393","0.0-3.0-3.0-3.14","y2yne6vah5kxp3e","practice_cue","5e59aa5be0777c1aa4e2c2de","5f60e3c0a3b16e07647b2ff9","5f646a5f68efb31fb0bfe668","false","null","<div style=""align-items: center; display: flex; color: darkorange; font-size: 90px""><b>ø</b></div>","null","","","","forget_cue","","","","","","","","","","","","","","","",""
"html-keyboard-response","94","472101","0.0-3.0-3.0-0.15","y2yne6vah5kxp3e","practice_cue","5e59aa5be0777c1aa4e2c2de","5f60e3c0a3b16e07647b2ff9","5f646a5f68efb31fb0bfe668","false","null","<span style=""color: black; font-size: 48px"">N + M</span>","null","","","","resp_prompt","","","","","","","","","","","","","","","",""
"categorize-image","95","473248","0.0-3.0-3.0-1.15","y2yne6vah5kxp3e","practice_cue","5e59aa5be0777c1aa4e2c2de","5f60e3c0a3b16e07647b2ff9","5f646a5f68efb31fb0bfe668","true","1131.4849999980652","./Stimuli/ImagesPractice/LN4.jpg","83","","","","test","true","N + M","83","","LN","LN4.jpg","remember","old","32","2","practice_forget","left","","","",""
"html-keyboard-response","96","475252","0.0-3.0-3.0-3.15","y2yne6vah5kxp3e","practice_cue","5e59aa5be0777c1aa4e2c2de","5f60e3c0a3b16e07647b2ff9","5f646a5f68efb31fb0bfe668","false","null","<div style=""align-items: center; display: flex; color: dodgerblue; font-size: 90px""><b>o</b></div>","null","","","","forget_cue","","","","","","","","","","","","","","","",""
"html-keyboard-response","97","487407","0.0-3.0-4.0","y2yne6vah5kxp3e","break","5e59aa5be0777c1aa4e2c2de","5f60e3c0a3b16e07647b2ff9","5f646a5f68efb31fb0bfe668","false","12142.800000001444","<p style='font-size: 32px;'>Break</><br><br><br><br><br><p style='font-size: 24px;'>In the last block, you committed 1 errors and did not respond in time on 0 trials.
</p><p style='font-size: 24px;'>Try to respond as fast and accurately as possible in the next block as well! </p><p style='font-size: 24px;'>Press SPACE to continue.</p>","32","","","","","","","","","","","","","","","","","","","",""
"html-keyboard-response","98","515502","0.0-3.0-5.0","y2yne6vah5kxp3e","instructions","5e59aa5be0777c1aa4e2c2de","5f60e3c0a3b16e07647b2ff9","5f646a5f68efb31fb0bfe668","false","28088.369999997667","<div align=left> Now, to practice, we kindly ask you to remember as many of the to-be-remembered pictures<br>of the previous learning phase as possible.<br><br>The pictures you were instructed to remember were the pictures followed by a <span style='color: dodgerblue; font-size: 28px'>O</span>.<br><br>In this memory test phase, you will also see some new pictures.<br>It is your task to remember whether you were presented with this specific picture in this study so far or not.<br>If you recognize an object (you have already seen it in this study), it is an OLD object. <br>If you do not recognize an object (you have NOT seen it in this study), it is a NEW object. <br><strong> Attention</strong>: As already mentioned, <span style='color: darkorange; font-size:28px'>Ø</span>-pictures will <strong>never</strong> appear in this memory test (neither as new objects). <br><br>Press SPACE to continue. </div>","32","","","","","","","","","","","","","","","","","","","",""
"html-keyboard-response","99","556896","0.0-3.0-6.0","y2yne6vah5kxp3e","instructions","5e59aa5be0777c1aa4e2c2de","5f60e3c0a3b16e07647b2ff9","5f646a5f68efb31fb0bfe668","false","41387.24999999977","<div align=left> M and N no longer will appear on the left/right of the fixation cross. <br>Instead there will be a note at the bottom of the left or right side  <br>indicating which key you should press for an old or new object:  <br> <br>Press the <strong>right</strong> key to classify an object as <strong>old</strong> and press the <strong>left</strong>, to classify an object as <strong>new</strong>.<br>Please classify the objects as new/old by again placing your index finger on the 'S' and 'L' keys <br>and press them accordingly.<br><br><strong>Old:</strong> This object has been presented before. <br><strong>New:</strong> This object has <strong>not</strong> been presented.<br><br>Now please put your right and left index fingers on the 'S' and 'L' keys of your keyboard. <br>Please respond as fast and as accurately as possible!<br><br>Press SPACE to continue. </div>","32","","","","","","","","","","","","","","","","","","","",""
"categorize-image","100","558654","0.0-3.0-7.0-0.0","y2yne6vah5kxp3e","practice_recog","5e59aa5be0777c1aa4e2c2de","5f60e3c0a3b16e07647b2ff9","5f646a5f68efb31fb0bfe668","true","1248.0900000010151","./Stimuli/ImagesPractice/SN221.jpg","83","","","","test","false","","76","","SN","SN221.jpg","","new","33","3","practice_recog","left","","","",""
"categorize-image","101","561004","0.0-3.0-7.0-0.1","y2yne6vah5kxp3e","practice_recog","5e59aa5be0777c1aa4e2c2de","5f60e3c0a3b16e07647b2ff9","5f646a5f68efb31fb0bfe668","true","1840.0349999937462","./Stimuli/ImagesPractice/LN4.jpg","83","","","","test","true","","83","","LN","LN4.jpg","","old","34","3","practice_recog","left","","","",""
"categorize-image","102","562281","0.0-3.0-7.0-0.2","y2yne6vah5kxp3e","practice_recog","5e59aa5be0777c1aa4e2c2de","5f60e3c0a3b16e07647b2ff9","5f646a5f68efb31fb0bfe668","true","769.7600000028033","./Stimuli/ImagesPractice/SN76.jpg","83","","","","test","true","","83","","SN","SN76.jpg","","old","35","3","practice_recog","left","","","",""
"categorize-image","103","563671","0.0-3.0-7.0-0.3","y2yne6vah5kxp3e","practice_recog","5e59aa5be0777c1aa4e2c2de","5f60e3c0a3b16e07647b2ff9","5f646a5f68efb31fb0bfe668","true","877.2649999954738","./Stimuli/ImagesPractice/LM147.jpg","76","","","","test","true","","76","","LM","LM147.jpg","","new","36","3","practice_recog","right","","","",""
"categorize-image","104","565021","0.0-3.0-7.0-0.4","y2yne6vah5kxp3e","practice_recog","5e59aa5be0777c1aa4e2c2de","5f60e3c0a3b16e07647b2ff9","5f646a5f68efb31fb0bfe668","true","841.3000000000466","./Stimuli/ImagesPractice/LN109.jpg","83","","","","test","true","","83","","LN","LN109.jpg","","old","37","3","practice_recog","left","","","",""
"categorize-image","105","566210","0.0-3.0-7.0-0.5","y2yne6vah5kxp3e","practice_recog","5e59aa5be0777c1aa4e2c2de","5f60e3c0a3b16e07647b2ff9","5f646a5f68efb31fb0bfe668","true","679.2199999982258","./Stimuli/ImagesPractice/LN72.jpg","83","","","","test","true","","83","","LN","LN72.jpg","","old","38","3","practice_recog","left","","","",""
"categorize-image","106","567461","0.0-3.0-7.0-0.6","y2yne6vah5kxp3e","practice_recog","5e59aa5be0777c1aa4e2c2de","5f60e3c0a3b16e07647b2ff9","5f646a5f68efb31fb0bfe668","true","737.71499999566","./Stimuli/ImagesPractice/LM230.jpg","76","","","","test","true","","76","","LM","LM230.jpg","","new","39","3","practice_recog","right","","","",""
"categorize-image","107","568802","0.0-3.0-7.0-0.7","y2yne6vah5kxp3e","practice_recog","5e59aa5be0777c1aa4e2c2de","5f60e3c0a3b16e07647b2ff9","5f646a5f68efb31fb0bfe668","true","832.5299999997951","./Stimuli/ImagesPractice/LN17.jpg","76","","","","test","true","","76","","LN","LN17.jpg","","new","40","3","practice_recog","right","","","",""
"categorize-image","108","569931","0.0-3.0-7.0-0.8","y2yne6vah5kxp3e","practice_recog","5e59aa5be0777c1aa4e2c2de","5f60e3c0a3b16e07647b2ff9","5f646a5f68efb31fb0bfe668","true","621.3500000012573","./Stimuli/ImagesPractice/LN2.jpg","83","","","","test","true","","83","","LN","LN2.jpg","","old","41","3","practice_recog","left","","","",""
"categorize-image","109","571362","0.0-3.0-7.0-0.9","y2yne6vah5kxp3e","practice_recog","5e59aa5be0777c1aa4e2c2de","5f60e3c0a3b16e07647b2ff9","5f646a5f68efb31fb0bfe668","true","919.9399999998277","./Stimuli/ImagesPractice/LM239.jpg","76","","","","test","true","","76","","LM","LM239.jpg","","new","42","3","practice_recog","right","","","",""
"categorize-image","110","572948","0.0-3.0-7.0-0.10","y2yne6vah5kxp3e","practice_recog","5e59aa5be0777c1aa4e2c2de","5f60e3c0a3b16e07647b2ff9","5f646a5f68efb31fb0bfe668","true","1072.8349999990314","./Stimuli/ImagesPractice/SN205.jpg","83","","","","test","true","","83","","SN","SN205.jpg","","old","43","3","practice_recog","left","","","",""
"categorize-image","111","574370","0.0-3.0-7.0-0.11","y2yne6vah5kxp3e","practice_recog","5e59aa5be0777c1aa4e2c2de","5f60e3c0a3b16e07647b2ff9","5f646a5f68efb31fb0bfe668","true","912.5750000021653","./Stimuli/ImagesPractice/SM37.jpg","76","","","","test","true","","76","","SM","SM37.jpg","","new","44","3","practice_recog","right","","","",""
"categorize-image","112","575623","0.0-3.0-7.0-0.12","y2yne6vah5kxp3e","practice_recog","5e59aa5be0777c1aa4e2c2de","5f60e3c0a3b16e07647b2ff9","5f646a5f68efb31fb0bfe668","true","743.1300000025658","./Stimuli/ImagesPractice/LM224.jpg","83","","","","test","true","","83","","LM","LM224.jpg","","old","45","3","practice_recog","left","","","",""
"categorize-image","113","576775","0.0-3.0-7.0-0.13","y2yne6vah5kxp3e","practice_recog","5e59aa5be0777c1aa4e2c2de","5f60e3c0a3b16e07647b2ff9","5f646a5f68efb31fb0bfe668","true","643.5200000050245","./Stimuli/ImagesPractice/SN222.jpg","76","","","","test","true","","76","","SN","SN222.jpg","","new","46","3","practice_recog","right","","","",""
"categorize-image","114","577935","0.0-3.0-7.0-0.14","y2yne6vah5kxp3e","practice_recog","5e59aa5be0777c1aa4e2c2de","5f60e3c0a3b16e07647b2ff9","5f646a5f68efb31fb0bfe668","true","648.4900000068592","./Stimuli/ImagesPractice/SM61.jpg","76","","","","test","true","","76","","SM","SM61.jpg","","new","47","3","practice_recog","right","","","",""
"categorize-image","115","579030","0.0-3.0-7.0-0.15","y2yne6vah5kxp3e","practice_recog","5e59aa5be0777c1aa4e2c2de","5f60e3c0a3b16e07647b2ff9","5f646a5f68efb31fb0bfe668","true","587.5400000005029","./Stimuli/ImagesPractice/LN15.jpg","83","","","","test","true","","83","","LN","LN15.jpg","","old","48","3","practice_recog","left","","","",""
"html-keyboard-response","116","595372","0.0-3.0-8.0","y2yne6vah5kxp3e","instructions","5e59aa5be0777c1aa4e2c2de","5f60e3c0a3b16e07647b2ff9","5f646a5f68efb31fb0bfe668","false","16335.85000000312","<div align=left> Great!<br><br>Are you ready to continue?<br>If you want to reread the instructions and redo the practice trials, please <br>press „Z“.<br><br>You can proceed when you are ready.<br><br>After the presentation of each object, you will receive an instruction whether to <br>remember or to forget the object.<br>We will test your memory of the following pictures only at the very end of <br>the experiment after all learning blocks are completed. <br><br>Press SPACE to CONTINUE when you are ready. </div>","32","","","","","","","","","","","","","","","","","","","",""
"html-keyboard-response","117","602523","0.0-4.0-0.0","y2yne6vah5kxp3e","instructions","5e59aa5be0777c1aa4e2c2de","5f60e3c0a3b16e07647b2ff9","5f646a5f68efb31fb0bfe668","false","7143.7799999985145","<div align=left> The actual experiment is about to start.<br>The practice trials are over!<br><br>Please always respond both fast and accurately!<br><br>Remember: <br> <br><li> Please place your index fingers on the <strong>'S'</strong> and <strong>'L'</strong> keys <br>to respond as fast and accurately as possible.</li><li> Every picture can be classified as either mechanical or non-mechanical.</li><li> If you do not respond in time or commit an error, you will receive a corresponding feedback.<br> Please try to respond as <strong> fast </strong> and as <strong> accurately as possible </strong>.</li><li> Remember the <span style='color: dodgerblue; font-size: 28px'>O</span> pictures. <br></li><li> Please minimize distractions and stay focused. </li><br><br>Press SPACE to START.</div>","32","","","","","","","","","","","","","","","","","","","",""
"html-keyboard-response","118","603230","0.0-4.0-1.0-0.0","y2yne6vah5kxp3e","prime","5e59aa5be0777c1aa4e2c2de","5f60e3c0a3b16e07647b2ff9","5f646a5f68efb31fb0bfe668","false","null","<span style=""color: black; font-size: 48px"">M + N</span>","null","","","","resp_prompt","","","","","","","","","","","","","","","",""
"categorize-image","119","604007","0.0-4.0-1.0-1.0","y2yne6vah5kxp3e","prime","5e59aa5be0777c1aa4e2c2de","5f60e3c0a3b16e07647b2ff9","5f646a5f68efb31fb0bfe668","true","753.8199999979697","./Stimuli/SelectedImages/LM/LM103.bmp","83","","","","test","true","M + N","83","repetition","LM","LM103.bmp","remember","","49","3","prime1","left","","","",""
"html-keyboard-response","120","606011","0.0-4.0-1.0-3.0","y2yne6vah5kxp3e","prime","5e59aa5be0777c1aa4e2c2de","5f60e3c0a3b16e07647b2ff9","5f646a5f68efb31fb0bfe668","false","null","<div style=""align-items: center; display: flex; color: dodgerblue; font-size: 90px""><b>o</b></div>","null","","","","forget_cue","","","","","","","","","","","","","","","",""
"html-keyboard-response","121","606718","0.0-4.0-1.0-0.1","y2yne6vah5kxp3e","prime","5e59aa5be0777c1aa4e2c2de","5f60e3c0a3b16e07647b2ff9","5f646a5f68efb31fb0bfe668","false","null","<span style=""color: black; font-size: 48px"">M + N</span>","null","","","","resp_prompt","","","","","","","","","","","","","","","",""
"categorize-image","122","607594","0.0-4.0-1.0-1.1","y2yne6vah5kxp3e","prime","5e59aa5be0777c1aa4e2c2de","5f60e3c0a3b16e07647b2ff9","5f646a5f68efb31fb0bfe668","true","857.1799999990035","./Stimuli/SelectedImages/SM/SM24.bmp","83","","","","test","true","M + N","83","repetition","SM","SM24.bmp","forget","","50","3","prime1","left","","","",""
"html-keyboard-response","123","609598","0.0-4.0-1.0-3.1","y2yne6vah5kxp3e","prime","5e59aa5be0777c1aa4e2c2de","5f60e3c0a3b16e07647b2ff9","5f646a5f68efb31fb0bfe668","false","null","<div style=""align-items: center; display: flex; color: darkorange; font-size: 90px""><b>ø</b></div>","null","","","","forget_cue","","","","","","","","","","","","","","","",""
"html-keyboard-response","124","610303","0.0-4.0-1.0-0.2","y2yne6vah5kxp3e","prime","5e59aa5be0777c1aa4e2c2de","5f60e3c0a3b16e07647b2ff9","5f646a5f68efb31fb0bfe668","false","null","<span style=""color: black; font-size: 48px"">N + M</span>","null","","","","resp_prompt","","","","","","","","","","","","","","","",""
"categorize-image","125","610955","0.0-4.0-1.0-1.2","y2yne6vah5kxp3e","prime","5e59aa5be0777c1aa4e2c2de","5f60e3c0a3b16e07647b2ff9","5f646a5f68efb31fb0bfe668","true","639.8899999985006","./Stimuli/SelectedImages/LN/LN59.bmp","83","","","","test","true","N + M","83","switch","LN","LN59.bmp","remember","","51","3","prime1","left","","","",""
"html-keyboard-response","126","612958","0.0-4.0-1.0-3.2","y2yne6vah5kxp3e","prime","5e59aa5be0777c1aa4e2c2de","5f60e3c0a3b16e07647b2ff9","5f646a5f68efb31fb0bfe668","false","null","<div style=""align-items: center; display: flex; color: dodgerblue; font-size: 90px""><b>o</b></div>","null","","","","forget_cue","","","","","","","","","","","","","","","",""
"html-keyboard-response","127","613663","0.0-4.0-1.0-0.3","y2yne6vah5kxp3e","prime","5e59aa5be0777c1aa4e2c2de","5f60e3c0a3b16e07647b2ff9","5f646a5f68efb31fb0bfe668","false","null","<span style=""color: black; font-size: 48px"">M + N</span>","null","","","","resp_prompt","","","","","","","","","","","","","","","",""
"categorize-image","128","615081","0.0-4.0-1.0-1.3","y2yne6vah5kxp3e","prime","5e59aa5be0777c1aa4e2c2de","5f60e3c0a3b16e07647b2ff9","5f646a5f68efb31fb0bfe668","true","1400.8449999964796","./Stimuli/SelectedImages/SN/SN27.bmp","76","","","","test","true","M + N","76","switch","SN","SN27.bmp","forget","","52","3","prime1","right","","","",""
"html-keyboard-response","129","617084","0.0-4.0-1.0-3.3","y2yne6vah5kxp3e","prime","5e59aa5be0777c1aa4e2c2de","5f60e3c0a3b16e07647b2ff9","5f646a5f68efb31fb0bfe668","false","null","<div style=""align-items: center; display: flex; color: darkorange; font-size: 90px""><b>ø</b></div>","null","","","","forget_cue","","","","","","","","","","","","","","","",""
"html-keyboard-response","130","617790","0.0-4.0-1.0-0.4","y2yne6vah5kxp3e","prime","5e59aa5be0777c1aa4e2c2de","5f60e3c0a3b16e07647b2ff9","5f646a5f68efb31fb0bfe668","false","null","<span style=""color: black; font-size: 48px"">M + N</span>","null","","","","resp_prompt","","","","","","","","","","","","","","","",""
"categorize-image","131","618531","0.0-4.0-1.0-1.4","y2yne6vah5kxp3e","prime","5e59aa5be0777c1aa4e2c2de","5f60e3c0a3b16e07647b2ff9","5f646a5f68efb31fb0bfe668","true","719.7600000000093","./Stimuli/SelectedImages/SN/SN182.bmp","76","","","","test","true","M + N","76","switch","SN","SN182.bmp","forget","","53","3","prime1","right","","","",""
"html-keyboard-response","132","620533","0.0-4.0-1.0-3.4","y2yne6vah5kxp3e","prime","5e59aa5be0777c1aa4e2c2de","5f60e3c0a3b16e07647b2ff9","5f646a5f68efb31fb0bfe668","false","null","<div style=""align-items: center; display: flex; color: darkorange; font-size: 90px""><b>ø</b></div>","null","","","","forget_cue","","","","","","","","","","","","","","","",""
"html-keyboard-response","133","621236","0.0-4.0-1.0-0.5","y2yne6vah5kxp3e","prime","5e59aa5be0777c1aa4e2c2de","5f60e3c0a3b16e07647b2ff9","5f646a5f68efb31fb0bfe668","false","null","<span style=""color: black; font-size: 48px"">M + N</span>","null","","","","resp_prompt","","","","","","","","","","","","","","","",""
"categorize-image","134","621993","0.0-4.0-1.0-1.5","y2yne6vah5kxp3e","prime","5e59aa5be0777c1aa4e2c2de","5f60e3c0a3b16e07647b2ff9","5f646a5f68efb31fb0bfe668","true","739.8600000014994","./Stimuli/SelectedImages/LM/LM235.bmp","76","","","","test","false","M + N","83","repetition","LM","LM235.bmp","forget","","54","3","prime1","right","","","",""
"html-keyboard-response","135","622496","0.0-4.0-1.0-2.5-0.5","y2yne6vah5kxp3e","prime","5e59aa5be0777c1aa4e2c2de","5f60e3c0a3b16e07647b2ff9","5f646a5f68efb31fb0bfe668","false","null","<span style=""color: red; font-size: 48px"">Error!</span>","null","","","","feedback","","","","","","","","","","","","","","","",""
"html-keyboard-response","136","624502","0.0-4.0-1.0-3.5","y2yne6vah5kxp3e","prime","5e59aa5be0777c1aa4e2c2de","5f60e3c0a3b16e07647b2ff9","5f646a5f68efb31fb0bfe668","false","null","<div style=""align-items: center; display: flex; color: darkorange; font-size: 90px""><b>ø</b></div>","null","","","","forget_cue","","","","","","","","","","","","","","","",""
"html-keyboard-response","137","625206","0.0-4.0-1.0-0.6","y2yne6vah5kxp3e","prime","5e59aa5be0777c1aa4e2c2de","5f60e3c0a3b16e07647b2ff9","5f646a5f68efb31fb0bfe668","false","null","<span style=""color: black; font-size: 48px"">N + M</span>","null","","","","resp_prompt","","","","","","","","","","","","","","","",""
"categorize-image","138","625856","0.0-4.0-1.0-1.6","y2yne6vah5kxp3e","prime","5e59aa5be0777c1aa4e2c2de","5f60e3c0a3b16e07647b2ff9","5f646a5f68efb31fb0bfe668","true","630.7799999994459","./Stimuli/SelectedImages/SN/SN128.bmp","83","","","","test","true","N + M","83","repetition","SN","SN128.bmp","forget","","55","3","prime1","left","","","",""
"html-keyboard-response","139","627858","0.0-4.0-1.0-3.6","y2yne6vah5kxp3e","prime","5e59aa5be0777c1aa4e2c2de","5f60e3c0a3b16e07647b2ff9","5f646a5f68efb31fb0bfe668","false","null","<div style=""align-items: center; display: flex; color: darkorange; font-size: 90px""><b>ø</b></div>","null","","","","forget_cue","","","","","","","","","","","","","","","",""
"html-keyboard-response","140","628564","0.0-4.0-1.0-0.7","y2yne6vah5kxp3e","prime","5e59aa5be0777c1aa4e2c2de","5f60e3c0a3b16e07647b2ff9","5f646a5f68efb31fb0bfe668","false","null","<span style=""color: black; font-size: 48px"">N + M</span>","null","","","","resp_prompt","","","","","","","","","","","","","","","",""
"categorize-image","141","629520","0.0-4.0-1.0-1.7","y2yne6vah5kxp3e","prime","5e59aa5be0777c1aa4e2c2de","5f60e3c0a3b16e07647b2ff9","5f646a5f68efb31fb0bfe668","true","940.2300000000978","./Stimuli/SelectedImages/SM/SM195.bmp","76","","","","test","true","N + M","76","switch","SM","SM195.bmp","remember","","56","3","prime1","right","","","",""
"html-keyboard-response","142","631525","0.0-4.0-1.0-3.7","y2yne6vah5kxp3e","prime","5e59aa5be0777c1aa4e2c2de","5f60e3c0a3b16e07647b2ff9","5f646a5f68efb31fb0bfe668","false","null","<div style=""align-items: center; display: flex; color: dodgerblue; font-size: 90px""><b>o</b></div>","null","","","","forget_cue","","","","","","","","","","","","","","","",""
"html-keyboard-response","143","632230","0.0-4.0-1.0-0.8","y2yne6vah5kxp3e","prime","5e59aa5be0777c1aa4e2c2de","5f60e3c0a3b16e07647b2ff9","5f646a5f68efb31fb0bfe668","false","null","<span style=""color: black; font-size: 48px"">M + N</span>","null","","","","resp_prompt","","","","","","","","","","","","","","","",""
"categorize-image","144","632916","0.0-4.0-1.0-1.8","y2yne6vah5kxp3e","prime","5e59aa5be0777c1aa4e2c2de","5f60e3c0a3b16e07647b2ff9","5f646a5f68efb31fb0bfe668","true","667.6999999980908","./Stimuli/SelectedImages/LN/LN42.bmp","76","","","","test","true","M + N","76","switch","LN","LN42.bmp","remember","","57","3","prime1","right","","","",""
"html-keyboard-response","145","634920","0.0-4.0-1.0-3.8","y2yne6vah5kxp3e","prime","5e59aa5be0777c1aa4e2c2de","5f60e3c0a3b16e07647b2ff9","5f646a5f68efb31fb0bfe668","false","null","<div style=""align-items: center; display: flex; color: dodgerblue; font-size: 90px""><b>o</b></div>","null","","","","forget_cue","","","","","","","","","","","","","","","",""
"html-keyboard-response","146","635626","0.0-4.0-1.0-0.9","y2yne6vah5kxp3e","prime","5e59aa5be0777c1aa4e2c2de","5f60e3c0a3b16e07647b2ff9","5f646a5f68efb31fb0bfe668","false","null","<span style=""color: black; font-size: 48px"">M + N</span>","null","","","","resp_prompt","","","","","","","","","","","","","","","",""
"categorize-image","147","636780","0.0-4.0-1.0-1.9","y2yne6vah5kxp3e","prime","5e59aa5be0777c1aa4e2c2de","5f60e3c0a3b16e07647b2ff9","5f646a5f68efb31fb0bfe668","true","1134.7999999998137","./Stimuli/SelectedImages/LM/LM48.bmp","83","","","","test","true","M + N","83","repetition","LM","LM48.bmp","remember","","58","3","prime1","left","","","",""
"html-keyboard-response","148","638784","0.0-4.0-1.0-3.9","y2yne6vah5kxp3e","prime","5e59aa5be0777c1aa4e2c2de","5f60e3c0a3b16e07647b2ff9","5f646a5f68efb31fb0bfe668","false","null","<div style=""align-items: center; display: flex; color: dodgerblue; font-size: 90px""><b>o</b></div>","null","","","","forget_cue","","","","","","","","","","","","","","","",""
"html-keyboard-response","149","639489","0.0-4.0-1.0-0.10","y2yne6vah5kxp3e","prime","5e59aa5be0777c1aa4e2c2de","5f60e3c0a3b16e07647b2ff9","5f646a5f68efb31fb0bfe668","false","null","<span style=""color: black; font-size: 48px"">N + M</span>","null","","","","resp_prompt","","","","","","","","","","","","","","","",""
"categorize-image","150","640089","0.0-4.0-1.0-1.10","y2yne6vah5kxp3e","prime","5e59aa5be0777c1aa4e2c2de","5f60e3c0a3b16e07647b2ff9","5f646a5f68efb31fb0bfe668","true","580.5699999982025","./Stimuli/SelectedImages/SN/SN155.bmp","83","","","","test","true","N + M","83","repetition","SN","SN155.bmp","forget","","59","3","prime1","left","","","",""
"html-keyboard-response","151","642092","0.0-4.0-1.0-3.10","y2yne6vah5kxp3e","prime","5e59aa5be0777c1aa4e2c2de","5f60e3c0a3b16e07647b2ff9","5f646a5f68efb31fb0bfe668","false","null","<div style=""align-items: center; display: flex; color: darkorange; font-size: 90px""><b>ø</b></div>","null","","","","forget_cue","","","","","","","","","","","","","","","",""
"html-keyboard-response","152","642797","0.0-4.0-1.0-0.11","y2yne6vah5kxp3e","prime","5e59aa5be0777c1aa4e2c2de","5f60e3c0a3b16e07647b2ff9","5f646a5f68efb31fb0bfe668","false","null","<span style=""color: black; font-size: 48px"">N + M</span>","null","","","","resp_prompt","","","","","","","","","","","","","","","",""
"categorize-image","153","643577","0.0-4.0-1.0-1.11","y2yne6vah5kxp3e","prime","5e59aa5be0777c1aa4e2c2de","5f60e3c0a3b16e07647b2ff9","5f646a5f68efb31fb0bfe668","true","764.5199999969918","./Stimuli/SelectedImages/SM/SM76.bmp","76","","","","test","true","N + M","76","repetition","SM","SM76.bmp","remember","","60","3","prime1","right","","","",""
"html-keyboard-response","154","645580","0.0-4.0-1.0-3.11","y2yne6vah5kxp3e","prime","5e59aa5be0777c1aa4e2c2de","5f60e3c0a3b16e07647b2ff9","5f646a5f68efb31fb0bfe668","false","null","<div style=""align-items: center; display: flex; color: dodgerblue; font-size: 90px""><b>o</b></div>","null","","","","forget_cue","","","","","","","","","","","","","","","",""
"html-keyboard-response","155","646286","0.0-4.0-1.0-0.12","y2yne6vah5kxp3e","prime","5e59aa5be0777c1aa4e2c2de","5f60e3c0a3b16e07647b2ff9","5f646a5f68efb31fb0bfe668","false","null","<span style=""color: black; font-size: 48px"">N + M</span>","null","","","","resp_prompt","","","","","","","","","","","","","","","",""
"categorize-image","156","647258","0.0-4.0-1.0-1.12","y2yne6vah5kxp3e","prime","5e59aa5be0777c1aa4e2c2de","5f60e3c0a3b16e07647b2ff9","5f646a5f68efb31fb0bfe668","true","954.0249999992084","./Stimuli/SelectedImages/LN/LN9.bmp","83","","","","test","true","N + M","83","repetition","LN","LN9.bmp","remember","","61","3","prime1","left","","","",""
"html-keyboard-response","157","649261","0.0-4.0-1.0-3.12","y2yne6vah5kxp3e","prime","5e59aa5be0777c1aa4e2c2de","5f60e3c0a3b16e07647b2ff9","5f646a5f68efb31fb0bfe668","false","null","<div style=""align-items: center; display: flex; color: dodgerblue; font-size: 90px""><b>o</b></div>","null","","","","forget_cue","","","","","","","","","","","","","","","",""
"html-keyboard-response","158","649966","0.0-4.0-1.0-0.13","y2yne6vah5kxp3e","prime","5e59aa5be0777c1aa4e2c2de","5f60e3c0a3b16e07647b2ff9","5f646a5f68efb31fb0bfe668","false","null","<span style=""color: black; font-size: 48px"">N + M</span>","null","","","","resp_prompt","","","","","","","","","","","","","","","",""
"categorize-image","159","651051","0.0-4.0-1.0-1.13","y2yne6vah5kxp3e","prime","5e59aa5be0777c1aa4e2c2de","5f60e3c0a3b16e07647b2ff9","5f646a5f68efb31fb0bfe668","true","1061.6999999983236","./Stimuli/SelectedImages/LN/LN128.bmp","83","","","","test","true","N + M","83","switch","LN","LN128.bmp","remember","","62","3","prime1","left","","","",""
"html-keyboard-response","160","653054","0.0-4.0-1.0-3.13","y2yne6vah5kxp3e","prime","5e59aa5be0777c1aa4e2c2de","5f60e3c0a3b16e07647b2ff9","5f646a5f68efb31fb0bfe668","false","null","<div style=""align-items: center; display: flex; color: dodgerblue; font-size: 90px""><b>o</b></div>","null","","","","forget_cue","","","","","","","","","","","","","","","",""
"html-keyboard-response","161","653759","0.0-4.0-1.0-0.14","y2yne6vah5kxp3e","prime","5e59aa5be0777c1aa4e2c2de","5f60e3c0a3b16e07647b2ff9","5f646a5f68efb31fb0bfe668","false","null","<span style=""color: black; font-size: 48px"">N + M</span>","null","","","","resp_prompt","","","","","","","","","","","","","","","",""
"categorize-image","162","654563","0.0-4.0-1.0-1.14","y2yne6vah5kxp3e","prime","5e59aa5be0777c1aa4e2c2de","5f60e3c0a3b16e07647b2ff9","5f646a5f68efb31fb0bfe668","true","784.5000000016298","./Stimuli/SelectedImages/LM/LM216.bmp","76","","","","test","true","N + M","76","repetition","LM","LM216.bmp","forget","","63","3","prime1","right","","","",""
"html-keyboard-response","163","656567","0.0-4.0-1.0-3.14","y2yne6vah5kxp3e","prime","5e59aa5be0777c1aa4e2c2de","5f60e3c0a3b16e07647b2ff9","5f646a5f68efb31fb0bfe668","false","null","<div style=""align-items: center; display: flex; color: darkorange; font-size: 90px""><b>ø</b></div>","null","","","","forget_cue","","","","","","","","","","","","","","","",""
"html-keyboard-response","164","657273","0.0-4.0-1.0-0.15","y2yne6vah5kxp3e","prime","5e59aa5be0777c1aa4e2c2de","5f60e3c0a3b16e07647b2ff9","5f646a5f68efb31fb0bfe668","false","null","<span style=""color: black; font-size: 48px"">M + N</span>","null","","","","resp_prompt","","","","","","","","","","","","","","","",""
"categorize-image","165","658097","0.0-4.0-1.0-1.15","y2yne6vah5kxp3e","prime","5e59aa5be0777c1aa4e2c2de","5f60e3c0a3b16e07647b2ff9","5f646a5f68efb31fb0bfe668","true","806.4350000058766","./Stimuli/SelectedImages/LN/LN82.bmp","76","","","","test","true","M + N","76","switch","LN","LN82.bmp","forget","","64","3","prime1","right","","","",""
"html-keyboard-response","166","660103","0.0-4.0-1.0-3.15","y2yne6vah5kxp3e","prime","5e59aa5be0777c1aa4e2c2de","5f60e3c0a3b16e07647b2ff9","5f646a5f68efb31fb0bfe668","false","null","<div style=""align-items: center; display: flex; color: darkorange; font-size: 90px""><b>ø</b></div>","null","","","","forget_cue","","","","","","","","","","","","","","","",""
"html-keyboard-response","167","660807","0.0-4.0-1.0-0.16","y2yne6vah5kxp3e","prime","5e59aa5be0777c1aa4e2c2de","5f60e3c0a3b16e07647b2ff9","5f646a5f68efb31fb0bfe668","false","null","<span style=""color: black; font-size: 48px"">N + M</span>","null","","","","resp_prompt","","","","","","","","","","","","","","","",""
"categorize-image","168","661504","0.0-4.0-1.0-1.16","y2yne6vah5kxp3e","prime","5e59aa5be0777c1aa4e2c2de","5f60e3c0a3b16e07647b2ff9","5f646a5f68efb31fb0bfe668","true","675.1199999998789","./Stimuli/SelectedImages/LN/LN111.bmp","83","","","","test","true","N + M","83","repetition","LN","LN111.bmp","forget","","65","3","prime1","left","","","",""
"html-keyboard-response","169","663509","0.0-4.0-1.0-3.16","y2yne6vah5kxp3e","prime","5e59aa5be0777c1aa4e2c2de","5f60e3c0a3b16e07647b2ff9","5f646a5f68efb31fb0bfe668","false","null","<div style=""align-items: center; display: flex; color: darkorange; font-size: 90px""><b>ø</b></div>","null","","","","forget_cue","","","","","","","","","","","","","","","",""
"html-keyboard-response","170","664216","0.0-4.0-1.0-0.17","y2yne6vah5kxp3e","prime","5e59aa5be0777c1aa4e2c2de","5f60e3c0a3b16e07647b2ff9","5f646a5f68efb31fb0bfe668","false","null","<span style=""color: black; font-size: 48px"">N + M</span>","null","","","","resp_prompt","","","","","","","","","","","","","","","",""
"categorize-image","171","665088","0.0-4.0-1.0-1.17","y2yne6vah5kxp3e","prime","5e59aa5be0777c1aa4e2c2de","5f60e3c0a3b16e07647b2ff9","5f646a5f68efb31fb0bfe668","true","852.1849999960978","./Stimuli/SelectedImages/LN/LN149.bmp","83","","","","test","true","N + M","83","switch","LN","LN149.bmp","forget","","66","3","prime1","left","","","",""
"html-keyboard-response","172","667091","0.0-4.0-1.0-3.17","y2yne6vah5kxp3e","prime","5e59aa5be0777c1aa4e2c2de","5f60e3c0a3b16e07647b2ff9","5f646a5f68efb31fb0bfe668","false","null","<div style=""align-items: center; display: flex; color: darkorange; font-size: 90px""><b>ø</b></div>","null","","","","forget_cue","","","","","","","","","","","","","","","",""
"html-keyboard-response","173","667796","0.0-4.0-1.0-0.18","y2yne6vah5kxp3e","prime","5e59aa5be0777c1aa4e2c2de","5f60e3c0a3b16e07647b2ff9","5f646a5f68efb31fb0bfe668","false","null","<span style=""color: black; font-size: 48px"">N + M</span>","null","","","","resp_prompt","","","","","","","","","","","","","","","",""
"categorize-image","174","668415","0.0-4.0-1.0-1.18","y2yne6vah5kxp3e","prime","5e59aa5be0777c1aa4e2c2de","5f60e3c0a3b16e07647b2ff9","5f646a5f68efb31fb0bfe668","true","598.0999999955529","./Stimuli/SelectedImages/LN/LN166.bmp","83","","","","test","true","N + M","83","repetition","LN","LN166.bmp","forget","","67","3","prime1","left","","","",""
"html-keyboard-response","175","670418","0.0-4.0-1.0-3.18","y2yne6vah5kxp3e","prime","5e59aa5be0777c1aa4e2c2de","5f60e3c0a3b16e07647b2ff9","5f646a5f68efb31fb0bfe668","false","null","<div style=""align-items: center; display: flex; color: darkorange; font-size: 90px""><b>ø</b></div>","null","","","","forget_cue","","","","","","","","","","","","","","","",""
"html-keyboard-response","176","671125","0.0-4.0-1.0-0.19","y2yne6vah5kxp3e","prime","5e59aa5be0777c1aa4e2c2de","5f60e3c0a3b16e07647b2ff9","5f646a5f68efb31fb0bfe668","false","null","<span style=""color: black; font-size: 48px"">M + N</span>","null","","","","resp_prompt","","","","","","","","","","","","","","","",""
"categorize-image","177","672054","0.0-4.0-1.0-1.19","y2yne6vah5kxp3e","prime","5e59aa5be0777c1aa4e2c2de","5f60e3c0a3b16e07647b2ff9","5f646a5f68efb31fb0bfe668","true","913.5349999996834","./Stimuli/SelectedImages/SN/SN240.bmp","76","","","","test","true","M + N","76","repetition","SN","SN240.bmp","forget","","68","3","prime1","right","","","",""
"html-keyboard-response","178","674061","0.0-4.0-1.0-3.19","y2yne6vah5kxp3e","prime","5e59aa5be0777c1aa4e2c2de","5f60e3c0a3b16e07647b2ff9","5f646a5f68efb31fb0bfe668","false","null","<div style=""align-items: center; display: flex; color: darkorange; font-size: 90px""><b>ø</b></div>","null","","","","forget_cue","","","","","","","","","","","","","","","",""
"html-keyboard-response","179","674766","0.0-4.0-1.0-0.20","y2yne6vah5kxp3e","prime","5e59aa5be0777c1aa4e2c2de","5f60e3c0a3b16e07647b2ff9","5f646a5f68efb31fb0bfe668","false","null","<span style=""color: black; font-size: 48px"">M + N</span>","null","","","","resp_prompt","","","","","","","","","","","","","","","",""
"categorize-image","180","675950","0.0-4.0-1.0-1.20","y2yne6vah5kxp3e","prime","5e59aa5be0777c1aa4e2c2de","5f60e3c0a3b16e07647b2ff9","5f646a5f68efb31fb0bfe668","true","1163.045000001206","./Stimuli/SelectedImages/LN/LN101.bmp","76","","","","test","true","M + N","76","repetition","LN","LN101.bmp","remember","","69","3","prime1","right","","","",""
"html-keyboard-response","181","677953","0.0-4.0-1.0-3.20","y2yne6vah5kxp3e","prime","5e59aa5be0777c1aa4e2c2de","5f60e3c0a3b16e07647b2ff9","5f646a5f68efb31fb0bfe668","false","null","<div style=""align-items: center; display: flex; color: dodgerblue; font-size: 90px""><b>o</b></div>","null","","","","forget_cue","","","","","","","","","","","","","","","",""
"html-keyboard-response","182","678659","0.0-4.0-1.0-0.21","y2yne6vah5kxp3e","prime","5e59aa5be0777c1aa4e2c2de","5f60e3c0a3b16e07647b2ff9","5f646a5f68efb31fb0bfe668","false","null","<span style=""color: black; font-size: 48px"">M + N</span>","null","","","","resp_prompt","","","","","","","","","","","","","","","",""
"categorize-image","183","679491","0.0-4.0-1.0-1.21","y2yne6vah5kxp3e","prime","5e59aa5be0777c1aa4e2c2de","5f60e3c0a3b16e07647b2ff9","5f646a5f68efb31fb0bfe668","true","811.0149999994319","./Stimuli/SelectedImages/LM/LM59.bmp","76","","","","test","false","M + N","83","switch","LM","LM59.bmp","forget","","70","3","prime1","right","","","",""
"html-keyboard-response","184","679993","0.0-4.0-1.0-2.21-0.21","y2yne6vah5kxp3e","prime","5e59aa5be0777c1aa4e2c2de","5f60e3c0a3b16e07647b2ff9","5f646a5f68efb31fb0bfe668","false","null","<span style=""color: red; font-size: 48px"">Error!</span>","null","","","","feedback","","","","","","","","","","","","","","","",""
"html-keyboard-response","185","681999","0.0-4.0-1.0-3.21","y2yne6vah5kxp3e","prime","5e59aa5be0777c1aa4e2c2de","5f60e3c0a3b16e07647b2ff9","5f646a5f68efb31fb0bfe668","false","null","<div style=""align-items: center; display: flex; color: darkorange; font-size: 90px""><b>ø</b></div>","null","","","","forget_cue","","","","","","","","","","","","","","","",""
"html-keyboard-response","186","682704","0.0-4.0-1.0-0.22","y2yne6vah5kxp3e","prime","5e59aa5be0777c1aa4e2c2de","5f60e3c0a3b16e07647b2ff9","5f646a5f68efb31fb0bfe668","false","null","<span style=""color: black; font-size: 48px"">N + M</span>","null","","","","resp_prompt","","","","","","","","","","","","","","","",""
"categorize-image","187","684022","0.0-4.0-1.0-1.22","y2yne6vah5kxp3e","prime","5e59aa5be0777c1aa4e2c2de","5f60e3c0a3b16e07647b2ff9","5f646a5f68efb31fb0bfe668","true","1301.914999996312","./Stimuli/SelectedImages/SN/SN181.bmp","83","","","","test","true","N + M","83","switch","SN","SN181.bmp","remember","","71","3","prime1","left","","","",""
"html-keyboard-response","188","686025","0.0-4.0-1.0-3.22","y2yne6vah5kxp3e","prime","5e59aa5be0777c1aa4e2c2de","5f60e3c0a3b16e07647b2ff9","5f646a5f68efb31fb0bfe668","false","null","<div style=""align-items: center; display: flex; color: dodgerblue; font-size: 90px""><b>o</b></div>","null","","","","forget_cue","","","","","","","","","","","","","","","",""
"html-keyboard-response","189","686735","0.0-4.0-1.0-0.23","y2yne6vah5kxp3e","prime","5e59aa5be0777c1aa4e2c2de","5f60e3c0a3b16e07647b2ff9","5f646a5f68efb31fb0bfe668","false","null","<span style=""color: black; font-size: 48px"">M + N</span>","null","","","","resp_prompt","","","","","","","","","","","","","","","",""
"categorize-image","190","687698","0.0-4.0-1.0-1.23","y2yne6vah5kxp3e","prime","5e59aa5be0777c1aa4e2c2de","5f60e3c0a3b16e07647b2ff9","5f646a5f68efb31fb0bfe668","true","944.0699999977369","./Stimuli/SelectedImages/SM/SM200.bmp","83","","","","test","true","M + N","83","repetition","SM","SM200.bmp","remember","","72","3","prime1","left","","","",""
"html-keyboard-response","191","689701","0.0-4.0-1.0-3.23","y2yne6vah5kxp3e","prime","5e59aa5be0777c1aa4e2c2de","5f60e3c0a3b16e07647b2ff9","5f646a5f68efb31fb0bfe668","false","null","<div style=""align-items: center; display: flex; color: dodgerblue; font-size: 90px""><b>o</b></div>","null","","","","forget_cue","","","","","","","","","","","","","","","",""
"html-keyboard-response","192","690410","0.0-4.0-1.0-0.24","y2yne6vah5kxp3e","prime","5e59aa5be0777c1aa4e2c2de","5f60e3c0a3b16e07647b2ff9","5f646a5f68efb31fb0bfe668","false","null","<span style=""color: black; font-size: 48px"">N + M</span>","null","","","","resp_prompt","","","","","","","","","","","","","","","",""
"categorize-image","193","691193","0.0-4.0-1.0-1.24","y2yne6vah5kxp3e","prime","5e59aa5be0777c1aa4e2c2de","5f60e3c0a3b16e07647b2ff9","5f646a5f68efb31fb0bfe668","true","765.8450000016019","./Stimuli/SelectedImages/SN/SN187.bmp","83","","","","test","true","N + M","83","repetition","SN","SN187.bmp","remember","","73","3","prime1","left","","","",""
"html-keyboard-response","194","693197","0.0-4.0-1.0-3.24","y2yne6vah5kxp3e","prime","5e59aa5be0777c1aa4e2c2de","5f60e3c0a3b16e07647b2ff9","5f646a5f68efb31fb0bfe668","false","null","<div style=""align-items: center; display: flex; color: dodgerblue; font-size: 90px""><b>o</b></div>","null","","","","forget_cue","","","","","","","","","","","","","","","",""
"html-keyboard-response","195","693901","0.0-4.0-1.0-0.25","y2yne6vah5kxp3e","prime","5e59aa5be0777c1aa4e2c2de","5f60e3c0a3b16e07647b2ff9","5f646a5f68efb31fb0bfe668","false","null","<span style=""color: black; font-size: 48px"">M + N</span>","null","","","","resp_prompt","","","","","","","","","","","","","","","",""
"categorize-image","196","695003","0.0-4.0-1.0-1.25","y2yne6vah5kxp3e","prime","5e59aa5be0777c1aa4e2c2de","5f60e3c0a3b16e07647b2ff9","5f646a5f68efb31fb0bfe668","true","1082.750000001397","./Stimuli/SelectedImages/SM/SM128.bmp","83","","","","test","true","M + N","83","switch","SM","SM128.bmp","remember","","74","3","prime1","left","","","",""
"html-keyboard-response","197","697006","0.0-4.0-1.0-3.25","y2yne6vah5kxp3e","prime","5e59aa5be0777c1aa4e2c2de","5f60e3c0a3b16e07647b2ff9","5f646a5f68efb31fb0bfe668","false","null","<div style=""align-items: center; display: flex; color: dodgerblue; font-size: 90px""><b>o</b></div>","null","","","","forget_cue","","","","","","","","","","","","","","","",""
"html-keyboard-response","198","697714","0.0-4.0-1.0-0.26","y2yne6vah5kxp3e","prime","5e59aa5be0777c1aa4e2c2de","5f60e3c0a3b16e07647b2ff9","5f646a5f68efb31fb0bfe668","false","null","<span style=""color: black; font-size: 48px"">M + N</span>","null","","","","resp_prompt","","","","","","","","","","","","","","","",""
"categorize-image","199","698840","0.0-4.0-1.0-1.26","y2yne6vah5kxp3e","prime","5e59aa5be0777c1aa4e2c2de","5f60e3c0a3b16e07647b2ff9","5f646a5f68efb31fb0bfe668","true","1103.7400000059279","./Stimuli/SelectedImages/SN/SN18.bmp","76","","","","test","true","M + N","76","switch","SN","SN18.bmp","remember","","75","3","prime1","right","","","",""
"html-keyboard-response","200","700844","0.0-4.0-1.0-3.26","y2yne6vah5kxp3e","prime","5e59aa5be0777c1aa4e2c2de","5f60e3c0a3b16e07647b2ff9","5f646a5f68efb31fb0bfe668","false","null","<div style=""align-items: center; display: flex; color: dodgerblue; font-size: 90px""><b>o</b></div>","null","","","","forget_cue","","","","","","","","","","","","","","","",""
"html-keyboard-response","201","701549","0.0-4.0-1.0-0.27","y2yne6vah5kxp3e","prime","5e59aa5be0777c1aa4e2c2de","5f60e3c0a3b16e07647b2ff9","5f646a5f68efb31fb0bfe668","false","null","<span style=""color: black; font-size: 48px"">N + M</span>","null","","","","resp_prompt","","","","","","","","","","","","","","","",""
"categorize-image","202","702429","0.0-4.0-1.0-1.27","y2yne6vah5kxp3e","prime","5e59aa5be0777c1aa4e2c2de","5f60e3c0a3b16e07647b2ff9","5f646a5f68efb31fb0bfe668","true","864.6000000007916","./Stimuli/SelectedImages/LM/LM100.bmp","76","","","","test","true","N + M","76","repetition","LM","LM100.bmp","remember","","76","3","prime1","right","","","",""
"html-keyboard-response","203","704433","0.0-4.0-1.0-3.27","y2yne6vah5kxp3e","prime","5e59aa5be0777c1aa4e2c2de","5f60e3c0a3b16e07647b2ff9","5f646a5f68efb31fb0bfe668","false","null","<div style=""align-items: center; display: flex; color: dodgerblue; font-size: 90px""><b>o</b></div>","null","","","","forget_cue","","","","","","","","","","","","","","","",""
"html-keyboard-response","204","705140","0.0-4.0-1.0-0.28","y2yne6vah5kxp3e","prime","5e59aa5be0777c1aa4e2c2de","5f60e3c0a3b16e07647b2ff9","5f646a5f68efb31fb0bfe668","false","null","<span style=""color: black; font-size: 48px"">N + M</span>","null","","","","resp_prompt","","","","","","","","","","","","","","","",""
"categorize-image","205","706157","0.0-4.0-1.0-1.28","y2yne6vah5kxp3e","prime","5e59aa5be0777c1aa4e2c2de","5f60e3c0a3b16e07647b2ff9","5f646a5f68efb31fb0bfe668","true","997.5849999972852","./Stimuli/SelectedImages/LM/LM167.bmp","76","","","","test","true","N + M","76","repetition","LM","LM167.bmp","remember","","77","3","prime1","right","","","",""
"html-keyboard-response","206","708163","0.0-4.0-1.0-3.28","y2yne6vah5kxp3e","prime","5e59aa5be0777c1aa4e2c2de","5f60e3c0a3b16e07647b2ff9","5f646a5f68efb31fb0bfe668","false","null","<div style=""align-items: center; display: flex; color: dodgerblue; font-size: 90px""><b>o</b></div>","null","","","","forget_cue","","","","","","","","","","","","","","","",""
"html-keyboard-response","207","708868","0.0-4.0-1.0-0.29","y2yne6vah5kxp3e","prime","5e59aa5be0777c1aa4e2c2de","5f60e3c0a3b16e07647b2ff9","5f646a5f68efb31fb0bfe668","false","null","<span style=""color: black; font-size: 48px"">M + N</span>","null","","","","resp_prompt","","","","","","","","","","","","","","","",""
"categorize-image","208","709778","0.0-4.0-1.0-1.29","y2yne6vah5kxp3e","prime","5e59aa5be0777c1aa4e2c2de","5f60e3c0a3b16e07647b2ff9","5f646a5f68efb31fb0bfe668","true","891.5500000002794","./Stimuli/SelectedImages/LM/LM209.bmp","83","","","","test","true","M + N","83","switch","LM","LM209.bmp","forget","","78","3","prime1","left","","","",""
"html-keyboard-response","209","711781","0.0-4.0-1.0-3.29","y2yne6vah5kxp3e","prime","5e59aa5be0777c1aa4e2c2de","5f60e3c0a3b16e07647b2ff9","5f646a5f68efb31fb0bfe668","false","null","<div style=""align-items: center; display: flex; color: darkorange; font-size: 90px""><b>ø</b></div>","null","","","","forget_cue","","","","","","","","","","","","","","","",""
"html-keyboard-response","210","712486","0.0-4.0-1.0-0.30","y2yne6vah5kxp3e","prime","5e59aa5be0777c1aa4e2c2de","5f60e3c0a3b16e07647b2ff9","5f646a5f68efb31fb0bfe668","false","null","<span style=""color: black; font-size: 48px"">N + M</span>","null","","","","resp_prompt","","","","","","","","","","","","","","","",""
"categorize-image","211","713085","0.0-4.0-1.0-1.30","y2yne6vah5kxp3e","prime","5e59aa5be0777c1aa4e2c2de","5f60e3c0a3b16e07647b2ff9","5f646a5f68efb31fb0bfe668","true","580.0699999963399","./Stimuli/SelectedImages/SM/SM213.bmp","76","","","","test","true","N + M","76","repetition","SM","SM213.bmp","forget","","79","3","prime1","right","","","",""
"html-keyboard-response","212","715087","0.0-4.0-1.0-3.30","y2yne6vah5kxp3e","prime","5e59aa5be0777c1aa4e2c2de","5f60e3c0a3b16e07647b2ff9","5f646a5f68efb31fb0bfe668","false","null","<div style=""align-items: center; display: flex; color: darkorange; font-size: 90px""><b>ø</b></div>","null","","","","forget_cue","","","","","","","","","","","","","","","",""
"html-keyboard-response","213","715789","0.0-4.0-1.0-0.31","y2yne6vah5kxp3e","prime","5e59aa5be0777c1aa4e2c2de","5f60e3c0a3b16e07647b2ff9","5f646a5f68efb31fb0bfe668","false","null","<span style=""color: black; font-size: 48px"">M + N</span>","null","","","","resp_prompt","","","","","","","","","","","","","","","",""
"categorize-image","214","716521","0.0-4.0-1.0-1.31","y2yne6vah5kxp3e","prime","5e59aa5be0777c1aa4e2c2de","5f60e3c0a3b16e07647b2ff9","5f646a5f68efb31fb0bfe668","true","720.734999995213","./Stimuli/SelectedImages/LN/LN131.bmp","76","","","","test","true","M + N","76","repetition","LN","LN131.bmp","remember","","80","3","prime1","right","","","",""
"html-keyboard-response","215","718526","0.0-4.0-1.0-3.31","y2yne6vah5kxp3e","prime","5e59aa5be0777c1aa4e2c2de","5f60e3c0a3b16e07647b2ff9","5f646a5f68efb31fb0bfe668","false","null","<div style=""align-items: center; display: flex; color: dodgerblue; font-size: 90px""><b>o</b></div>","null","","","","forget_cue","","","","","","","","","","","","","","","",""
"html-keyboard-response","216","719234","0.0-4.0-1.0-0.32","y2yne6vah5kxp3e","prime","5e59aa5be0777c1aa4e2c2de","5f60e3c0a3b16e07647b2ff9","5f646a5f68efb31fb0bfe668","false","null","<span style=""color: black; font-size: 48px"">M + N</span>","null","","","","resp_prompt","","","","","","","","","","","","","","","",""
"categorize-image","217","720444","0.0-4.0-1.0-1.32","y2yne6vah5kxp3e","prime","5e59aa5be0777c1aa4e2c2de","5f60e3c0a3b16e07647b2ff9","5f646a5f68efb31fb0bfe668","true","1193.059999997844","./Stimuli/SelectedImages/SN/SN49.bmp","76","","","","test","true","M + N","76","repetition","SN","SN49.bmp","forget","","81","3","prime1","right","","","",""
"html-keyboard-response","218","722447","0.0-4.0-1.0-3.32","y2yne6vah5kxp3e","prime","5e59aa5be0777c1aa4e2c2de","5f60e3c0a3b16e07647b2ff9","5f646a5f68efb31fb0bfe668","false","null","<div style=""align-items: center; display: flex; color: darkorange; font-size: 90px""><b>ø</b></div>","null","","","","forget_cue","","","","","","","","","","","","","","","",""
"html-keyboard-response","219","723152","0.0-4.0-1.0-0.33","y2yne6vah5kxp3e","prime","5e59aa5be0777c1aa4e2c2de","5f60e3c0a3b16e07647b2ff9","5f646a5f68efb31fb0bfe668","false","null","<span style=""color: black; font-size: 48px"">M + N</span>","null","","","","resp_prompt","","","","","","","","","","","","","","","",""
"categorize-image","220","724009","0.0-4.0-1.0-1.33","y2yne6vah5kxp3e","prime","5e59aa5be0777c1aa4e2c2de","5f60e3c0a3b16e07647b2ff9","5f646a5f68efb31fb0bfe668","true","838.7650000003632","./Stimuli/SelectedImages/SM/SM78.bmp","83","","","","test","true","M + N","83","switch","SM","SM78.bmp","forget","","82","3","prime1","left","","","",""
"html-keyboard-response","221","726015","0.0-4.0-1.0-3.33","y2yne6vah5kxp3e","prime","5e59aa5be0777c1aa4e2c2de","5f60e3c0a3b16e07647b2ff9","5f646a5f68efb31fb0bfe668","false","null","<div style=""align-items: center; display: flex; color: darkorange; font-size: 90px""><b>ø</b></div>","null","","","","forget_cue","","","","","","","","","","","","","","","",""
"html-keyboard-response","222","726720","0.0-4.0-1.0-0.34","y2yne6vah5kxp3e","prime","5e59aa5be0777c1aa4e2c2de","5f60e3c0a3b16e07647b2ff9","5f646a5f68efb31fb0bfe668","false","null","<span style=""color: black; font-size: 48px"">N + M</span>","null","","","","resp_prompt","","","","","","","","","","","","","","","",""
"categorize-image","223","727680","0.0-4.0-1.0-1.34","y2yne6vah5kxp3e","prime","5e59aa5be0777c1aa4e2c2de","5f60e3c0a3b16e07647b2ff9","5f646a5f68efb31fb0bfe668","true","942.0899999968242","./Stimuli/SelectedImages/SM/SM74.bmp","76","","","","test","true","N + M","76","switch","SM","SM74.bmp","forget","","83","3","prime1","right","","","",""
"html-keyboard-response","224","729684","0.0-4.0-1.0-3.34","y2yne6vah5kxp3e","prime","5e59aa5be0777c1aa4e2c2de","5f60e3c0a3b16e07647b2ff9","5f646a5f68efb31fb0bfe668","false","null","<div style=""align-items: center; display: flex; color: darkorange; font-size: 90px""><b>ø</b></div>","null","","","","forget_cue","","","","","","","","","","","","","","","",""
"html-keyboard-response","225","730391","0.0-4.0-1.0-0.35","y2yne6vah5kxp3e","prime","5e59aa5be0777c1aa4e2c2de","5f60e3c0a3b16e07647b2ff9","5f646a5f68efb31fb0bfe668","false","null","<span style=""color: black; font-size: 48px"">N + M</span>","null","","","","resp_prompt","","","","","","","","","","","","","","","",""
"categorize-image","226","731136","0.0-4.0-1.0-1.35","y2yne6vah5kxp3e","prime","5e59aa5be0777c1aa4e2c2de","5f60e3c0a3b16e07647b2ff9","5f646a5f68efb31fb0bfe668","true","724.8450000043958","./Stimuli/SelectedImages/LM/LM58.bmp","76","","","","test","true","N + M","76","switch","LM","LM58.bmp","forget","","84","3","prime1","right","","","",""
"html-keyboard-response","227","733139","0.0-4.0-1.0-3.35","y2yne6vah5kxp3e","prime","5e59aa5be0777c1aa4e2c2de","5f60e3c0a3b16e07647b2ff9","5f646a5f68efb31fb0bfe668","false","null","<div style=""align-items: center; display: flex; color: darkorange; font-size: 90px""><b>ø</b></div>","null","","","","forget_cue","","","","","","","","","","","","","","","",""
"html-keyboard-response","228","733842","0.0-4.0-1.0-0.36","y2yne6vah5kxp3e","prime","5e59aa5be0777c1aa4e2c2de","5f60e3c0a3b16e07647b2ff9","5f646a5f68efb31fb0bfe668","false","null","<span style=""color: black; font-size: 48px"">M + N</span>","null","","","","resp_prompt","","","","","","","","","","","","","","","",""
"categorize-image","229","734894","0.0-4.0-1.0-1.36","y2yne6vah5kxp3e","prime","5e59aa5be0777c1aa4e2c2de","5f60e3c0a3b16e07647b2ff9","5f646a5f68efb31fb0bfe668","true","1027.3049999959767","./Stimuli/SelectedImages/SM/SM106.bmp","83","","","","test","true","M + N","83","switch","SM","SM106.bmp","remember","","85","3","prime1","left","","","",""
"html-keyboard-response","230","736897","0.0-4.0-1.0-3.36","y2yne6vah5kxp3e","prime","5e59aa5be0777c1aa4e2c2de","5f60e3c0a3b16e07647b2ff9","5f646a5f68efb31fb0bfe668","false","null","<div style=""align-items: center; display: flex; color: dodgerblue; font-size: 90px""><b>o</b></div>","null","","","","forget_cue","","","","","","","","","","","","","","","",""
"html-keyboard-response","231","737602","0.0-4.0-1.0-0.37","y2yne6vah5kxp3e","prime","5e59aa5be0777c1aa4e2c2de","5f60e3c0a3b16e07647b2ff9","5f646a5f68efb31fb0bfe668","false","null","<span style=""color: black; font-size: 48px"">M + N</span>","null","","","","resp_prompt","","","","","","","","","","","","","","","",""
"categorize-image","232","738357","0.0-4.0-1.0-1.37","y2yne6vah5kxp3e","prime","5e59aa5be0777c1aa4e2c2de","5f60e3c0a3b16e07647b2ff9","5f646a5f68efb31fb0bfe668","true","736.134999999078","./Stimuli/SelectedImages/LN/LN28.bmp","76","","","","test","true","M + N","76","switch","LN","LN28.bmp","remember","","86","3","prime1","right","","","",""
"html-keyboard-response","233","740360","0.0-4.0-1.0-3.37","y2yne6vah5kxp3e","prime","5e59aa5be0777c1aa4e2c2de","5f60e3c0a3b16e07647b2ff9","5f646a5f68efb31fb0bfe668","false","null","<div style=""align-items: center; display: flex; color: dodgerblue; font-size: 90px""><b>o</b></div>","null","","","","forget_cue","","","","","","","","","","","","","","","",""
"html-keyboard-response","234","741065","0.0-4.0-1.0-0.38","y2yne6vah5kxp3e","prime","5e59aa5be0777c1aa4e2c2de","5f60e3c0a3b16e07647b2ff9","5f646a5f68efb31fb0bfe668","false","null","<span style=""color: black; font-size: 48px"">N + M</span>","null","","","","resp_prompt","","","","","","","","","","","","","","","",""
"categorize-image","235","741856","0.0-4.0-1.0-1.38","y2yne6vah5kxp3e","prime","5e59aa5be0777c1aa4e2c2de","5f60e3c0a3b16e07647b2ff9","5f646a5f68efb31fb0bfe668","true","779.4799999974202","./Stimuli/SelectedImages/SN/SN111.bmp","83","","","","test","true","N + M","83","switch","SN","SN111.bmp","forget","","87","3","prime1","left","","","",""
"html-keyboard-response","236","743859","0.0-4.0-1.0-3.38","y2yne6vah5kxp3e","prime","5e59aa5be0777c1aa4e2c2de","5f60e3c0a3b16e07647b2ff9","5f646a5f68efb31fb0bfe668","false","null","<div style=""align-items: center; display: flex; color: darkorange; font-size: 90px""><b>ø</b></div>","null","","","","forget_cue","","","","","","","","","","","","","","","",""
"html-keyboard-response","237","744564","0.0-4.0-1.0-0.39","y2yne6vah5kxp3e","prime","5e59aa5be0777c1aa4e2c2de","5f60e3c0a3b16e07647b2ff9","5f646a5f68efb31fb0bfe668","false","null","<span style=""color: black; font-size: 48px"">M + N</span>","null","","","","resp_prompt","","","","","","","","","","","","","","","",""
"categorize-image","238","745194","0.0-4.0-1.0-1.39","y2yne6vah5kxp3e","prime","5e59aa5be0777c1aa4e2c2de","5f60e3c0a3b16e07647b2ff9","5f646a5f68efb31fb0bfe668","true","615.5149999976857","./Stimuli/SelectedImages/SM/SM207.bmp","83","","","","test","true","M + N","83","switch","SM","SM207.bmp","forget","","88","3","prime1","left","","","",""
"html-keyboard-response","239","747202","0.0-4.0-1.0-3.39","y2yne6vah5kxp3e","prime","5e59aa5be0777c1aa4e2c2de","5f60e3c0a3b16e07647b2ff9","5f646a5f68efb31fb0bfe668","false","null","<div style=""align-items: center; display: flex; color: darkorange; font-size: 90px""><b>ø</b></div>","null","","","","forget_cue","","","","","","","","","","","","","","","",""
"html-keyboard-response","240","747908","0.0-4.0-1.0-0.40","y2yne6vah5kxp3e","prime","5e59aa5be0777c1aa4e2c2de","5f60e3c0a3b16e07647b2ff9","5f646a5f68efb31fb0bfe668","false","null","<span style=""color: black; font-size: 48px"">N + M</span>","null","","","","resp_prompt","","","","","","","","","","","","","","","",""
"categorize-image","241","748514","0.0-4.0-1.0-1.40","y2yne6vah5kxp3e","prime","5e59aa5be0777c1aa4e2c2de","5f60e3c0a3b16e07647b2ff9","5f646a5f68efb31fb0bfe668","true","588.3299999986775","./Stimuli/SelectedImages/SM/SM205.bmp","76","","","","test","true","N + M","76","repetition","SM","SM205.bmp","forget","","89","3","prime1","right","","","",""
"html-keyboard-response","242","750517","0.0-4.0-1.0-3.40","y2yne6vah5kxp3e","prime","5e59aa5be0777c1aa4e2c2de","5f60e3c0a3b16e07647b2ff9","5f646a5f68efb31fb0bfe668","false","null","<div style=""align-items: center; display: flex; color: darkorange; font-size: 90px""><b>ø</b></div>","null","","","","forget_cue","","","","","","","","","","","","","","","",""
"html-keyboard-response","243","751223","0.0-4.0-1.0-0.41","y2yne6vah5kxp3e","prime","5e59aa5be0777c1aa4e2c2de","5f60e3c0a3b16e07647b2ff9","5f646a5f68efb31fb0bfe668","false","null","<span style=""color: black; font-size: 48px"">M + N</span>","null","","","","resp_prompt","","","","","","","","","","","","","","","",""
"categorize-image","244","752033","0.0-4.0-1.0-1.41","y2yne6vah5kxp3e","prime","5e59aa5be0777c1aa4e2c2de","5f60e3c0a3b16e07647b2ff9","5f646a5f68efb31fb0bfe668","true","798.5499999994645","./Stimuli/SelectedImages/LN/LN177.bmp","76","","","","test","true","M + N","76","switch","LN","LN177.bmp","forget","","90","3","prime1","right","","","",""
"html-keyboard-response","245","754038","0.0-4.0-1.0-3.41","y2yne6vah5kxp3e","prime","5e59aa5be0777c1aa4e2c2de","5f60e3c0a3b16e07647b2ff9","5f646a5f68efb31fb0bfe668","false","null","<div style=""align-items: center; display: flex; color: darkorange; font-size: 90px""><b>ø</b></div>","null","","","","forget_cue","","","","","","","","","","","","","","","",""
"html-keyboard-response","246","754742","0.0-4.0-1.0-0.42","y2yne6vah5kxp3e","prime","5e59aa5be0777c1aa4e2c2de","5f60e3c0a3b16e07647b2ff9","5f646a5f68efb31fb0bfe668","false","null","<span style=""color: black; font-size: 48px"">M + N</span>","null","","","","resp_prompt","","","","","","","","","","","","","","","",""
"categorize-image","247","755429","0.0-4.0-1.0-1.42","y2yne6vah5kxp3e","prime","5e59aa5be0777c1aa4e2c2de","5f60e3c0a3b16e07647b2ff9","5f646a5f68efb31fb0bfe668","true","667.1799999967916","./Stimuli/SelectedImages/LM/LM150.bmp","83","","","","test","true","M + N","83","switch","LM","LM150.bmp","remember","","91","3","prime1","left","","","",""
"html-keyboard-response","248","757432","0.0-4.0-1.0-3.42","y2yne6vah5kxp3e","prime","5e59aa5be0777c1aa4e2c2de","5f60e3c0a3b16e07647b2ff9","5f646a5f68efb31fb0bfe668","false","null","<div style=""align-items: center; display: flex; color: dodgerblue; font-size: 90px""><b>o</b></div>","null","","","","forget_cue","","","","","","","","","","","","","","","",""
"html-keyboard-response","249","758135","0.0-4.0-1.0-0.43","y2yne6vah5kxp3e","prime","5e59aa5be0777c1aa4e2c2de","5f60e3c0a3b16e07647b2ff9","5f646a5f68efb31fb0bfe668","false","null","<span style=""color: black; font-size: 48px"">M + N</span>","null","","","","resp_prompt","","","","","","","","","","","","","","","",""
"categorize-image","250","758752","0.0-4.0-1.0-1.43","y2yne6vah5kxp3e","prime","5e59aa5be0777c1aa4e2c2de","5f60e3c0a3b16e07647b2ff9","5f646a5f68efb31fb0bfe668","true","606.7200000034645","./Stimuli/SelectedImages/SN/SN52.bmp","76","","","","test","true","M + N","76","repetition","SN","SN52.bmp","remember","","92","3","prime1","right","","","",""
"html-keyboard-response","251","760756","0.0-4.0-1.0-3.43","y2yne6vah5kxp3e","prime","5e59aa5be0777c1aa4e2c2de","5f60e3c0a3b16e07647b2ff9","5f646a5f68efb31fb0bfe668","false","null","<div style=""align-items: center; display: flex; color: dodgerblue; font-size: 90px""><b>o</b></div>","null","","","","forget_cue","","","","","","","","","","","","","","","",""
"html-keyboard-response","252","761463","0.0-4.0-1.0-0.44","y2yne6vah5kxp3e","prime","5e59aa5be0777c1aa4e2c2de","5f60e3c0a3b16e07647b2ff9","5f646a5f68efb31fb0bfe668","false","null","<span style=""color: black; font-size: 48px"">M + N</span>","null","","","","resp_prompt","","","","","","","","","","","","","","","",""
