"trial_type","trial_index","time_elapsed","internal_node_id","subject","exp_part","prolific_PID","study_ID","session_ID","use","rt","stimulus","key_press","button_pressed","responses","question_order","trial_part","correct","resp_map","correct_resp","probe_condition","category","image","forget_condition","list","trial_num","block_num","block","response","test_part","n_span","sequence","num_spaces"
"pavlovia","0","11","0.0-0.0","1r8ska1wese2t56","","5c3d48955fd1050001a99364","5f60e3c0a3b16e07647b2ff9","5f60ee52f363d501605eb2c6","false","","","","","","","","","","","","","","","","","","","","","","",""
"html-keyboard-response","1","6192","0.0-1.0-0.0-0.0","1r8ska1wese2t56","welcome","5c3d48955fd1050001a99364","5f60e3c0a3b16e07647b2ff9","5f60ee52f363d501605eb2c6","false","6175.495000000012","<div align=left>Dear participant, <br> thank you for participating in an online study of the Cognition, Action, and Sustainability Unit of the University of Freiburg! <br> <br>The aim of this study is to examine our ability to remember previously learned information. <br>Our goal is to find out, whether our memory improves, when we only remember information that is relevant to us. <br>The experiment will take about 35 minutes to complete. <br> <br>Please, note that you can only participate in this study if you are using a device with a keyboard (PC, Laptop etc.) <br>and not if you are using a mobile device such as a tablet or smartphone.<br> <br>Press 'SPACE' to proceed to the experiment. </div>","32","","","","","","","","","","","","","","","","","","","",""
"html-keyboard-response","2","18654","0.0-1.0-0.0-1.0","1r8ska1wese2t56","welcome","5c3d48955fd1050001a99364","5f60e3c0a3b16e07647b2ff9","5f60ee52f363d501605eb2c6","false","12459.415000000037","<div align=left><strong> Time Course of this experiment: </strong> <br><br> <strong> 1.</strong>  First, please fill in some information regarding your demographic data. <br><br> <strong> 2.</strong>  Next, your task will be to classify everyday objects. <br>In addition, you will be asked to remember certain objects and recall them later. <br>Working on these tasks requires your undivided attention and concentration.<br>It is therefore essential that you eliminate any sources of distraction in your  <br>environment and ensure that you will not be disturbed. <br><br><strong> 3.</strong>  At the end of the experiment, you will be asked to answer a few additional questions. <br> <br><strong> Important:</strong> After finishing the experiment, only close the browser window <br> by clicking on the 'end the experiment'-button when you are asked to do so. <br>Closing the browser window prematurely will make the allocation of your participation credit impossible. <br><br> Press 'SPACE' to start the experiment. </div>","32","","","","","","","","","","","","","","","","","","","",""
"html-button-response","3","20982","0.0-1.0-0.0-2.0","1r8ska1wese2t56","welcome","5c3d48955fd1050001a99364","5f60e3c0a3b16e07647b2ff9","5f60ee52f363d501605eb2c6","true","2324.3049999999785","<div align=left><strong> Informed consent </strong>  <br>The aim of our research is to better understand human behavior and mental processes. <br>In the following study your behavior (e.g. choices, reaction times) will be studied. <br> <br><strong> Voluntariness and Anonymity </strong> <br>Your participation in this study is  <strong> voluntary</strong>.<br>You may withdraw your consent to participate at any time without providing a reason for doing so and without fear of prejudice. <br><br>As no personal data will be collected, <strong>your data and your person cannot be connected after data collection</strong> – the data-set is anonymous. <br>Respectively, deletion of your data will not be possible after data collection has been completed, as we cannot retrace your data-set.<br>The results and anonymized data collected in this study will be published as a scientific publication. <br>This will happen in an <strong>anonymized format</strong>, so that no data can be traced back to a specific person. <br> <br>The anonymized data of this study will be made available to other researchers and/or in a data archive on the Internet as a means of transparency and to enable subsequent re-use. By doing so, this study follows the recommendations of the Deutsche Forschungsgemeinschaft (DFG, German Research Foundation) and Deutsche Gesellschaft für Psychologie (DGPS, German Psychological Society) regarding quality assurance in research.<br>If you have any questions now or after the experiment, please contact our team (experiments@cs.uni-freiburg.de).<br><br><br>I hereby declare, that I understand the above described conditions of participation and I agree to participate under these conditions. <br><br> </div>","","0","","","","","","","","","","","","","","","","","","",""
"html-keyboard-response","4","31884","0.0-1.0-0.0-3.0","1r8ska1wese2t56","welcome","5c3d48955fd1050001a99364","5f60e3c0a3b16e07647b2ff9","5f60ee52f363d501605eb2c6","false","10899.305000000026","<div align=left><strong> General information concerning the experiment </strong>  <br> <br>Please follow the instructions:<ol> <li><strong> Do not leave this tab (your browser window) during the experiment and do not reload this tab! </strong>  <br>If you do switch tabs/windows during the experiment (to check your mail or visit another website, for example), <br>the experiment will end automatically and you will <strong>not receive credit</strong> for your participation. <br>Repeated participation or resumption of the experiment is impossible.</li> <br><li>Please close all other programs for the duration of your participation. </li> <br><li>Please mute or turn off your phone and put it out of your reach. </li> <br><li>Please also take off any disturbing accessories (such as wristwatches, bracelets, etc.). </li> <br><li>If you have music playing in the background, please turn it off now. </li> <br></ol>Thank you! <br>Press 'SPACE' to continue. </div>","32","","","","","","","","","","","","","","","","","","","",""
"survey-text","5","34764","0.0-1.0-1.0-0.0","1r8ska1wese2t56","demographics","5c3d48955fd1050001a99364","5f60e3c0a3b16e07647b2ff9","5f60ee52f363d501605eb2c6","true","2868.24000000002","","","","{""age"":""30""}","","","","","","","","","","","","","","","","","",""
"survey-multi-choice","6","51181","0.0-1.0-1.0-1.0","1r8ska1wese2t56","demographics","5c3d48955fd1050001a99364","5f60e3c0a3b16e07647b2ff9","5f60ee52f363d501605eb2c6","true","16412.07000000003","","","","{""gender"":""female"",""school"":""high school"",""education"":""High school graduate, diploma or equivalent""}","[0,1,2]","","","","","","","","","","","","","","","","",""
"html-keyboard-response","7","69200","0.0-1.0-2.0","1r8ska1wese2t56","instructions","5c3d48955fd1050001a99364","5f60e3c0a3b16e07647b2ff9","5f60ee52f363d501605eb2c6","false","18015.125000000007","<div align=left> The experiment is now about to start: <br> <br>In the following part, you will be presented pictures of everyday objects. <br>Your first task is to <strong>classify these objects. </strong> <br> <br> You will classify them either as mechanical or non-mechanical objects. <br> <br>Objects that include any kind of technical mechanism (for example, wheels, switches, levers, <br> electronic components) fall under the category of <strong>mechanical</strong> objects. <br>Only objects without any kind of technical mechanism should be classified as <strong>non-mechanical</strong>. <br><br>Press 'SPACE' to continue. </div>","32","","","","","","","","","","","","","","","","","","","",""
"html-keyboard-response","8","90150","0.0-2.0-0.0","1r8ska1wese2t56","instructions","5c3d48955fd1050001a99364","5f60e3c0a3b16e07647b2ff9","5f60ee52f363d501605eb2c6","false","20948.21500000001","<div align=justify>You will classify the objects using the <strong>'S'</strong> and the <strong>'L'</strong> keys on your keyboard.<br>For doing so, please place your <strong>left index finger</strong> on the <strong>'S'</strong> key and place your <strong>right index finger</strong> on the <strong>'L'</strong> key. <br><br> Each trial starts with an instruction, indicating which key ('S'/'L') you need to press to classify <br>the object as mechanical (letter M) or non-mechanical (letter N).<br>The instruction <strong>M + N</strong> indicates that, in the current trial, by pressing the left key ('S') you classify the displayed object as mechanical (M) <br> and by pressing the right key ('L') you classify the object as non-mechanical (N). <br>The instruction <strong>N + M</strong> on the other hand indicates that by pressing the left key ('S') you classify the displayed object as non-mechanical (N) <br> and by pressing the right key ('L') you classify the object as mechanical (M). <br><br>Please press the key corresponding to the correct classification as fast as possible as soon as the object is displayed and try to avoid making mistakes.<br>If you do not respond within a 2 second window, a corresponding feedback will be displayed and the next trial will start.<br> The experiment is divided into multiple blocks to give you the opportunity to take a break after each block. <br>First, you can now practice this task. <br><br>Please place your <strong>LEFT INDEX FINGER</strong> on the 'S' key and your <strong>RIGHT INDEX FINGER</strong> on the 'L' key now. <br><br>Press SPACE to continue.</div>","32","","","","","","","","","","","","","","","","","","","",""
"html-keyboard-response","9","93732","0.0-2.0-1.0","1r8ska1wese2t56","instructions","5c3d48955fd1050001a99364","5f60e3c0a3b16e07647b2ff9","5f60ee52f363d501605eb2c6","false","3579.9450000000215","<div align=left> You will now have time to practice this task.<br><br>Remember: <br> <br><li>Please place your index fingers on the <strong>'S'</strong> and <strong>'L'</strong> keys <br>to respond as fast and accurately as possible.</li><li>Every picture can be classified as either mechanical or non-mechanical.</li><li>If you do not respond in time or commit an error, you will receive a corresponding feedback. </li><li> Please try to respond as <strong> fast </strong> and as <strong> accurately as possible </strong> .<br><li>To ensure optimal results, please minimize distractions and stay focused. </li><br><br>Press SPACE to continue.</div>","32","","","","","","","","","","","","","","","","","","","",""
"html-keyboard-response","10","94436","0.0-2.0-2.0-0.0","1r8ska1wese2t56","practice_no_cue","5c3d48955fd1050001a99364","5f60e3c0a3b16e07647b2ff9","5f60ee52f363d501605eb2c6","false","null","<span style=""color: black; font-size: 48px"">M + N</span>","null","","","","resp_prompt","","","","","","","","","","","","","","","",""
"categorize-image","11","96471","0.0-2.0-2.0-1.0","1r8ska1wese2t56","practice_no_cue","5c3d48955fd1050001a99364","5f60e3c0a3b16e07647b2ff9","5f60ee52f363d501605eb2c6","true","1515.7149999999965","./Stimuli/ImagesPractice/SN76.jpg","76","","","","test","true","M + N","76","","SN","SN76.jpg","remember","old","1","1","start","right","","","",""
"html-keyboard-response","12","97186","0.0-2.0-2.0-0.1","1r8ska1wese2t56","practice_no_cue","5c3d48955fd1050001a99364","5f60e3c0a3b16e07647b2ff9","5f60ee52f363d501605eb2c6","false","null","<span style=""color: black; font-size: 48px"">M + N</span>","null","","","","resp_prompt","","","","","","","","","","","","","","","",""
"categorize-image","13","99698","0.0-2.0-2.0-1.1","1r8ska1wese2t56","practice_no_cue","5c3d48955fd1050001a99364","5f60e3c0a3b16e07647b2ff9","5f60ee52f363d501605eb2c6","true","null","./Stimuli/ImagesPractice/LM147.jpg","null","","","","test","false","M + N","83","","LM","LM147.jpg","forget","old","2","1","start","too_slow","","","",""
"html-keyboard-response","14","100405","0.0-2.0-2.0-0.2","1r8ska1wese2t56","practice_no_cue","5c3d48955fd1050001a99364","5f60e3c0a3b16e07647b2ff9","5f60ee52f363d501605eb2c6","false","null","<span style=""color: black; font-size: 48px"">N + M</span>","null","","","","resp_prompt","","","","","","","","","","","","","","","",""
"categorize-image","15","101849","0.0-2.0-2.0-1.2","1r8ska1wese2t56","practice_no_cue","5c3d48955fd1050001a99364","5f60e3c0a3b16e07647b2ff9","5f60ee52f363d501605eb2c6","true","922.3650000000052","./Stimuli/ImagesPractice/LN72.jpg","76","","","","test","false","N + M","83","","LN","LN72.jpg","forget","old","3","1","start","right","","","",""
"html-keyboard-response","16","102558","0.0-2.0-2.0-0.3","1r8ska1wese2t56","practice_no_cue","5c3d48955fd1050001a99364","5f60e3c0a3b16e07647b2ff9","5f60ee52f363d501605eb2c6","false","null","<span style=""color: black; font-size: 48px"">M + N</span>","null","","","","resp_prompt","","","","","","","","","","","","","","","",""
"categorize-image","17","104126","0.0-2.0-2.0-1.3","1r8ska1wese2t56","practice_no_cue","5c3d48955fd1050001a99364","5f60e3c0a3b16e07647b2ff9","5f60ee52f363d501605eb2c6","true","1059.0500000000175","./Stimuli/ImagesPractice/SM62.jpg","76","","","","test","false","M + N","83","","SM","SM62.jpg","remember","old","4","1","start","right","","","",""
"html-keyboard-response","18","104834","0.0-2.0-2.0-0.4","1r8ska1wese2t56","practice_no_cue","5c3d48955fd1050001a99364","5f60e3c0a3b16e07647b2ff9","5f60ee52f363d501605eb2c6","false","null","<span style=""color: black; font-size: 48px"">N + M</span>","null","","","","resp_prompt","","","","","","","","","","","","","","","",""
"categorize-image","19","106114","0.0-2.0-2.0-1.4","1r8ska1wese2t56","practice_no_cue","5c3d48955fd1050001a99364","5f60e3c0a3b16e07647b2ff9","5f60ee52f363d501605eb2c6","true","766.4300000000076","./Stimuli/ImagesPractice/LM230.jpg","83","","","","test","false","N + M","76","","LM","LM230.jpg","remember","old","5","1","start","left","","","",""
"html-keyboard-response","20","106825","0.0-2.0-2.0-0.5","1r8ska1wese2t56","practice_no_cue","5c3d48955fd1050001a99364","5f60e3c0a3b16e07647b2ff9","5f60ee52f363d501605eb2c6","false","null","<span style=""color: black; font-size: 48px"">N + M</span>","null","","","","resp_prompt","","","","","","","","","","","","","","","",""
"categorize-image","21","108491","0.0-2.0-2.0-1.5","1r8ska1wese2t56","practice_no_cue","5c3d48955fd1050001a99364","5f60e3c0a3b16e07647b2ff9","5f60ee52f363d501605eb2c6","true","1151.2599999999802","./Stimuli/ImagesPractice/SN75.jpg","76","","","","test","false","N + M","83","","SN","SN75.jpg","remember","old","6","1","start","right","","","",""
"html-keyboard-response","22","109215","0.0-2.0-2.0-0.6","1r8ska1wese2t56","practice_no_cue","5c3d48955fd1050001a99364","5f60e3c0a3b16e07647b2ff9","5f60ee52f363d501605eb2c6","false","null","<span style=""color: black; font-size: 48px"">M + N</span>","null","","","","resp_prompt","","","","","","","","","","","","","","","",""
"categorize-image","23","110707","0.0-2.0-2.0-1.6","1r8ska1wese2t56","practice_no_cue","5c3d48955fd1050001a99364","5f60e3c0a3b16e07647b2ff9","5f60ee52f363d501605eb2c6","true","985.0400000000227","./Stimuli/ImagesPractice/LM143.jpg","83","","","","test","true","M + N","83","","LM","LM143.jpg","remember","old","7","1","start","left","","","",""
"html-keyboard-response","24","111418","0.0-2.0-2.0-0.7","1r8ska1wese2t56","practice_no_cue","5c3d48955fd1050001a99364","5f60e3c0a3b16e07647b2ff9","5f60ee52f363d501605eb2c6","false","null","<span style=""color: black; font-size: 48px"">N + M</span>","null","","","","resp_prompt","","","","","","","","","","","","","","","",""
"categorize-image","25","112842","0.0-2.0-2.0-1.7","1r8ska1wese2t56","practice_no_cue","5c3d48955fd1050001a99364","5f60e3c0a3b16e07647b2ff9","5f60ee52f363d501605eb2c6","true","917.3799999999756","./Stimuli/ImagesPractice/LN109.jpg","76","","","","test","false","N + M","83","","LN","LN109.jpg","remember","old","8","1","start","right","","","",""
"html-keyboard-response","26","113572","0.0-2.0-2.0-0.8","1r8ska1wese2t56","practice_no_cue","5c3d48955fd1050001a99364","5f60e3c0a3b16e07647b2ff9","5f60ee52f363d501605eb2c6","false","null","<span style=""color: black; font-size: 48px"">M + N</span>","null","","","","resp_prompt","","","","","","","","","","","","","","","",""
"categorize-image","27","114834","0.0-2.0-2.0-1.8","1r8ska1wese2t56","practice_no_cue","5c3d48955fd1050001a99364","5f60e3c0a3b16e07647b2ff9","5f60ee52f363d501605eb2c6","true","755.4000000000233","./Stimuli/ImagesPractice/SM97.jpg","83","","","","test","true","M + N","83","","SM","SM97.jpg","remember","old","9","1","start","left","","","",""
"html-keyboard-response","28","115542","0.0-2.0-2.0-0.9","1r8ska1wese2t56","practice_no_cue","5c3d48955fd1050001a99364","5f60e3c0a3b16e07647b2ff9","5f60ee52f363d501605eb2c6","false","null","<span style=""color: black; font-size: 48px"">M + N</span>","null","","","","resp_prompt","","","","","","","","","","","","","","","",""
"categorize-image","29","117922","0.0-2.0-2.0-1.9","1r8ska1wese2t56","practice_no_cue","5c3d48955fd1050001a99364","5f60e3c0a3b16e07647b2ff9","5f60ee52f363d501605eb2c6","true","1848.6349999999948","./Stimuli/ImagesPractice/LN4.jpg","76","","","","test","true","M + N","76","","LN","LN4.jpg","forget","old","10","1","start","right","","","",""
"html-keyboard-response","30","118632","0.0-2.0-2.0-0.10","1r8ska1wese2t56","practice_no_cue","5c3d48955fd1050001a99364","5f60e3c0a3b16e07647b2ff9","5f60ee52f363d501605eb2c6","false","null","<span style=""color: black; font-size: 48px"">N + M</span>","null","","","","resp_prompt","","","","","","","","","","","","","","","",""
"categorize-image","31","120248","0.0-2.0-2.0-1.10","1r8ska1wese2t56","practice_no_cue","5c3d48955fd1050001a99364","5f60e3c0a3b16e07647b2ff9","5f60ee52f363d501605eb2c6","true","1110.0400000000373","./Stimuli/ImagesPractice/SN222.jpg","76","","","","test","false","N + M","83","","SN","SN222.jpg","remember","old","11","1","start","right","","","",""
"html-keyboard-response","32","120961","0.0-2.0-2.0-0.11","1r8ska1wese2t56","practice_no_cue","5c3d48955fd1050001a99364","5f60e3c0a3b16e07647b2ff9","5f60ee52f363d501605eb2c6","false","null","<span style=""color: black; font-size: 48px"">M + N</span>","null","","","","resp_prompt","","","","","","","","","","","","","","","",""
"categorize-image","33","122159","0.0-2.0-2.0-1.11","1r8ska1wese2t56","practice_no_cue","5c3d48955fd1050001a99364","5f60e3c0a3b16e07647b2ff9","5f60ee52f363d501605eb2c6","true","693.5649999999732","./Stimuli/ImagesPractice/SM37.jpg","83","","","","test","true","M + N","83","","SM","SM37.jpg","forget","old","12","1","start","left","","","",""
"html-keyboard-response","34","122874","0.0-2.0-2.0-0.12","1r8ska1wese2t56","practice_no_cue","5c3d48955fd1050001a99364","5f60e3c0a3b16e07647b2ff9","5f60ee52f363d501605eb2c6","false","null","<span style=""color: black; font-size: 48px"">N + M</span>","null","","","","resp_prompt","","","","","","","","","","","","","","","",""
"categorize-image","35","124831","0.0-2.0-2.0-1.12","1r8ska1wese2t56","practice_no_cue","5c3d48955fd1050001a99364","5f60e3c0a3b16e07647b2ff9","5f60ee52f363d501605eb2c6","true","1436.070000000036","./Stimuli/ImagesPractice/LM224.jpg","83","","","","test","false","N + M","76","","LM","LM224.jpg","forget","old","13","1","start","left","","","",""
"html-keyboard-response","36","125539","0.0-2.0-2.0-0.13","1r8ska1wese2t56","practice_no_cue","5c3d48955fd1050001a99364","5f60e3c0a3b16e07647b2ff9","5f60ee52f363d501605eb2c6","false","null","<span style=""color: black; font-size: 48px"">N + M</span>","null","","","","resp_prompt","","","","","","","","","","","","","","","",""
"categorize-image","37","127413","0.0-2.0-2.0-1.13","1r8ska1wese2t56","practice_no_cue","5c3d48955fd1050001a99364","5f60e3c0a3b16e07647b2ff9","5f60ee52f363d501605eb2c6","true","1331.2399999999907","./Stimuli/ImagesPractice/LN17.jpg","76","","","","test","false","N + M","83","","LN","LN17.jpg","forget","old","14","1","start","right","","","",""
"html-keyboard-response","38","128128","0.0-2.0-2.0-0.14","1r8ska1wese2t56","practice_no_cue","5c3d48955fd1050001a99364","5f60e3c0a3b16e07647b2ff9","5f60ee52f363d501605eb2c6","false","null","<span style=""color: black; font-size: 48px"">M + N</span>","null","","","","resp_prompt","","","","","","","","","","","","","","","",""
"categorize-image","39","130394","0.0-2.0-2.0-1.14","1r8ska1wese2t56","practice_no_cue","5c3d48955fd1050001a99364","5f60e3c0a3b16e07647b2ff9","5f60ee52f363d501605eb2c6","true","1732.7700000000186","./Stimuli/ImagesPractice/SN205.jpg","83","","","","test","false","M + N","76","","SN","SN205.jpg","forget","old","15","1","start","left","","","",""
"html-keyboard-response","40","131125","0.0-2.0-2.0-0.15","1r8ska1wese2t56","practice_no_cue","5c3d48955fd1050001a99364","5f60e3c0a3b16e07647b2ff9","5f60ee52f363d501605eb2c6","false","null","<span style=""color: black; font-size: 48px"">N + M</span>","null","","","","resp_prompt","","","","","","","","","","","","","","","",""
"categorize-image","41","133187","0.0-2.0-2.0-1.15","1r8ska1wese2t56","practice_no_cue","5c3d48955fd1050001a99364","5f60e3c0a3b16e07647b2ff9","5f60ee52f363d501605eb2c6","true","1542.8299999999872","./Stimuli/ImagesPractice/LM239.jpg","83","","","","test","false","N + M","76","","LM","LM239.jpg","forget","old","16","1","start","left","","","",""
"html-keyboard-response","42","137582","0.0-2.0-3.0","1r8ska1wese2t56","break","5c3d48955fd1050001a99364","5f60e3c0a3b16e07647b2ff9","5f60ee52f363d501605eb2c6","false","4392.7699999999895","<p style='font-size: 32px;'>Break</><br><br><br><br><br><p style='font-size: 24px;'>In the last block, you committed 10 errors and did not respond in time on 1 trials.
</p><p style='font-size: 24px;'>Try to respond as fast and accurately as possible in the next block as well! </p><p style='font-size: 24px;'>Press SPACE to continue.</p>","32","","","","","","","","","","","","","","","","","","","",""
"html-keyboard-response","43","143039","0.0-2.0-4.0","1r8ska1wese2t56","instructions","5c3d48955fd1050001a99364","5f60e3c0a3b16e07647b2ff9","5f60ee52f363d501605eb2c6","false","5454.835000000021","<div align=left> Great!<br><br>Are you ready to continue?<br><br>If you want to reread the instructions and redo the practice trials, <br>please press „Z“. <br><br>Press SPACE to CONTINUE with the experiment when you are ready. </div>","32","","","","","","","","","","","","","","","","","","","",""
"html-keyboard-response","44","150260","0.0-3.0-0.0","1r8ska1wese2t56","instructions","5c3d48955fd1050001a99364","5f60e3c0a3b16e07647b2ff9","5f60ee52f363d501605eb2c6","false","7218.245000000024","<div align=left>Great!<br> <strong>Attention</strong>! You will now receive a second, additional task! <br><br>To this point it was you <strong>first task</strong> to correctly <strong>classify objects</strong>. <br><br>As mentioned in the beginning, we aim to examine how well humans can remember previously learned information.<br>We would like to find out whether our memory improves if we only remember information that is relevant to us. <br><br>Therefore, your <strong>second task</strong> will be to <strong>remember</strong> the pictures you are to categorize. <br> After the learning phase, there will be a memory test phase, in which you will be asked to indicate whether you have seen a picture before or not. <br>Some, but not all pictures shown in the learning phase will appear in the memory test phase.<br>After classifying a picture, you will be told whether you should remember it for the memory test phase or not. <br>Thus, some pictures can be forgotten, whereas others have to be remembered. <br><br>Note: From now on, feedback will only be displayed if you responded incorrectly or not in time.<br><br>Press SPACE to continue.</div>","32","","","","","","","","","","","","","","","","","","","",""
"html-keyboard-response","45","164414","0.0-3.0-1.0","1r8ska1wese2t56","instructions","5c3d48955fd1050001a99364","5f60e3c0a3b16e07647b2ff9","5f60ee52f363d501605eb2c6","false","14152.055000000022","<div align=left>In the following part, you will thus have to remember only some pictures. <br>Immediately after seeing and classifying the picture, a symbol will be displayed, indicating whether you should remember or forget the previous picture. <br><br>A <span style='color: dodgerblue; font-size: 28px'>O</span> indicates REMEMBER. That means, you have to remember this picture, because it will be tested later. <br><br>A <span style='color: darkorange; font-size:28px'>Ø</span> indicates FORGET. You do not have to remember this picture. <br><br> As you will have to remember a lot of pictures, it will be hard for you to remember all of them. <br>It will put you at an advantage if you instantly forget the pictures you are not asked to remember. <br> This will make it easier for you to remember the pictures that will be tested afterwards. <br><br>Press SPACE to continue.</div>","32","","","","","","","","","","","","","","","","","","","",""
"html-keyboard-response","46","166122","0.0-3.0-2.0","1r8ska1wese2t56","instructions","5c3d48955fd1050001a99364","5f60e3c0a3b16e07647b2ff9","5f60ee52f363d501605eb2c6","false","1705.554999999993","<div align=left> Now you have the chance to practice both tasks together.<br><br>Remember: <br> <br><li>Please place your index fingers on the <strong>'S'</strong> and <strong>'L'</strong> keys <br>to respond as fast and accurately as possible.</li><li>Every picture can be classified as either mechanical or non-mechanical.</li><li>If you do not respond in time or commit an error, you will receive a corresponding feedback. <br>Please try to respond as <strong> fast </strong> and as <strong> accurately as possible </strong>.</li><li> Please remember only the to-be-remembered <span style='color: dodgerblue; font-size: 28px'>O</span> pictures. <br></li><li> Please minimize distractions and stay focused. </li><br><br>Press SPACE to START</div>","32","","","","","","","","","","","","","","","","","","","",""
"html-keyboard-response","47","166837","0.0-3.0-3.0-0.0","1r8ska1wese2t56","practice_cue","5c3d48955fd1050001a99364","5f60e3c0a3b16e07647b2ff9","5f60ee52f363d501605eb2c6","false","null","<span style=""color: black; font-size: 48px"">N + M</span>","null","","","","resp_prompt","","","","","","","","","","","","","","","",""
"categorize-image","48","168398","0.0-3.0-3.0-1.0","1r8ska1wese2t56","practice_cue","5c3d48955fd1050001a99364","5f60e3c0a3b16e07647b2ff9","5f60ee52f363d501605eb2c6","true","1551.5199999999895","./Stimuli/ImagesPractice/SN75.jpg","76","","","","test","false","N + M","83","","SN","SN75.jpg","remember","old","17","2","practice_forget","right","","","",""
"html-keyboard-response","49","168912","0.0-3.0-3.0-2.0-0.0","1r8ska1wese2t56","practice_cue","5c3d48955fd1050001a99364","5f60e3c0a3b16e07647b2ff9","5f60ee52f363d501605eb2c6","false","null","<span style=""color: red; font-size: 48px"">Error!</span>","null","","","","feedback","","","","","","","","","","","","","","","",""
"html-keyboard-response","50","170925","0.0-3.0-3.0-3.0","1r8ska1wese2t56","practice_cue","5c3d48955fd1050001a99364","5f60e3c0a3b16e07647b2ff9","5f60ee52f363d501605eb2c6","false","null","<div style=""align-items: center; display: flex; color: dodgerblue; font-size: 90px""><b>o</b></div>","null","","","","forget_cue","","","","","","","","","","","","","","","",""
"html-keyboard-response","51","171671","0.0-3.0-3.0-0.1","1r8ska1wese2t56","practice_cue","5c3d48955fd1050001a99364","5f60e3c0a3b16e07647b2ff9","5f60ee52f363d501605eb2c6","false","null","<span style=""color: black; font-size: 48px"">N + M</span>","null","","","","resp_prompt","","","","","","","","","","","","","","","",""
"categorize-image","52","173132","0.0-3.0-3.0-1.1","1r8ska1wese2t56","practice_cue","5c3d48955fd1050001a99364","5f60e3c0a3b16e07647b2ff9","5f60ee52f363d501605eb2c6","true","1455.304999999993","./Stimuli/ImagesPractice/LM230.jpg","76","","","","test","true","N + M","76","","LM","LM230.jpg","remember","old","18","2","practice_forget","right","","","",""
"html-keyboard-response","53","175144","0.0-3.0-3.0-3.1","1r8ska1wese2t56","practice_cue","5c3d48955fd1050001a99364","5f60e3c0a3b16e07647b2ff9","5f60ee52f363d501605eb2c6","false","null","<div style=""align-items: center; display: flex; color: dodgerblue; font-size: 90px""><b>o</b></div>","null","","","","forget_cue","","","","","","","","","","","","","","","",""
"html-keyboard-response","54","175856","0.0-3.0-3.0-0.2","1r8ska1wese2t56","practice_cue","5c3d48955fd1050001a99364","5f60e3c0a3b16e07647b2ff9","5f60ee52f363d501605eb2c6","false","null","<span style=""color: black; font-size: 48px"">N + M</span>","null","","","","resp_prompt","","","","","","","","","","","","","","","",""
"categorize-image","55","177275","0.0-3.0-3.0-1.2","1r8ska1wese2t56","practice_cue","5c3d48955fd1050001a99364","5f60e3c0a3b16e07647b2ff9","5f60ee52f363d501605eb2c6","true","1413.9900000000198","./Stimuli/ImagesPractice/LM224.jpg","83","","","","test","false","N + M","76","","LM","LM224.jpg","forget","old","19","2","practice_forget","left","","","",""
"html-keyboard-response","56","177782","0.0-3.0-3.0-2.2-0.2","1r8ska1wese2t56","practice_cue","5c3d48955fd1050001a99364","5f60e3c0a3b16e07647b2ff9","5f60ee52f363d501605eb2c6","false","null","<span style=""color: red; font-size: 48px"">Error!</span>","null","","","","feedback","","","","","","","","","","","","","","","",""
"html-keyboard-response","57","179799","0.0-3.0-3.0-3.2","1r8ska1wese2t56","practice_cue","5c3d48955fd1050001a99364","5f60e3c0a3b16e07647b2ff9","5f60ee52f363d501605eb2c6","false","null","<div style=""align-items: center; display: flex; color: darkorange; font-size: 90px""><b>ø</b></div>","null","","","","forget_cue","","","","","","","","","","","","","","","",""
"html-keyboard-response","58","180513","0.0-3.0-3.0-0.3","1r8ska1wese2t56","practice_cue","5c3d48955fd1050001a99364","5f60e3c0a3b16e07647b2ff9","5f60ee52f363d501605eb2c6","false","null","<span style=""color: black; font-size: 48px"">N + M</span>","null","","","","resp_prompt","","","","","","","","","","","","","","","",""
"categorize-image","59","181875","0.0-3.0-3.0-1.3","1r8ska1wese2t56","practice_cue","5c3d48955fd1050001a99364","5f60e3c0a3b16e07647b2ff9","5f60ee52f363d501605eb2c6","true","1356.8549999999814","./Stimuli/ImagesPractice/LM239.jpg","83","","","","test","false","N + M","76","","LM","LM239.jpg","forget","old","20","2","practice_forget","left","","","",""
"html-keyboard-response","60","182384","0.0-3.0-3.0-2.3-0.3","1r8ska1wese2t56","practice_cue","5c3d48955fd1050001a99364","5f60e3c0a3b16e07647b2ff9","5f60ee52f363d501605eb2c6","false","null","<span style=""color: red; font-size: 48px"">Error!</span>","null","","","","feedback","","","","","","","","","","","","","","","",""
"html-keyboard-response","61","184398","0.0-3.0-3.0-3.3","1r8ska1wese2t56","practice_cue","5c3d48955fd1050001a99364","5f60e3c0a3b16e07647b2ff9","5f60ee52f363d501605eb2c6","false","null","<div style=""align-items: center; display: flex; color: darkorange; font-size: 90px""><b>ø</b></div>","null","","","","forget_cue","","","","","","","","","","","","","","","",""
"html-keyboard-response","62","185115","0.0-3.0-3.0-0.4","1r8ska1wese2t56","practice_cue","5c3d48955fd1050001a99364","5f60e3c0a3b16e07647b2ff9","5f60ee52f363d501605eb2c6","false","null","<span style=""color: black; font-size: 48px"">N + M</span>","null","","","","resp_prompt","","","","","","","","","","","","","","","",""
"categorize-image","63","186067","0.0-3.0-3.0-1.4","1r8ska1wese2t56","practice_cue","5c3d48955fd1050001a99364","5f60e3c0a3b16e07647b2ff9","5f60ee52f363d501605eb2c6","true","946.3250000000116","./Stimuli/ImagesPractice/LN17.jpg","76","","","","test","false","N + M","83","","LN","LN17.jpg","forget","old","21","2","practice_forget","right","","","",""
"html-keyboard-response","64","186603","0.0-3.0-3.0-2.4-0.4","1r8ska1wese2t56","practice_cue","5c3d48955fd1050001a99364","5f60e3c0a3b16e07647b2ff9","5f60ee52f363d501605eb2c6","false","null","<span style=""color: red; font-size: 48px"">Error!</span>","null","","","","feedback","","","","","","","","","","","","","","","",""
"html-keyboard-response","65","188638","0.0-3.0-3.0-3.4","1r8ska1wese2t56","practice_cue","5c3d48955fd1050001a99364","5f60e3c0a3b16e07647b2ff9","5f60ee52f363d501605eb2c6","false","null","<div style=""align-items: center; display: flex; color: darkorange; font-size: 90px""><b>ø</b></div>","null","","","","forget_cue","","","","","","","","","","","","","","","",""
"html-keyboard-response","66","189360","0.0-3.0-3.0-0.5","1r8ska1wese2t56","practice_cue","5c3d48955fd1050001a99364","5f60e3c0a3b16e07647b2ff9","5f60ee52f363d501605eb2c6","false","null","<span style=""color: black; font-size: 48px"">M + N</span>","null","","","","resp_prompt","","","","","","","","","","","","","","","",""
"categorize-image","67","191351","0.0-3.0-3.0-1.5","1r8ska1wese2t56","practice_cue","5c3d48955fd1050001a99364","5f60e3c0a3b16e07647b2ff9","5f60ee52f363d501605eb2c6","true","1980.7749999999942","./Stimuli/ImagesPractice/SM62.jpg","76","","","","test","false","M + N","83","","SM","SM62.jpg","remember","old","22","2","practice_forget","right","","","",""
"html-keyboard-response","68","191871","0.0-3.0-3.0-2.5-0.5","1r8ska1wese2t56","practice_cue","5c3d48955fd1050001a99364","5f60e3c0a3b16e07647b2ff9","5f60ee52f363d501605eb2c6","false","null","<span style=""color: red; font-size: 48px"">Error!</span>","null","","","","feedback","","","","","","","","","","","","","","","",""
"html-keyboard-response","69","193886","0.0-3.0-3.0-3.5","1r8ska1wese2t56","practice_cue","5c3d48955fd1050001a99364","5f60e3c0a3b16e07647b2ff9","5f60ee52f363d501605eb2c6","false","null","<div style=""align-items: center; display: flex; color: dodgerblue; font-size: 90px""><b>o</b></div>","null","","","","forget_cue","","","","","","","","","","","","","","","",""
"html-keyboard-response","70","194596","0.0-3.0-3.0-0.6","1r8ska1wese2t56","practice_cue","5c3d48955fd1050001a99364","5f60e3c0a3b16e07647b2ff9","5f60ee52f363d501605eb2c6","false","null","<span style=""color: black; font-size: 48px"">M + N</span>","null","","","","resp_prompt","","","","","","","","","","","","","","","",""
"categorize-image","71","196183","0.0-3.0-3.0-1.6","1r8ska1wese2t56","practice_cue","5c3d48955fd1050001a99364","5f60e3c0a3b16e07647b2ff9","5f60ee52f363d501605eb2c6","true","1573.2049999999872","./Stimuli/ImagesPractice/SN76.jpg","76","","","","test","true","M + N","76","","SN","SN76.jpg","remember","old","23","2","practice_forget","right","","","",""
"html-keyboard-response","72","198190","0.0-3.0-3.0-3.6","1r8ska1wese2t56","practice_cue","5c3d48955fd1050001a99364","5f60e3c0a3b16e07647b2ff9","5f60ee52f363d501605eb2c6","false","null","<div style=""align-items: center; display: flex; color: dodgerblue; font-size: 90px""><b>o</b></div>","null","","","","forget_cue","","","","","","","","","","","","","","","",""
"html-keyboard-response","73","198910","0.0-3.0-3.0-0.7","1r8ska1wese2t56","practice_cue","5c3d48955fd1050001a99364","5f60e3c0a3b16e07647b2ff9","5f60ee52f363d501605eb2c6","false","null","<span style=""color: black; font-size: 48px"">M + N</span>","null","","","","resp_prompt","","","","","","","","","","","","","","","",""
"categorize-image","74","200944","0.0-3.0-3.0-1.7","1r8ska1wese2t56","practice_cue","5c3d48955fd1050001a99364","5f60e3c0a3b16e07647b2ff9","5f60ee52f363d501605eb2c6","true","null","./Stimuli/ImagesPractice/SM37.jpg","null","","","","test","false","M + N","83","","SM","SM37.jpg","forget","old","24","2","practice_forget","too_slow","","","",""
"html-keyboard-response","75","201455","0.0-3.0-3.0-2.7-0.7","1r8ska1wese2t56","practice_cue","5c3d48955fd1050001a99364","5f60e3c0a3b16e07647b2ff9","5f60ee52f363d501605eb2c6","false","null","<span style=""color: red; font-size: 48px"">Too slow!</span>","null","","","","feedback","","","","","","","","","","","","","","","",""
"html-keyboard-response","76","203459","0.0-3.0-3.0-3.7","1r8ska1wese2t56","practice_cue","5c3d48955fd1050001a99364","5f60e3c0a3b16e07647b2ff9","5f60ee52f363d501605eb2c6","false","null","<div style=""align-items: center; display: flex; color: darkorange; font-size: 90px""><b>ø</b></div>","null","","","","forget_cue","","","","","","","","","","","","","","","",""
"html-keyboard-response","77","204171","0.0-3.0-3.0-0.8","1r8ska1wese2t56","practice_cue","5c3d48955fd1050001a99364","5f60e3c0a3b16e07647b2ff9","5f60ee52f363d501605eb2c6","false","null","<span style=""color: black; font-size: 48px"">M + N</span>","null","","","","resp_prompt","","","","","","","","","","","","","","","",""
"categorize-image","78","205152","0.0-3.0-3.0-1.8","1r8ska1wese2t56","practice_cue","5c3d48955fd1050001a99364","5f60e3c0a3b16e07647b2ff9","5f60ee52f363d501605eb2c6","true","948.9549999999581","./Stimuli/ImagesPractice/SM97.jpg","83","","","","test","true","M + N","83","","SM","SM97.jpg","remember","old","25","2","practice_forget","left","","","",""
"html-keyboard-response","79","207164","0.0-3.0-3.0-3.8","1r8ska1wese2t56","practice_cue","5c3d48955fd1050001a99364","5f60e3c0a3b16e07647b2ff9","5f60ee52f363d501605eb2c6","false","null","<div style=""align-items: center; display: flex; color: dodgerblue; font-size: 90px""><b>o</b></div>","null","","","","forget_cue","","","","","","","","","","","","","","","",""
"html-keyboard-response","80","207875","0.0-3.0-3.0-0.9","1r8ska1wese2t56","practice_cue","5c3d48955fd1050001a99364","5f60e3c0a3b16e07647b2ff9","5f60ee52f363d501605eb2c6","false","null","<span style=""color: black; font-size: 48px"">M + N</span>","null","","","","resp_prompt","","","","","","","","","","","","","","","",""
"categorize-image","81","208344","0.0-3.0-3.0-1.9","1r8ska1wese2t56","practice_cue","5c3d48955fd1050001a99364","5f60e3c0a3b16e07647b2ff9","5f60ee52f363d501605eb2c6","true","463.4650000000547","./Stimuli/ImagesPractice/SN205.jpg","83","","","","test","false","M + N","76","","SN","SN205.jpg","forget","old","26","2","practice_forget","left","","","",""
"html-keyboard-response","82","208854","0.0-3.0-3.0-2.9-0.9","1r8ska1wese2t56","practice_cue","5c3d48955fd1050001a99364","5f60e3c0a3b16e07647b2ff9","5f60ee52f363d501605eb2c6","false","null","<span style=""color: red; font-size: 48px"">Error!</span>","null","","","","feedback","","","","","","","","","","","","","","","",""
"html-keyboard-response","83","210867","0.0-3.0-3.0-3.9","1r8ska1wese2t56","practice_cue","5c3d48955fd1050001a99364","5f60e3c0a3b16e07647b2ff9","5f60ee52f363d501605eb2c6","false","null","<div style=""align-items: center; display: flex; color: darkorange; font-size: 90px""><b>ø</b></div>","null","","","","forget_cue","","","","","","","","","","","","","","","",""
"html-keyboard-response","84","211568","0.0-3.0-3.0-0.10","1r8ska1wese2t56","practice_cue","5c3d48955fd1050001a99364","5f60e3c0a3b16e07647b2ff9","5f60ee52f363d501605eb2c6","false","null","<span style=""color: black; font-size: 48px"">N + M</span>","null","","","","resp_prompt","","","","","","","","","","","","","","","",""
"categorize-image","85","212638","0.0-3.0-3.0-1.10","1r8ska1wese2t56","practice_cue","5c3d48955fd1050001a99364","5f60e3c0a3b16e07647b2ff9","5f60ee52f363d501605eb2c6","true","1065.2999999999884","./Stimuli/ImagesPractice/LN72.jpg","83","","","","test","true","N + M","83","","LN","LN72.jpg","forget","old","27","2","practice_forget","left","","","",""
"html-keyboard-response","86","214655","0.0-3.0-3.0-3.10","1r8ska1wese2t56","practice_cue","5c3d48955fd1050001a99364","5f60e3c0a3b16e07647b2ff9","5f60ee52f363d501605eb2c6","false","null","<div style=""align-items: center; display: flex; color: darkorange; font-size: 90px""><b>ø</b></div>","null","","","","forget_cue","","","","","","","","","","","","","","","",""
"html-keyboard-response","87","215369","0.0-3.0-3.0-0.11","1r8ska1wese2t56","practice_cue","5c3d48955fd1050001a99364","5f60e3c0a3b16e07647b2ff9","5f60ee52f363d501605eb2c6","false","null","<span style=""color: black; font-size: 48px"">M + N</span>","null","","","","resp_prompt","","","","","","","","","","","","","","","",""
"categorize-image","88","216769","0.0-3.0-3.0-1.11","1r8ska1wese2t56","practice_cue","5c3d48955fd1050001a99364","5f60e3c0a3b16e07647b2ff9","5f60ee52f363d501605eb2c6","true","1393.2749999999942","./Stimuli/ImagesPractice/LN4.jpg","83","","","","test","false","M + N","76","","LN","LN4.jpg","forget","old","28","2","practice_forget","left","","","",""
"html-keyboard-response","89","217283","0.0-3.0-3.0-2.11-0.11","1r8ska1wese2t56","practice_cue","5c3d48955fd1050001a99364","5f60e3c0a3b16e07647b2ff9","5f60ee52f363d501605eb2c6","false","null","<span style=""color: red; font-size: 48px"">Error!</span>","null","","","","feedback","","","","","","","","","","","","","","","",""
"html-keyboard-response","90","219311","0.0-3.0-3.0-3.11","1r8ska1wese2t56","practice_cue","5c3d48955fd1050001a99364","5f60e3c0a3b16e07647b2ff9","5f60ee52f363d501605eb2c6","false","null","<div style=""align-items: center; display: flex; color: darkorange; font-size: 90px""><b>ø</b></div>","null","","","","forget_cue","","","","","","","","","","","","","","","",""
"html-keyboard-response","91","220021","0.0-3.0-3.0-0.12","1r8ska1wese2t56","practice_cue","5c3d48955fd1050001a99364","5f60e3c0a3b16e07647b2ff9","5f60ee52f363d501605eb2c6","false","null","<span style=""color: black; font-size: 48px"">M + N</span>","null","","","","resp_prompt","","","","","","","","","","","","","","","",""
"categorize-image","92","221193","0.0-3.0-3.0-1.12","1r8ska1wese2t56","practice_cue","5c3d48955fd1050001a99364","5f60e3c0a3b16e07647b2ff9","5f60ee52f363d501605eb2c6","true","1167.7600000000384","./Stimuli/ImagesPractice/LM147.jpg","83","","","","test","true","M + N","83","","LM","LM147.jpg","forget","old","29","2","practice_forget","left","","","",""
"html-keyboard-response","93","223229","0.0-3.0-3.0-3.12","1r8ska1wese2t56","practice_cue","5c3d48955fd1050001a99364","5f60e3c0a3b16e07647b2ff9","5f60ee52f363d501605eb2c6","false","null","<div style=""align-items: center; display: flex; color: darkorange; font-size: 90px""><b>ø</b></div>","null","","","","forget_cue","","","","","","","","","","","","","","","",""
"html-keyboard-response","94","224026","0.0-3.0-3.0-0.13","1r8ska1wese2t56","practice_cue","5c3d48955fd1050001a99364","5f60e3c0a3b16e07647b2ff9","5f60ee52f363d501605eb2c6","false","null","<span style=""color: black; font-size: 48px"">M + N</span>","null","","","","resp_prompt","","","","","","","","","","","","","","","",""
"categorize-image","95","225581","0.0-3.0-3.0-1.13","1r8ska1wese2t56","practice_cue","5c3d48955fd1050001a99364","5f60e3c0a3b16e07647b2ff9","5f60ee52f363d501605eb2c6","true","1550.359999999957","./Stimuli/ImagesPractice/LM143.jpg","76","","","","test","false","M + N","83","","LM","LM143.jpg","remember","old","30","2","practice_forget","right","","","",""
"html-keyboard-response","96","226131","0.0-3.0-3.0-2.13-0.13","1r8ska1wese2t56","practice_cue","5c3d48955fd1050001a99364","5f60e3c0a3b16e07647b2ff9","5f60ee52f363d501605eb2c6","false","null","<span style=""color: red; font-size: 48px"">Error!</span>","null","","","","feedback","","","","","","","","","","","","","","","",""
"html-keyboard-response","97","228217","0.0-3.0-3.0-3.13","1r8ska1wese2t56","practice_cue","5c3d48955fd1050001a99364","5f60e3c0a3b16e07647b2ff9","5f60ee52f363d501605eb2c6","false","null","<div style=""align-items: center; display: flex; color: dodgerblue; font-size: 90px""><b>o</b></div>","null","","","","forget_cue","","","","","","","","","","","","","","","",""
"html-keyboard-response","98","228981","0.0-3.0-3.0-0.14","1r8ska1wese2t56","practice_cue","5c3d48955fd1050001a99364","5f60e3c0a3b16e07647b2ff9","5f60ee52f363d501605eb2c6","false","null","<span style=""color: black; font-size: 48px"">N + M</span>","null","","","","resp_prompt","","","","","","","","","","","","","","","",""
"categorize-image","99","229910","0.0-3.0-3.0-1.14","1r8ska1wese2t56","practice_cue","5c3d48955fd1050001a99364","5f60e3c0a3b16e07647b2ff9","5f60ee52f363d501605eb2c6","true","922.5950000000012","./Stimuli/ImagesPractice/LN109.jpg","83","","","","test","true","N + M","83","","LN","LN109.jpg","remember","old","31","2","practice_forget","left","","","",""
"html-keyboard-response","100","231939","0.0-3.0-3.0-3.14","1r8ska1wese2t56","practice_cue","5c3d48955fd1050001a99364","5f60e3c0a3b16e07647b2ff9","5f60ee52f363d501605eb2c6","false","null","<div style=""align-items: center; display: flex; color: dodgerblue; font-size: 90px""><b>o</b></div>","null","","","","forget_cue","","","","","","","","","","","","","","","",""
"html-keyboard-response","101","232659","0.0-3.0-3.0-0.15","1r8ska1wese2t56","practice_cue","5c3d48955fd1050001a99364","5f60e3c0a3b16e07647b2ff9","5f60ee52f363d501605eb2c6","false","null","<span style=""color: black; font-size: 48px"">N + M</span>","null","","","","resp_prompt","","","","","","","","","","","","","","","",""
"categorize-image","102","233742","0.0-3.0-3.0-1.15","1r8ska1wese2t56","practice_cue","5c3d48955fd1050001a99364","5f60e3c0a3b16e07647b2ff9","5f60ee52f363d501605eb2c6","true","1075.4200000000128","./Stimuli/ImagesPractice/SN222.jpg","83","","","","test","true","N + M","83","","SN","SN222.jpg","remember","old","32","2","practice_forget","left","","","",""
"html-keyboard-response","103","235753","0.0-3.0-3.0-3.15","1r8ska1wese2t56","practice_cue","5c3d48955fd1050001a99364","5f60e3c0a3b16e07647b2ff9","5f60ee52f363d501605eb2c6","false","null","<div style=""align-items: center; display: flex; color: dodgerblue; font-size: 90px""><b>o</b></div>","null","","","","forget_cue","","","","","","","","","","","","","","","",""
"html-keyboard-response","104","242224","0.0-3.0-4.0","1r8ska1wese2t56","break","5c3d48955fd1050001a99364","5f60e3c0a3b16e07647b2ff9","5f60ee52f363d501605eb2c6","false","6469.194999999891","<p style='font-size: 32px;'>Break</><br><br><br><br><br><p style='font-size: 24px;'>In the last block, you committed 8 errors and did not respond in time on 1 trials.
</p><p style='font-size: 24px;'>Try to respond as fast and accurately as possible in the next block as well! </p><p style='font-size: 24px;'>Press SPACE to continue.</p>","32","","","","","","","","","","","","","","","","","","","",""
"html-keyboard-response","105","259104","0.0-3.0-5.0","1r8ska1wese2t56","instructions","5c3d48955fd1050001a99364","5f60e3c0a3b16e07647b2ff9","5f60ee52f363d501605eb2c6","false","16877.29999999999","<div align=left> Now, to practice, we kindly ask you to remember as many of the to-be-remembered pictures<br>of the previous learning phase as possible.<br><br>The pictures you were instructed to remember were the pictures followed by a <span style='color: dodgerblue; font-size: 28px'>O</span>.<br><br>In this memory test phase, you will also see some new pictures.<br>It is your task to remember whether you were presented with this specific picture in this study so far or not.<br>If you recognize an object (you have already seen it in this study), it is an OLD object. <br>If you do not recognize an object (you have NOT seen it in this study), it is a NEW object. <br><strong> Attention</strong>: As already mentioned, <span style='color: darkorange; font-size:28px'>Ø</span>-pictures will <strong>never</strong> appear in this memory test (neither as new objects). <br><br>Press SPACE to continue. </div>","32","","","","","","","","","","","","","","","","","","","",""
"html-keyboard-response","106","288668","0.0-3.0-6.0","1r8ska1wese2t56","instructions","5c3d48955fd1050001a99364","5f60e3c0a3b16e07647b2ff9","5f60ee52f363d501605eb2c6","false","29562.199999999953","<div align=left> M and N no longer will appear on the left/right of the fixation cross. <br>Instead there will be a note at the bottom of the left or right side  <br>indicating which key you should press for an old or new object:  <br> <br>Press the <strong>right</strong> key to classify an object as <strong>old</strong> and press the <strong>left</strong>, to classify an object as <strong>new</strong>.<br>Please classify the objects as new/old by again placing your index finger on the 'S' and 'L' keys <br>and press them accordingly.<br><br><strong>Old:</strong> This object has been presented before. <br><strong>New:</strong> This object has <strong>not</strong> been presented.<br><br>Now please put your right and left index fingers on the 'S' and 'L' keys of your keyboard. <br>Please respond as fast and as accurately as possible!<br><br>Press SPACE to continue. </div>","32","","","","","","","","","","","","","","","","","","","",""
"categorize-image","107","291281","0.0-3.0-7.0-0.0","1r8ska1wese2t56","practice_recog","5c3d48955fd1050001a99364","5f60e3c0a3b16e07647b2ff9","5f60ee52f363d501605eb2c6","true","2097.9899999999907","./Stimuli/ImagesPractice/SM35.jpg","76","","","","test","true","","76","","SM","SM35.jpg","","new","33","3","practice_recog","right","","","",""
"categorize-image","108","293914","0.0-3.0-7.0-0.1","1r8ska1wese2t56","practice_recog","5c3d48955fd1050001a99364","5f60e3c0a3b16e07647b2ff9","5f60ee52f363d501605eb2c6","true","2109.8300000000163","./Stimuli/ImagesPractice/LN15.jpg","76","","","","test","true","","76","","LN","LN15.jpg","","new","34","3","practice_recog","right","","","",""
"categorize-image","109","295393","0.0-3.0-7.0-0.2","1r8ska1wese2t56","practice_recog","5c3d48955fd1050001a99364","5f60e3c0a3b16e07647b2ff9","5f60ee52f363d501605eb2c6","true","956.234999999986","./Stimuli/ImagesPractice/LM143.jpg","83","","","","test","true","","83","","LM","LM143.jpg","","old","35","3","practice_recog","left","","","",""
"categorize-image","110","297246","0.0-3.0-7.0-0.3","1r8ska1wese2t56","practice_recog","5c3d48955fd1050001a99364","5f60e3c0a3b16e07647b2ff9","5f60ee52f363d501605eb2c6","true","1334.3700000000536","./Stimuli/ImagesPractice/SM61.jpg","76","","","","test","true","","76","","SM","SM61.jpg","","new","36","3","practice_recog","right","","","",""
"categorize-image","111","298468","0.0-3.0-7.0-0.4","1r8ska1wese2t56","practice_recog","5c3d48955fd1050001a99364","5f60e3c0a3b16e07647b2ff9","5f60ee52f363d501605eb2c6","true","712.7550000000629","./Stimuli/ImagesPractice/LM230.jpg","83","","","","test","true","","83","","LM","LM230.jpg","","old","37","3","practice_recog","left","","","",""
"categorize-image","112","299768","0.0-3.0-7.0-0.5","1r8ska1wese2t56","practice_recog","5c3d48955fd1050001a99364","5f60e3c0a3b16e07647b2ff9","5f60ee52f363d501605eb2c6","true","785.75","./Stimuli/ImagesPractice/SN222.jpg","83","","","","test","true","","83","","SN","SN222.jpg","","old","38","3","practice_recog","left","","","",""
"categorize-image","113","301315","0.0-3.0-7.0-0.6","1r8ska1wese2t56","practice_recog","5c3d48955fd1050001a99364","5f60e3c0a3b16e07647b2ff9","5f60ee52f363d501605eb2c6","true","1028.8950000000186","./Stimuli/ImagesPractice/SN221.jpg","76","","","","test","true","","76","","SN","SN221.jpg","","new","39","3","practice_recog","right","","","",""
"categorize-image","114","302473","0.0-3.0-7.0-0.7","1r8ska1wese2t56","practice_recog","5c3d48955fd1050001a99364","5f60e3c0a3b16e07647b2ff9","5f60ee52f363d501605eb2c6","true","635.7999999999884","./Stimuli/ImagesPractice/SM97.jpg","83","","","","test","true","","83","","SM","SM97.jpg","","old","40","3","practice_recog","left","","","",""
"categorize-image","115","303667","0.0-3.0-7.0-0.8","1r8ska1wese2t56","practice_recog","5c3d48955fd1050001a99364","5f60e3c0a3b16e07647b2ff9","5f60ee52f363d501605eb2c6","true","675.9249999999884","./Stimuli/ImagesPractice/SN75.jpg","83","","","","test","true","","83","","SN","SN75.jpg","","old","41","3","practice_recog","left","","","",""
"categorize-image","116","304960","0.0-3.0-7.0-0.9","1r8ska1wese2t56","practice_recog","5c3d48955fd1050001a99364","5f60e3c0a3b16e07647b2ff9","5f60ee52f363d501605eb2c6","true","778.5450000000419","./Stimuli/ImagesPractice/SM62.jpg","83","","","","test","true","","83","","SM","SM62.jpg","","old","42","3","practice_recog","left","","","",""
"categorize-image","117","306235","0.0-3.0-7.0-0.10","1r8ska1wese2t56","practice_recog","5c3d48955fd1050001a99364","5f60e3c0a3b16e07647b2ff9","5f60ee52f363d501605eb2c6","true","746.0300000000279","./Stimuli/ImagesPractice/SM98.jpg","76","","","","test","true","","76","","SM","SM98.jpg","","new","43","3","practice_recog","right","","","",""
"categorize-image","118","307476","0.0-3.0-7.0-0.11","1r8ska1wese2t56","practice_recog","5c3d48955fd1050001a99364","5f60e3c0a3b16e07647b2ff9","5f60ee52f363d501605eb2c6","true","730.0999999999767","./Stimuli/ImagesPractice/LN109.jpg","83","","","","test","true","","83","","LN","LN109.jpg","","old","44","3","practice_recog","left","","","",""
"categorize-image","119","308643","0.0-3.0-7.0-0.12","1r8ska1wese2t56","practice_recog","5c3d48955fd1050001a99364","5f60e3c0a3b16e07647b2ff9","5f60ee52f363d501605eb2c6","true","649.664999999979","./Stimuli/ImagesPractice/SN76.jpg","76","","","","test","false","","83","","SN","SN76.jpg","","old","45","3","practice_recog","right","","","",""
"categorize-image","120","309984","0.0-3.0-7.0-0.13","1r8ska1wese2t56","practice_recog","5c3d48955fd1050001a99364","5f60e3c0a3b16e07647b2ff9","5f60ee52f363d501605eb2c6","true","833.125","./Stimuli/ImagesPractice/LM55.jpg","76","","","","test","true","","76","","LM","LM55.jpg","","new","46","3","practice_recog","right","","","",""
"categorize-image","121","311230","0.0-3.0-7.0-0.14","1r8ska1wese2t56","practice_recog","5c3d48955fd1050001a99364","5f60e3c0a3b16e07647b2ff9","5f60ee52f363d501605eb2c6","true","740","./Stimuli/ImagesPractice/SN220.jpg","76","","","","test","true","","76","","SN","SN220.jpg","","new","47","3","practice_recog","right","","","",""
"categorize-image","122","312539","0.0-3.0-7.0-0.15","1r8ska1wese2t56","practice_recog","5c3d48955fd1050001a99364","5f60e3c0a3b16e07647b2ff9","5f60ee52f363d501605eb2c6","true","806.6900000000023","./Stimuli/ImagesPractice/LN2.jpg","76","","","","test","true","","76","","LN","LN2.jpg","","new","48","3","practice_recog","right","","","",""
"html-keyboard-response","123","321302","0.0-3.0-8.0","1r8ska1wese2t56","instructions","5c3d48955fd1050001a99364","5f60e3c0a3b16e07647b2ff9","5f60ee52f363d501605eb2c6","false","8760.859999999986","<div align=left> Great!<br><br>Are you ready to continue?<br>If you want to reread the instructions and redo the practice trials, please <br>press „Z“.<br><br>You can proceed when you are ready.<br><br>After the presentation of each object, you will receive an instruction whether to <br>remember or to forget the object.<br>We will test your memory of the following pictures only at the very end of <br>the experiment after all learning blocks are completed. <br><br>Press SPACE to CONTINUE when you are ready. </div>","32","","","","","","","","","","","","","","","","","","","",""
"html-keyboard-response","124","327133","0.0-4.0-0.0","1r8ska1wese2t56","instructions","5c3d48955fd1050001a99364","5f60e3c0a3b16e07647b2ff9","5f60ee52f363d501605eb2c6","false","5829.070000000007","<div align=left> The actual experiment is about to start.<br>The practice trials are over!<br><br>Please always respond both fast and accurately!<br><br>Remember: <br> <br><li> Please place your index fingers on the <strong>'S'</strong> and <strong>'L'</strong> keys <br>to respond as fast and accurately as possible.</li><li> Every picture can be classified as either mechanical or non-mechanical.</li><li> If you do not respond in time or commit an error, you will receive a corresponding feedback.<br> Please try to respond as <strong> fast </strong> and as <strong> accurately as possible </strong>.</li><li> Remember the <span style='color: dodgerblue; font-size: 28px'>O</span> pictures. <br></li><li> Please minimize distractions and stay focused. </li><br><br>Press SPACE to START.</div>","32","","","","","","","","","","","","","","","","","","","",""
"html-keyboard-response","125","327842","0.0-4.0-1.0-0.0","1r8ska1wese2t56","prime","5c3d48955fd1050001a99364","5f60e3c0a3b16e07647b2ff9","5f60ee52f363d501605eb2c6","false","null","<span style=""color: black; font-size: 48px"">N + M</span>","null","","","","resp_prompt","","","","","","","","","","","","","","","",""
"categorize-image","126","329343","0.0-4.0-1.0-1.0","1r8ska1wese2t56","prime","5c3d48955fd1050001a99364","5f60e3c0a3b16e07647b2ff9","5f60ee52f363d501605eb2c6","true","1495.5050000000047","./Stimuli/SelectedImages/SM/SM128.bmp","83","","","","test","false","N + M","76","repetition","SM","SM128.bmp","forget","","49","3","prime1","left","","","",""
"html-keyboard-response","127","329850","0.0-4.0-1.0-2.0-0.0","1r8ska1wese2t56","prime","5c3d48955fd1050001a99364","5f60e3c0a3b16e07647b2ff9","5f60ee52f363d501605eb2c6","false","null","<span style=""color: red; font-size: 48px"">Error!</span>","null","","","","feedback","","","","","","","","","","","","","","","",""
"html-keyboard-response","128","331855","0.0-4.0-1.0-3.0","1r8ska1wese2t56","prime","5c3d48955fd1050001a99364","5f60e3c0a3b16e07647b2ff9","5f60ee52f363d501605eb2c6","false","null","<div style=""align-items: center; display: flex; color: darkorange; font-size: 90px""><b>ø</b></div>","null","","","","forget_cue","","","","","","","","","","","","","","","",""
"html-keyboard-response","129","332562","0.0-4.0-1.0-0.1","1r8ska1wese2t56","prime","5c3d48955fd1050001a99364","5f60e3c0a3b16e07647b2ff9","5f60ee52f363d501605eb2c6","false","null","<span style=""color: black; font-size: 48px"">M + N</span>","null","","","","resp_prompt","","","","","","","","","","","","","","","",""
"categorize-image","130","334526","0.0-4.0-1.0-1.1","1r8ska1wese2t56","prime","5c3d48955fd1050001a99364","5f60e3c0a3b16e07647b2ff9","5f60ee52f363d501605eb2c6","true","1959.5650000000023","./Stimuli/SelectedImages/SM/SM195.bmp","83","","","","test","true","M + N","83","switch","SM","SM195.bmp","forget","","50","3","prime1","left","","","",""
"html-keyboard-response","131","336547","0.0-4.0-1.0-3.1","1r8ska1wese2t56","prime","5c3d48955fd1050001a99364","5f60e3c0a3b16e07647b2ff9","5f60ee52f363d501605eb2c6","false","null","<div style=""align-items: center; display: flex; color: darkorange; font-size: 90px""><b>ø</b></div>","null","","","","forget_cue","","","","","","","","","","","","","","","",""
"html-keyboard-response","132","337262","0.0-4.0-1.0-0.2","1r8ska1wese2t56","prime","5c3d48955fd1050001a99364","5f60e3c0a3b16e07647b2ff9","5f60ee52f363d501605eb2c6","false","null","<span style=""color: black; font-size: 48px"">M + N</span>","null","","","","resp_prompt","","","","","","","","","","","","","","","",""
"categorize-image","133","338855","0.0-4.0-1.0-1.2","1r8ska1wese2t56","prime","5c3d48955fd1050001a99364","5f60e3c0a3b16e07647b2ff9","5f60ee52f363d501605eb2c6","true","1586.9700000000885","./Stimuli/SelectedImages/LN/LN131.bmp","76","","","","test","true","M + N","76","repetition","LN","LN131.bmp","forget","","51","3","prime1","right","","","",""
"html-keyboard-response","134","340873","0.0-4.0-1.0-3.2","1r8ska1wese2t56","prime","5c3d48955fd1050001a99364","5f60e3c0a3b16e07647b2ff9","5f60ee52f363d501605eb2c6","false","null","<div style=""align-items: center; display: flex; color: darkorange; font-size: 90px""><b>ø</b></div>","null","","","","forget_cue","","","","","","","","","","","","","","","",""
"html-keyboard-response","135","341577","0.0-4.0-1.0-0.3","1r8ska1wese2t56","prime","5c3d48955fd1050001a99364","5f60e3c0a3b16e07647b2ff9","5f60ee52f363d501605eb2c6","false","null","<span style=""color: black; font-size: 48px"">M + N</span>","null","","","","resp_prompt","","","","","","","","","","","","","","","",""
"categorize-image","136","342934","0.0-4.0-1.0-1.3","1r8ska1wese2t56","prime","5c3d48955fd1050001a99364","5f60e3c0a3b16e07647b2ff9","5f60ee52f363d501605eb2c6","true","1349.2099999999627","./Stimuli/SelectedImages/LN/LN12.bmp","83","","","","test","false","M + N","76","repetition","LN","LN12.bmp","remember","","52","3","prime1","left","","","",""
"html-keyboard-response","137","343449","0.0-4.0-1.0-2.3-0.3","1r8ska1wese2t56","prime","5c3d48955fd1050001a99364","5f60e3c0a3b16e07647b2ff9","5f60ee52f363d501605eb2c6","false","null","<span style=""color: red; font-size: 48px"">Error!</span>","null","","","","feedback","","","","","","","","","","","","","","","",""
"html-keyboard-response","138","345453","0.0-4.0-1.0-3.3","1r8ska1wese2t56","prime","5c3d48955fd1050001a99364","5f60e3c0a3b16e07647b2ff9","5f60ee52f363d501605eb2c6","false","null","<div style=""align-items: center; display: flex; color: dodgerblue; font-size: 90px""><b>o</b></div>","null","","","","forget_cue","","","","","","","","","","","","","","","",""
"html-keyboard-response","139","346170","0.0-4.0-1.0-0.4","1r8ska1wese2t56","prime","5c3d48955fd1050001a99364","5f60e3c0a3b16e07647b2ff9","5f60ee52f363d501605eb2c6","false","null","<span style=""color: black; font-size: 48px"">N + M</span>","null","","","","resp_prompt","","","","","","","","","","","","","","","",""
"categorize-image","140","347957","0.0-4.0-1.0-1.4","1r8ska1wese2t56","prime","5c3d48955fd1050001a99364","5f60e3c0a3b16e07647b2ff9","5f60ee52f363d501605eb2c6","true","1782.5700000001234","./Stimuli/SelectedImages/SN/SN182.bmp","83","","","","test","true","N + M","83","switch","SN","SN182.bmp","forget","","53","3","prime1","left","","","",""
"html-keyboard-response","141","349981","0.0-4.0-1.0-3.4","1r8ska1wese2t56","prime","5c3d48955fd1050001a99364","5f60e3c0a3b16e07647b2ff9","5f60ee52f363d501605eb2c6","false","null","<div style=""align-items: center; display: flex; color: darkorange; font-size: 90px""><b>ø</b></div>","null","","","","forget_cue","","","","","","","","","","","","","","","",""
"html-keyboard-response","142","350684","0.0-4.0-1.0-0.5","1r8ska1wese2t56","prime","5c3d48955fd1050001a99364","5f60e3c0a3b16e07647b2ff9","5f60ee52f363d501605eb2c6","false","null","<span style=""color: black; font-size: 48px"">N + M</span>","null","","","","resp_prompt","","","","","","","","","","","","","","","",""
"categorize-image","143","351983","0.0-4.0-1.0-1.5","1r8ska1wese2t56","prime","5c3d48955fd1050001a99364","5f60e3c0a3b16e07647b2ff9","5f60ee52f363d501605eb2c6","true","1291.1350000000675","./Stimuli/SelectedImages/SM/SM205.bmp","76","","","","test","true","N + M","76","switch","SM","SM205.bmp","forget","","54","3","prime1","right","","","",""
"html-keyboard-response","144","354001","0.0-4.0-1.0-3.5","1r8ska1wese2t56","prime","5c3d48955fd1050001a99364","5f60e3c0a3b16e07647b2ff9","5f60ee52f363d501605eb2c6","false","null","<div style=""align-items: center; display: flex; color: darkorange; font-size: 90px""><b>ø</b></div>","null","","","","forget_cue","","","","","","","","","","","","","","","",""
"html-keyboard-response","145","354715","0.0-4.0-1.0-0.6","1r8ska1wese2t56","prime","5c3d48955fd1050001a99364","5f60e3c0a3b16e07647b2ff9","5f60ee52f363d501605eb2c6","false","null","<span style=""color: black; font-size: 48px"">N + M</span>","null","","","","resp_prompt","","","","","","","","","","","","","","","",""
"categorize-image","146","356524","0.0-4.0-1.0-1.6","1r8ska1wese2t56","prime","5c3d48955fd1050001a99364","5f60e3c0a3b16e07647b2ff9","5f60ee52f363d501605eb2c6","true","1803.5950000000303","./Stimuli/SelectedImages/LN/LN59.bmp","83","","","","test","true","N + M","83","repetition","LN","LN59.bmp","remember","","55","3","prime1","left","","","",""
"html-keyboard-response","147","358555","0.0-4.0-1.0-3.6","1r8ska1wese2t56","prime","5c3d48955fd1050001a99364","5f60e3c0a3b16e07647b2ff9","5f60ee52f363d501605eb2c6","false","null","<div style=""align-items: center; display: flex; color: dodgerblue; font-size: 90px""><b>o</b></div>","null","","","","forget_cue","","","","","","","","","","","","","","","",""
"html-keyboard-response","148","359265","0.0-4.0-1.0-0.7","1r8ska1wese2t56","prime","5c3d48955fd1050001a99364","5f60e3c0a3b16e07647b2ff9","5f60ee52f363d501605eb2c6","false","null","<span style=""color: black; font-size: 48px"">N + M</span>","null","","","","resp_prompt","","","","","","","","","","","","","","","",""
"categorize-image","149","360744","0.0-4.0-1.0-1.7","1r8ska1wese2t56","prime","5c3d48955fd1050001a99364","5f60e3c0a3b16e07647b2ff9","5f60ee52f363d501605eb2c6","true","1470.9750000000931","./Stimuli/SelectedImages/LN/LN9.bmp","83","","","","test","true","N + M","83","repetition","LN","LN9.bmp","remember","","56","3","prime1","left","","","",""
"html-keyboard-response","150","362772","0.0-4.0-1.0-3.7","1r8ska1wese2t56","prime","5c3d48955fd1050001a99364","5f60e3c0a3b16e07647b2ff9","5f60ee52f363d501605eb2c6","false","null","<div style=""align-items: center; display: flex; color: dodgerblue; font-size: 90px""><b>o</b></div>","null","","","","forget_cue","","","","","","","","","","","","","","","",""
"html-keyboard-response","151","363485","0.0-4.0-1.0-0.8","1r8ska1wese2t56","prime","5c3d48955fd1050001a99364","5f60e3c0a3b16e07647b2ff9","5f60ee52f363d501605eb2c6","false","null","<span style=""color: black; font-size: 48px"">M + N</span>","null","","","","resp_prompt","","","","","","","","","","","","","","","",""
"categorize-image","152","365036","0.0-4.0-1.0-1.8","1r8ska1wese2t56","prime","5c3d48955fd1050001a99364","5f60e3c0a3b16e07647b2ff9","5f60ee52f363d501605eb2c6","true","1545.015000000014","./Stimuli/SelectedImages/LN/LN128.bmp","83","","","","test","false","M + N","76","switch","LN","LN128.bmp","forget","","57","3","prime1","left","","","",""
"html-keyboard-response","153","365553","0.0-4.0-1.0-2.8-0.8","1r8ska1wese2t56","prime","5c3d48955fd1050001a99364","5f60e3c0a3b16e07647b2ff9","5f60ee52f363d501605eb2c6","false","null","<span style=""color: red; font-size: 48px"">Error!</span>","null","","","","feedback","","","","","","","","","","","","","","","",""
"html-keyboard-response","154","367570","0.0-4.0-1.0-3.8","1r8ska1wese2t56","prime","5c3d48955fd1050001a99364","5f60e3c0a3b16e07647b2ff9","5f60ee52f363d501605eb2c6","false","null","<div style=""align-items: center; display: flex; color: darkorange; font-size: 90px""><b>ø</b></div>","null","","","","forget_cue","","","","","","","","","","","","","","","",""
"html-keyboard-response","155","368288","0.0-4.0-1.0-0.9","1r8ska1wese2t56","prime","5c3d48955fd1050001a99364","5f60e3c0a3b16e07647b2ff9","5f60ee52f363d501605eb2c6","false","null","<span style=""color: black; font-size: 48px"">N + M</span>","null","","","","resp_prompt","","","","","","","","","","","","","","","",""
"categorize-image","156","370307","0.0-4.0-1.0-1.9","1r8ska1wese2t56","prime","5c3d48955fd1050001a99364","5f60e3c0a3b16e07647b2ff9","5f60ee52f363d501605eb2c6","true","null","./Stimuli/SelectedImages/LM/LM59.bmp","null","","","","test","false","N + M","76","repetition","LM","LM59.bmp","forget","","58","3","prime1","too_slow","","","",""
"html-keyboard-response","157","370837","0.0-4.0-1.0-2.9-0.9","1r8ska1wese2t56","prime","5c3d48955fd1050001a99364","5f60e3c0a3b16e07647b2ff9","5f60ee52f363d501605eb2c6","false","null","<span style=""color: red; font-size: 48px"">Too slow!</span>","null","","","","feedback","","","","","","","","","","","","","","","",""
"html-keyboard-response","158","372853","0.0-4.0-1.0-3.9","1r8ska1wese2t56","prime","5c3d48955fd1050001a99364","5f60e3c0a3b16e07647b2ff9","5f60ee52f363d501605eb2c6","false","null","<div style=""align-items: center; display: flex; color: darkorange; font-size: 90px""><b>ø</b></div>","null","","","","forget_cue","","","","","","","","","","","","","","","",""
"html-keyboard-response","159","373566","0.0-4.0-1.0-0.10","1r8ska1wese2t56","prime","5c3d48955fd1050001a99364","5f60e3c0a3b16e07647b2ff9","5f60ee52f363d501605eb2c6","false","null","<span style=""color: black; font-size: 48px"">N + M</span>","null","","","","resp_prompt","","","","","","","","","","","","","","","",""
"categorize-image","160","375620","0.0-4.0-1.0-1.10","1r8ska1wese2t56","prime","5c3d48955fd1050001a99364","5f60e3c0a3b16e07647b2ff9","5f60ee52f363d501605eb2c6","true","2040.8550000000396","./Stimuli/SelectedImages/LM/LM103.bmp","76","","","","test","true","N + M","76","switch","LM","LM103.bmp","remember","","59","3","prime1","right","","","",""
"html-keyboard-response","161","377634","0.0-4.0-1.0-3.10","1r8ska1wese2t56","prime","5c3d48955fd1050001a99364","5f60e3c0a3b16e07647b2ff9","5f60ee52f363d501605eb2c6","false","null","<div style=""align-items: center; display: flex; color: dodgerblue; font-size: 90px""><b>o</b></div>","null","","","","forget_cue","","","","","","","","","","","","","","","",""
"html-keyboard-response","162","378345","0.0-4.0-1.0-0.11","1r8ska1wese2t56","prime","5c3d48955fd1050001a99364","5f60e3c0a3b16e07647b2ff9","5f60ee52f363d501605eb2c6","false","null","<span style=""color: black; font-size: 48px"">M + N</span>","null","","","","resp_prompt","","","","","","","","","","","","","","","",""
"categorize-image","163","379401","0.0-4.0-1.0-1.11","1r8ska1wese2t56","prime","5c3d48955fd1050001a99364","5f60e3c0a3b16e07647b2ff9","5f60ee52f363d501605eb2c6","true","1050.4699999999139","./Stimuli/SelectedImages/SN/SN155.bmp","83","","","","test","false","M + N","76","switch","SN","SN155.bmp","remember","","60","3","prime1","left","","","",""
"html-keyboard-response","164","379921","0.0-4.0-1.0-2.11-0.11","1r8ska1wese2t56","prime","5c3d48955fd1050001a99364","5f60e3c0a3b16e07647b2ff9","5f60ee52f363d501605eb2c6","false","null","<span style=""color: red; font-size: 48px"">Error!</span>","null","","","","feedback","","","","","","","","","","","","","","","",""
"html-keyboard-response","165","381934","0.0-4.0-1.0-3.11","1r8ska1wese2t56","prime","5c3d48955fd1050001a99364","5f60e3c0a3b16e07647b2ff9","5f60ee52f363d501605eb2c6","false","null","<div style=""align-items: center; display: flex; color: dodgerblue; font-size: 90px""><b>o</b></div>","null","","","","forget_cue","","","","","","","","","","","","","","","",""
"html-keyboard-response","166","382646","0.0-4.0-1.0-0.12","1r8ska1wese2t56","prime","5c3d48955fd1050001a99364","5f60e3c0a3b16e07647b2ff9","5f60ee52f363d501605eb2c6","false","null","<span style=""color: black; font-size: 48px"">M + N</span>","null","","","","resp_prompt","","","","","","","","","","","","","","","",""
"categorize-image","167","384132","0.0-4.0-1.0-1.12","1r8ska1wese2t56","prime","5c3d48955fd1050001a99364","5f60e3c0a3b16e07647b2ff9","5f60ee52f363d501605eb2c6","true","1476.2299999999814","./Stimuli/SelectedImages/LN/LN92.bmp","83","","","","test","false","M + N","76","switch","LN","LN92.bmp","remember","","61","3","prime1","left","","","",""
"html-keyboard-response","168","384648","0.0-4.0-1.0-2.12-0.12","1r8ska1wese2t56","prime","5c3d48955fd1050001a99364","5f60e3c0a3b16e07647b2ff9","5f60ee52f363d501605eb2c6","false","null","<span style=""color: red; font-size: 48px"">Error!</span>","null","","","","feedback","","","","","","","","","","","","","","","",""
"html-keyboard-response","169","386653","0.0-4.0-1.0-3.12","1r8ska1wese2t56","prime","5c3d48955fd1050001a99364","5f60e3c0a3b16e07647b2ff9","5f60ee52f363d501605eb2c6","false","null","<div style=""align-items: center; display: flex; color: dodgerblue; font-size: 90px""><b>o</b></div>","null","","","","forget_cue","","","","","","","","","","","","","","","",""
"html-keyboard-response","170","387363","0.0-4.0-1.0-0.13","1r8ska1wese2t56","prime","5c3d48955fd1050001a99364","5f60e3c0a3b16e07647b2ff9","5f60ee52f363d501605eb2c6","false","null","<span style=""color: black; font-size: 48px"">N + M</span>","null","","","","resp_prompt","","","","","","","","","","","","","","","",""
"categorize-image","171","388338","0.0-4.0-1.0-1.13","1r8ska1wese2t56","prime","5c3d48955fd1050001a99364","5f60e3c0a3b16e07647b2ff9","5f60ee52f363d501605eb2c6","true","967.625","./Stimuli/SelectedImages/SM/SM184.bmp","83","","","","test","false","N + M","76","switch","SM","SM184.bmp","remember","","62","3","prime1","left","","","",""
"html-keyboard-response","172","388871","0.0-4.0-1.0-2.13-0.13","1r8ska1wese2t56","prime","5c3d48955fd1050001a99364","5f60e3c0a3b16e07647b2ff9","5f60ee52f363d501605eb2c6","false","null","<span style=""color: red; font-size: 48px"">Error!</span>","null","","","","feedback","","","","","","","","","","","","","","","",""
"html-keyboard-response","173","390882","0.0-4.0-1.0-3.13","1r8ska1wese2t56","prime","5c3d48955fd1050001a99364","5f60e3c0a3b16e07647b2ff9","5f60ee52f363d501605eb2c6","false","null","<div style=""align-items: center; display: flex; color: dodgerblue; font-size: 90px""><b>o</b></div>","null","","","","forget_cue","","","","","","","","","","","","","","","",""
"html-keyboard-response","174","391591","0.0-4.0-1.0-0.14","1r8ska1wese2t56","prime","5c3d48955fd1050001a99364","5f60e3c0a3b16e07647b2ff9","5f60ee52f363d501605eb2c6","false","null","<span style=""color: black; font-size: 48px"">N + M</span>","null","","","","resp_prompt","","","","","","","","","","","","","","","",""
"categorize-image","175","393055","0.0-4.0-1.0-1.14","1r8ska1wese2t56","prime","5c3d48955fd1050001a99364","5f60e3c0a3b16e07647b2ff9","5f60ee52f363d501605eb2c6","true","1459.1249999999418","./Stimuli/SelectedImages/SN/SN18.bmp","76","","","","test","false","N + M","83","switch","SN","SN18.bmp","remember","","63","3","prime1","right","","","",""
"html-keyboard-response","176","393565","0.0-4.0-1.0-2.14-0.14","1r8ska1wese2t56","prime","5c3d48955fd1050001a99364","5f60e3c0a3b16e07647b2ff9","5f60ee52f363d501605eb2c6","false","null","<span style=""color: red; font-size: 48px"">Error!</span>","null","","","","feedback","","","","","","","","","","","","","","","",""
"html-keyboard-response","177","395580","0.0-4.0-1.0-3.14","1r8ska1wese2t56","prime","5c3d48955fd1050001a99364","5f60e3c0a3b16e07647b2ff9","5f60ee52f363d501605eb2c6","false","null","<div style=""align-items: center; display: flex; color: dodgerblue; font-size: 90px""><b>o</b></div>","null","","","","forget_cue","","","","","","","","","","","","","","","",""
"html-keyboard-response","178","396290","0.0-4.0-1.0-0.15","1r8ska1wese2t56","prime","5c3d48955fd1050001a99364","5f60e3c0a3b16e07647b2ff9","5f60ee52f363d501605eb2c6","false","null","<span style=""color: black; font-size: 48px"">N + M</span>","null","","","","resp_prompt","","","","","","","","","","","","","","","",""
"categorize-image","179","397584","0.0-4.0-1.0-1.15","1r8ska1wese2t56","prime","5c3d48955fd1050001a99364","5f60e3c0a3b16e07647b2ff9","5f60ee52f363d501605eb2c6","true","1287.8599999999278","./Stimuli/SelectedImages/SN/SN111.bmp","76","","","","test","false","N + M","83","repetition","SN","SN111.bmp","forget","","64","3","prime1","right","","","",""
"html-keyboard-response","180","398092","0.0-4.0-1.0-2.15-0.15","1r8ska1wese2t56","prime","5c3d48955fd1050001a99364","5f60e3c0a3b16e07647b2ff9","5f60ee52f363d501605eb2c6","false","null","<span style=""color: red; font-size: 48px"">Error!</span>","null","","","","feedback","","","","","","","","","","","","","","","",""
"html-keyboard-response","181","400106","0.0-4.0-1.0-3.15","1r8ska1wese2t56","prime","5c3d48955fd1050001a99364","5f60e3c0a3b16e07647b2ff9","5f60ee52f363d501605eb2c6","false","null","<div style=""align-items: center; display: flex; color: darkorange; font-size: 90px""><b>ø</b></div>","null","","","","forget_cue","","","","","","","","","","","","","","","",""
"html-keyboard-response","182","400817","0.0-4.0-1.0-0.16","1r8ska1wese2t56","prime","5c3d48955fd1050001a99364","5f60e3c0a3b16e07647b2ff9","5f60ee52f363d501605eb2c6","false","null","<span style=""color: black; font-size: 48px"">M + N</span>","null","","","","resp_prompt","","","","","","","","","","","","","","","",""
"categorize-image","183","402383","0.0-4.0-1.0-1.16","1r8ska1wese2t56","prime","5c3d48955fd1050001a99364","5f60e3c0a3b16e07647b2ff9","5f60ee52f363d501605eb2c6","true","1560.7149999999674","./Stimuli/SelectedImages/SM/SM213.bmp","76","","","","test","false","M + N","83","repetition","SM","SM213.bmp","forget","","65","3","prime1","right","","","",""
"html-keyboard-response","184","402888","0.0-4.0-1.0-2.16-0.16","1r8ska1wese2t56","prime","5c3d48955fd1050001a99364","5f60e3c0a3b16e07647b2ff9","5f60ee52f363d501605eb2c6","false","null","<span style=""color: red; font-size: 48px"">Error!</span>","null","","","","feedback","","","","","","","","","","","","","","","",""
"html-keyboard-response","185","404895","0.0-4.0-1.0-3.16","1r8ska1wese2t56","prime","5c3d48955fd1050001a99364","5f60e3c0a3b16e07647b2ff9","5f60ee52f363d501605eb2c6","false","null","<div style=""align-items: center; display: flex; color: darkorange; font-size: 90px""><b>ø</b></div>","null","","","","forget_cue","","","","","","","","","","","","","","","",""
"html-keyboard-response","186","405615","0.0-4.0-1.0-0.17","1r8ska1wese2t56","prime","5c3d48955fd1050001a99364","5f60e3c0a3b16e07647b2ff9","5f60ee52f363d501605eb2c6","false","null","<span style=""color: black; font-size: 48px"">M + N</span>","null","","","","resp_prompt","","","","","","","","","","","","","","","",""
"categorize-image","187","406728","0.0-4.0-1.0-1.17","1r8ska1wese2t56","prime","5c3d48955fd1050001a99364","5f60e3c0a3b16e07647b2ff9","5f60ee52f363d501605eb2c6","true","1109.259999999951","./Stimuli/SelectedImages/LN/LN13.bmp","83","","","","test","false","M + N","76","repetition","LN","LN13.bmp","remember","","66","3","prime1","left","","","",""
"html-keyboard-response","188","407251","0.0-4.0-1.0-2.17-0.17","1r8ska1wese2t56","prime","5c3d48955fd1050001a99364","5f60e3c0a3b16e07647b2ff9","5f60ee52f363d501605eb2c6","false","null","<span style=""color: red; font-size: 48px"">Error!</span>","null","","","","feedback","","","","","","","","","","","","","","","",""
"html-keyboard-response","189","409303","0.0-4.0-1.0-3.17","1r8ska1wese2t56","prime","5c3d48955fd1050001a99364","5f60e3c0a3b16e07647b2ff9","5f60ee52f363d501605eb2c6","false","null","<div style=""align-items: center; display: flex; color: dodgerblue; font-size: 90px""><b>o</b></div>","null","","","","forget_cue","","","","","","","","","","","","","","","",""
"html-keyboard-response","190","410005","0.0-4.0-1.0-0.18","1r8ska1wese2t56","prime","5c3d48955fd1050001a99364","5f60e3c0a3b16e07647b2ff9","5f60ee52f363d501605eb2c6","false","null","<span style=""color: black; font-size: 48px"">M + N</span>","null","","","","resp_prompt","","","","","","","","","","","","","","","",""
"categorize-image","191","411660","0.0-4.0-1.0-1.18","1r8ska1wese2t56","prime","5c3d48955fd1050001a99364","5f60e3c0a3b16e07647b2ff9","5f60ee52f363d501605eb2c6","true","1650.125","./Stimuli/SelectedImages/SN/SN128.bmp","83","","","","test","false","M + N","76","repetition","SN","SN128.bmp","remember","","67","3","prime1","left","","","",""
"html-keyboard-response","192","412189","0.0-4.0-1.0-2.18-0.18","1r8ska1wese2t56","prime","5c3d48955fd1050001a99364","5f60e3c0a3b16e07647b2ff9","5f60ee52f363d501605eb2c6","false","null","<span style=""color: red; font-size: 48px"">Error!</span>","null","","","","feedback","","","","","","","","","","","","","","","",""
"html-keyboard-response","193","414192","0.0-4.0-1.0-3.18","1r8ska1wese2t56","prime","5c3d48955fd1050001a99364","5f60e3c0a3b16e07647b2ff9","5f60ee52f363d501605eb2c6","false","null","<div style=""align-items: center; display: flex; color: dodgerblue; font-size: 90px""><b>o</b></div>","null","","","","forget_cue","","","","","","","","","","","","","","","",""
"html-keyboard-response","194","414907","0.0-4.0-1.0-0.19","1r8ska1wese2t56","prime","5c3d48955fd1050001a99364","5f60e3c0a3b16e07647b2ff9","5f60ee52f363d501605eb2c6","false","null","<span style=""color: black; font-size: 48px"">M + N</span>","null","","","","resp_prompt","","","","","","","","","","","","","","","",""
"categorize-image","195","416578","0.0-4.0-1.0-1.19","1r8ska1wese2t56","prime","5c3d48955fd1050001a99364","5f60e3c0a3b16e07647b2ff9","5f60ee52f363d501605eb2c6","true","1658.3350000000792","./Stimuli/SelectedImages/LM/LM48.bmp","76","","","","test","false","M + N","83","repetition","LM","LM48.bmp","remember","","68","3","prime1","right","","","",""
"html-keyboard-response","196","417096","0.0-4.0-1.0-2.19-0.19","1r8ska1wese2t56","prime","5c3d48955fd1050001a99364","5f60e3c0a3b16e07647b2ff9","5f60ee52f363d501605eb2c6","false","null","<span style=""color: red; font-size: 48px"">Error!</span>","null","","","","feedback","","","","","","","","","","","","","","","",""
"html-keyboard-response","197","419111","0.0-4.0-1.0-3.19","1r8ska1wese2t56","prime","5c3d48955fd1050001a99364","5f60e3c0a3b16e07647b2ff9","5f60ee52f363d501605eb2c6","false","null","<div style=""align-items: center; display: flex; color: dodgerblue; font-size: 90px""><b>o</b></div>","null","","","","forget_cue","","","","","","","","","","","","","","","",""
"html-keyboard-response","198","419825","0.0-4.0-1.0-0.20","1r8ska1wese2t56","prime","5c3d48955fd1050001a99364","5f60e3c0a3b16e07647b2ff9","5f60ee52f363d501605eb2c6","false","null","<span style=""color: black; font-size: 48px"">N + M</span>","null","","","","resp_prompt","","","","","","","","","","","","","","","",""
"categorize-image","199","421083","0.0-4.0-1.0-1.20","1r8ska1wese2t56","prime","5c3d48955fd1050001a99364","5f60e3c0a3b16e07647b2ff9","5f60ee52f363d501605eb2c6","true","1253.5699999999488","./Stimuli/SelectedImages/SM/SM106.bmp","76","","","","test","true","N + M","76","switch","SM","SM106.bmp","remember","","69","3","prime1","right","","","",""
"html-keyboard-response","200","423088","0.0-4.0-1.0-3.20","1r8ska1wese2t56","prime","5c3d48955fd1050001a99364","5f60e3c0a3b16e07647b2ff9","5f60ee52f363d501605eb2c6","false","null","<div style=""align-items: center; display: flex; color: dodgerblue; font-size: 90px""><b>o</b></div>","null","","","","forget_cue","","","","","","","","","","","","","","","",""
"html-keyboard-response","201","423802","0.0-4.0-1.0-0.21","1r8ska1wese2t56","prime","5c3d48955fd1050001a99364","5f60e3c0a3b16e07647b2ff9","5f60ee52f363d501605eb2c6","false","null","<span style=""color: black; font-size: 48px"">N + M</span>","null","","","","resp_prompt","","","","","","","","","","","","","","","",""
"categorize-image","202","425053","0.0-4.0-1.0-1.21","1r8ska1wese2t56","prime","5c3d48955fd1050001a99364","5f60e3c0a3b16e07647b2ff9","5f60ee52f363d501605eb2c6","true","1243.6799999999348","./Stimuli/SelectedImages/LM/LM157.bmp","76","","","","test","true","N + M","76","repetition","LM","LM157.bmp","remember","","70","3","prime1","right","","","",""
"html-keyboard-response","203","427062","0.0-4.0-1.0-3.21","1r8ska1wese2t56","prime","5c3d48955fd1050001a99364","5f60e3c0a3b16e07647b2ff9","5f60ee52f363d501605eb2c6","false","null","<div style=""align-items: center; display: flex; color: dodgerblue; font-size: 90px""><b>o</b></div>","null","","","","forget_cue","","","","","","","","","","","","","","","",""
"html-keyboard-response","204","427778","0.0-4.0-1.0-0.22","1r8ska1wese2t56","prime","5c3d48955fd1050001a99364","5f60e3c0a3b16e07647b2ff9","5f60ee52f363d501605eb2c6","false","null","<span style=""color: black; font-size: 48px"">M + N</span>","null","","","","resp_prompt","","","","","","","","","","","","","","","",""
"categorize-image","205","428651","0.0-4.0-1.0-1.22","1r8ska1wese2t56","prime","5c3d48955fd1050001a99364","5f60e3c0a3b16e07647b2ff9","5f60ee52f363d501605eb2c6","true","866.9249999999302","./Stimuli/SelectedImages/LM/LM167.bmp","76","","","","test","false","M + N","83","switch","LM","LM167.bmp","forget","","71","3","prime1","right","","","",""
"html-keyboard-response","206","429167","0.0-4.0-1.0-2.22-0.22","1r8ska1wese2t56","prime","5c3d48955fd1050001a99364","5f60e3c0a3b16e07647b2ff9","5f60ee52f363d501605eb2c6","false","null","<span style=""color: red; font-size: 48px"">Error!</span>","null","","","","feedback","","","","","","","","","","","","","","","",""
"html-keyboard-response","207","431177","0.0-4.0-1.0-3.22","1r8ska1wese2t56","prime","5c3d48955fd1050001a99364","5f60e3c0a3b16e07647b2ff9","5f60ee52f363d501605eb2c6","false","null","<div style=""align-items: center; display: flex; color: darkorange; font-size: 90px""><b>ø</b></div>","null","","","","forget_cue","","","","","","","","","","","","","","","",""
"html-keyboard-response","208","431890","0.0-4.0-1.0-0.23","1r8ska1wese2t56","prime","5c3d48955fd1050001a99364","5f60e3c0a3b16e07647b2ff9","5f60ee52f363d501605eb2c6","false","null","<span style=""color: black; font-size: 48px"">N + M</span>","null","","","","resp_prompt","","","","","","","","","","","","","","","",""
"categorize-image","209","433633","0.0-4.0-1.0-1.23","1r8ska1wese2t56","prime","5c3d48955fd1050001a99364","5f60e3c0a3b16e07647b2ff9","5f60ee52f363d501605eb2c6","true","1738.4150000000373","./Stimuli/SelectedImages/LM/LM100.bmp","83","","","","test","false","N + M","76","switch","LM","LM100.bmp","forget","","72","3","prime1","left","","","",""
"html-keyboard-response","210","434143","0.0-4.0-1.0-2.23-0.23","1r8ska1wese2t56","prime","5c3d48955fd1050001a99364","5f60e3c0a3b16e07647b2ff9","5f60ee52f363d501605eb2c6","false","null","<span style=""color: red; font-size: 48px"">Error!</span>","null","","","","feedback","","","","","","","","","","","","","","","",""
"html-keyboard-response","211","436158","0.0-4.0-1.0-3.23","1r8ska1wese2t56","prime","5c3d48955fd1050001a99364","5f60e3c0a3b16e07647b2ff9","5f60ee52f363d501605eb2c6","false","null","<div style=""align-items: center; display: flex; color: darkorange; font-size: 90px""><b>ø</b></div>","null","","","","forget_cue","","","","","","","","","","","","","","","",""
"html-keyboard-response","212","436864","0.0-4.0-1.0-0.24","1r8ska1wese2t56","prime","5c3d48955fd1050001a99364","5f60e3c0a3b16e07647b2ff9","5f60ee52f363d501605eb2c6","false","null","<span style=""color: black; font-size: 48px"">M + N</span>","null","","","","resp_prompt","","","","","","","","","","","","","","","",""
"categorize-image","213","438400","0.0-4.0-1.0-1.24","1r8ska1wese2t56","prime","5c3d48955fd1050001a99364","5f60e3c0a3b16e07647b2ff9","5f60ee52f363d501605eb2c6","true","1531.740000000049","./Stimuli/SelectedImages/SM/SM148.bmp","76","","","","test","false","M + N","83","repetition","SM","SM148.bmp","remember","","73","3","prime1","right","","","",""
"html-keyboard-response","214","438908","0.0-4.0-1.0-2.24-0.24","1r8ska1wese2t56","prime","5c3d48955fd1050001a99364","5f60e3c0a3b16e07647b2ff9","5f60ee52f363d501605eb2c6","false","null","<span style=""color: red; font-size: 48px"">Error!</span>","null","","","","feedback","","","","","","","","","","","","","","","",""
"html-keyboard-response","215","440917","0.0-4.0-1.0-3.24","1r8ska1wese2t56","prime","5c3d48955fd1050001a99364","5f60e3c0a3b16e07647b2ff9","5f60ee52f363d501605eb2c6","false","null","<div style=""align-items: center; display: flex; color: dodgerblue; font-size: 90px""><b>o</b></div>","null","","","","forget_cue","","","","","","","","","","","","","","","",""
"html-keyboard-response","216","441619","0.0-4.0-1.0-0.25","1r8ska1wese2t56","prime","5c3d48955fd1050001a99364","5f60e3c0a3b16e07647b2ff9","5f60ee52f363d501605eb2c6","false","null","<span style=""color: black; font-size: 48px"">N + M</span>","null","","","","resp_prompt","","","","","","","","","","","","","","","",""
"categorize-image","217","442648","0.0-4.0-1.0-1.25","1r8ska1wese2t56","prime","5c3d48955fd1050001a99364","5f60e3c0a3b16e07647b2ff9","5f60ee52f363d501605eb2c6","true","1024.7349999999278","./Stimuli/SelectedImages/SN/SN140.bmp","76","","","","test","false","N + M","83","repetition","SN","SN140.bmp","remember","","74","3","prime1","right","","","",""
"html-keyboard-response","218","443159","0.0-4.0-1.0-2.25-0.25","1r8ska1wese2t56","prime","5c3d48955fd1050001a99364","5f60e3c0a3b16e07647b2ff9","5f60ee52f363d501605eb2c6","false","null","<span style=""color: red; font-size: 48px"">Error!</span>","null","","","","feedback","","","","","","","","","","","","","","","",""
"html-keyboard-response","219","445166","0.0-4.0-1.0-3.25","1r8ska1wese2t56","prime","5c3d48955fd1050001a99364","5f60e3c0a3b16e07647b2ff9","5f60ee52f363d501605eb2c6","false","null","<div style=""align-items: center; display: flex; color: dodgerblue; font-size: 90px""><b>o</b></div>","null","","","","forget_cue","","","","","","","","","","","","","","","",""
"html-keyboard-response","220","445874","0.0-4.0-1.0-0.26","1r8ska1wese2t56","prime","5c3d48955fd1050001a99364","5f60e3c0a3b16e07647b2ff9","5f60ee52f363d501605eb2c6","false","null","<span style=""color: black; font-size: 48px"">N + M</span>","null","","","","resp_prompt","","","","","","","","","","","","","","","",""
"categorize-image","221","447479","0.0-4.0-1.0-1.26","1r8ska1wese2t56","prime","5c3d48955fd1050001a99364","5f60e3c0a3b16e07647b2ff9","5f60ee52f363d501605eb2c6","true","1600.225000000035","./Stimuli/SelectedImages/SM/SM74.bmp","76","","","","test","true","N + M","76","switch","SM","SM74.bmp","forget","","75","3","prime1","right","","","",""
"html-keyboard-response","222","449493","0.0-4.0-1.0-3.26","1r8ska1wese2t56","prime","5c3d48955fd1050001a99364","5f60e3c0a3b16e07647b2ff9","5f60ee52f363d501605eb2c6","false","null","<div style=""align-items: center; display: flex; color: darkorange; font-size: 90px""><b>ø</b></div>","null","","","","forget_cue","","","","","","","","","","","","","","","",""
"html-keyboard-response","223","450201","0.0-4.0-1.0-0.27","1r8ska1wese2t56","prime","5c3d48955fd1050001a99364","5f60e3c0a3b16e07647b2ff9","5f60ee52f363d501605eb2c6","false","null","<span style=""color: black; font-size: 48px"">M + N</span>","null","","","","resp_prompt","","","","","","","","","","","","","","","",""
"categorize-image","224","451439","0.0-4.0-1.0-1.27","1r8ska1wese2t56","prime","5c3d48955fd1050001a99364","5f60e3c0a3b16e07647b2ff9","5f60ee52f363d501605eb2c6","true","1233.210000000021","./Stimuli/SelectedImages/LN/LN166.bmp","83","","","","test","false","M + N","76","switch","LN","LN166.bmp","remember","","76","3","prime1","left","","","",""
"html-keyboard-response","225","451951","0.0-4.0-1.0-2.27-0.27","1r8ska1wese2t56","prime","5c3d48955fd1050001a99364","5f60e3c0a3b16e07647b2ff9","5f60ee52f363d501605eb2c6","false","null","<span style=""color: red; font-size: 48px"">Error!</span>","null","","","","feedback","","","","","","","","","","","","","","","",""
"html-keyboard-response","226","453974","0.0-4.0-1.0-3.27","1r8ska1wese2t56","prime","5c3d48955fd1050001a99364","5f60e3c0a3b16e07647b2ff9","5f60ee52f363d501605eb2c6","false","null","<div style=""align-items: center; display: flex; color: dodgerblue; font-size: 90px""><b>o</b></div>","null","","","","forget_cue","","","","","","","","","","","","","","","",""
"html-keyboard-response","227","454676","0.0-4.0-1.0-0.28","1r8ska1wese2t56","prime","5c3d48955fd1050001a99364","5f60e3c0a3b16e07647b2ff9","5f60ee52f363d501605eb2c6","false","null","<span style=""color: black; font-size: 48px"">N + M</span>","null","","","","resp_prompt","","","","","","","","","","","","","","","",""
"categorize-image","228","455671","0.0-4.0-1.0-1.28","1r8ska1wese2t56","prime","5c3d48955fd1050001a99364","5f60e3c0a3b16e07647b2ff9","5f60ee52f363d501605eb2c6","true","987.890000000014","./Stimuli/SelectedImages/LM/LM179.bmp","76","","","","test","true","N + M","76","switch","LM","LM179.bmp","forget","","77","3","prime1","right","","","",""
"html-keyboard-response","229","457689","0.0-4.0-1.0-3.28","1r8ska1wese2t56","prime","5c3d48955fd1050001a99364","5f60e3c0a3b16e07647b2ff9","5f60ee52f363d501605eb2c6","false","null","<div style=""align-items: center; display: flex; color: darkorange; font-size: 90px""><b>ø</b></div>","null","","","","forget_cue","","","","","","","","","","","","","","","",""
"html-keyboard-response","230","458398","0.0-4.0-1.0-0.29","1r8ska1wese2t56","prime","5c3d48955fd1050001a99364","5f60e3c0a3b16e07647b2ff9","5f60ee52f363d501605eb2c6","false","null","<span style=""color: black; font-size: 48px"">N + M</span>","null","","","","resp_prompt","","","","","","","","","","","","","","","",""
"categorize-image","231","459253","0.0-4.0-1.0-1.29","1r8ska1wese2t56","prime","5c3d48955fd1050001a99364","5f60e3c0a3b16e07647b2ff9","5f60ee52f363d501605eb2c6","true","850.554999999993","./Stimuli/SelectedImages/SM/SM200.bmp","76","","","","test","true","N + M","76","repetition","SM","SM200.bmp","forget","","78","3","prime1","right","","","",""
"html-keyboard-response","232","461270","0.0-4.0-1.0-3.29","1r8ska1wese2t56","prime","5c3d48955fd1050001a99364","5f60e3c0a3b16e07647b2ff9","5f60ee52f363d501605eb2c6","false","null","<div style=""align-items: center; display: flex; color: darkorange; font-size: 90px""><b>ø</b></div>","null","","","","forget_cue","","","","","","","","","","","","","","","",""
"html-keyboard-response","233","461984","0.0-4.0-1.0-0.30","1r8ska1wese2t56","prime","5c3d48955fd1050001a99364","5f60e3c0a3b16e07647b2ff9","5f60ee52f363d501605eb2c6","false","null","<span style=""color: black; font-size: 48px"">M + N</span>","null","","","","resp_prompt","","","","","","","","","","","","","","","",""
"categorize-image","234","463055","0.0-4.0-1.0-1.30","1r8ska1wese2t56","prime","5c3d48955fd1050001a99364","5f60e3c0a3b16e07647b2ff9","5f60ee52f363d501605eb2c6","true","1064.7450000000536","./Stimuli/SelectedImages/LM/LM58.bmp","76","","","","test","false","M + N","83","switch","LM","LM58.bmp","forget","","79","3","prime1","right","","","",""
"html-keyboard-response","235","463560","0.0-4.0-1.0-2.30-0.30","1r8ska1wese2t56","prime","5c3d48955fd1050001a99364","5f60e3c0a3b16e07647b2ff9","5f60ee52f363d501605eb2c6","false","null","<span style=""color: red; font-size: 48px"">Error!</span>","null","","","","feedback","","","","","","","","","","","","","","","",""
"html-keyboard-response","236","465564","0.0-4.0-1.0-3.30","1r8ska1wese2t56","prime","5c3d48955fd1050001a99364","5f60e3c0a3b16e07647b2ff9","5f60ee52f363d501605eb2c6","false","null","<div style=""align-items: center; display: flex; color: darkorange; font-size: 90px""><b>ø</b></div>","null","","","","forget_cue","","","","","","","","","","","","","","","",""
"html-keyboard-response","237","466274","0.0-4.0-1.0-0.31","1r8ska1wese2t56","prime","5c3d48955fd1050001a99364","5f60e3c0a3b16e07647b2ff9","5f60ee52f363d501605eb2c6","false","null","<span style=""color: black; font-size: 48px"">M + N</span>","null","","","","resp_prompt","","","","","","","","","","","","","","","",""
"categorize-image","238","468298","0.0-4.0-1.0-1.31","1r8ska1wese2t56","prime","5c3d48955fd1050001a99364","5f60e3c0a3b16e07647b2ff9","5f60ee52f363d501605eb2c6","true","null","./Stimuli/SelectedImages/LM/LM150.bmp","null","","","","test","false","M + N","83","repetition","LM","LM150.bmp","forget","","80","3","prime1","too_slow","","","",""
"html-keyboard-response","239","468805","0.0-4.0-1.0-2.31-0.31","1r8ska1wese2t56","prime","5c3d48955fd1050001a99364","5f60e3c0a3b16e07647b2ff9","5f60ee52f363d501605eb2c6","false","null","<span style=""color: red; font-size: 48px"">Too slow!</span>","null","","","","feedback","","","","","","","","","","","","","","","",""
"html-keyboard-response","240","470808","0.0-4.0-1.0-3.31","1r8ska1wese2t56","prime","5c3d48955fd1050001a99364","5f60e3c0a3b16e07647b2ff9","5f60ee52f363d501605eb2c6","false","null","<div style=""align-items: center; display: flex; color: darkorange; font-size: 90px""><b>ø</b></div>","null","","","","forget_cue","","","","","","","","","","","","","","","",""
"html-keyboard-response","241","471517","0.0-4.0-1.0-0.32","1r8ska1wese2t56","prime","5c3d48955fd1050001a99364","5f60e3c0a3b16e07647b2ff9","5f60ee52f363d501605eb2c6","false","null","<span style=""color: black; font-size: 48px"">M + N</span>","null","","","","resp_prompt","","","","","","","","","","","","","","","",""
"categorize-image","242","472268","0.0-4.0-1.0-1.32","1r8ska1wese2t56","prime","5c3d48955fd1050001a99364","5f60e3c0a3b16e07647b2ff9","5f60ee52f363d501605eb2c6","true","745.9500000000116","./Stimuli/SelectedImages/LM/LM75.bmp","76","","","","test","false","M + N","83","repetition","LM","LM75.bmp","forget","","81","3","prime1","right","","","",""
"html-keyboard-response","243","472798","0.0-4.0-1.0-2.32-0.32","1r8ska1wese2t56","prime","5c3d48955fd1050001a99364","5f60e3c0a3b16e07647b2ff9","5f60ee52f363d501605eb2c6","false","null","<span style=""color: red; font-size: 48px"">Error!</span>","null","","","","feedback","","","","","","","","","","","","","","","",""
"html-keyboard-response","244","474803","0.0-4.0-1.0-3.32","1r8ska1wese2t56","prime","5c3d48955fd1050001a99364","5f60e3c0a3b16e07647b2ff9","5f60ee52f363d501605eb2c6","false","null","<div style=""align-items: center; display: flex; color: darkorange; font-size: 90px""><b>ø</b></div>","null","","","","forget_cue","","","","","","","","","","","","","","","",""
"html-keyboard-response","245","475515","0.0-4.0-1.0-0.33","1r8ska1wese2t56","prime","5c3d48955fd1050001a99364","5f60e3c0a3b16e07647b2ff9","5f60ee52f363d501605eb2c6","false","null","<span style=""color: black; font-size: 48px"">M + N</span>","null","","","","resp_prompt","","","","","","","","","","","","","","","",""
"categorize-image","246","476726","0.0-4.0-1.0-1.33","1r8ska1wese2t56","prime","5c3d48955fd1050001a99364","5f60e3c0a3b16e07647b2ff9","5f60ee52f363d501605eb2c6","true","1203.7399999999325","./Stimuli/SelectedImages/SN/SN49.bmp","76","","","","test","true","M + N","76","repetition","SN","SN49.bmp","forget","","82","3","prime1","right","","","",""
"html-keyboard-response","247","478740","0.0-4.0-1.0-3.33","1r8ska1wese2t56","prime","5c3d48955fd1050001a99364","5f60e3c0a3b16e07647b2ff9","5f60ee52f363d501605eb2c6","false","null","<div style=""align-items: center; display: flex; color: darkorange; font-size: 90px""><b>ø</b></div>","null","","","","forget_cue","","","","","","","","","","","","","","","",""
"html-keyboard-response","248","479453","0.0-4.0-1.0-0.34","1r8ska1wese2t56","prime","5c3d48955fd1050001a99364","5f60e3c0a3b16e07647b2ff9","5f60ee52f363d501605eb2c6","false","null","<span style=""color: black; font-size: 48px"">N + M</span>","null","","","","resp_prompt","","","","","","","","","","","","","","","",""
"categorize-image","249","480643","0.0-4.0-1.0-1.34","1r8ska1wese2t56","prime","5c3d48955fd1050001a99364","5f60e3c0a3b16e07647b2ff9","5f60ee52f363d501605eb2c6","true","1184.5849999999627","./Stimuli/SelectedImages/SM/SM108.bmp","83","","","","test","false","N + M","76","repetition","SM","SM108.bmp","remember","","83","3","prime1","left","","","",""
"html-keyboard-response","250","481147","0.0-4.0-1.0-2.34-0.34","1r8ska1wese2t56","prime","5c3d48955fd1050001a99364","5f60e3c0a3b16e07647b2ff9","5f60ee52f363d501605eb2c6","false","null","<span style=""color: red; font-size: 48px"">Error!</span>","null","","","","feedback","","","","","","","","","","","","","","","",""
"html-keyboard-response","251","483157","0.0-4.0-1.0-3.34","1r8ska1wese2t56","prime","5c3d48955fd1050001a99364","5f60e3c0a3b16e07647b2ff9","5f60ee52f363d501605eb2c6","false","null","<div style=""align-items: center; display: flex; color: dodgerblue; font-size: 90px""><b>o</b></div>","null","","","","forget_cue","","","","","","","","","","","","","","","",""
"html-keyboard-response","252","483873","0.0-4.0-1.0-0.35","1r8ska1wese2t56","prime","5c3d48955fd1050001a99364","5f60e3c0a3b16e07647b2ff9","5f60ee52f363d501605eb2c6","false","null","<span style=""color: black; font-size: 48px"">M + N</span>","null","","","","resp_prompt","","","","","","","","","","","","","","","",""
"categorize-image","253","485887","0.0-4.0-1.0-1.35","1r8ska1wese2t56","prime","5c3d48955fd1050001a99364","5f60e3c0a3b16e07647b2ff9","5f60ee52f363d501605eb2c6","true","null","./Stimuli/SelectedImages/LN/LN28.bmp","null","","","","test","false","M + N","76","repetition","LN","LN28.bmp","forget","","84","3","prime1","too_slow","","","",""
"html-keyboard-response","254","486401","0.0-4.0-1.0-2.35-0.35","1r8ska1wese2t56","prime","5c3d48955fd1050001a99364","5f60e3c0a3b16e07647b2ff9","5f60ee52f363d501605eb2c6","false","null","<span style=""color: red; font-size: 48px"">Too slow!</span>","null","","","","feedback","","","","","","","","","","","","","","","",""
