"trial_type","trial_index","time_elapsed","internal_node_id","subject","exp_part","prolific_PID","study_ID","session_ID","use","rt","stimulus","key_press","button_pressed","responses","question_order","trial_part","correct","resp_map","correct_resp","probe_condition","category","image","forget_condition","list","trial_num","block_num","block","response","test_part","n_span","sequence","num_spaces"
"pavlovia","0","3","0.0-0.0","s17m8vql4qbvgyh","","5eefa9973c8aa108eca301dc","5f5a55364e9b770ed21874ff","5f60d6e709bc4d043a51d9a4","false","","","","","","","","","","","","","","","","","","","","","","",""
"html-keyboard-response","1","9147","0.0-1.0-0.0-0.0","s17m8vql4qbvgyh","welcome","5eefa9973c8aa108eca301dc","5f5a55364e9b770ed21874ff","5f60d6e709bc4d043a51d9a4","false","9141.399999993155","<div align=left>Dear participant, <br> thank you for participating in an online study of the Cognition, Action, and Sustainability Unit of the University of Freiburg! <br> <br>The aim of this study is to examine our ability to remember previously learned information. <br>Our goal is to find out, whether our memory improves, when we only remember information that is relevant to us. <br>The experiment will take about 30 minutes to complete. <br> <br>Please, note that you can only participate in this study if you are using a device with a keyboard (PC, Laptop etc.) <br>and not if you are using a mobile device such as a tablet or smartphone.<br> <br>Press 'SPACE' to proceed to the experiment. </div>","32","","","","","","","","","","","","","","","","","","","",""
"html-keyboard-response","2","18189","0.0-1.0-0.0-1.0","s17m8vql4qbvgyh","welcome","5eefa9973c8aa108eca301dc","5f5a55364e9b770ed21874ff","5f60d6e709bc4d043a51d9a4","false","9040.744999976596","<div align=left><strong> Time Course of this experiment: </strong> <br><br> <strong> 1.</strong>  First, please fill in some information regarding your demographic data. <br><br> <strong> 2.</strong>  Next, your task will be to classify everyday objects. <br>In addition, you will be asked to remember certain objects and recall them later. <br>Working on these tasks requires your undivided attention and concentration.<br>It is therefore essential that you eliminate any sources of distraction in your  <br>environment and ensure that you will not be disturbed. <br><br><strong> 3.</strong>  At the end of the experiment, you will be asked to answer a few additional questions. <br> <br><strong> Important:</strong> After finishing the experiment, only close the browser window <br> by clicking on the 'end the experiment'-button when you are asked to do so. <br>Closing the browser window prematurely will make the allocation of your participation credit impossible. <br><br> Press 'SPACE' to start the experiment. </div>","32","","","","","","","","","","","","","","","","","","","",""
"html-button-response","3","21863","0.0-1.0-0.0-2.0","s17m8vql4qbvgyh","welcome","5eefa9973c8aa108eca301dc","5f5a55364e9b770ed21874ff","5f60d6e709bc4d043a51d9a4","true","3672.805000009248","<div align=left><strong> Informed consent </strong>  <br>The aim of our research is to better understand human behavior and mental processes. <br>In the following study your behavior (e.g. choices, reaction times) will be studied. <br> <br><strong> Voluntariness and Anonymity </strong> <br>Your participation in this study is  <strong> voluntary</strong>.<br>You may withdraw your consent to participate at any time without providing a reason for doing so and without fear of prejudice. <br><br>As no personal data will be collected, <strong>your data and your person cannot be connected after data collection</strong> – the data-set is anonymous. <br>Respectively, deletion of your data will not be possible after data collection has been completed, as we cannot retrace your data-set.<br>The results and anonymized data collected in this study will be published as a scientific publication. <br>This will happen in an <strong>anonymized format</strong>, so that no data can be traced back to a specific person. <br> <br>The anonymized data of this study will be made available to other researchers and/or in a data archive on the Internet as a means of transparency and to enable subsequent re-use. By doing so, this study follows the recommendations of the Deutsche Forschungsgemeinschaft (DFG, German Research Foundation) and Deutsche Gesellschaft für Psychologie (DGPS, German Psychological Society) regarding quality assurance in research.<br>If you have any questions now or after the experiment, please contact our team (experiments@cs.uni-freiburg.de).<br><br><br>I hereby declare, that I understand the above described conditions of participation and I agree to participate under these conditions. <br><br> </div>","","0","","","","","","","","","","","","","","","","","","",""
"html-keyboard-response","4","41614","0.0-1.0-0.0-3.0","s17m8vql4qbvgyh","welcome","5eefa9973c8aa108eca301dc","5f5a55364e9b770ed21874ff","5f60d6e709bc4d043a51d9a4","false","19749.320000002626","<div align=left><strong> General information concerning the experiment </strong>  <br> <br>Please follow the instructions:<ol> <li><strong> Do not leave this tab (your browser window) during the experiment and do not reload this tab! </strong>  <br>If you do switch tabs/windows during the experiment (to check your mail or visit another website, for example), <br>the experiment will end automatically and you will <strong>not receive credit</strong> for your participation. <br>Repeated participation or resumption of the experiment is impossible.</li> <br><li>Please close all other programs for the duration of your participation. </li> <br><li>Please mute or turn off your phone and put it out of your reach. </li> <br><li>Please also take off any disturbing accessories (such as wristwatches, bracelets, etc.). </li> <br><li>If you have music playing in the background, please turn it off now. </li> <br></ol>Thank you! <br>Press 'SPACE' to continue. </div>","32","","","","","","","","","","","","","","","","","","","",""
"survey-text","5","45582","0.0-1.0-1.0-0.0","s17m8vql4qbvgyh","demographics","5eefa9973c8aa108eca301dc","5f5a55364e9b770ed21874ff","5f60d6e709bc4d043a51d9a4","true","3963.4300000034273","","","","{""age"":""19""}","","","","","","","","","","","","","","","","","",""
"survey-multi-choice","6","68400","0.0-1.0-1.0-1.0","s17m8vql4qbvgyh","demographics","5eefa9973c8aa108eca301dc","5f5a55364e9b770ed21874ff","5f60d6e709bc4d043a51d9a4","true","22815.179999975953","","","","{""gender"":""female"",""school"":""others"",""education"":""Still in training/ university""}","[0,1,2]","","","","","","","","","","","","","","","","",""
"survey-text","7","100129","0.0-1.0-1.0-2.0-0.0","s17m8vql4qbvgyh","demographics","5eefa9973c8aa108eca301dc","5f5a55364e9b770ed21874ff","5f60d6e709bc4d043a51d9a4","true","31720.31999999308","","","","{""education_text"":""I'm currently a university student in my second year.""}","","","","","","","","","","","","","","","","","",""
"html-keyboard-response","8","111753","0.0-1.0-2.0","s17m8vql4qbvgyh","instructions","5eefa9973c8aa108eca301dc","5f5a55364e9b770ed21874ff","5f60d6e709bc4d043a51d9a4","false","11622.299999988172","<div align=left> The experiment is now about to start: <br> <br>In the following part, you will be presented pictures of everyday objects. <br>Your first task is to <strong>classify these objects. </strong> <br> <br> You will classify them either as mechanical or non-mechanical objects. <br> <br>Objects that include any kind of technical mechanism (for example, wheels, switches, levers, <br> electronic components) fall under the category of <strong>mechanical</strong> objects. <br>Only objects without any kind of technical mechanism should be classified as <strong>non-mechanical</strong>. <br><br>Press 'SPACE' to continue. </div>","32","","","","","","","","","","","","","","","","","","","",""
"html-keyboard-response","9","154050","0.0-2.0-0.0","s17m8vql4qbvgyh","instructions","5eefa9973c8aa108eca301dc","5f5a55364e9b770ed21874ff","5f60d6e709bc4d043a51d9a4","false","42294.464999984484","<div align=justify>You will classify the objects using the <strong>'S'</strong> and the <strong>'L'</strong> keys on your keyboard.<br>For doing so, please place your <strong>left index finger</strong> on the <strong>'S'</strong> key and place your <strong>right index finger</strong> on the <strong>'L'</strong> key. <br><br> Each trial starts with an instruction, indicating which key ('S'/'L') you need to press to classify <br>the object as mechanical (letter M) or non-mechanical (letter N).<br>The instruction <strong>M + N</strong> indicates that, in the current trial, by pressing the left key ('S') you classify the displayed object as mechanical (M) <br> and by pressing the right key ('L') you classify the object as non-mechanical (N). <br>The instruction <strong>N + M</strong> on the other hand indicates that by pressing the left key ('S') you classify the displayed object as non-mechanical (N) <br> and by pressing the right key ('L') you classify the object as mechanical (M). <br><br>Please press the key corresponding to the correct classification as fast as possible as soon as the object is displayed and try to avoid making mistakes.<br>If you do not respond within a 2 second window, a corresponding feedback will be displayed and the next trial will start.<br> The experiment is divided into multiple blocks to give you the opportunity to take a break after each block. <br>First, you can now practice this task. <br><br>Please place your <strong>LEFT INDEX FINGER</strong> on the 'S' key and your <strong>RIGHT INDEX FINGER</strong> on the 'L' key now. <br><br>Press SPACE to continue.</div>","32","","","","","","","","","","","","","","","","","","","",""
"html-keyboard-response","10","163662","0.0-2.0-1.0","s17m8vql4qbvgyh","instructions","5eefa9973c8aa108eca301dc","5f5a55364e9b770ed21874ff","5f60d6e709bc4d043a51d9a4","false","9611.449999996694","<div align=left> You will now have time to practice this task.<br><br>Remember: <br> <br><li>Please place your index fingers on the <strong>'S'</strong> and <strong>'L'</strong> keys <br>to respond as fast and accurately as possible.</li><li>Every picture can be classified as either mechanical or non-mechanical.</li><li>If you do not respond in time or commit an error, you will receive a corresponding feedback. </li><li> Please try to respond as <strong> fast </strong> and as <strong> accurately as possible </strong> .<br><li>To ensure optimal results, please minimize distractions and stay focused. </li><br><br>Press SPACE to continue.</div>","32","","","","","","","","","","","","","","","","","","","",""
"html-keyboard-response","11","164366","0.0-2.0-2.0-0.0","s17m8vql4qbvgyh","practice_no_cue","5eefa9973c8aa108eca301dc","5f5a55364e9b770ed21874ff","5f60d6e709bc4d043a51d9a4","false","null","<span style=""color: black; font-size: 48px"">M + N</span>","null","","","","resp_prompt","","","","","","","","","","","","","","","",""
"categorize-image","12","165904","0.0-2.0-2.0-1.0","s17m8vql4qbvgyh","practice_no_cue","5eefa9973c8aa108eca301dc","5f5a55364e9b770ed21874ff","5f60d6e709bc4d043a51d9a4","true","1031.5950000076555","./Stimuli/ImagesPractice/SN221.jpg","76","","","","test","true","M + N","76","","SN","SN221.jpg","remember","old","1","1","start","right","","","",""
"html-keyboard-response","13","166607","0.0-2.0-2.0-0.1","s17m8vql4qbvgyh","practice_no_cue","5eefa9973c8aa108eca301dc","5f5a55364e9b770ed21874ff","5f60d6e709bc4d043a51d9a4","false","null","<span style=""color: black; font-size: 48px"">M + N</span>","null","","","","resp_prompt","","","","","","","","","","","","","","","",""
"categorize-image","14","167821","0.0-2.0-2.0-1.1","s17m8vql4qbvgyh","practice_no_cue","5eefa9973c8aa108eca301dc","5f5a55364e9b770ed21874ff","5f60d6e709bc4d043a51d9a4","true","707.460000005085","./Stimuli/ImagesPractice/LN15.jpg","76","","","","test","true","M + N","76","","LN","LN15.jpg","forget","old","2","1","start","right","","","",""
"html-keyboard-response","15","168525","0.0-2.0-2.0-0.2","s17m8vql4qbvgyh","practice_no_cue","5eefa9973c8aa108eca301dc","5f5a55364e9b770ed21874ff","5f60d6e709bc4d043a51d9a4","false","null","<span style=""color: black; font-size: 48px"">M + N</span>","null","","","","resp_prompt","","","","","","","","","","","","","","","",""
"categorize-image","16","169614","0.0-2.0-2.0-1.2","s17m8vql4qbvgyh","practice_no_cue","5eefa9973c8aa108eca301dc","5f5a55364e9b770ed21874ff","5f60d6e709bc4d043a51d9a4","true","585.3250000218395","./Stimuli/ImagesPractice/SN205.jpg","76","","","","test","true","M + N","76","","SN","SN205.jpg","remember","old","3","1","start","right","","","",""
"html-keyboard-response","17","170316","0.0-2.0-2.0-0.3","s17m8vql4qbvgyh","practice_no_cue","5eefa9973c8aa108eca301dc","5f5a55364e9b770ed21874ff","5f60d6e709bc4d043a51d9a4","false","null","<span style=""color: black; font-size: 48px"">N + M</span>","null","","","","resp_prompt","","","","","","","","","","","","","","","",""
"categorize-image","18","171652","0.0-2.0-2.0-1.3","s17m8vql4qbvgyh","practice_no_cue","5eefa9973c8aa108eca301dc","5f5a55364e9b770ed21874ff","5f60d6e709bc4d043a51d9a4","true","833.3899999852292","./Stimuli/ImagesPractice/LM55.jpg","83","","","","test","false","N + M","76","","LM","LM55.jpg","forget","old","4","1","start","left","","","",""
"html-keyboard-response","19","172354","0.0-2.0-2.0-0.4","s17m8vql4qbvgyh","practice_no_cue","5eefa9973c8aa108eca301dc","5f5a55364e9b770ed21874ff","5f60d6e709bc4d043a51d9a4","false","null","<span style=""color: black; font-size: 48px"">N + M</span>","null","","","","resp_prompt","","","","","","","","","","","","","","","",""
"categorize-image","20","173678","0.0-2.0-2.0-1.4","s17m8vql4qbvgyh","practice_no_cue","5eefa9973c8aa108eca301dc","5f5a55364e9b770ed21874ff","5f60d6e709bc4d043a51d9a4","true","817.9249999811873","./Stimuli/ImagesPractice/SN75.jpg","76","","","","test","false","N + M","83","","SN","SN75.jpg","forget","old","5","1","start","right","","","",""
"html-keyboard-response","21","174380","0.0-2.0-2.0-0.5","s17m8vql4qbvgyh","practice_no_cue","5eefa9973c8aa108eca301dc","5f5a55364e9b770ed21874ff","5f60d6e709bc4d043a51d9a4","false","null","<span style=""color: black; font-size: 48px"">N + M</span>","null","","","","resp_prompt","","","","","","","","","","","","","","","",""
"categorize-image","22","176000","0.0-2.0-2.0-1.5","s17m8vql4qbvgyh","practice_no_cue","5eefa9973c8aa108eca301dc","5f5a55364e9b770ed21874ff","5f60d6e709bc4d043a51d9a4","true","1115.3599999961443","./Stimuli/ImagesPractice/SM98.jpg","83","","","","test","false","N + M","76","","SM","SM98.jpg","forget","old","6","1","start","left","","","",""
"html-keyboard-response","23","176702","0.0-2.0-2.0-0.6","s17m8vql4qbvgyh","practice_no_cue","5eefa9973c8aa108eca301dc","5f5a55364e9b770ed21874ff","5f60d6e709bc4d043a51d9a4","false","null","<span style=""color: black; font-size: 48px"">N + M</span>","null","","","","resp_prompt","","","","","","","","","","","","","","","",""
"categorize-image","24","178322","0.0-2.0-2.0-1.6","s17m8vql4qbvgyh","practice_no_cue","5eefa9973c8aa108eca301dc","5f5a55364e9b770ed21874ff","5f60d6e709bc4d043a51d9a4","true","1115.1150000223424","./Stimuli/ImagesPractice/SM97.jpg","83","","","","test","false","N + M","76","","SM","SM97.jpg","remember","old","7","1","start","left","","","",""
"html-keyboard-response","25","179024","0.0-2.0-2.0-0.7","s17m8vql4qbvgyh","practice_no_cue","5eefa9973c8aa108eca301dc","5f5a55364e9b770ed21874ff","5f60d6e709bc4d043a51d9a4","false","null","<span style=""color: black; font-size: 48px"">M + N</span>","null","","","","resp_prompt","","","","","","","","","","","","","","","",""
"categorize-image","26","180442","0.0-2.0-2.0-1.7","s17m8vql4qbvgyh","practice_no_cue","5eefa9973c8aa108eca301dc","5f5a55364e9b770ed21874ff","5f60d6e709bc4d043a51d9a4","true","911.1499999999069","./Stimuli/ImagesPractice/LM239.jpg","76","","","","test","false","M + N","83","","LM","LM239.jpg","remember","old","8","1","start","right","","","",""
"html-keyboard-response","27","181143","0.0-2.0-2.0-0.8","s17m8vql4qbvgyh","practice_no_cue","5eefa9973c8aa108eca301dc","5f5a55364e9b770ed21874ff","5f60d6e709bc4d043a51d9a4","false","null","<span style=""color: black; font-size: 48px"">N + M</span>","null","","","","resp_prompt","","","","","","","","","","","","","","","",""
"categorize-image","28","183651","0.0-2.0-2.0-1.8","s17m8vql4qbvgyh","practice_no_cue","5eefa9973c8aa108eca301dc","5f5a55364e9b770ed21874ff","5f60d6e709bc4d043a51d9a4","true","null","./Stimuli/ImagesPractice/LN72.jpg","null","","","","test","false","N + M","83","","LN","LN72.jpg","remember","old","9","1","start","too_slow","","","",""
"html-keyboard-response","29","184353","0.0-2.0-2.0-0.9","s17m8vql4qbvgyh","practice_no_cue","5eefa9973c8aa108eca301dc","5f5a55364e9b770ed21874ff","5f60d6e709bc4d043a51d9a4","false","null","<span style=""color: black; font-size: 48px"">M + N</span>","null","","","","resp_prompt","","","","","","","","","","","","","","","",""
"categorize-image","30","185834","0.0-2.0-2.0-1.9","s17m8vql4qbvgyh","practice_no_cue","5eefa9973c8aa108eca301dc","5f5a55364e9b770ed21874ff","5f60d6e709bc4d043a51d9a4","true","976.0999999998603","./Stimuli/ImagesPractice/LM143.jpg","83","","","","test","true","M + N","83","","LM","LM143.jpg","forget","old","10","1","start","left","","","",""
"html-keyboard-response","31","186535","0.0-2.0-2.0-0.10","s17m8vql4qbvgyh","practice_no_cue","5eefa9973c8aa108eca301dc","5f5a55364e9b770ed21874ff","5f60d6e709bc4d043a51d9a4","false","null","<span style=""color: black; font-size: 48px"">M + N</span>","null","","","","resp_prompt","","","","","","","","","","","","","","","",""
"categorize-image","32","188075","0.0-2.0-2.0-1.10","s17m8vql4qbvgyh","practice_no_cue","5eefa9973c8aa108eca301dc","5f5a55364e9b770ed21874ff","5f60d6e709bc4d043a51d9a4","true","1035.6399999873247","./Stimuli/ImagesPractice/LN109.jpg","76","","","","test","true","M + N","76","","LN","LN109.jpg","forget","old","11","1","start","right","","","",""
"html-keyboard-response","33","188777","0.0-2.0-2.0-0.11","s17m8vql4qbvgyh","practice_no_cue","5eefa9973c8aa108eca301dc","5f5a55364e9b770ed21874ff","5f60d6e709bc4d043a51d9a4","false","null","<span style=""color: black; font-size: 48px"">M + N</span>","null","","","","resp_prompt","","","","","","","","","","","","","","","",""
"categorize-image","34","190108","0.0-2.0-2.0-1.11","s17m8vql4qbvgyh","practice_no_cue","5eefa9973c8aa108eca301dc","5f5a55364e9b770ed21874ff","5f60d6e709bc4d043a51d9a4","true","829.3750000011642","./Stimuli/ImagesPractice/SN222.jpg","76","","","","test","true","M + N","76","","SN","SN222.jpg","forget","old","12","1","start","right","","","",""
"html-keyboard-response","35","190810","0.0-2.0-2.0-0.12","s17m8vql4qbvgyh","practice_no_cue","5eefa9973c8aa108eca301dc","5f5a55364e9b770ed21874ff","5f60d6e709bc4d043a51d9a4","false","null","<span style=""color: black; font-size: 48px"">M + N</span>","null","","","","resp_prompt","","","","","","","","","","","","","","","",""
"categorize-image","36","192235","0.0-2.0-2.0-1.12","s17m8vql4qbvgyh","practice_no_cue","5eefa9973c8aa108eca301dc","5f5a55364e9b770ed21874ff","5f60d6e709bc4d043a51d9a4","true","922.0149999891873","./Stimuli/ImagesPractice/SM62.jpg","83","","","","test","true","M + N","83","","SM","SM62.jpg","remember","old","13","1","start","left","","","",""
"html-keyboard-response","37","192939","0.0-2.0-2.0-0.13","s17m8vql4qbvgyh","practice_no_cue","5eefa9973c8aa108eca301dc","5f5a55364e9b770ed21874ff","5f60d6e709bc4d043a51d9a4","false","null","<span style=""color: black; font-size: 48px"">N + M</span>","null","","","","resp_prompt","","","","","","","","","","","","","","","",""
"categorize-image","38","194768","0.0-2.0-2.0-1.13","s17m8vql4qbvgyh","practice_no_cue","5eefa9973c8aa108eca301dc","5f5a55364e9b770ed21874ff","5f60d6e709bc4d043a51d9a4","true","1325.9450000186916","./Stimuli/ImagesPractice/SM35.jpg","76","","","","test","true","N + M","76","","SM","SM35.jpg","remember","old","14","1","start","right","","","",""
"html-keyboard-response","39","195472","0.0-2.0-2.0-0.14","s17m8vql4qbvgyh","practice_no_cue","5eefa9973c8aa108eca301dc","5f5a55364e9b770ed21874ff","5f60d6e709bc4d043a51d9a4","false","null","<span style=""color: black; font-size: 48px"">N + M</span>","null","","","","resp_prompt","","","","","","","","","","","","","","","",""
"categorize-image","40","196678","0.0-2.0-2.0-1.14","s17m8vql4qbvgyh","practice_no_cue","5eefa9973c8aa108eca301dc","5f5a55364e9b770ed21874ff","5f60d6e709bc4d043a51d9a4","true","704.8049999866635","./Stimuli/ImagesPractice/LN2.jpg","83","","","","test","true","N + M","83","","LN","LN2.jpg","remember","old","15","1","start","left","","","",""
"html-keyboard-response","41","197380","0.0-2.0-2.0-0.15","s17m8vql4qbvgyh","practice_no_cue","5eefa9973c8aa108eca301dc","5f5a55364e9b770ed21874ff","5f60d6e709bc4d043a51d9a4","false","null","<span style=""color: black; font-size: 48px"">N + M</span>","null","","","","resp_prompt","","","","","","","","","","","","","","","",""
"categorize-image","42","198831","0.0-2.0-2.0-1.15","s17m8vql4qbvgyh","practice_no_cue","5eefa9973c8aa108eca301dc","5f5a55364e9b770ed21874ff","5f60d6e709bc4d043a51d9a4","true","946.5750000090338","./Stimuli/ImagesPractice/LN4.jpg","83","","","","test","true","N + M","83","","LN","LN4.jpg","forget","old","16","1","start","left","","","",""
"html-keyboard-response","43","206030","0.0-2.0-3.0","s17m8vql4qbvgyh","break","5eefa9973c8aa108eca301dc","5f5a55364e9b770ed21874ff","5f60d6e709bc4d043a51d9a4","false","7196.190000016941","<p style='font-size: 32px;'>Break</><br><br><br><br><br><p style='font-size: 24px;'>In the last block, you committed 5 errors and did not respond in time on 1 trials.
</p><p style='font-size: 24px;'>Try to respond as fast and accurately as possible in the next block as well! </p><p style='font-size: 24px;'>Press SPACE to continue.</p>","32","","","","","","","","","","","","","","","","","","","",""
"html-keyboard-response","44","210015","0.0-2.0-4.0","s17m8vql4qbvgyh","instructions","5eefa9973c8aa108eca301dc","5f5a55364e9b770ed21874ff","5f60d6e709bc4d043a51d9a4","false","3984.614999993937","<div align=left> Great!<br><br>Are you ready to continue?<br><br>If you want to reread the instructions and redo the practice trials, <br>please press „Z“. <br><br>Press SPACE to CONTINUE with the experiment when you are ready. </div>","32","","","","","","","","","","","","","","","","","","","",""
"html-keyboard-response","45","224207","0.0-3.0-0.0","s17m8vql4qbvgyh","instructions","5eefa9973c8aa108eca301dc","5f5a55364e9b770ed21874ff","5f60d6e709bc4d043a51d9a4","false","14190.029999997932","<div align=left>Great!<br> <strong>Attention</strong>! You will now receive a second, additional task! <br><br>To this point it was you <strong>first task</strong> to correctly <strong>classify objects</strong>. <br><br>As mentioned in the beginning, we aim to examine how well humans can remember previously learned information.<br>We would like to find out whether our memory improves if we only remember information that is relevant to us. <br><br>Therefore, your <strong>second task</strong> will be to <strong>remember</strong> the pictures you are to categorize. <br> After the learning phase, there will be a memory test phase, in which you will be asked to indicate whether you have seen a picture before or not. <br>Some, but not all pictures shown in the learning phase will appear in the memory test phase.<br>After classifying a picture, you will be told whether you should remember it for the memory test phase or not. <br>Thus, some pictures can be forgotten, whereas others have to be remembered. <br><br>Note: From now on, feedback will only be displayed if you responded incorrectly or not in time.<br><br>Press SPACE to continue.</div>","32","","","","","","","","","","","","","","","","","","","",""
"html-keyboard-response","46","229943","0.0-3.0-1.0","s17m8vql4qbvgyh","instructions","5eefa9973c8aa108eca301dc","5f5a55364e9b770ed21874ff","5f60d6e709bc4d043a51d9a4","false","5734.284999984084","<div align=left>In the following part, you will thus have to remember only some pictures. <br>Immediately after seeing and classifying the picture, a symbol will be displayed, indicating whether you should remember or forget the previous picture. <br><br>A <span style='color: dodgerblue; font-size: 28px'>O</span> indicates REMEMBER. That means, you have to remember this picture, because it will be tested later. <br><br>A <span style='color: darkorange; font-size:28px'>Ø</span> indicates FORGET. You do not have to remember this picture. <br><br> As you will have to remember a lot of pictures, it will be hard for you to remember all of them. <br>It will put you at an advantage if you instantly forget the pictures you are not asked to remember. <br> This will make it easier for you to remember the pictures that will be tested afterwards. <br><br>Press SPACE to continue.</div>","32","","","","","","","","","","","","","","","","","","","",""
"html-keyboard-response","47","231392","0.0-3.0-2.0","s17m8vql4qbvgyh","instructions","5eefa9973c8aa108eca301dc","5f5a55364e9b770ed21874ff","5f60d6e709bc4d043a51d9a4","false","1448.1050000176765","<div align=left> Now you have the chance to practice both tasks together.<br><br>Remember: <br> <br><li>Please place your index fingers on the <strong>'S'</strong> and <strong>'L'</strong> keys <br>to respond as fast and accurately as possible.</li><li>Every picture can be classified as either mechanical or non-mechanical.</li><li>If you do not respond in time or commit an error, you will receive a corresponding feedback. <br>Please try to respond as <strong> fast </strong> and as <strong> accurately as possible </strong>.</li><li> Please remember only the to-be-remembered <span style='color: dodgerblue; font-size: 28px'>O</span> pictures. <br></li><li> Please minimize distractions and stay focused. </li><br><br>Press SPACE to START</div>","32","","","","","","","","","","","","","","","","","","","",""
"html-keyboard-response","48","232094","0.0-3.0-3.0-0.0","s17m8vql4qbvgyh","practice_cue","5eefa9973c8aa108eca301dc","5f5a55364e9b770ed21874ff","5f60d6e709bc4d043a51d9a4","false","null","<span style=""color: black; font-size: 48px"">N + M</span>","null","","","","resp_prompt","","","","","","","","","","","","","","","",""
"categorize-image","49","233202","0.0-3.0-3.0-1.0","s17m8vql4qbvgyh","practice_cue","5eefa9973c8aa108eca301dc","5f5a55364e9b770ed21874ff","5f60d6e709bc4d043a51d9a4","true","1103.8949999783654","./Stimuli/ImagesPractice/LN2.jpg","76","","","","test","false","N + M","83","","LN","LN2.jpg","remember","old","17","2","practice_forget","right","","","",""
"html-keyboard-response","50","233704","0.0-3.0-3.0-2.0-0.0","s17m8vql4qbvgyh","practice_cue","5eefa9973c8aa108eca301dc","5f5a55364e9b770ed21874ff","5f60d6e709bc4d043a51d9a4","false","null","<span style=""color: red; font-size: 48px"">Error!</span>","null","","","","feedback","","","","","","","","","","","","","","","",""
"html-keyboard-response","51","235705","0.0-3.0-3.0-3.0","s17m8vql4qbvgyh","practice_cue","5eefa9973c8aa108eca301dc","5f5a55364e9b770ed21874ff","5f60d6e709bc4d043a51d9a4","false","null","<div style=""align-items: center; display: flex; color: dodgerblue; font-size: 90px""><b>o</b></div>","null","","","","forget_cue","","","","","","","","","","","","","","","",""
"html-keyboard-response","52","236407","0.0-3.0-3.0-0.1","s17m8vql4qbvgyh","practice_cue","5eefa9973c8aa108eca301dc","5f5a55364e9b770ed21874ff","5f60d6e709bc4d043a51d9a4","false","null","<span style=""color: black; font-size: 48px"">M + N</span>","null","","","","resp_prompt","","","","","","","","","","","","","","","",""
"categorize-image","53","237464","0.0-3.0-3.0-1.1","s17m8vql4qbvgyh","practice_cue","5eefa9973c8aa108eca301dc","5f5a55364e9b770ed21874ff","5f60d6e709bc4d043a51d9a4","true","1052.7799999981653","./Stimuli/ImagesPractice/LN15.jpg","76","","","","test","true","M + N","76","","LN","LN15.jpg","forget","old","18","2","practice_forget","right","","","",""
"html-keyboard-response","54","239467","0.0-3.0-3.0-3.1","s17m8vql4qbvgyh","practice_cue","5eefa9973c8aa108eca301dc","5f5a55364e9b770ed21874ff","5f60d6e709bc4d043a51d9a4","false","null","<div style=""align-items: center; display: flex; color: darkorange; font-size: 90px""><b>ø</b></div>","null","","","","forget_cue","","","","","","","","","","","","","","","",""
"html-keyboard-response","55","240169","0.0-3.0-3.0-0.2","s17m8vql4qbvgyh","practice_cue","5eefa9973c8aa108eca301dc","5f5a55364e9b770ed21874ff","5f60d6e709bc4d043a51d9a4","false","null","<span style=""color: black; font-size: 48px"">M + N</span>","null","","","","resp_prompt","","","","","","","","","","","","","","","",""
"categorize-image","56","241106","0.0-3.0-3.0-1.2","s17m8vql4qbvgyh","practice_cue","5eefa9973c8aa108eca301dc","5f5a55364e9b770ed21874ff","5f60d6e709bc4d043a51d9a4","true","933.9800000016112","./Stimuli/ImagesPractice/SN222.jpg","76","","","","test","true","M + N","76","","SN","SN222.jpg","forget","old","19","2","practice_forget","right","","","",""
"html-keyboard-response","57","243112","0.0-3.0-3.0-3.2","s17m8vql4qbvgyh","practice_cue","5eefa9973c8aa108eca301dc","5f5a55364e9b770ed21874ff","5f60d6e709bc4d043a51d9a4","false","null","<div style=""align-items: center; display: flex; color: darkorange; font-size: 90px""><b>ø</b></div>","null","","","","forget_cue","","","","","","","","","","","","","","","",""
"html-keyboard-response","58","243815","0.0-3.0-3.0-0.3","s17m8vql4qbvgyh","practice_cue","5eefa9973c8aa108eca301dc","5f5a55364e9b770ed21874ff","5f60d6e709bc4d043a51d9a4","false","null","<span style=""color: black; font-size: 48px"">N + M</span>","null","","","","resp_prompt","","","","","","","","","","","","","","","",""
"categorize-image","59","244682","0.0-3.0-3.0-1.3","s17m8vql4qbvgyh","practice_cue","5eefa9973c8aa108eca301dc","5f5a55364e9b770ed21874ff","5f60d6e709bc4d043a51d9a4","true","862.9950000031386","./Stimuli/ImagesPractice/SM98.jpg","76","","","","test","true","N + M","76","","SM","SM98.jpg","forget","old","20","2","practice_forget","right","","","",""
"html-keyboard-response","60","246682","0.0-3.0-3.0-3.3","s17m8vql4qbvgyh","practice_cue","5eefa9973c8aa108eca301dc","5f5a55364e9b770ed21874ff","5f60d6e709bc4d043a51d9a4","false","null","<div style=""align-items: center; display: flex; color: darkorange; font-size: 90px""><b>ø</b></div>","null","","","","forget_cue","","","","","","","","","","","","","","","",""
"html-keyboard-response","61","247385","0.0-3.0-3.0-0.4","s17m8vql4qbvgyh","practice_cue","5eefa9973c8aa108eca301dc","5f5a55364e9b770ed21874ff","5f60d6e709bc4d043a51d9a4","false","null","<span style=""color: black; font-size: 48px"">N + M</span>","null","","","","resp_prompt","","","","","","","","","","","","","","","",""
"categorize-image","62","248260","0.0-3.0-3.0-1.4","s17m8vql4qbvgyh","practice_cue","5eefa9973c8aa108eca301dc","5f5a55364e9b770ed21874ff","5f60d6e709bc4d043a51d9a4","true","872.0700000121724","./Stimuli/ImagesPractice/LN72.jpg","83","","","","test","true","N + M","83","","LN","LN72.jpg","remember","old","21","2","practice_forget","left","","","",""
"html-keyboard-response","63","250264","0.0-3.0-3.0-3.4","s17m8vql4qbvgyh","practice_cue","5eefa9973c8aa108eca301dc","5f5a55364e9b770ed21874ff","5f60d6e709bc4d043a51d9a4","false","null","<div style=""align-items: center; display: flex; color: dodgerblue; font-size: 90px""><b>o</b></div>","null","","","","forget_cue","","","","","","","","","","","","","","","",""
"html-keyboard-response","64","250968","0.0-3.0-3.0-0.5","s17m8vql4qbvgyh","practice_cue","5eefa9973c8aa108eca301dc","5f5a55364e9b770ed21874ff","5f60d6e709bc4d043a51d9a4","false","null","<span style=""color: black; font-size: 48px"">N + M</span>","null","","","","resp_prompt","","","","","","","","","","","","","","","",""
"categorize-image","65","252401","0.0-3.0-3.0-1.5","s17m8vql4qbvgyh","practice_cue","5eefa9973c8aa108eca301dc","5f5a55364e9b770ed21874ff","5f60d6e709bc4d043a51d9a4","true","1429.4449999870267","./Stimuli/ImagesPractice/SM97.jpg","76","","","","test","true","N + M","76","","SM","SM97.jpg","remember","old","22","2","practice_forget","right","","","",""
"html-keyboard-response","66","254406","0.0-3.0-3.0-3.5","s17m8vql4qbvgyh","practice_cue","5eefa9973c8aa108eca301dc","5f5a55364e9b770ed21874ff","5f60d6e709bc4d043a51d9a4","false","null","<div style=""align-items: center; display: flex; color: dodgerblue; font-size: 90px""><b>o</b></div>","null","","","","forget_cue","","","","","","","","","","","","","","","",""
"html-keyboard-response","67","255111","0.0-3.0-3.0-0.6","s17m8vql4qbvgyh","practice_cue","5eefa9973c8aa108eca301dc","5f5a55364e9b770ed21874ff","5f60d6e709bc4d043a51d9a4","false","null","<span style=""color: black; font-size: 48px"">N + M</span>","null","","","","resp_prompt","","","","","","","","","","","","","","","",""
"categorize-image","68","256354","0.0-3.0-3.0-1.6","s17m8vql4qbvgyh","practice_cue","5eefa9973c8aa108eca301dc","5f5a55364e9b770ed21874ff","5f60d6e709bc4d043a51d9a4","true","1238.695000007283","./Stimuli/ImagesPractice/LM55.jpg","76","","","","test","true","N + M","76","","LM","LM55.jpg","forget","old","23","2","practice_forget","right","","","",""
"html-keyboard-response","69","258357","0.0-3.0-3.0-3.6","s17m8vql4qbvgyh","practice_cue","5eefa9973c8aa108eca301dc","5f5a55364e9b770ed21874ff","5f60d6e709bc4d043a51d9a4","false","null","<div style=""align-items: center; display: flex; color: darkorange; font-size: 90px""><b>ø</b></div>","null","","","","forget_cue","","","","","","","","","","","","","","","",""
"html-keyboard-response","70","259060","0.0-3.0-3.0-0.7","s17m8vql4qbvgyh","practice_cue","5eefa9973c8aa108eca301dc","5f5a55364e9b770ed21874ff","5f60d6e709bc4d043a51d9a4","false","null","<span style=""color: black; font-size: 48px"">M + N</span>","null","","","","resp_prompt","","","","","","","","","","","","","","","",""
"categorize-image","71","260298","0.0-3.0-3.0-1.7","s17m8vql4qbvgyh","practice_cue","5eefa9973c8aa108eca301dc","5f5a55364e9b770ed21874ff","5f60d6e709bc4d043a51d9a4","true","1234.485000022687","./Stimuli/ImagesPractice/SM62.jpg","83","","","","test","true","M + N","83","","SM","SM62.jpg","remember","old","24","2","practice_forget","left","","","",""
"html-keyboard-response","72","262304","0.0-3.0-3.0-3.7","s17m8vql4qbvgyh","practice_cue","5eefa9973c8aa108eca301dc","5f5a55364e9b770ed21874ff","5f60d6e709bc4d043a51d9a4","false","null","<div style=""align-items: center; display: flex; color: dodgerblue; font-size: 90px""><b>o</b></div>","null","","","","forget_cue","","","","","","","","","","","","","","","",""
"html-keyboard-response","73","263008","0.0-3.0-3.0-0.8","s17m8vql4qbvgyh","practice_cue","5eefa9973c8aa108eca301dc","5f5a55364e9b770ed21874ff","5f60d6e709bc4d043a51d9a4","false","null","<span style=""color: black; font-size: 48px"">N + M</span>","null","","","","resp_prompt","","","","","","","","","","","","","","","",""
"categorize-image","74","264249","0.0-3.0-3.0-1.8","s17m8vql4qbvgyh","practice_cue","5eefa9973c8aa108eca301dc","5f5a55364e9b770ed21874ff","5f60d6e709bc4d043a51d9a4","true","1238.1350000214297","./Stimuli/ImagesPractice/LN4.jpg","83","","","","test","true","N + M","83","","LN","LN4.jpg","forget","old","25","2","practice_forget","left","","","",""
"html-keyboard-response","75","266255","0.0-3.0-3.0-3.8","s17m8vql4qbvgyh","practice_cue","5eefa9973c8aa108eca301dc","5f5a55364e9b770ed21874ff","5f60d6e709bc4d043a51d9a4","false","null","<div style=""align-items: center; display: flex; color: darkorange; font-size: 90px""><b>ø</b></div>","null","","","","forget_cue","","","","","","","","","","","","","","","",""
"html-keyboard-response","76","266960","0.0-3.0-3.0-0.9","s17m8vql4qbvgyh","practice_cue","5eefa9973c8aa108eca301dc","5f5a55364e9b770ed21874ff","5f60d6e709bc4d043a51d9a4","false","null","<span style=""color: black; font-size: 48px"">M + N</span>","null","","","","resp_prompt","","","","","","","","","","","","","","","",""
"categorize-image","77","268068","0.0-3.0-3.0-1.9","s17m8vql4qbvgyh","practice_cue","5eefa9973c8aa108eca301dc","5f5a55364e9b770ed21874ff","5f60d6e709bc4d043a51d9a4","true","1104.3099999951664","./Stimuli/ImagesPractice/SN221.jpg","76","","","","test","true","M + N","76","","SN","SN221.jpg","remember","old","26","2","practice_forget","right","","","",""
"html-keyboard-response","78","270076","0.0-3.0-3.0-3.9","s17m8vql4qbvgyh","practice_cue","5eefa9973c8aa108eca301dc","5f5a55364e9b770ed21874ff","5f60d6e709bc4d043a51d9a4","false","null","<div style=""align-items: center; display: flex; color: dodgerblue; font-size: 90px""><b>o</b></div>","null","","","","forget_cue","","","","","","","","","","","","","","","",""
"html-keyboard-response","79","270779","0.0-3.0-3.0-0.10","s17m8vql4qbvgyh","practice_cue","5eefa9973c8aa108eca301dc","5f5a55364e9b770ed21874ff","5f60d6e709bc4d043a51d9a4","false","null","<span style=""color: black; font-size: 48px"">M + N</span>","null","","","","resp_prompt","","","","","","","","","","","","","","","",""
"categorize-image","80","271604","0.0-3.0-3.0-1.10","s17m8vql4qbvgyh","practice_cue","5eefa9973c8aa108eca301dc","5f5a55364e9b770ed21874ff","5f60d6e709bc4d043a51d9a4","true","821.044999989681","./Stimuli/ImagesPractice/SN205.jpg","76","","","","test","true","M + N","76","","SN","SN205.jpg","remember","old","27","2","practice_forget","right","","","",""
"html-keyboard-response","81","273607","0.0-3.0-3.0-3.10","s17m8vql4qbvgyh","practice_cue","5eefa9973c8aa108eca301dc","5f5a55364e9b770ed21874ff","5f60d6e709bc4d043a51d9a4","false","null","<div style=""align-items: center; display: flex; color: dodgerblue; font-size: 90px""><b>o</b></div>","null","","","","forget_cue","","","","","","","","","","","","","","","",""
"html-keyboard-response","82","274309","0.0-3.0-3.0-0.11","s17m8vql4qbvgyh","practice_cue","5eefa9973c8aa108eca301dc","5f5a55364e9b770ed21874ff","5f60d6e709bc4d043a51d9a4","false","null","<span style=""color: black; font-size: 48px"">M + N</span>","null","","","","resp_prompt","","","","","","","","","","","","","","","",""
"categorize-image","83","275097","0.0-3.0-3.0-1.11","s17m8vql4qbvgyh","practice_cue","5eefa9973c8aa108eca301dc","5f5a55364e9b770ed21874ff","5f60d6e709bc4d043a51d9a4","true","784.6500000159722","./Stimuli/ImagesPractice/LN109.jpg","76","","","","test","true","M + N","76","","LN","LN109.jpg","forget","old","28","2","practice_forget","right","","","",""
"html-keyboard-response","84","277101","0.0-3.0-3.0-3.11","s17m8vql4qbvgyh","practice_cue","5eefa9973c8aa108eca301dc","5f5a55364e9b770ed21874ff","5f60d6e709bc4d043a51d9a4","false","null","<div style=""align-items: center; display: flex; color: darkorange; font-size: 90px""><b>ø</b></div>","null","","","","forget_cue","","","","","","","","","","","","","","","",""
"html-keyboard-response","85","277804","0.0-3.0-3.0-0.12","s17m8vql4qbvgyh","practice_cue","5eefa9973c8aa108eca301dc","5f5a55364e9b770ed21874ff","5f60d6e709bc4d043a51d9a4","false","null","<span style=""color: black; font-size: 48px"">N + M</span>","null","","","","resp_prompt","","","","","","","","","","","","","","","",""
"categorize-image","86","278600","0.0-3.0-3.0-1.12","s17m8vql4qbvgyh","practice_cue","5eefa9973c8aa108eca301dc","5f5a55364e9b770ed21874ff","5f60d6e709bc4d043a51d9a4","true","793.8300000096206","./Stimuli/ImagesPractice/SM35.jpg","76","","","","test","true","N + M","76","","SM","SM35.jpg","remember","old","29","2","practice_forget","right","","","",""
"html-keyboard-response","87","280607","0.0-3.0-3.0-3.12","s17m8vql4qbvgyh","practice_cue","5eefa9973c8aa108eca301dc","5f5a55364e9b770ed21874ff","5f60d6e709bc4d043a51d9a4","false","null","<div style=""align-items: center; display: flex; color: dodgerblue; font-size: 90px""><b>o</b></div>","null","","","","forget_cue","","","","","","","","","","","","","","","",""
"html-keyboard-response","88","281310","0.0-3.0-3.0-0.13","s17m8vql4qbvgyh","practice_cue","5eefa9973c8aa108eca301dc","5f5a55364e9b770ed21874ff","5f60d6e709bc4d043a51d9a4","false","null","<span style=""color: black; font-size: 48px"">N + M</span>","null","","","","resp_prompt","","","","","","","","","","","","","","","",""
"categorize-image","89","282110","0.0-3.0-3.0-1.13","s17m8vql4qbvgyh","practice_cue","5eefa9973c8aa108eca301dc","5f5a55364e9b770ed21874ff","5f60d6e709bc4d043a51d9a4","true","796.8450000043958","./Stimuli/ImagesPractice/SN75.jpg","83","","","","test","true","N + M","83","","SN","SN75.jpg","forget","old","30","2","practice_forget","left","","","",""
"html-keyboard-response","90","284114","0.0-3.0-3.0-3.13","s17m8vql4qbvgyh","practice_cue","5eefa9973c8aa108eca301dc","5f5a55364e9b770ed21874ff","5f60d6e709bc4d043a51d9a4","false","null","<div style=""align-items: center; display: flex; color: darkorange; font-size: 90px""><b>ø</b></div>","null","","","","forget_cue","","","","","","","","","","","","","","","",""
"html-keyboard-response","91","284816","0.0-3.0-3.0-0.14","s17m8vql4qbvgyh","practice_cue","5eefa9973c8aa108eca301dc","5f5a55364e9b770ed21874ff","5f60d6e709bc4d043a51d9a4","false","null","<span style=""color: black; font-size: 48px"">M + N</span>","null","","","","resp_prompt","","","","","","","","","","","","","","","",""
"categorize-image","92","286184","0.0-3.0-3.0-1.14","s17m8vql4qbvgyh","practice_cue","5eefa9973c8aa108eca301dc","5f5a55364e9b770ed21874ff","5f60d6e709bc4d043a51d9a4","true","1364.6349999762606","./Stimuli/ImagesPractice/LM143.jpg","76","","","","test","false","M + N","83","","LM","LM143.jpg","forget","old","31","2","practice_forget","right","","","",""
"html-keyboard-response","93","286688","0.0-3.0-3.0-2.14-0.14","s17m8vql4qbvgyh","practice_cue","5eefa9973c8aa108eca301dc","5f5a55364e9b770ed21874ff","5f60d6e709bc4d043a51d9a4","false","null","<span style=""color: red; font-size: 48px"">Error!</span>","null","","","","feedback","","","","","","","","","","","","","","","",""
"html-keyboard-response","94","288694","0.0-3.0-3.0-3.14","s17m8vql4qbvgyh","practice_cue","5eefa9973c8aa108eca301dc","5f5a55364e9b770ed21874ff","5f60d6e709bc4d043a51d9a4","false","null","<div style=""align-items: center; display: flex; color: darkorange; font-size: 90px""><b>ø</b></div>","null","","","","forget_cue","","","","","","","","","","","","","","","",""
"html-keyboard-response","95","289397","0.0-3.0-3.0-0.15","s17m8vql4qbvgyh","practice_cue","5eefa9973c8aa108eca301dc","5f5a55364e9b770ed21874ff","5f60d6e709bc4d043a51d9a4","false","null","<span style=""color: black; font-size: 48px"">M + N</span>","null","","","","resp_prompt","","","","","","","","","","","","","","","",""
"categorize-image","96","290630","0.0-3.0-3.0-1.15","s17m8vql4qbvgyh","practice_cue","5eefa9973c8aa108eca301dc","5f5a55364e9b770ed21874ff","5f60d6e709bc4d043a51d9a4","true","1229.6150000183843","./Stimuli/ImagesPractice/LM239.jpg","76","","","","test","false","M + N","83","","LM","LM239.jpg","remember","old","32","2","practice_forget","right","","","",""
"html-keyboard-response","97","291131","0.0-3.0-3.0-2.15-0.15","s17m8vql4qbvgyh","practice_cue","5eefa9973c8aa108eca301dc","5f5a55364e9b770ed21874ff","5f60d6e709bc4d043a51d9a4","false","null","<span style=""color: red; font-size: 48px"">Error!</span>","null","","","","feedback","","","","","","","","","","","","","","","",""
"html-keyboard-response","98","293135","0.0-3.0-3.0-3.15","s17m8vql4qbvgyh","practice_cue","5eefa9973c8aa108eca301dc","5f5a55364e9b770ed21874ff","5f60d6e709bc4d043a51d9a4","false","null","<div style=""align-items: center; display: flex; color: dodgerblue; font-size: 90px""><b>o</b></div>","null","","","","forget_cue","","","","","","","","","","","","","","","",""
"html-keyboard-response","99","296864","0.0-3.0-4.0","s17m8vql4qbvgyh","break","5eefa9973c8aa108eca301dc","5f5a55364e9b770ed21874ff","5f60d6e709bc4d043a51d9a4","false","3727.6100000017323","<p style='font-size: 32px;'>Break</><br><br><br><br><br><p style='font-size: 24px;'>In the last block, you committed 3 errors and did not respond in time on 0 trials.
</p><p style='font-size: 24px;'>Try to respond as fast and accurately as possible in the next block as well! </p><p style='font-size: 24px;'>Press SPACE to continue.</p>","32","","","","","","","","","","","","","","","","","","","",""
"html-keyboard-response","100","302545","0.0-3.0-5.0","s17m8vql4qbvgyh","instructions","5eefa9973c8aa108eca301dc","5f5a55364e9b770ed21874ff","5f60d6e709bc4d043a51d9a4","false","5679.5100000163075","<div align=left> Now, to practice, we kindly ask you to remember as many of the to-be-remembered pictures<br>of the previous learning phase as possible.<br><br>The pictures you were instructed to remember were the pictures followed by a <span style='color: dodgerblue; font-size: 28px'>O</span>.<br><br>In this memory test phase, you will also see some new pictures.<br>It is your task to remember whether you were presented with this specific picture in this study so far or not.<br>If you recognize an object (you have already seen it in this study), it is an OLD object. <br>If you do not recognize an object (you have NOT seen it in this study), it is a NEW object. <br><strong> Attention</strong>: As already mentioned, <span style='color: darkorange; font-size:28px'>Ø</span>-pictures will <strong>never</strong> appear in this memory test (neither as new objects). <br><br>Press SPACE to continue. </div>","32","","","","","","","","","","","","","","","","","","","",""
"html-keyboard-response","101","317900","0.0-3.0-6.0","s17m8vql4qbvgyh","instructions","5eefa9973c8aa108eca301dc","5f5a55364e9b770ed21874ff","5f60d6e709bc4d043a51d9a4","false","15353.34500001045","<div align=left> M and N no longer will appear on the left/right of the fixation cross. <br>Instead there will be a note at the bottom of the left or right side  <br>indicating which key you should press for an old or new object:  <br> <br>Press the <strong>right</strong> key to classify an object as <strong>old</strong> and press the <strong>left</strong>, to classify an object as <strong>new</strong>.<br>Please classify the objects as new/old by again placing your index finger on the 'S' and 'L' keys <br>and press them accordingly.<br><br><strong>Old:</strong> This object has been presented before. <br><strong>New:</strong> This object has <strong>not</strong> been presented.<br><br>Now please put your right and left index fingers on the 'S' and 'L' keys of your keyboard. <br>Please respond as fast and as accurately as possible!<br><br>Press SPACE to continue. </div>","32","","","","","","","","","","","","","","","","","","","",""
"categorize-image","102","320204","0.0-3.0-7.0-0.0","s17m8vql4qbvgyh","practice_recog","5eefa9973c8aa108eca301dc","5f5a55364e9b770ed21874ff","5f60d6e709bc4d043a51d9a4","true","1799.910000001546","./Stimuli/ImagesPractice/LM224.jpg","76","","","","test","true","","76","","LM","LM224.jpg","","new","33","3","practice_recog","right","","","",""
"categorize-image","103","321807","0.0-3.0-7.0-0.1","s17m8vql4qbvgyh","practice_recog","5eefa9973c8aa108eca301dc","5f5a55364e9b770ed21874ff","5f60d6e709bc4d043a51d9a4","true","1096.765000023879","./Stimuli/ImagesPractice/SN220.jpg","76","","","","test","true","","76","","SN","SN220.jpg","","new","34","3","practice_recog","right","","","",""
"categorize-image","104","323490","0.0-3.0-7.0-0.2","s17m8vql4qbvgyh","practice_recog","5eefa9973c8aa108eca301dc","5f5a55364e9b770ed21874ff","5f60d6e709bc4d043a51d9a4","true","1180.2900000184309","./Stimuli/ImagesPractice/SN205.jpg","83","","","","test","true","","83","","SN","SN205.jpg","","old","35","3","practice_recog","left","","","",""
"categorize-image","105","325075","0.0-3.0-7.0-0.3","s17m8vql4qbvgyh","practice_recog","5eefa9973c8aa108eca301dc","5f5a55364e9b770ed21874ff","5f60d6e709bc4d043a51d9a4","true","1081.14499997464","./Stimuli/ImagesPractice/SN76.jpg","76","","","","test","true","","76","","SN","SN76.jpg","","new","36","3","practice_recog","right","","","",""
"categorize-image","106","328021","0.0-3.0-7.0-0.4","s17m8vql4qbvgyh","practice_recog","5eefa9973c8aa108eca301dc","5f5a55364e9b770ed21874ff","5f60d6e709bc4d043a51d9a4","true","2439.7299999836832","./Stimuli/ImagesPractice/LM239.jpg","83","","","","test","true","","83","","LM","LM239.jpg","","old","37","3","practice_recog","left","","","",""
"categorize-image","107","330195","0.0-3.0-7.0-0.5","s17m8vql4qbvgyh","practice_recog","5eefa9973c8aa108eca301dc","5f5a55364e9b770ed21874ff","5f60d6e709bc4d043a51d9a4","true","1666.9249999977183","./Stimuli/ImagesPractice/LM230.jpg","76","","","","test","true","","76","","LM","LM230.jpg","","new","38","3","practice_recog","right","","","",""
"categorize-image","108","332215","0.0-3.0-7.0-0.6","s17m8vql4qbvgyh","practice_recog","5eefa9973c8aa108eca301dc","5f5a55364e9b770ed21874ff","5f60d6e709bc4d043a51d9a4","true","1517.679999989923","./Stimuli/ImagesPractice/LM147.jpg","76","","","","test","true","","76","","LM","LM147.jpg","","new","39","3","practice_recog","right","","","",""
"categorize-image","109","334160","0.0-3.0-7.0-0.7","s17m8vql4qbvgyh","practice_recog","5eefa9973c8aa108eca301dc","5f5a55364e9b770ed21874ff","5f60d6e709bc4d043a51d9a4","true","1441.5100000042003","./Stimuli/ImagesPractice/SM37.jpg","76","","","","test","true","","76","","SM","SM37.jpg","","new","40","3","practice_recog","right","","","",""
"categorize-image","110","335461","0.0-3.0-7.0-0.8","s17m8vql4qbvgyh","practice_recog","5eefa9973c8aa108eca301dc","5f5a55364e9b770ed21874ff","5f60d6e709bc4d043a51d9a4","true","794.3950000044424","./Stimuli/ImagesPractice/SM62.jpg","83","","","","test","true","","83","","SM","SM62.jpg","","old","41","3","practice_recog","left","","","",""
"categorize-image","111","337346","0.0-3.0-7.0-0.9","s17m8vql4qbvgyh","practice_recog","5eefa9973c8aa108eca301dc","5f5a55364e9b770ed21874ff","5f60d6e709bc4d043a51d9a4","true","1380.1500000117812","./Stimuli/ImagesPractice/SM61.jpg","76","","","","test","true","","76","","SM","SM61.jpg","","new","42","3","practice_recog","right","","","",""
"categorize-image","112","339211","0.0-3.0-7.0-0.10","s17m8vql4qbvgyh","practice_recog","5eefa9973c8aa108eca301dc","5f5a55364e9b770ed21874ff","5f60d6e709bc4d043a51d9a4","true","1361.8849999911617","./Stimuli/ImagesPractice/LN72.jpg","83","","","","test","true","","83","","LN","LN72.jpg","","old","43","3","practice_recog","left","","","",""
"categorize-image","113","340754","0.0-3.0-7.0-0.11","s17m8vql4qbvgyh","practice_recog","5eefa9973c8aa108eca301dc","5f5a55364e9b770ed21874ff","5f60d6e709bc4d043a51d9a4","true","1039.954999985639","./Stimuli/ImagesPractice/SM35.jpg","83","","","","test","true","","83","","SM","SM35.jpg","","old","44","3","practice_recog","left","","","",""
"categorize-image","114","342136","0.0-3.0-7.0-0.12","s17m8vql4qbvgyh","practice_recog","5eefa9973c8aa108eca301dc","5f5a55364e9b770ed21874ff","5f60d6e709bc4d043a51d9a4","true","874.8699999996461","./Stimuli/ImagesPractice/LN2.jpg","83","","","","test","true","","83","","LN","LN2.jpg","","old","45","3","practice_recog","left","","","",""
"categorize-image","115","343477","0.0-3.0-7.0-0.13","s17m8vql4qbvgyh","practice_recog","5eefa9973c8aa108eca301dc","5f5a55364e9b770ed21874ff","5f60d6e709bc4d043a51d9a4","true","837.5149999919813","./Stimuli/ImagesPractice/LN17.jpg","76","","","","test","true","","76","","LN","LN17.jpg","","new","46","3","practice_recog","right","","","",""
"categorize-image","116","345021","0.0-3.0-7.0-0.14","s17m8vql4qbvgyh","practice_recog","5eefa9973c8aa108eca301dc","5f5a55364e9b770ed21874ff","5f60d6e709bc4d043a51d9a4","true","1039.5299999800045","./Stimuli/ImagesPractice/SM97.jpg","83","","","","test","true","","83","","SM","SM97.jpg","","old","47","3","practice_recog","left","","","",""
"categorize-image","117","346908","0.0-3.0-7.0-0.15","s17m8vql4qbvgyh","practice_recog","5eefa9973c8aa108eca301dc","5f5a55364e9b770ed21874ff","5f60d6e709bc4d043a51d9a4","true","1382.9850000038277","./Stimuli/ImagesPractice/SN221.jpg","83","","","","test","true","","83","","SN","SN221.jpg","","old","48","3","practice_recog","left","","","",""
"html-keyboard-response","118","350626","0.0-3.0-8.0","s17m8vql4qbvgyh","instructions","5eefa9973c8aa108eca301dc","5f5a55364e9b770ed21874ff","5f60d6e709bc4d043a51d9a4","false","3716.5200000163168","<div align=left> Great!<br><br>Are you ready to continue?<br>If you want to reread the instructions and redo the practice trials, please <br>press „Z“.<br><br>You can proceed when you are ready.<br><br>After the presentation of each object, you will receive an instruction whether to <br>remember or to forget the object.<br>We will test your memory of the following pictures only at the very end of <br>the experiment after all learning blocks are completed. <br><br>Press SPACE to CONTINUE when you are ready. </div>","32","","","","","","","","","","","","","","","","","","","",""
"html-keyboard-response","119","357820","0.0-4.0-0.0","s17m8vql4qbvgyh","instructions","5eefa9973c8aa108eca301dc","5f5a55364e9b770ed21874ff","5f60d6e709bc4d043a51d9a4","false","7192.430000024615","<div align=left> The actual experiment is about to start.<br>The practice trials are over!<br><br>Please always respond both fast and accurately!<br><br>Remember: <br> <br><li> Please place your index fingers on the <strong>'S'</strong> and <strong>'L'</strong> keys <br>to respond as fast and accurately as possible.</li><li> Every picture can be classified as either mechanical or non-mechanical.</li><li> If you do not respond in time or commit an error, you will receive a corresponding feedback.<br> Please try to respond as <strong> fast </strong> and as <strong> accurately as possible </strong>.</li><li> Remember the <span style='color: dodgerblue; font-size: 28px'>O</span> pictures. <br></li><li> Please minimize distractions and stay focused. </li><br><br>Press SPACE to START.</div>","32","","","","","","","","","","","","","","","","","","","",""
"html-keyboard-response","120","358524","0.0-4.0-1.0-0.0","s17m8vql4qbvgyh","prime","5eefa9973c8aa108eca301dc","5f5a55364e9b770ed21874ff","5f60d6e709bc4d043a51d9a4","false","null","<span style=""color: black; font-size: 48px"">M + N</span>","null","","","","resp_prompt","","","","","","","","","","","","","","","",""
"categorize-image","121","360157","0.0-4.0-1.0-1.0","s17m8vql4qbvgyh","prime","5eefa9973c8aa108eca301dc","5f5a55364e9b770ed21874ff","5f60d6e709bc4d043a51d9a4","true","1630.4499999969266","./Stimuli/SelectedImages/SM/SM184.bmp","83","","","","test","true","M + N","83","switch","SM","SM184.bmp","remember","","49","3","prime1","left","","","",""
"html-keyboard-response","122","362163","0.0-4.0-1.0-3.0","s17m8vql4qbvgyh","prime","5eefa9973c8aa108eca301dc","5f5a55364e9b770ed21874ff","5f60d6e709bc4d043a51d9a4","false","null","<div style=""align-items: center; display: flex; color: dodgerblue; font-size: 90px""><b>o</b></div>","null","","","","forget_cue","","","","","","","","","","","","","","","",""
"html-keyboard-response","123","362864","0.0-4.0-1.0-0.1","s17m8vql4qbvgyh","prime","5eefa9973c8aa108eca301dc","5f5a55364e9b770ed21874ff","5f60d6e709bc4d043a51d9a4","false","null","<span style=""color: black; font-size: 48px"">N + M</span>","null","","","","resp_prompt","","","","","","","","","","","","","","","",""
"categorize-image","124","363850","0.0-4.0-1.0-1.1","s17m8vql4qbvgyh","prime","5eefa9973c8aa108eca301dc","5f5a55364e9b770ed21874ff","5f60d6e709bc4d043a51d9a4","true","983.2049999968149","./Stimuli/SelectedImages/LM/LM51.bmp","76","","","","test","true","N + M","76","repetition","LM","LM51.bmp","remember","","50","3","prime1","right","","","",""
"html-keyboard-response","125","365856","0.0-4.0-1.0-3.1","s17m8vql4qbvgyh","prime","5eefa9973c8aa108eca301dc","5f5a55364e9b770ed21874ff","5f60d6e709bc4d043a51d9a4","false","null","<div style=""align-items: center; display: flex; color: dodgerblue; font-size: 90px""><b>o</b></div>","null","","","","forget_cue","","","","","","","","","","","","","","","",""
"html-keyboard-response","126","366558","0.0-4.0-1.0-0.2","s17m8vql4qbvgyh","prime","5eefa9973c8aa108eca301dc","5f5a55364e9b770ed21874ff","5f60d6e709bc4d043a51d9a4","false","null","<span style=""color: black; font-size: 48px"">N + M</span>","null","","","","resp_prompt","","","","","","","","","","","","","","","",""
"categorize-image","127","367440","0.0-4.0-1.0-1.2","s17m8vql4qbvgyh","prime","5eefa9973c8aa108eca301dc","5f5a55364e9b770ed21874ff","5f60d6e709bc4d043a51d9a4","true","878.4800000139512","./Stimuli/SelectedImages/LM/LM57.bmp","76","","","","test","true","N + M","76","switch","LM","LM57.bmp","remember","","51","3","prime1","right","","","",""
"html-keyboard-response","128","369443","0.0-4.0-1.0-3.2","s17m8vql4qbvgyh","prime","5eefa9973c8aa108eca301dc","5f5a55364e9b770ed21874ff","5f60d6e709bc4d043a51d9a4","false","null","<div style=""align-items: center; display: flex; color: dodgerblue; font-size: 90px""><b>o</b></div>","null","","","","forget_cue","","","","","","","","","","","","","","","",""
"html-keyboard-response","129","370145","0.0-4.0-1.0-0.3","s17m8vql4qbvgyh","prime","5eefa9973c8aa108eca301dc","5f5a55364e9b770ed21874ff","5f60d6e709bc4d043a51d9a4","false","null","<span style=""color: black; font-size: 48px"">M + N</span>","null","","","","resp_prompt","","","","","","","","","","","","","","","",""
"categorize-image","130","371031","0.0-4.0-1.0-1.3","s17m8vql4qbvgyh","prime","5eefa9973c8aa108eca301dc","5f5a55364e9b770ed21874ff","5f60d6e709bc4d043a51d9a4","true","882.8299999877345","./Stimuli/SelectedImages/LN/LN149.bmp","76","","","","test","true","M + N","76","repetition","LN","LN149.bmp","remember","","52","3","prime1","right","","","",""
"html-keyboard-response","131","373036","0.0-4.0-1.0-3.3","s17m8vql4qbvgyh","prime","5eefa9973c8aa108eca301dc","5f5a55364e9b770ed21874ff","5f60d6e709bc4d043a51d9a4","false","null","<div style=""align-items: center; display: flex; color: dodgerblue; font-size: 90px""><b>o</b></div>","null","","","","forget_cue","","","","","","","","","","","","","","","",""
"html-keyboard-response","132","373741","0.0-4.0-1.0-0.4","s17m8vql4qbvgyh","prime","5eefa9973c8aa108eca301dc","5f5a55364e9b770ed21874ff","5f60d6e709bc4d043a51d9a4","false","null","<span style=""color: black; font-size: 48px"">M + N</span>","null","","","","resp_prompt","","","","","","","","","","","","","","","",""
"categorize-image","133","375463","0.0-4.0-1.0-1.4","s17m8vql4qbvgyh","prime","5eefa9973c8aa108eca301dc","5f5a55364e9b770ed21874ff","5f60d6e709bc4d043a51d9a4","true","1717.145000002347","./Stimuli/SelectedImages/SN/SN18.bmp","76","","","","test","true","M + N","76","switch","SN","SN18.bmp","remember","","53","3","prime1","right","","","",""
"html-keyboard-response","134","377468","0.0-4.0-1.0-3.4","s17m8vql4qbvgyh","prime","5eefa9973c8aa108eca301dc","5f5a55364e9b770ed21874ff","5f60d6e709bc4d043a51d9a4","false","null","<div style=""align-items: center; display: flex; color: dodgerblue; font-size: 90px""><b>o</b></div>","null","","","","forget_cue","","","","","","","","","","","","","","","",""
"html-keyboard-response","135","378170","0.0-4.0-1.0-0.5","s17m8vql4qbvgyh","prime","5eefa9973c8aa108eca301dc","5f5a55364e9b770ed21874ff","5f60d6e709bc4d043a51d9a4","false","null","<span style=""color: black; font-size: 48px"">N + M</span>","null","","","","resp_prompt","","","","","","","","","","","","","","","",""
"categorize-image","136","379015","0.0-4.0-1.0-1.5","s17m8vql4qbvgyh","prime","5eefa9973c8aa108eca301dc","5f5a55364e9b770ed21874ff","5f60d6e709bc4d043a51d9a4","true","841.275000013411","./Stimuli/SelectedImages/LM/LM59.bmp","76","","","","test","true","N + M","76","repetition","LM","LM59.bmp","forget","","54","3","prime1","right","","","",""
"html-keyboard-response","137","381018","0.0-4.0-1.0-3.5","s17m8vql4qbvgyh","prime","5eefa9973c8aa108eca301dc","5f5a55364e9b770ed21874ff","5f60d6e709bc4d043a51d9a4","false","null","<div style=""align-items: center; display: flex; color: darkorange; font-size: 90px""><b>ø</b></div>","null","","","","forget_cue","","","","","","","","","","","","","","","",""
"html-keyboard-response","138","381723","0.0-4.0-1.0-0.6","s17m8vql4qbvgyh","prime","5eefa9973c8aa108eca301dc","5f5a55364e9b770ed21874ff","5f60d6e709bc4d043a51d9a4","false","null","<span style=""color: black; font-size: 48px"">N + M</span>","null","","","","resp_prompt","","","","","","","","","","","","","","","",""
"categorize-image","139","383149","0.0-4.0-1.0-1.6","s17m8vql4qbvgyh","prime","5eefa9973c8aa108eca301dc","5f5a55364e9b770ed21874ff","5f60d6e709bc4d043a51d9a4","true","1423.3150000218302","./Stimuli/SelectedImages/LN/LN9.bmp","83","","","","test","true","N + M","83","switch","LN","LN9.bmp","remember","","55","3","prime1","left","","","",""
"html-keyboard-response","140","385154","0.0-4.0-1.0-3.6","s17m8vql4qbvgyh","prime","5eefa9973c8aa108eca301dc","5f5a55364e9b770ed21874ff","5f60d6e709bc4d043a51d9a4","false","null","<div style=""align-items: center; display: flex; color: dodgerblue; font-size: 90px""><b>o</b></div>","null","","","","forget_cue","","","","","","","","","","","","","","","",""
"html-keyboard-response","141","385860","0.0-4.0-1.0-0.7","s17m8vql4qbvgyh","prime","5eefa9973c8aa108eca301dc","5f5a55364e9b770ed21874ff","5f60d6e709bc4d043a51d9a4","false","null","<span style=""color: black; font-size: 48px"">N + M</span>","null","","","","resp_prompt","","","","","","","","","","","","","","","",""
"categorize-image","142","386640","0.0-4.0-1.0-1.7","s17m8vql4qbvgyh","prime","5eefa9973c8aa108eca301dc","5f5a55364e9b770ed21874ff","5f60d6e709bc4d043a51d9a4","true","776.7400000011548","./Stimuli/SelectedImages/SM/SM78.bmp","76","","","","test","true","N + M","76","switch","SM","SM78.bmp","remember","","56","3","prime1","right","","","",""
"html-keyboard-response","143","388646","0.0-4.0-1.0-3.7","s17m8vql4qbvgyh","prime","5eefa9973c8aa108eca301dc","5f5a55364e9b770ed21874ff","5f60d6e709bc4d043a51d9a4","false","null","<div style=""align-items: center; display: flex; color: dodgerblue; font-size: 90px""><b>o</b></div>","null","","","","forget_cue","","","","","","","","","","","","","","","",""
"html-keyboard-response","144","389349","0.0-4.0-1.0-0.8","s17m8vql4qbvgyh","prime","5eefa9973c8aa108eca301dc","5f5a55364e9b770ed21874ff","5f60d6e709bc4d043a51d9a4","false","null","<span style=""color: black; font-size: 48px"">N + M</span>","null","","","","resp_prompt","","","","","","","","","","","","","","","",""
"categorize-image","145","390126","0.0-4.0-1.0-1.8","s17m8vql4qbvgyh","prime","5eefa9973c8aa108eca301dc","5f5a55364e9b770ed21874ff","5f60d6e709bc4d043a51d9a4","true","774.1099999984726","./Stimuli/SelectedImages/LN/LN111.bmp","83","","","","test","true","N + M","83","switch","LN","LN111.bmp","forget","","57","3","prime1","left","","","",""
"html-keyboard-response","146","392129","0.0-4.0-1.0-3.8","s17m8vql4qbvgyh","prime","5eefa9973c8aa108eca301dc","5f5a55364e9b770ed21874ff","5f60d6e709bc4d043a51d9a4","false","null","<div style=""align-items: center; display: flex; color: darkorange; font-size: 90px""><b>ø</b></div>","null","","","","forget_cue","","","","","","","","","","","","","","","",""
"html-keyboard-response","147","392833","0.0-4.0-1.0-0.9","s17m8vql4qbvgyh","prime","5eefa9973c8aa108eca301dc","5f5a55364e9b770ed21874ff","5f60d6e709bc4d043a51d9a4","false","null","<span style=""color: black; font-size: 48px"">M + N</span>","null","","","","resp_prompt","","","","","","","","","","","","","","","",""
"categorize-image","148","393733","0.0-4.0-1.0-1.9","s17m8vql4qbvgyh","prime","5eefa9973c8aa108eca301dc","5f5a55364e9b770ed21874ff","5f60d6e709bc4d043a51d9a4","true","896.40500000678","./Stimuli/SelectedImages/LN/LN131.bmp","76","","","","test","true","M + N","76","repetition","LN","LN131.bmp","remember","","58","3","prime1","right","","","",""
"html-keyboard-response","149","395734","0.0-4.0-1.0-3.9","s17m8vql4qbvgyh","prime","5eefa9973c8aa108eca301dc","5f5a55364e9b770ed21874ff","5f60d6e709bc4d043a51d9a4","false","null","<div style=""align-items: center; display: flex; color: dodgerblue; font-size: 90px""><b>o</b></div>","null","","","","forget_cue","","","","","","","","","","","","","","","",""
"html-keyboard-response","150","396437","0.0-4.0-1.0-0.10","s17m8vql4qbvgyh","prime","5eefa9973c8aa108eca301dc","5f5a55364e9b770ed21874ff","5f60d6e709bc4d043a51d9a4","false","null","<span style=""color: black; font-size: 48px"">N + M</span>","null","","","","resp_prompt","","","","","","","","","","","","","","","",""
"categorize-image","151","397580","0.0-4.0-1.0-1.10","s17m8vql4qbvgyh","prime","5eefa9973c8aa108eca301dc","5f5a55364e9b770ed21874ff","5f60d6e709bc4d043a51d9a4","true","1139.8099999933038","./Stimuli/SelectedImages/LN/LN150.bmp","83","","","","test","true","N + M","83","repetition","LN","LN150.bmp","forget","","59","3","prime1","left","","","",""
"html-keyboard-response","152","399583","0.0-4.0-1.0-3.10","s17m8vql4qbvgyh","prime","5eefa9973c8aa108eca301dc","5f5a55364e9b770ed21874ff","5f60d6e709bc4d043a51d9a4","false","null","<div style=""align-items: center; display: flex; color: darkorange; font-size: 90px""><b>ø</b></div>","null","","","","forget_cue","","","","","","","","","","","","","","","",""
"html-keyboard-response","153","400288","0.0-4.0-1.0-0.11","s17m8vql4qbvgyh","prime","5eefa9973c8aa108eca301dc","5f5a55364e9b770ed21874ff","5f60d6e709bc4d043a51d9a4","false","null","<span style=""color: black; font-size: 48px"">N + M</span>","null","","","","resp_prompt","","","","","","","","","","","","","","","",""
"categorize-image","154","401086","0.0-4.0-1.0-1.11","s17m8vql4qbvgyh","prime","5eefa9973c8aa108eca301dc","5f5a55364e9b770ed21874ff","5f60d6e709bc4d043a51d9a4","true","795.1849999953993","./Stimuli/SelectedImages/SN/SN179.bmp","83","","","","test","true","N + M","83","repetition","SN","SN179.bmp","remember","","60","3","prime1","left","","","",""
"html-keyboard-response","155","403090","0.0-4.0-1.0-3.11","s17m8vql4qbvgyh","prime","5eefa9973c8aa108eca301dc","5f5a55364e9b770ed21874ff","5f60d6e709bc4d043a51d9a4","false","null","<div style=""align-items: center; display: flex; color: dodgerblue; font-size: 90px""><b>o</b></div>","null","","","","forget_cue","","","","","","","","","","","","","","","",""
"html-keyboard-response","156","403792","0.0-4.0-1.0-0.12","s17m8vql4qbvgyh","prime","5eefa9973c8aa108eca301dc","5f5a55364e9b770ed21874ff","5f60d6e709bc4d043a51d9a4","false","null","<span style=""color: black; font-size: 48px"">N + M</span>","null","","","","resp_prompt","","","","","","","","","","","","","","","",""
"categorize-image","157","404527","0.0-4.0-1.0-1.12","s17m8vql4qbvgyh","prime","5eefa9973c8aa108eca301dc","5f5a55364e9b770ed21874ff","5f60d6e709bc4d043a51d9a4","true","731.8899999954738","./Stimuli/SelectedImages/SN/SN93.bmp","83","","","","test","true","N + M","83","switch","SN","SN93.bmp","remember","","61","3","prime1","left","","","",""
"html-keyboard-response","158","406532","0.0-4.0-1.0-3.12","s17m8vql4qbvgyh","prime","5eefa9973c8aa108eca301dc","5f5a55364e9b770ed21874ff","5f60d6e709bc4d043a51d9a4","false","null","<div style=""align-items: center; display: flex; color: dodgerblue; font-size: 90px""><b>o</b></div>","null","","","","forget_cue","","","","","","","","","","","","","","","",""
"html-keyboard-response","159","407234","0.0-4.0-1.0-0.13","s17m8vql4qbvgyh","prime","5eefa9973c8aa108eca301dc","5f5a55364e9b770ed21874ff","5f60d6e709bc4d043a51d9a4","false","null","<span style=""color: black; font-size: 48px"">N + M</span>","null","","","","resp_prompt","","","","","","","","","","","","","","","",""
"categorize-image","160","407980","0.0-4.0-1.0-1.13","s17m8vql4qbvgyh","prime","5eefa9973c8aa108eca301dc","5f5a55364e9b770ed21874ff","5f60d6e709bc4d043a51d9a4","true","742.8500000096392","./Stimuli/SelectedImages/SN/SN64.bmp","83","","","","test","true","N + M","83","repetition","SN","SN64.bmp","forget","","62","3","prime1","left","","","",""
"html-keyboard-response","161","409983","0.0-4.0-1.0-3.13","s17m8vql4qbvgyh","prime","5eefa9973c8aa108eca301dc","5f5a55364e9b770ed21874ff","5f60d6e709bc4d043a51d9a4","false","null","<div style=""align-items: center; display: flex; color: darkorange; font-size: 90px""><b>ø</b></div>","null","","","","forget_cue","","","","","","","","","","","","","","","",""
"html-keyboard-response","162","410688","0.0-4.0-1.0-0.14","s17m8vql4qbvgyh","prime","5eefa9973c8aa108eca301dc","5f5a55364e9b770ed21874ff","5f60d6e709bc4d043a51d9a4","false","null","<span style=""color: black; font-size: 48px"">M + N</span>","null","","","","resp_prompt","","","","","","","","","","","","","","","",""
"categorize-image","163","411383","0.0-4.0-1.0-1.14","s17m8vql4qbvgyh","prime","5eefa9973c8aa108eca301dc","5f5a55364e9b770ed21874ff","5f60d6e709bc4d043a51d9a4","true","692.125000001397","./Stimuli/SelectedImages/SN/SN111.bmp","76","","","","test","true","M + N","76","switch","SN","SN111.bmp","forget","","63","3","prime1","right","","","",""
"html-keyboard-response","164","413388","0.0-4.0-1.0-3.14","s17m8vql4qbvgyh","prime","5eefa9973c8aa108eca301dc","5f5a55364e9b770ed21874ff","5f60d6e709bc4d043a51d9a4","false","null","<div style=""align-items: center; display: flex; color: darkorange; font-size: 90px""><b>ø</b></div>","null","","","","forget_cue","","","","","","","","","","","","","","","",""
"html-keyboard-response","165","414089","0.0-4.0-1.0-0.15","s17m8vql4qbvgyh","prime","5eefa9973c8aa108eca301dc","5f5a55364e9b770ed21874ff","5f60d6e709bc4d043a51d9a4","false","null","<span style=""color: black; font-size: 48px"">M + N</span>","null","","","","resp_prompt","","","","","","","","","","","","","","","",""
"categorize-image","166","414819","0.0-4.0-1.0-1.15","s17m8vql4qbvgyh","prime","5eefa9973c8aa108eca301dc","5f5a55364e9b770ed21874ff","5f60d6e709bc4d043a51d9a4","true","726.6200000012759","./Stimuli/SelectedImages/LN/LN28.bmp","76","","","","test","true","M + N","76","repetition","LN","LN28.bmp","forget","","64","3","prime1","right","","","",""
"html-keyboard-response","167","416823","0.0-4.0-1.0-3.15","s17m8vql4qbvgyh","prime","5eefa9973c8aa108eca301dc","5f5a55364e9b770ed21874ff","5f60d6e709bc4d043a51d9a4","false","null","<div style=""align-items: center; display: flex; color: darkorange; font-size: 90px""><b>ø</b></div>","null","","","","forget_cue","","","","","","","","","","","","","","","",""
"html-keyboard-response","168","417525","0.0-4.0-1.0-0.16","s17m8vql4qbvgyh","prime","5eefa9973c8aa108eca301dc","5f5a55364e9b770ed21874ff","5f60d6e709bc4d043a51d9a4","false","null","<span style=""color: black; font-size: 48px"">N + M</span>","null","","","","resp_prompt","","","","","","","","","","","","","","","",""
"categorize-image","169","418117","0.0-4.0-1.0-1.16","s17m8vql4qbvgyh","prime","5eefa9973c8aa108eca301dc","5f5a55364e9b770ed21874ff","5f60d6e709bc4d043a51d9a4","true","588.2299999939278","./Stimuli/SelectedImages/SN/SN52.bmp","83","","","","test","true","N + M","83","switch","SN","SN52.bmp","forget","","65","3","prime1","left","","","",""
"html-keyboard-response","170","420122","0.0-4.0-1.0-3.16","s17m8vql4qbvgyh","prime","5eefa9973c8aa108eca301dc","5f5a55364e9b770ed21874ff","5f60d6e709bc4d043a51d9a4","false","null","<div style=""align-items: center; display: flex; color: darkorange; font-size: 90px""><b>ø</b></div>","null","","","","forget_cue","","","","","","","","","","","","","","","",""
"html-keyboard-response","171","420827","0.0-4.0-1.0-0.17","s17m8vql4qbvgyh","prime","5eefa9973c8aa108eca301dc","5f5a55364e9b770ed21874ff","5f60d6e709bc4d043a51d9a4","false","null","<span style=""color: black; font-size: 48px"">M + N</span>","null","","","","resp_prompt","","","","","","","","","","","","","","","",""
"categorize-image","172","422459","0.0-4.0-1.0-1.17","s17m8vql4qbvgyh","prime","5eefa9973c8aa108eca301dc","5f5a55364e9b770ed21874ff","5f60d6e709bc4d043a51d9a4","true","1628.499999991618","./Stimuli/SelectedImages/SM/SM17.bmp","83","","","","test","true","M + N","83","switch","SM","SM17.bmp","remember","","66","3","prime1","left","","","",""
"html-keyboard-response","173","424464","0.0-4.0-1.0-3.17","s17m8vql4qbvgyh","prime","5eefa9973c8aa108eca301dc","5f5a55364e9b770ed21874ff","5f60d6e709bc4d043a51d9a4","false","null","<div style=""align-items: center; display: flex; color: dodgerblue; font-size: 90px""><b>o</b></div>","null","","","","forget_cue","","","","","","","","","","","","","","","",""
"html-keyboard-response","174","425169","0.0-4.0-1.0-0.18","s17m8vql4qbvgyh","prime","5eefa9973c8aa108eca301dc","5f5a55364e9b770ed21874ff","5f60d6e709bc4d043a51d9a4","false","null","<span style=""color: black; font-size: 48px"">N + M</span>","null","","","","resp_prompt","","","","","","","","","","","","","","","",""
"categorize-image","175","425821","0.0-4.0-1.0-1.18","s17m8vql4qbvgyh","prime","5eefa9973c8aa108eca301dc","5f5a55364e9b770ed21874ff","5f60d6e709bc4d043a51d9a4","true","647.7999999769963","./Stimuli/SelectedImages/LN/LN12.bmp","76","","","","test","false","N + M","83","repetition","LN","LN12.bmp","remember","","67","3","prime1","right","","","",""
"html-keyboard-response","176","426322","0.0-4.0-1.0-2.18-0.18","s17m8vql4qbvgyh","prime","5eefa9973c8aa108eca301dc","5f5a55364e9b770ed21874ff","5f60d6e709bc4d043a51d9a4","false","null","<span style=""color: red; font-size: 48px"">Error!</span>","null","","","","feedback","","","","","","","","","","","","","","","",""
"html-keyboard-response","177","428323","0.0-4.0-1.0-3.18","s17m8vql4qbvgyh","prime","5eefa9973c8aa108eca301dc","5f5a55364e9b770ed21874ff","5f60d6e709bc4d043a51d9a4","false","null","<div style=""align-items: center; display: flex; color: dodgerblue; font-size: 90px""><b>o</b></div>","null","","","","forget_cue","","","","","","","","","","","","","","","",""
"html-keyboard-response","178","429027","0.0-4.0-1.0-0.19","s17m8vql4qbvgyh","prime","5eefa9973c8aa108eca301dc","5f5a55364e9b770ed21874ff","5f60d6e709bc4d043a51d9a4","false","null","<span style=""color: black; font-size: 48px"">N + M</span>","null","","","","resp_prompt","","","","","","","","","","","","","","","",""
"categorize-image","179","430141","0.0-4.0-1.0-1.19","s17m8vql4qbvgyh","prime","5eefa9973c8aa108eca301dc","5f5a55364e9b770ed21874ff","5f60d6e709bc4d043a51d9a4","true","1110.7450000126846","./Stimuli/SelectedImages/SM/SM106.bmp","76","","","","test","true","N + M","76","switch","SM","SM106.bmp","forget","","68","3","prime1","right","","","",""
"html-keyboard-response","180","432143","0.0-4.0-1.0-3.19","s17m8vql4qbvgyh","prime","5eefa9973c8aa108eca301dc","5f5a55364e9b770ed21874ff","5f60d6e709bc4d043a51d9a4","false","null","<div style=""align-items: center; display: flex; color: darkorange; font-size: 90px""><b>ø</b></div>","null","","","","forget_cue","","","","","","","","","","","","","","","",""
"html-keyboard-response","181","432848","0.0-4.0-1.0-0.20","s17m8vql4qbvgyh","prime","5eefa9973c8aa108eca301dc","5f5a55364e9b770ed21874ff","5f60d6e709bc4d043a51d9a4","false","null","<span style=""color: black; font-size: 48px"">M + N</span>","null","","","","resp_prompt","","","","","","","","","","","","","","","",""
"categorize-image","182","433990","0.0-4.0-1.0-1.20","s17m8vql4qbvgyh","prime","5eefa9973c8aa108eca301dc","5f5a55364e9b770ed21874ff","5f60d6e709bc4d043a51d9a4","true","1138.1750000000466","./Stimuli/SelectedImages/LN/LN59.bmp","76","","","","test","true","M + N","76","switch","LN","LN59.bmp","remember","","69","3","prime1","right","","","",""
"html-keyboard-response","183","435992","0.0-4.0-1.0-3.20","s17m8vql4qbvgyh","prime","5eefa9973c8aa108eca301dc","5f5a55364e9b770ed21874ff","5f60d6e709bc4d043a51d9a4","false","null","<div style=""align-items: center; display: flex; color: dodgerblue; font-size: 90px""><b>o</b></div>","null","","","","forget_cue","","","","","","","","","","","","","","","",""
"html-keyboard-response","184","436695","0.0-4.0-1.0-0.21","s17m8vql4qbvgyh","prime","5eefa9973c8aa108eca301dc","5f5a55364e9b770ed21874ff","5f60d6e709bc4d043a51d9a4","false","null","<span style=""color: black; font-size: 48px"">M + N</span>","null","","","","resp_prompt","","","","","","","","","","","","","","","",""
"categorize-image","185","437634","0.0-4.0-1.0-1.21","s17m8vql4qbvgyh","prime","5eefa9973c8aa108eca301dc","5f5a55364e9b770ed21874ff","5f60d6e709bc4d043a51d9a4","true","935.9849999891594","./Stimuli/SelectedImages/LM/LM235.bmp","83","","","","test","true","M + N","83","repetition","LM","LM235.bmp","remember","","70","3","prime1","left","","","",""
"html-keyboard-response","186","439638","0.0-4.0-1.0-3.21","s17m8vql4qbvgyh","prime","5eefa9973c8aa108eca301dc","5f5a55364e9b770ed21874ff","5f60d6e709bc4d043a51d9a4","false","null","<div style=""align-items: center; display: flex; color: dodgerblue; font-size: 90px""><b>o</b></div>","null","","","","forget_cue","","","","","","","","","","","","","","","",""
"html-keyboard-response","187","440343","0.0-4.0-1.0-0.22","s17m8vql4qbvgyh","prime","5eefa9973c8aa108eca301dc","5f5a55364e9b770ed21874ff","5f60d6e709bc4d043a51d9a4","false","null","<span style=""color: black; font-size: 48px"">M + N</span>","null","","","","resp_prompt","","","","","","","","","","","","","","","",""
"categorize-image","188","440926","0.0-4.0-1.0-1.22","s17m8vql4qbvgyh","prime","5eefa9973c8aa108eca301dc","5f5a55364e9b770ed21874ff","5f60d6e709bc4d043a51d9a4","true","580.0250000029337","./Stimuli/SelectedImages/SN/SN140.bmp","76","","","","test","true","M + N","76","repetition","SN","SN140.bmp","forget","","71","3","prime1","right","","","",""
"html-keyboard-response","189","442930","0.0-4.0-1.0-3.22","s17m8vql4qbvgyh","prime","5eefa9973c8aa108eca301dc","5f5a55364e9b770ed21874ff","5f60d6e709bc4d043a51d9a4","false","null","<div style=""align-items: center; display: flex; color: darkorange; font-size: 90px""><b>ø</b></div>","null","","","","forget_cue","","","","","","","","","","","","","","","",""
"html-keyboard-response","190","443632","0.0-4.0-1.0-0.23","s17m8vql4qbvgyh","prime","5eefa9973c8aa108eca301dc","5f5a55364e9b770ed21874ff","5f60d6e709bc4d043a51d9a4","false","null","<span style=""color: black; font-size: 48px"">N + M</span>","null","","","","resp_prompt","","","","","","","","","","","","","","","",""
"categorize-image","191","444825","0.0-4.0-1.0-1.23","s17m8vql4qbvgyh","prime","5eefa9973c8aa108eca301dc","5f5a55364e9b770ed21874ff","5f60d6e709bc4d043a51d9a4","true","1189.2300000181422","./Stimuli/SelectedImages/SN/SN128.bmp","83","","","","test","true","N + M","83","repetition","SN","SN128.bmp","forget","","72","3","prime1","left","","","",""
"html-keyboard-response","192","446826","0.0-4.0-1.0-3.23","s17m8vql4qbvgyh","prime","5eefa9973c8aa108eca301dc","5f5a55364e9b770ed21874ff","5f60d6e709bc4d043a51d9a4","false","null","<div style=""align-items: center; display: flex; color: darkorange; font-size: 90px""><b>ø</b></div>","null","","","","forget_cue","","","","","","","","","","","","","","","",""
"html-keyboard-response","193","447527","0.0-4.0-1.0-0.24","s17m8vql4qbvgyh","prime","5eefa9973c8aa108eca301dc","5f5a55364e9b770ed21874ff","5f60d6e709bc4d043a51d9a4","false","null","<span style=""color: black; font-size: 48px"">M + N</span>","null","","","","resp_prompt","","","","","","","","","","","","","","","",""
"categorize-image","194","448503","0.0-4.0-1.0-1.24","s17m8vql4qbvgyh","prime","5eefa9973c8aa108eca301dc","5f5a55364e9b770ed21874ff","5f60d6e709bc4d043a51d9a4","true","972.4249999853782","./Stimuli/SelectedImages/LM/LM157.bmp","83","","","","test","true","M + N","83","switch","LM","LM157.bmp","remember","","73","3","prime1","left","","","",""
"html-keyboard-response","195","450505","0.0-4.0-1.0-3.24","s17m8vql4qbvgyh","prime","5eefa9973c8aa108eca301dc","5f5a55364e9b770ed21874ff","5f60d6e709bc4d043a51d9a4","false","null","<div style=""align-items: center; display: flex; color: dodgerblue; font-size: 90px""><b>o</b></div>","null","","","","forget_cue","","","","","","","","","","","","","","","",""
"html-keyboard-response","196","451207","0.0-4.0-1.0-0.25","s17m8vql4qbvgyh","prime","5eefa9973c8aa108eca301dc","5f5a55364e9b770ed21874ff","5f60d6e709bc4d043a51d9a4","false","null","<span style=""color: black; font-size: 48px"">N + M</span>","null","","","","resp_prompt","","","","","","","","","","","","","","","",""
"categorize-image","197","452093","0.0-4.0-1.0-1.25","s17m8vql4qbvgyh","prime","5eefa9973c8aa108eca301dc","5f5a55364e9b770ed21874ff","5f60d6e709bc4d043a51d9a4","true","882.7750000054948","./Stimuli/SelectedImages/SM/SM73.bmp","76","","","","test","true","N + M","76","repetition","SM","SM73.bmp","remember","","74","3","prime1","right","","","",""
"html-keyboard-response","198","454099","0.0-4.0-1.0-3.25","s17m8vql4qbvgyh","prime","5eefa9973c8aa108eca301dc","5f5a55364e9b770ed21874ff","5f60d6e709bc4d043a51d9a4","false","null","<div style=""align-items: center; display: flex; color: dodgerblue; font-size: 90px""><b>o</b></div>","null","","","","forget_cue","","","","","","","","","","","","","","","",""
"html-keyboard-response","199","454800","0.0-4.0-1.0-0.26","s17m8vql4qbvgyh","prime","5eefa9973c8aa108eca301dc","5f5a55364e9b770ed21874ff","5f60d6e709bc4d043a51d9a4","false","null","<span style=""color: black; font-size: 48px"">N + M</span>","null","","","","resp_prompt","","","","","","","","","","","","","","","",""
"categorize-image","200","455516","0.0-4.0-1.0-1.26","s17m8vql4qbvgyh","prime","5eefa9973c8aa108eca301dc","5f5a55364e9b770ed21874ff","5f60d6e709bc4d043a51d9a4","true","712.9600000043865","./Stimuli/SelectedImages/LM/LM129.bmp","76","","","","test","true","N + M","76","switch","LM","LM129.bmp","remember","","75","3","prime1","right","","","",""
"html-keyboard-response","201","457521","0.0-4.0-1.0-3.26","s17m8vql4qbvgyh","prime","5eefa9973c8aa108eca301dc","5f5a55364e9b770ed21874ff","5f60d6e709bc4d043a51d9a4","false","null","<div style=""align-items: center; display: flex; color: dodgerblue; font-size: 90px""><b>o</b></div>","null","","","","forget_cue","","","","","","","","","","","","","","","",""
"html-keyboard-response","202","458226","0.0-4.0-1.0-0.27","s17m8vql4qbvgyh","prime","5eefa9973c8aa108eca301dc","5f5a55364e9b770ed21874ff","5f60d6e709bc4d043a51d9a4","false","null","<span style=""color: black; font-size: 48px"">M + N</span>","null","","","","resp_prompt","","","","","","","","","","","","","","","",""
"categorize-image","203","459330","0.0-4.0-1.0-1.27","s17m8vql4qbvgyh","prime","5eefa9973c8aa108eca301dc","5f5a55364e9b770ed21874ff","5f60d6e709bc4d043a51d9a4","true","1099.5600000023842","./Stimuli/SelectedImages/LM/LM58.bmp","83","","","","test","true","M + N","83","switch","LM","LM58.bmp","forget","","76","3","prime1","left","","","",""
"html-keyboard-response","204","461332","0.0-4.0-1.0-3.27","s17m8vql4qbvgyh","prime","5eefa9973c8aa108eca301dc","5f5a55364e9b770ed21874ff","5f60d6e709bc4d043a51d9a4","false","null","<div style=""align-items: center; display: flex; color: darkorange; font-size: 90px""><b>ø</b></div>","null","","","","forget_cue","","","","","","","","","","","","","","","",""
"html-keyboard-response","205","462034","0.0-4.0-1.0-0.28","s17m8vql4qbvgyh","prime","5eefa9973c8aa108eca301dc","5f5a55364e9b770ed21874ff","5f60d6e709bc4d043a51d9a4","false","null","<span style=""color: black; font-size: 48px"">M + N</span>","null","","","","resp_prompt","","","","","","","","","","","","","","","",""
"categorize-image","206","462707","0.0-4.0-1.0-1.28","s17m8vql4qbvgyh","prime","5eefa9973c8aa108eca301dc","5f5a55364e9b770ed21874ff","5f60d6e709bc4d043a51d9a4","true","669.659999985015","./Stimuli/SelectedImages/LM/LM179.bmp","83","","","","test","true","M + N","83","repetition","LM","LM179.bmp","forget","","77","3","prime1","left","","","",""
"html-keyboard-response","207","464710","0.0-4.0-1.0-3.28","s17m8vql4qbvgyh","prime","5eefa9973c8aa108eca301dc","5f5a55364e9b770ed21874ff","5f60d6e709bc4d043a51d9a4","false","null","<div style=""align-items: center; display: flex; color: darkorange; font-size: 90px""><b>ø</b></div>","null","","","","forget_cue","","","","","","","","","","","","","","","",""
"html-keyboard-response","208","465413","0.0-4.0-1.0-0.29","s17m8vql4qbvgyh","prime","5eefa9973c8aa108eca301dc","5f5a55364e9b770ed21874ff","5f60d6e709bc4d043a51d9a4","false","null","<span style=""color: black; font-size: 48px"">M + N</span>","null","","","","resp_prompt","","","","","","","","","","","","","","","",""
"categorize-image","209","466418","0.0-4.0-1.0-1.29","s17m8vql4qbvgyh","prime","5eefa9973c8aa108eca301dc","5f5a55364e9b770ed21874ff","5f60d6e709bc4d043a51d9a4","true","1001.4400000218302","./Stimuli/SelectedImages/SM/SM108.bmp","83","","","","test","true","M + N","83","repetition","SM","SM108.bmp","forget","","78","3","prime1","left","","","",""
"html-keyboard-response","210","468420","0.0-4.0-1.0-3.29","s17m8vql4qbvgyh","prime","5eefa9973c8aa108eca301dc","5f5a55364e9b770ed21874ff","5f60d6e709bc4d043a51d9a4","false","null","<div style=""align-items: center; display: flex; color: darkorange; font-size: 90px""><b>ø</b></div>","null","","","","forget_cue","","","","","","","","","","","","","","","",""
"html-keyboard-response","211","469125","0.0-4.0-1.0-0.30","s17m8vql4qbvgyh","prime","5eefa9973c8aa108eca301dc","5f5a55364e9b770ed21874ff","5f60d6e709bc4d043a51d9a4","false","null","<span style=""color: black; font-size: 48px"">M + N</span>","null","","","","resp_prompt","","","","","","","","","","","","","","","",""
"categorize-image","212","470014","0.0-4.0-1.0-1.30","s17m8vql4qbvgyh","prime","5eefa9973c8aa108eca301dc","5f5a55364e9b770ed21874ff","5f60d6e709bc4d043a51d9a4","true","885.4400000127498","./Stimuli/SelectedImages/SM/SM74.bmp","83","","","","test","true","M + N","83","repetition","SM","SM74.bmp","remember","","79","3","prime1","left","","","",""
"html-keyboard-response","213","472019","0.0-4.0-1.0-3.30","s17m8vql4qbvgyh","prime","5eefa9973c8aa108eca301dc","5f5a55364e9b770ed21874ff","5f60d6e709bc4d043a51d9a4","false","null","<div style=""align-items: center; display: flex; color: dodgerblue; font-size: 90px""><b>o</b></div>","null","","","","forget_cue","","","","","","","","","","","","","","","",""
"html-keyboard-response","214","472721","0.0-4.0-1.0-0.31","s17m8vql4qbvgyh","prime","5eefa9973c8aa108eca301dc","5f5a55364e9b770ed21874ff","5f60d6e709bc4d043a51d9a4","false","null","<span style=""color: black; font-size: 48px"">N + M</span>","null","","","","resp_prompt","","","","","","","","","","","","","","","",""
"categorize-image","215","474229","0.0-4.0-1.0-1.31","s17m8vql4qbvgyh","prime","5eefa9973c8aa108eca301dc","5f5a55364e9b770ed21874ff","5f60d6e709bc4d043a51d9a4","true","1504.1049999999814","./Stimuli/SelectedImages/LM/LM75.bmp","76","","","","test","true","N + M","76","repetition","LM","LM75.bmp","forget","","80","3","prime1","right","","","",""
"html-keyboard-response","216","476232","0.0-4.0-1.0-3.31","s17m8vql4qbvgyh","prime","5eefa9973c8aa108eca301dc","5f5a55364e9b770ed21874ff","5f60d6e709bc4d043a51d9a4","false","null","<div style=""align-items: center; display: flex; color: darkorange; font-size: 90px""><b>ø</b></div>","null","","","","forget_cue","","","","","","","","","","","","","","","",""
"html-keyboard-response","217","476938","0.0-4.0-1.0-0.32","s17m8vql4qbvgyh","prime","5eefa9973c8aa108eca301dc","5f5a55364e9b770ed21874ff","5f60d6e709bc4d043a51d9a4","false","null","<span style=""color: black; font-size: 48px"">M + N</span>","null","","","","resp_prompt","","","","","","","","","","","","","","","",""
"categorize-image","218","477736","0.0-4.0-1.0-1.32","s17m8vql4qbvgyh","prime","5eefa9973c8aa108eca301dc","5f5a55364e9b770ed21874ff","5f60d6e709bc4d043a51d9a4","true","794.8399999877438","./Stimuli/SelectedImages/LN/LN13.bmp","76","","","","test","true","M + N","76","switch","LN","LN13.bmp","remember","","81","3","prime1","right","","","",""
"html-keyboard-response","219","479740","0.0-4.0-1.0-3.32","s17m8vql4qbvgyh","prime","5eefa9973c8aa108eca301dc","5f5a55364e9b770ed21874ff","5f60d6e709bc4d043a51d9a4","false","null","<div style=""align-items: center; display: flex; color: dodgerblue; font-size: 90px""><b>o</b></div>","null","","","","forget_cue","","","","","","","","","","","","","","","",""
"html-keyboard-response","220","480442","0.0-4.0-1.0-0.33","s17m8vql4qbvgyh","prime","5eefa9973c8aa108eca301dc","5f5a55364e9b770ed21874ff","5f60d6e709bc4d043a51d9a4","false","null","<span style=""color: black; font-size: 48px"">N + M</span>","null","","","","resp_prompt","","","","","","","","","","","","","","","",""
"categorize-image","221","481327","0.0-4.0-1.0-1.33","s17m8vql4qbvgyh","prime","5eefa9973c8aa108eca301dc","5f5a55364e9b770ed21874ff","5f60d6e709bc4d043a51d9a4","true","881.0649999941234","./Stimuli/SelectedImages/SM/SM195.bmp","76","","","","test","true","N + M","76","switch","SM","SM195.bmp","remember","","82","3","prime1","right","","","",""
"html-keyboard-response","222","483328","0.0-4.0-1.0-3.33","s17m8vql4qbvgyh","prime","5eefa9973c8aa108eca301dc","5f5a55364e9b770ed21874ff","5f60d6e709bc4d043a51d9a4","false","null","<div style=""align-items: center; display: flex; color: dodgerblue; font-size: 90px""><b>o</b></div>","null","","","","forget_cue","","","","","","","","","","","","","","","",""
"html-keyboard-response","223","484032","0.0-4.0-1.0-0.34","s17m8vql4qbvgyh","prime","5eefa9973c8aa108eca301dc","5f5a55364e9b770ed21874ff","5f60d6e709bc4d043a51d9a4","false","null","<span style=""color: black; font-size: 48px"">M + N</span>","null","","","","resp_prompt","","","","","","","","","","","","","","","",""
"categorize-image","224","485338","0.0-4.0-1.0-1.34","s17m8vql4qbvgyh","prime","5eefa9973c8aa108eca301dc","5f5a55364e9b770ed21874ff","5f60d6e709bc4d043a51d9a4","true","1302.8899999917485","./Stimuli/SelectedImages/SM/SM128.bmp","83","","","","test","true","M + N","83","repetition","SM","SM128.bmp","remember","","83","3","prime1","left","","","",""
"html-keyboard-response","225","487344","0.0-4.0-1.0-3.34","s17m8vql4qbvgyh","prime","5eefa9973c8aa108eca301dc","5f5a55364e9b770ed21874ff","5f60d6e709bc4d043a51d9a4","false","null","<div style=""align-items: center; display: flex; color: dodgerblue; font-size: 90px""><b>o</b></div>","null","","","","forget_cue","","","","","","","","","","","","","","","",""
"html-keyboard-response","226","488047","0.0-4.0-1.0-0.35","s17m8vql4qbvgyh","prime","5eefa9973c8aa108eca301dc","5f5a55364e9b770ed21874ff","5f60d6e709bc4d043a51d9a4","false","null","<span style=""color: black; font-size: 48px"">N + M</span>","null","","","","resp_prompt","","","","","","","","","","","","","","","",""
"categorize-image","227","488925","0.0-4.0-1.0-1.35","s17m8vql4qbvgyh","prime","5eefa9973c8aa108eca301dc","5f5a55364e9b770ed21874ff","5f60d6e709bc4d043a51d9a4","true","874.8300000152085","./Stimuli/SelectedImages/LM/LM48.bmp","76","","","","test","true","N + M","76","switch","LM","LM48.bmp","forget","","84","3","prime1","right","","","",""
"html-keyboard-response","228","490926","0.0-4.0-1.0-3.35","s17m8vql4qbvgyh","prime","5eefa9973c8aa108eca301dc","5f5a55364e9b770ed21874ff","5f60d6e709bc4d043a51d9a4","false","null","<div style=""align-items: center; display: flex; color: darkorange; font-size: 90px""><b>ø</b></div>","null","","","","forget_cue","","","","","","","","","","","","","","","",""
"html-keyboard-response","229","491629","0.0-4.0-1.0-0.36","s17m8vql4qbvgyh","prime","5eefa9973c8aa108eca301dc","5f5a55364e9b770ed21874ff","5f60d6e709bc4d043a51d9a4","false","null","<span style=""color: black; font-size: 48px"">M + N</span>","null","","","","resp_prompt","","","","","","","","","","","","","","","",""
"categorize-image","230","492713","0.0-4.0-1.0-1.36","s17m8vql4qbvgyh","prime","5eefa9973c8aa108eca301dc","5f5a55364e9b770ed21874ff","5f60d6e709bc4d043a51d9a4","true","1080.6049999955576","./Stimuli/SelectedImages/SM/SM205.bmp","83","","","","test","true","M + N","83","repetition","SM","SM205.bmp","forget","","85","3","prime1","left","","","",""
"html-keyboard-response","231","494717","0.0-4.0-1.0-3.36","s17m8vql4qbvgyh","prime","5eefa9973c8aa108eca301dc","5f5a55364e9b770ed21874ff","5f60d6e709bc4d043a51d9a4","false","null","<div style=""align-items: center; display: flex; color: darkorange; font-size: 90px""><b>ø</b></div>","null","","","","forget_cue","","","","","","","","","","","","","","","",""
"html-keyboard-response","232","495420","0.0-4.0-1.0-0.37","s17m8vql4qbvgyh","prime","5eefa9973c8aa108eca301dc","5f5a55364e9b770ed21874ff","5f60d6e709bc4d043a51d9a4","false","null","<span style=""color: black; font-size: 48px"">N + M</span>","null","","","","resp_prompt","","","","","","","","","","","","","","","",""
"categorize-image","233","496235","0.0-4.0-1.0-1.37","s17m8vql4qbvgyh","prime","5eefa9973c8aa108eca301dc","5f5a55364e9b770ed21874ff","5f60d6e709bc4d043a51d9a4","true","811.7050000000745","./Stimuli/SelectedImages/LN/LN177.bmp","83","","","","test","true","N + M","83","switch","LN","LN177.bmp","remember","","86","3","prime1","left","","","",""
"html-keyboard-response","234","498241","0.0-4.0-1.0-3.37","s17m8vql4qbvgyh","prime","5eefa9973c8aa108eca301dc","5f5a55364e9b770ed21874ff","5f60d6e709bc4d043a51d9a4","false","null","<div style=""align-items: center; display: flex; color: dodgerblue; font-size: 90px""><b>o</b></div>","null","","","","forget_cue","","","","","","","","","","","","","","","",""
"html-keyboard-response","235","498943","0.0-4.0-1.0-0.38","s17m8vql4qbvgyh","prime","5eefa9973c8aa108eca301dc","5f5a55364e9b770ed21874ff","5f60d6e709bc4d043a51d9a4","false","null","<span style=""color: black; font-size: 48px"">N + M</span>","null","","","","resp_prompt","","","","","","","","","","","","","","","",""
"categorize-image","236","499773","0.0-4.0-1.0-1.38","s17m8vql4qbvgyh","prime","5eefa9973c8aa108eca301dc","5f5a55364e9b770ed21874ff","5f60d6e709bc4d043a51d9a4","true","825.8849999983795","./Stimuli/SelectedImages/SM/SM148.bmp","76","","","","test","true","N + M","76","repetition","SM","SM148.bmp","forget","","87","3","prime1","right","","","",""
"html-keyboard-response","237","501776","0.0-4.0-1.0-3.38","s17m8vql4qbvgyh","prime","5eefa9973c8aa108eca301dc","5f5a55364e9b770ed21874ff","5f60d6e709bc4d043a51d9a4","false","null","<div style=""align-items: center; display: flex; color: darkorange; font-size: 90px""><b>ø</b></div>","null","","","","forget_cue","","","","","","","","","","","","","","","",""
"html-keyboard-response","238","502479","0.0-4.0-1.0-0.39","s17m8vql4qbvgyh","prime","5eefa9973c8aa108eca301dc","5f5a55364e9b770ed21874ff","5f60d6e709bc4d043a51d9a4","false","null","<span style=""color: black; font-size: 48px"">M + N</span>","null","","","","resp_prompt","","","","","","","","","","","","","","","",""
"categorize-image","239","503875","0.0-4.0-1.0-1.39","s17m8vql4qbvgyh","prime","5eefa9973c8aa108eca301dc","5f5a55364e9b770ed21874ff","5f60d6e709bc4d043a51d9a4","true","1392.0499999949243","./Stimuli/SelectedImages/LM/LM216.bmp","83","","","","test","true","M + N","83","repetition","LM","LM216.bmp","remember","","88","3","prime1","left","","","",""
"html-keyboard-response","240","505880","0.0-4.0-1.0-3.39","s17m8vql4qbvgyh","prime","5eefa9973c8aa108eca301dc","5f5a55364e9b770ed21874ff","5f60d6e709bc4d043a51d9a4","false","null","<div style=""align-items: center; display: flex; color: dodgerblue; font-size: 90px""><b>o</b></div>","null","","","","forget_cue","","","","","","","","","","","","","","","",""
"html-keyboard-response","241","506583","0.0-4.0-1.0-0.40","s17m8vql4qbvgyh","prime","5eefa9973c8aa108eca301dc","5f5a55364e9b770ed21874ff","5f60d6e709bc4d043a51d9a4","false","null","<span style=""color: black; font-size: 48px"">N + M</span>","null","","","","resp_prompt","","","","","","","","","","","","","","","",""
"categorize-image","242","507529","0.0-4.0-1.0-1.40","s17m8vql4qbvgyh","prime","5eefa9973c8aa108eca301dc","5f5a55364e9b770ed21874ff","5f60d6e709bc4d043a51d9a4","true","943.055000010645","./Stimuli/SelectedImages/LM/LM100.bmp","76","","","","test","true","N + M","76","repetition","LM","LM100.bmp","remember","","89","3","prime1","right","","","",""
"html-keyboard-response","243","509532","0.0-4.0-1.0-3.40","s17m8vql4qbvgyh","prime","5eefa9973c8aa108eca301dc","5f5a55364e9b770ed21874ff","5f60d6e709bc4d043a51d9a4","false","null","<div style=""align-items: center; display: flex; color: dodgerblue; font-size: 90px""><b>o</b></div>","null","","","","forget_cue","","","","","","","","","","","","","","","",""
"html-keyboard-response","244","510233","0.0-4.0-1.0-0.41","s17m8vql4qbvgyh","prime","5eefa9973c8aa108eca301dc","5f5a55364e9b770ed21874ff","5f60d6e709bc4d043a51d9a4","false","null","<span style=""color: black; font-size: 48px"">M + N</span>","null","","","","resp_prompt","","","","","","","","","","","","","","","",""
"categorize-image","245","511641","0.0-4.0-1.0-1.41","s17m8vql4qbvgyh","prime","5eefa9973c8aa108eca301dc","5f5a55364e9b770ed21874ff","5f60d6e709bc4d043a51d9a4","true","1404.2899999767542","./Stimuli/SelectedImages/SM/SM24.bmp","83","","","","test","true","M + N","83","switch","SM","SM24.bmp","forget","","90","3","prime1","left","","","",""
"html-keyboard-response","246","513644","0.0-4.0-1.0-3.41","s17m8vql4qbvgyh","prime","5eefa9973c8aa108eca301dc","5f5a55364e9b770ed21874ff","5f60d6e709bc4d043a51d9a4","false","null","<div style=""align-items: center; display: flex; color: darkorange; font-size: 90px""><b>ø</b></div>","null","","","","forget_cue","","","","","","","","","","","","","","","",""
"html-keyboard-response","247","514350","0.0-4.0-1.0-0.42","s17m8vql4qbvgyh","prime","5eefa9973c8aa108eca301dc","5f5a55364e9b770ed21874ff","5f60d6e709bc4d043a51d9a4","false","null","<span style=""color: black; font-size: 48px"">M + N</span>","null","","","","resp_prompt","","","","","","","","","","","","","","","",""
"categorize-image","248","515155","0.0-4.0-1.0-1.42","s17m8vql4qbvgyh","prime","5eefa9973c8aa108eca301dc","5f5a55364e9b770ed21874ff","5f60d6e709bc4d043a51d9a4","true","801.2299999827519","./Stimuli/SelectedImages/SN/SN155.bmp","76","","","","test","true","M + N","76","switch","SN","SN155.bmp","forget","","91","3","prime1","right","","","",""
"html-keyboard-response","249","517157","0.0-4.0-1.0-3.42","s17m8vql4qbvgyh","prime","5eefa9973c8aa108eca301dc","5f5a55364e9b770ed21874ff","5f60d6e709bc4d043a51d9a4","false","null","<div style=""align-items: center; display: flex; color: darkorange; font-size: 90px""><b>ø</b></div>","null","","","","forget_cue","","","","","","","","","","","","","","","",""
"html-keyboard-response","250","517859","0.0-4.0-1.0-0.43","s17m8vql4qbvgyh","prime","5eefa9973c8aa108eca301dc","5f5a55364e9b770ed21874ff","5f60d6e709bc4d043a51d9a4","false","null","<span style=""color: black; font-size: 48px"">M + N</span>","null","","","","resp_prompt","","","","","","","","","","","","","","","",""
"categorize-image","251","519043","0.0-4.0-1.0-1.43","s17m8vql4qbvgyh","prime","5eefa9973c8aa108eca301dc","5f5a55364e9b770ed21874ff","5f60d6e709bc4d043a51d9a4","true","1180.709999985993","./Stimuli/SelectedImages/LN/LN92.bmp","76","","","","test","true","M + N","76","switch","LN","LN92.bmp","forget","","92","3","prime1","right","","","",""
"html-keyboard-response","252","521049","0.0-4.0-1.0-3.43","s17m8vql4qbvgyh","prime","5eefa9973c8aa108eca301dc","5f5a55364e9b770ed21874ff","5f60d6e709bc4d043a51d9a4","false","null","<div style=""align-items: center; display: flex; color: darkorange; font-size: 90px""><b>ø</b></div>","null","","","","forget_cue","","","","","","","","","","","","","","","",""
