"trial_type","trial_index","time_elapsed","internal_node_id","subject","exp_part","prolific_PID","study_ID","session_ID","use","rt","stimulus","key_press","button_pressed","responses","question_order","trial_part","correct","resp_map","correct_resp","probe_condition","category","image","forget_condition","list","trial_num","block_num","block","response","test_part","n_span","sequence","num_spaces"
"pavlovia","0","7","0.0-0.0","42f7166td47psrf","","5e19a8a96b550823487ecf7f","5f60e3c0a3b16e07647b2ff9","5f60ee54ff061c010ebdd812","false","","","","","","","","","","","","","","","","","","","","","","",""
"html-keyboard-response","1","14475","0.0-1.0-0.0-0.0","42f7166td47psrf","welcome","5e19a8a96b550823487ecf7f","5f60e3c0a3b16e07647b2ff9","5f60ee54ff061c010ebdd812","false","14464.41000001505","<div align=left>Dear participant, <br> thank you for participating in an online study of the Cognition, Action, and Sustainability Unit of the University of Freiburg! <br> <br>The aim of this study is to examine our ability to remember previously learned information. <br>Our goal is to find out, whether our memory improves, when we only remember information that is relevant to us. <br>The experiment will take about 35 minutes to complete. <br> <br>Please, note that you can only participate in this study if you are using a device with a keyboard (PC, Laptop etc.) <br>and not if you are using a mobile device such as a tablet or smartphone.<br> <br>Press 'SPACE' to proceed to the experiment. </div>","32","","","","","","","","","","","","","","","","","","","",""
"html-keyboard-response","2","27329","0.0-1.0-0.0-1.0","42f7166td47psrf","welcome","5e19a8a96b550823487ecf7f","5f60e3c0a3b16e07647b2ff9","5f60ee54ff061c010ebdd812","false","12852.485000010347","<div align=left><strong> Time Course of this experiment: </strong> <br><br> <strong> 1.</strong>  First, please fill in some information regarding your demographic data. <br><br> <strong> 2.</strong>  Next, your task will be to classify everyday objects. <br>In addition, you will be asked to remember certain objects and recall them later. <br>Working on these tasks requires your undivided attention and concentration.<br>It is therefore essential that you eliminate any sources of distraction in your  <br>environment and ensure that you will not be disturbed. <br><br><strong> 3.</strong>  At the end of the experiment, you will be asked to answer a few additional questions. <br> <br><strong> Important:</strong> After finishing the experiment, only close the browser window <br> by clicking on the 'end the experiment'-button when you are asked to do so. <br>Closing the browser window prematurely will make the allocation of your participation credit impossible. <br><br> Press 'SPACE' to start the experiment. </div>","32","","","","","","","","","","","","","","","","","","","",""
"html-button-response","3","70266","0.0-1.0-0.0-2.0","42f7166td47psrf","welcome","5e19a8a96b550823487ecf7f","5f60e3c0a3b16e07647b2ff9","5f60ee54ff061c010ebdd812","true","42927.430000010645","<div align=left><strong> Informed consent </strong>  <br>The aim of our research is to better understand human behavior and mental processes. <br>In the following study your behavior (e.g. choices, reaction times) will be studied. <br> <br><strong> Voluntariness and Anonymity </strong> <br>Your participation in this study is  <strong> voluntary</strong>.<br>You may withdraw your consent to participate at any time without providing a reason for doing so and without fear of prejudice. <br><br>As no personal data will be collected, <strong>your data and your person cannot be connected after data collection</strong> – the data-set is anonymous. <br>Respectively, deletion of your data will not be possible after data collection has been completed, as we cannot retrace your data-set.<br>The results and anonymized data collected in this study will be published as a scientific publication. <br>This will happen in an <strong>anonymized format</strong>, so that no data can be traced back to a specific person. <br> <br>The anonymized data of this study will be made available to other researchers and/or in a data archive on the Internet as a means of transparency and to enable subsequent re-use. By doing so, this study follows the recommendations of the Deutsche Forschungsgemeinschaft (DFG, German Research Foundation) and Deutsche Gesellschaft für Psychologie (DGPS, German Psychological Society) regarding quality assurance in research.<br>If you have any questions now or after the experiment, please contact our team (experiments@cs.uni-freiburg.de).<br><br><br>I hereby declare, that I understand the above described conditions of participation and I agree to participate under these conditions. <br><br> </div>","","0","","","","","","","","","","","","","","","","","","",""
"html-keyboard-response","4","85425","0.0-1.0-0.0-3.0","42f7166td47psrf","welcome","5e19a8a96b550823487ecf7f","5f60e3c0a3b16e07647b2ff9","5f60ee54ff061c010ebdd812","false","15156.179999990854","<div align=left><strong> General information concerning the experiment </strong>  <br> <br>Please follow the instructions:<ol> <li><strong> Do not leave this tab (your browser window) during the experiment and do not reload this tab! </strong>  <br>If you do switch tabs/windows during the experiment (to check your mail or visit another website, for example), <br>the experiment will end automatically and you will <strong>not receive credit</strong> for your participation. <br>Repeated participation or resumption of the experiment is impossible.</li> <br><li>Please close all other programs for the duration of your participation. </li> <br><li>Please mute or turn off your phone and put it out of your reach. </li> <br><li>Please also take off any disturbing accessories (such as wristwatches, bracelets, etc.). </li> <br><li>If you have music playing in the background, please turn it off now. </li> <br></ol>Thank you! <br>Press 'SPACE' to continue. </div>","32","","","","","","","","","","","","","","","","","","","",""
"survey-text","5","89209","0.0-1.0-1.0-0.0","42f7166td47psrf","demographics","5e19a8a96b550823487ecf7f","5f60e3c0a3b16e07647b2ff9","5f60ee54ff061c010ebdd812","true","3775.0400000077207","","","","{""age"":""29""}","","","","","","","","","","","","","","","","","",""
"survey-multi-choice","6","102304","0.0-1.0-1.0-1.0","42f7166td47psrf","demographics","5e19a8a96b550823487ecf7f","5f60e3c0a3b16e07647b2ff9","5f60ee54ff061c010ebdd812","true","13089.374999981374","","","","{""gender"":""female"",""school"":""others"",""education"":""Completed university degree or equivalent""}","[0,1,2]","","","","","","","","","","","","","","","","",""
"html-keyboard-response","7","115033","0.0-1.0-2.0","42f7166td47psrf","instructions","5e19a8a96b550823487ecf7f","5f60e3c0a3b16e07647b2ff9","5f60ee54ff061c010ebdd812","false","12726.25499998685","<div align=left> The experiment is now about to start: <br> <br>In the following part, you will be presented pictures of everyday objects. <br>Your first task is to <strong>classify these objects. </strong> <br> <br> You will classify them either as mechanical or non-mechanical objects. <br> <br>Objects that include any kind of technical mechanism (for example, wheels, switches, levers, <br> electronic components) fall under the category of <strong>mechanical</strong> objects. <br>Only objects without any kind of technical mechanism should be classified as <strong>non-mechanical</strong>. <br><br>Press 'SPACE' to continue. </div>","32","","","","","","","","","","","","","","","","","","","",""
"html-keyboard-response","8","179232","0.0-2.0-0.0","42f7166td47psrf","instructions","5e19a8a96b550823487ecf7f","5f60e3c0a3b16e07647b2ff9","5f60ee54ff061c010ebdd812","false","64198.47500001197","<div align=justify>You will classify the objects using the <strong>'S'</strong> and the <strong>'L'</strong> keys on your keyboard.<br>For doing so, please place your <strong>left index finger</strong> on the <strong>'S'</strong> key and place your <strong>right index finger</strong> on the <strong>'L'</strong> key. <br><br> Each trial starts with an instruction, indicating which key ('S'/'L') you need to press to classify <br>the object as mechanical (letter M) or non-mechanical (letter N).<br>The instruction <strong>M + N</strong> indicates that, in the current trial, by pressing the left key ('S') you classify the displayed object as mechanical (M) <br> and by pressing the right key ('L') you classify the object as non-mechanical (N). <br>The instruction <strong>N + M</strong> on the other hand indicates that by pressing the left key ('S') you classify the displayed object as non-mechanical (N) <br> and by pressing the right key ('L') you classify the object as mechanical (M). <br><br>Please press the key corresponding to the correct classification as fast as possible as soon as the object is displayed and try to avoid making mistakes.<br>If you do not respond within a 2 second window, a corresponding feedback will be displayed and the next trial will start.<br> The experiment is divided into multiple blocks to give you the opportunity to take a break after each block. <br>First, you can now practice this task. <br><br>Please place your <strong>LEFT INDEX FINGER</strong> on the 'S' key and your <strong>RIGHT INDEX FINGER</strong> on the 'L' key now. <br><br>Press SPACE to continue.</div>","32","","","","","","","","","","","","","","","","","","","",""
"html-keyboard-response","9","189385","0.0-2.0-1.0","42f7166td47psrf","instructions","5e19a8a96b550823487ecf7f","5f60e3c0a3b16e07647b2ff9","5f60ee54ff061c010ebdd812","false","10150.659999984782","<div align=left> You will now have time to practice this task.<br><br>Remember: <br> <br><li>Please place your index fingers on the <strong>'S'</strong> and <strong>'L'</strong> keys <br>to respond as fast and accurately as possible.</li><li>Every picture can be classified as either mechanical or non-mechanical.</li><li>If you do not respond in time or commit an error, you will receive a corresponding feedback. </li><li> Please try to respond as <strong> fast </strong> and as <strong> accurately as possible </strong> .<br><li>To ensure optimal results, please minimize distractions and stay focused. </li><br><br>Press SPACE to continue.</div>","32","","","","","","","","","","","","","","","","","","","",""
"html-keyboard-response","10","190093","0.0-2.0-2.0-0.0","42f7166td47psrf","practice_no_cue","5e19a8a96b550823487ecf7f","5f60e3c0a3b16e07647b2ff9","5f60ee54ff061c010ebdd812","false","null","<span style=""color: black; font-size: 48px"">M + N</span>","null","","","","resp_prompt","","","","","","","","","","","","","","","",""
"categorize-image","11","191558","0.0-2.0-2.0-1.0","42f7166td47psrf","practice_no_cue","5e19a8a96b550823487ecf7f","5f60e3c0a3b16e07647b2ff9","5f60ee54ff061c010ebdd812","true","952.1200000017416","./Stimuli/ImagesPractice/SN222.jpg","76","","","","test","true","M + N","76","","SN","SN222.jpg","forget","old","1","1","start","right","","","",""
"html-keyboard-response","12","192262","0.0-2.0-2.0-0.1","42f7166td47psrf","practice_no_cue","5e19a8a96b550823487ecf7f","5f60e3c0a3b16e07647b2ff9","5f60ee54ff061c010ebdd812","false","null","<span style=""color: black; font-size: 48px"">N + M</span>","null","","","","resp_prompt","","","","","","","","","","","","","","","",""
"categorize-image","13","193661","0.0-2.0-2.0-1.1","42f7166td47psrf","practice_no_cue","5e19a8a96b550823487ecf7f","5f60e3c0a3b16e07647b2ff9","5f60ee54ff061c010ebdd812","true","888.4499999985565","./Stimuli/ImagesPractice/SM62.jpg","83","","","","test","false","N + M","76","","SM","SM62.jpg","forget","old","2","1","start","left","","","",""
"html-keyboard-response","14","194363","0.0-2.0-2.0-0.2","42f7166td47psrf","practice_no_cue","5e19a8a96b550823487ecf7f","5f60e3c0a3b16e07647b2ff9","5f60ee54ff061c010ebdd812","false","null","<span style=""color: black; font-size: 48px"">M + N</span>","null","","","","resp_prompt","","","","","","","","","","","","","","","",""
"categorize-image","15","196091","0.0-2.0-2.0-1.2","42f7166td47psrf","practice_no_cue","5e19a8a96b550823487ecf7f","5f60e3c0a3b16e07647b2ff9","5f60ee54ff061c010ebdd812","true","1210.5950000113808","./Stimuli/ImagesPractice/SM98.jpg","76","","","","test","false","M + N","83","","SM","SM98.jpg","remember","old","3","1","start","right","","","",""
"html-keyboard-response","16","196795","0.0-2.0-2.0-0.3","42f7166td47psrf","practice_no_cue","5e19a8a96b550823487ecf7f","5f60e3c0a3b16e07647b2ff9","5f60ee54ff061c010ebdd812","false","null","<span style=""color: black; font-size: 48px"">M + N</span>","null","","","","resp_prompt","","","","","","","","","","","","","","","",""
"categorize-image","17","198124","0.0-2.0-2.0-1.3","42f7166td47psrf","practice_no_cue","5e19a8a96b550823487ecf7f","5f60e3c0a3b16e07647b2ff9","5f60ee54ff061c010ebdd812","true","810.7949999975972","./Stimuli/ImagesPractice/LM55.jpg","83","","","","test","true","M + N","83","","LM","LM55.jpg","forget","old","4","1","start","left","","","",""
"html-keyboard-response","18","198835","0.0-2.0-2.0-0.4","42f7166td47psrf","practice_no_cue","5e19a8a96b550823487ecf7f","5f60e3c0a3b16e07647b2ff9","5f60ee54ff061c010ebdd812","false","null","<span style=""color: black; font-size: 48px"">M + N</span>","null","","","","resp_prompt","","","","","","","","","","","","","","","",""
"categorize-image","19","200074","0.0-2.0-2.0-1.4","42f7166td47psrf","practice_no_cue","5e19a8a96b550823487ecf7f","5f60e3c0a3b16e07647b2ff9","5f60ee54ff061c010ebdd812","true","723.5749999817926","./Stimuli/ImagesPractice/SN205.jpg","76","","","","test","true","M + N","76","","SN","SN205.jpg","remember","old","5","1","start","right","","","",""
"html-keyboard-response","20","200785","0.0-2.0-2.0-0.5","42f7166td47psrf","practice_no_cue","5e19a8a96b550823487ecf7f","5f60e3c0a3b16e07647b2ff9","5f60ee54ff061c010ebdd812","false","null","<span style=""color: black; font-size: 48px"">N + M</span>","null","","","","resp_prompt","","","","","","","","","","","","","","","",""
"categorize-image","21","201971","0.0-2.0-2.0-1.5","42f7166td47psrf","practice_no_cue","5e19a8a96b550823487ecf7f","5f60e3c0a3b16e07647b2ff9","5f60ee54ff061c010ebdd812","true","669.6200000005774","./Stimuli/ImagesPractice/LN17.jpg","76","","","","test","false","N + M","83","","LN","LN17.jpg","forget","old","6","1","start","right","","","",""
"html-keyboard-response","22","202679","0.0-2.0-2.0-0.6","42f7166td47psrf","practice_no_cue","5e19a8a96b550823487ecf7f","5f60e3c0a3b16e07647b2ff9","5f60ee54ff061c010ebdd812","false","null","<span style=""color: black; font-size: 48px"">N + M</span>","null","","","","resp_prompt","","","","","","","","","","","","","","","",""
"categorize-image","23","204063","0.0-2.0-2.0-1.6","42f7166td47psrf","practice_no_cue","5e19a8a96b550823487ecf7f","5f60e3c0a3b16e07647b2ff9","5f60ee54ff061c010ebdd812","true","879.7299999860115","./Stimuli/ImagesPractice/SM35.jpg","83","","","","test","false","N + M","76","","SM","SM35.jpg","remember","old","7","1","start","left","","","",""
"html-keyboard-response","24","204783","0.0-2.0-2.0-0.7","42f7166td47psrf","practice_no_cue","5e19a8a96b550823487ecf7f","5f60e3c0a3b16e07647b2ff9","5f60ee54ff061c010ebdd812","false","null","<span style=""color: black; font-size: 48px"">N + M</span>","null","","","","resp_prompt","","","","","","","","","","","","","","","",""
"categorize-image","25","206182","0.0-2.0-2.0-1.7","42f7166td47psrf","practice_no_cue","5e19a8a96b550823487ecf7f","5f60e3c0a3b16e07647b2ff9","5f60ee54ff061c010ebdd812","true","887.28500000434","./Stimuli/ImagesPractice/SN220.jpg","76","","","","test","false","N + M","83","","SN","SN220.jpg","forget","old","8","1","start","right","","","",""
"html-keyboard-response","26","206898","0.0-2.0-2.0-0.8","42f7166td47psrf","practice_no_cue","5e19a8a96b550823487ecf7f","5f60e3c0a3b16e07647b2ff9","5f60ee54ff061c010ebdd812","false","null","<span style=""color: black; font-size: 48px"">M + N</span>","null","","","","resp_prompt","","","","","","","","","","","","","","","",""
"categorize-image","27","208641","0.0-2.0-2.0-1.8","42f7166td47psrf","practice_no_cue","5e19a8a96b550823487ecf7f","5f60e3c0a3b16e07647b2ff9","5f60ee54ff061c010ebdd812","true","1227.954999980284","./Stimuli/ImagesPractice/SM97.jpg","83","","","","test","true","M + N","83","","SM","SM97.jpg","forget","old","9","1","start","left","","","",""
"html-keyboard-response","28","209344","0.0-2.0-2.0-0.9","42f7166td47psrf","practice_no_cue","5e19a8a96b550823487ecf7f","5f60e3c0a3b16e07647b2ff9","5f60ee54ff061c010ebdd812","false","null","<span style=""color: black; font-size: 48px"">N + M</span>","null","","","","resp_prompt","","","","","","","","","","","","","","","",""
"categorize-image","29","211572","0.0-2.0-2.0-1.9","42f7166td47psrf","practice_no_cue","5e19a8a96b550823487ecf7f","5f60e3c0a3b16e07647b2ff9","5f60ee54ff061c010ebdd812","true","1718.8349999778438","./Stimuli/ImagesPractice/SN75.jpg","76","","","","test","false","N + M","83","","SN","SN75.jpg","remember","old","10","1","start","right","","","",""
"html-keyboard-response","30","212285","0.0-2.0-2.0-0.10","42f7166td47psrf","practice_no_cue","5e19a8a96b550823487ecf7f","5f60e3c0a3b16e07647b2ff9","5f60ee54ff061c010ebdd812","false","null","<span style=""color: black; font-size: 48px"">N + M</span>","null","","","","resp_prompt","","","","","","","","","","","","","","","",""
"categorize-image","31","214658","0.0-2.0-2.0-1.10","42f7166td47psrf","practice_no_cue","5e19a8a96b550823487ecf7f","5f60e3c0a3b16e07647b2ff9","5f60ee54ff061c010ebdd812","true","1864.514999993844","./Stimuli/ImagesPractice/LM143.jpg","83","","","","test","false","N + M","76","","LM","LM143.jpg","remember","old","11","1","start","left","","","",""
"html-keyboard-response","32","215361","0.0-2.0-2.0-0.11","42f7166td47psrf","practice_no_cue","5e19a8a96b550823487ecf7f","5f60e3c0a3b16e07647b2ff9","5f60ee54ff061c010ebdd812","false","null","<span style=""color: black; font-size: 48px"">N + M</span>","null","","","","resp_prompt","","","","","","","","","","","","","","","",""
"categorize-image","33","217877","0.0-2.0-2.0-1.11","42f7166td47psrf","practice_no_cue","5e19a8a96b550823487ecf7f","5f60e3c0a3b16e07647b2ff9","5f60ee54ff061c010ebdd812","true","2005.074999993667","./Stimuli/ImagesPractice/SM61.jpg","76","","","","test","true","N + M","76","","SM","SM61.jpg","remember","old","12","1","start","right","","","",""
"html-keyboard-response","34","218593","0.0-2.0-2.0-0.12","42f7166td47psrf","practice_no_cue","5e19a8a96b550823487ecf7f","5f60e3c0a3b16e07647b2ff9","5f60ee54ff061c010ebdd812","false","null","<span style=""color: black; font-size: 48px"">N + M</span>","null","","","","resp_prompt","","","","","","","","","","","","","","","",""
"categorize-image","35","220066","0.0-2.0-2.0-1.12","42f7166td47psrf","practice_no_cue","5e19a8a96b550823487ecf7f","5f60e3c0a3b16e07647b2ff9","5f60ee54ff061c010ebdd812","true","964.3949999881443","./Stimuli/ImagesPractice/LN109.jpg","76","","","","test","false","N + M","83","","LN","LN109.jpg","forget","old","13","1","start","right","","","",""
"html-keyboard-response","36","220778","0.0-2.0-2.0-0.13","42f7166td47psrf","practice_no_cue","5e19a8a96b550823487ecf7f","5f60e3c0a3b16e07647b2ff9","5f60ee54ff061c010ebdd812","false","null","<span style=""color: black; font-size: 48px"">M + N</span>","null","","","","resp_prompt","","","","","","","","","","","","","","","",""
"categorize-image","37","223289","0.0-2.0-2.0-1.13","42f7166td47psrf","practice_no_cue","5e19a8a96b550823487ecf7f","5f60e3c0a3b16e07647b2ff9","5f60ee54ff061c010ebdd812","true","null","./Stimuli/ImagesPractice/LN15.jpg","null","","","","test","false","M + N","76","","LN","LN15.jpg","remember","old","14","1","start","too_slow","","","",""
"html-keyboard-response","38","223994","0.0-2.0-2.0-0.14","42f7166td47psrf","practice_no_cue","5e19a8a96b550823487ecf7f","5f60e3c0a3b16e07647b2ff9","5f60ee54ff061c010ebdd812","false","null","<span style=""color: black; font-size: 48px"">M + N</span>","null","","","","resp_prompt","","","","","","","","","","","","","","","",""
"categorize-image","39","225190","0.0-2.0-2.0-1.14","42f7166td47psrf","practice_no_cue","5e19a8a96b550823487ecf7f","5f60e3c0a3b16e07647b2ff9","5f60ee54ff061c010ebdd812","true","683.5999999893829","./Stimuli/ImagesPractice/LM239.jpg","76","","","","test","false","M + N","83","","LM","LM239.jpg","remember","old","15","1","start","right","","","",""
"html-keyboard-response","40","225895","0.0-2.0-2.0-0.15","42f7166td47psrf","practice_no_cue","5e19a8a96b550823487ecf7f","5f60e3c0a3b16e07647b2ff9","5f60ee54ff061c010ebdd812","false","null","<span style=""color: black; font-size: 48px"">M + N</span>","null","","","","resp_prompt","","","","","","","","","","","","","","","",""
"categorize-image","41","227215","0.0-2.0-2.0-1.15","42f7166td47psrf","practice_no_cue","5e19a8a96b550823487ecf7f","5f60e3c0a3b16e07647b2ff9","5f60ee54ff061c010ebdd812","true","815.1199999847449","./Stimuli/ImagesPractice/LN4.jpg","76","","","","test","true","M + N","76","","LN","LN4.jpg","forget","old","16","1","start","right","","","",""
"html-keyboard-response","42","236353","0.0-2.0-3.0","42f7166td47psrf","break","5e19a8a96b550823487ecf7f","5f60e3c0a3b16e07647b2ff9","5f60ee54ff061c010ebdd812","false","9142.985000013141","<p style='font-size: 32px;'>Break</><br><br><br><br><br><p style='font-size: 24px;'>In the last block, you committed 9 errors and did not respond in time on 1 trials.
</p><p style='font-size: 24px;'>Try to respond as fast and accurately as possible in the next block as well! </p><p style='font-size: 24px;'>Press SPACE to continue.</p>","32","","","","","","","","","","","","","","","","","","","",""
"html-keyboard-response","43","243120","0.0-2.0-4.0","42f7166td47psrf","instructions","5e19a8a96b550823487ecf7f","5f60e3c0a3b16e07647b2ff9","5f60ee54ff061c010ebdd812","false","6765.069999994012","<div align=left> Great!<br><br>Are you ready to continue?<br><br>If you want to reread the instructions and redo the practice trials, <br>please press „Z“. <br><br>Press SPACE to CONTINUE with the experiment when you are ready. </div>","90","","","","","","","","","","","","","","","","","","","",""
"html-keyboard-response","44","282953","0.0-2.1-0.1","42f7166td47psrf","instructions","5e19a8a96b550823487ecf7f","5f60e3c0a3b16e07647b2ff9","5f60ee54ff061c010ebdd812","false","39829.750000004424","<div align=justify>You will classify the objects using the <strong>'S'</strong> and the <strong>'L'</strong> keys on your keyboard.<br>For doing so, please place your <strong>left index finger</strong> on the <strong>'S'</strong> key and place your <strong>right index finger</strong> on the <strong>'L'</strong> key. <br><br> Each trial starts with an instruction, indicating which key ('S'/'L') you need to press to classify <br>the object as mechanical (letter M) or non-mechanical (letter N).<br>The instruction <strong>M + N</strong> indicates that, in the current trial, by pressing the left key ('S') you classify the displayed object as mechanical (M) <br> and by pressing the right key ('L') you classify the object as non-mechanical (N). <br>The instruction <strong>N + M</strong> on the other hand indicates that by pressing the left key ('S') you classify the displayed object as non-mechanical (N) <br> and by pressing the right key ('L') you classify the object as mechanical (M). <br><br>Please press the key corresponding to the correct classification as fast as possible as soon as the object is displayed and try to avoid making mistakes.<br>If you do not respond within a 2 second window, a corresponding feedback will be displayed and the next trial will start.<br> The experiment is divided into multiple blocks to give you the opportunity to take a break after each block. <br>First, you can now practice this task. <br><br>Please place your <strong>LEFT INDEX FINGER</strong> on the 'S' key and your <strong>RIGHT INDEX FINGER</strong> on the 'L' key now. <br><br>Press SPACE to continue.</div>","32","","","","","","","","","","","","","","","","","","","",""
"html-keyboard-response","45","284321","0.0-2.1-1.1","42f7166td47psrf","instructions","5e19a8a96b550823487ecf7f","5f60e3c0a3b16e07647b2ff9","5f60ee54ff061c010ebdd812","false","1365.5649999855086","<div align=left> You will now have time to practice this task.<br><br>Remember: <br> <br><li>Please place your index fingers on the <strong>'S'</strong> and <strong>'L'</strong> keys <br>to respond as fast and accurately as possible.</li><li>Every picture can be classified as either mechanical or non-mechanical.</li><li>If you do not respond in time or commit an error, you will receive a corresponding feedback. </li><li> Please try to respond as <strong> fast </strong> and as <strong> accurately as possible </strong> .<br><li>To ensure optimal results, please minimize distractions and stay focused. </li><br><br>Press SPACE to continue.</div>","32","","","","","","","","","","","","","","","","","","","",""
"html-keyboard-response","46","285036","0.0-2.1-2.1-0.16","42f7166td47psrf","practice_no_cue","5e19a8a96b550823487ecf7f","5f60e3c0a3b16e07647b2ff9","5f60ee54ff061c010ebdd812","false","null","<span style=""color: black; font-size: 48px"">N + M</span>","null","","","","resp_prompt","","","","","","","","","","","","","","","",""
"categorize-image","47","286133","0.0-2.1-2.1-1.16","42f7166td47psrf","practice_no_cue","5e19a8a96b550823487ecf7f","5f60e3c0a3b16e07647b2ff9","5f60ee54ff061c010ebdd812","true","584.949999989476","./Stimuli/ImagesPractice/SM62.jpg","83","","","","test","false","N + M","76","","SM","SM62.jpg","forget","old","17","2","practice_forget","left","","","",""
"html-keyboard-response","48","286837","0.0-2.1-2.1-0.17","42f7166td47psrf","practice_no_cue","5e19a8a96b550823487ecf7f","5f60e3c0a3b16e07647b2ff9","5f60ee54ff061c010ebdd812","false","null","<span style=""color: black; font-size: 48px"">M + N</span>","null","","","","resp_prompt","","","","","","","","","","","","","","","",""
"categorize-image","49","288852","0.0-2.1-2.1-1.17","42f7166td47psrf","practice_no_cue","5e19a8a96b550823487ecf7f","5f60e3c0a3b16e07647b2ff9","5f60ee54ff061c010ebdd812","true","1505.3000000189058","./Stimuli/ImagesPractice/LM55.jpg","76","","","","test","false","M + N","83","","LM","LM55.jpg","forget","old","18","2","practice_forget","right","","","",""
"html-keyboard-response","50","289553","0.0-2.1-2.1-0.18","42f7166td47psrf","practice_no_cue","5e19a8a96b550823487ecf7f","5f60e3c0a3b16e07647b2ff9","5f60ee54ff061c010ebdd812","false","null","<span style=""color: black; font-size: 48px"">M + N</span>","null","","","","resp_prompt","","","","","","","","","","","","","","","",""
"categorize-image","51","290233","0.0-2.1-2.1-1.18","42f7166td47psrf","practice_no_cue","5e19a8a96b550823487ecf7f","5f60e3c0a3b16e07647b2ff9","5f60ee54ff061c010ebdd812","true","163.6900000157766","./Stimuli/ImagesPractice/SN222.jpg","83","","","","test","false","M + N","76","","SN","SN222.jpg","forget","old","19","2","practice_forget","left","","","",""
"html-keyboard-response","52","290942","0.0-2.1-2.1-0.19","42f7166td47psrf","practice_no_cue","5e19a8a96b550823487ecf7f","5f60e3c0a3b16e07647b2ff9","5f60ee54ff061c010ebdd812","false","null","<span style=""color: black; font-size: 48px"">N + M</span>","null","","","","resp_prompt","","","","","","","","","","","","","","","",""
"categorize-image","53","291650","0.0-2.1-2.1-1.19","42f7166td47psrf","practice_no_cue","5e19a8a96b550823487ecf7f","5f60e3c0a3b16e07647b2ff9","5f60ee54ff061c010ebdd812","true","199.7350000019651","./Stimuli/ImagesPractice/LN17.jpg","76","","","","test","false","N + M","83","","LN","LN17.jpg","forget","old","20","2","practice_forget","right","","","",""
"html-keyboard-response","54","292354","0.0-2.1-2.1-0.20","42f7166td47psrf","practice_no_cue","5e19a8a96b550823487ecf7f","5f60e3c0a3b16e07647b2ff9","5f60ee54ff061c010ebdd812","false","null","<span style=""color: black; font-size: 48px"">M + N</span>","null","","","","resp_prompt","","","","","","","","","","","","","","","",""
"categorize-image","55","293636","0.0-2.1-2.1-1.20","42f7166td47psrf","practice_no_cue","5e19a8a96b550823487ecf7f","5f60e3c0a3b16e07647b2ff9","5f60ee54ff061c010ebdd812","true","764.0899999823887","./Stimuli/ImagesPractice/SN205.jpg","83","","","","test","false","M + N","76","","SN","SN205.jpg","remember","old","21","2","practice_forget","left","","","",""
"html-keyboard-response","56","294338","0.0-2.1-2.1-0.21","42f7166td47psrf","practice_no_cue","5e19a8a96b550823487ecf7f","5f60e3c0a3b16e07647b2ff9","5f60ee54ff061c010ebdd812","false","null","<span style=""color: black; font-size: 48px"">N + M</span>","null","","","","resp_prompt","","","","","","","","","","","","","","","",""
"categorize-image","57","295368","0.0-2.1-2.1-1.21","42f7166td47psrf","practice_no_cue","5e19a8a96b550823487ecf7f","5f60e3c0a3b16e07647b2ff9","5f60ee54ff061c010ebdd812","true","524.5149999973364","./Stimuli/ImagesPractice/SN75.jpg","76","","","","test","false","N + M","83","","SN","SN75.jpg","remember","old","22","2","practice_forget","right","","","",""
"html-keyboard-response","58","296071","0.0-2.1-2.1-0.22","42f7166td47psrf","practice_no_cue","5e19a8a96b550823487ecf7f","5f60e3c0a3b16e07647b2ff9","5f60ee54ff061c010ebdd812","false","null","<span style=""color: black; font-size: 48px"">M + N</span>","null","","","","resp_prompt","","","","","","","","","","","","","","","",""
"categorize-image","59","297126","0.0-2.1-2.1-1.22","42f7166td47psrf","practice_no_cue","5e19a8a96b550823487ecf7f","5f60e3c0a3b16e07647b2ff9","5f60ee54ff061c010ebdd812","true","535.1300000038464","./Stimuli/ImagesPractice/LN4.jpg","76","","","","test","true","M + N","76","","LN","LN4.jpg","forget","old","23","2","practice_forget","right","","","",""
"html-keyboard-response","60","297830","0.0-2.1-2.1-0.23","42f7166td47psrf","practice_no_cue","5e19a8a96b550823487ecf7f","5f60e3c0a3b16e07647b2ff9","5f60ee54ff061c010ebdd812","false","null","<span style=""color: black; font-size: 48px"">M + N</span>","null","","","","resp_prompt","","","","","","","","","","","","","","","",""
"categorize-image","61","299109","0.0-2.1-2.1-1.23","42f7166td47psrf","practice_no_cue","5e19a8a96b550823487ecf7f","5f60e3c0a3b16e07647b2ff9","5f60ee54ff061c010ebdd812","true","760.4900000151247","./Stimuli/ImagesPractice/LM239.jpg","76","","","","test","false","M + N","83","","LM","LM239.jpg","remember","old","24","2","practice_forget","right","","","",""
"html-keyboard-response","62","299813","0.0-2.1-2.1-0.24","42f7166td47psrf","practice_no_cue","5e19a8a96b550823487ecf7f","5f60e3c0a3b16e07647b2ff9","5f60ee54ff061c010ebdd812","false","null","<span style=""color: black; font-size: 48px"">M + N</span>","null","","","","resp_prompt","","","","","","","","","","","","","","","",""
"categorize-image","63","300795","0.0-2.1-2.1-1.24","42f7166td47psrf","practice_no_cue","5e19a8a96b550823487ecf7f","5f60e3c0a3b16e07647b2ff9","5f60ee54ff061c010ebdd812","true","473.51500001968816","./Stimuli/ImagesPractice/SM97.jpg","83","","","","test","true","M + N","83","","SM","SM97.jpg","forget","old","25","2","practice_forget","left","","","",""
"html-keyboard-response","64","301512","0.0-2.1-2.1-0.25","42f7166td47psrf","practice_no_cue","5e19a8a96b550823487ecf7f","5f60e3c0a3b16e07647b2ff9","5f60ee54ff061c010ebdd812","false","null","<span style=""color: black; font-size: 48px"">N + M</span>","null","","","","resp_prompt","","","","","","","","","","","","","","","",""
"categorize-image","65","302828","0.0-2.1-2.1-1.25","42f7166td47psrf","practice_no_cue","5e19a8a96b550823487ecf7f","5f60e3c0a3b16e07647b2ff9","5f60ee54ff061c010ebdd812","true","806.9200000027195","./Stimuli/ImagesPractice/LN109.jpg","83","","","","test","true","N + M","83","","LN","LN109.jpg","forget","old","26","2","practice_forget","left","","","",""
"html-keyboard-response","66","303530","0.0-2.1-2.1-0.26","42f7166td47psrf","practice_no_cue","5e19a8a96b550823487ecf7f","5f60e3c0a3b16e07647b2ff9","5f60ee54ff061c010ebdd812","false","null","<span style=""color: black; font-size: 48px"">M + N</span>","null","","","","resp_prompt","","","","","","","","","","","","","","","",""
"categorize-image","67","304828","0.0-2.1-2.1-1.26","42f7166td47psrf","practice_no_cue","5e19a8a96b550823487ecf7f","5f60e3c0a3b16e07647b2ff9","5f60ee54ff061c010ebdd812","true","789.2549999814946","./Stimuli/ImagesPractice/SM98.jpg","83","","","","test","true","M + N","83","","SM","SM98.jpg","remember","old","27","2","practice_forget","left","","","",""
"html-keyboard-response","68","305545","0.0-2.1-2.1-0.27","42f7166td47psrf","practice_no_cue","5e19a8a96b550823487ecf7f","5f60e3c0a3b16e07647b2ff9","5f60ee54ff061c010ebdd812","false","null","<span style=""color: black; font-size: 48px"">N + M</span>","null","","","","resp_prompt","","","","","","","","","","","","","","","",""
"categorize-image","69","307177","0.0-2.1-2.1-1.27","42f7166td47psrf","practice_no_cue","5e19a8a96b550823487ecf7f","5f60e3c0a3b16e07647b2ff9","5f60ee54ff061c010ebdd812","true","1126.8649999983609","./Stimuli/ImagesPractice/SN220.jpg","76","","","","test","false","N + M","83","","SN","SN220.jpg","forget","old","28","2","practice_forget","right","","","",""
"html-keyboard-response","70","307886","0.0-2.1-2.1-0.28","42f7166td47psrf","practice_no_cue","5e19a8a96b550823487ecf7f","5f60e3c0a3b16e07647b2ff9","5f60ee54ff061c010ebdd812","false","null","<span style=""color: black; font-size: 48px"">M + N</span>","null","","","","resp_prompt","","","","","","","","","","","","","","","",""
"categorize-image","71","309295","0.0-2.1-2.1-1.28","42f7166td47psrf","practice_no_cue","5e19a8a96b550823487ecf7f","5f60e3c0a3b16e07647b2ff9","5f60ee54ff061c010ebdd812","true","897.0700000063516","./Stimuli/ImagesPractice/LN15.jpg","83","","","","test","false","M + N","76","","LN","LN15.jpg","remember","old","29","2","practice_forget","left","","","",""
"html-keyboard-response","72","310000","0.0-2.1-2.1-0.29","42f7166td47psrf","practice_no_cue","5e19a8a96b550823487ecf7f","5f60e3c0a3b16e07647b2ff9","5f60ee54ff061c010ebdd812","false","null","<span style=""color: black; font-size: 48px"">N + M</span>","null","","","","resp_prompt","","","","","","","","","","","","","","","",""
"categorize-image","73","311460","0.0-2.1-2.1-1.29","42f7166td47psrf","practice_no_cue","5e19a8a96b550823487ecf7f","5f60e3c0a3b16e07647b2ff9","5f60ee54ff061c010ebdd812","true","951.6449999937322","./Stimuli/ImagesPractice/SM61.jpg","83","","","","test","false","N + M","76","","SM","SM61.jpg","remember","old","30","2","practice_forget","left","","","",""
"html-keyboard-response","74","312171","0.0-2.1-2.1-0.30","42f7166td47psrf","practice_no_cue","5e19a8a96b550823487ecf7f","5f60e3c0a3b16e07647b2ff9","5f60ee54ff061c010ebdd812","false","null","<span style=""color: black; font-size: 48px"">N + M</span>","null","","","","resp_prompt","","","","","","","","","","","","","","","",""
"categorize-image","75","312769","0.0-2.1-2.1-1.30","42f7166td47psrf","practice_no_cue","5e19a8a96b550823487ecf7f","5f60e3c0a3b16e07647b2ff9","5f60ee54ff061c010ebdd812","true","84.45499997469597","./Stimuli/ImagesPractice/LM143.jpg","76","","","","test","true","N + M","76","","LM","LM143.jpg","remember","old","31","2","practice_forget","right","","","",""
"html-keyboard-response","76","313480","0.0-2.1-2.1-0.31","42f7166td47psrf","practice_no_cue","5e19a8a96b550823487ecf7f","5f60e3c0a3b16e07647b2ff9","5f60ee54ff061c010ebdd812","false","null","<span style=""color: black; font-size: 48px"">N + M</span>","null","","","","resp_prompt","","","","","","","","","","","","","","","",""
"categorize-image","77","314028","0.0-2.1-2.1-1.31","42f7166td47psrf","practice_no_cue","5e19a8a96b550823487ecf7f","5f60e3c0a3b16e07647b2ff9","5f60ee54ff061c010ebdd812","true","31.02500000386499","./Stimuli/ImagesPractice/SM35.jpg","76","","","","test","true","N + M","76","","SM","SM35.jpg","remember","old","32","2","practice_forget","right","","","",""
"html-keyboard-response","78","317826","0.0-2.1-3.1","42f7166td47psrf","break","5e19a8a96b550823487ecf7f","5f60e3c0a3b16e07647b2ff9","5f60ee54ff061c010ebdd812","false","3792.615000013029","<p style='font-size: 32px;'>Break</><br><br><br><br><br><p style='font-size: 24px;'>In the last block, you committed 10 errors and did not respond in time on 0 trials.
</p><p style='font-size: 24px;'>Try to respond as fast and accurately as possible in the next block as well! </p><p style='font-size: 24px;'>Press SPACE to continue.</p>","32","","","","","","","","","","","","","","","","","","","",""
"html-keyboard-response","79","320969","0.0-2.1-4.1","42f7166td47psrf","instructions","5e19a8a96b550823487ecf7f","5f60e3c0a3b16e07647b2ff9","5f60ee54ff061c010ebdd812","false","3141.040000016801","<div align=left> Great!<br><br>Are you ready to continue?<br><br>If you want to reread the instructions and redo the practice trials, <br>please press „Z“. <br><br>Press SPACE to CONTINUE with the experiment when you are ready. </div>","32","","","","","","","","","","","","","","","","","","","",""
"html-keyboard-response","80","390506","0.0-3.0-0.0","42f7166td47psrf","instructions","5e19a8a96b550823487ecf7f","5f60e3c0a3b16e07647b2ff9","5f60ee54ff061c010ebdd812","false","69534.74000000278","<div align=left>Great!<br> <strong>Attention</strong>! You will now receive a second, additional task! <br><br>To this point it was you <strong>first task</strong> to correctly <strong>classify objects</strong>. <br><br>As mentioned in the beginning, we aim to examine how well humans can remember previously learned information.<br>We would like to find out whether our memory improves if we only remember information that is relevant to us. <br><br>Therefore, your <strong>second task</strong> will be to <strong>remember</strong> the pictures you are to categorize. <br> After the learning phase, there will be a memory test phase, in which you will be asked to indicate whether you have seen a picture before or not. <br>Some, but not all pictures shown in the learning phase will appear in the memory test phase.<br>After classifying a picture, you will be told whether you should remember it for the memory test phase or not. <br>Thus, some pictures can be forgotten, whereas others have to be remembered. <br><br>Note: From now on, feedback will only be displayed if you responded incorrectly or not in time.<br><br>Press SPACE to continue.</div>","32","","","","","","","","","","","","","","","","","","","",""
"html-keyboard-response","81","421053","0.0-3.0-1.0","42f7166td47psrf","instructions","5e19a8a96b550823487ecf7f","5f60e3c0a3b16e07647b2ff9","5f60ee54ff061c010ebdd812","false","30545.489999989513","<div align=left>In the following part, you will thus have to remember only some pictures. <br>Immediately after seeing and classifying the picture, a symbol will be displayed, indicating whether you should remember or forget the previous picture. <br><br>A <span style='color: dodgerblue; font-size: 28px'>O</span> indicates REMEMBER. That means, you have to remember this picture, because it will be tested later. <br><br>A <span style='color: darkorange; font-size:28px'>Ø</span> indicates FORGET. You do not have to remember this picture. <br><br> As you will have to remember a lot of pictures, it will be hard for you to remember all of them. <br>It will put you at an advantage if you instantly forget the pictures you are not asked to remember. <br> This will make it easier for you to remember the pictures that will be tested afterwards. <br><br>Press SPACE to continue.</div>","32","","","","","","","","","","","","","","","","","","","",""
"html-keyboard-response","82","430793","0.0-3.0-2.0","42f7166td47psrf","instructions","5e19a8a96b550823487ecf7f","5f60e3c0a3b16e07647b2ff9","5f60ee54ff061c010ebdd812","false","9737.829999998212","<div align=left> Now you have the chance to practice both tasks together.<br><br>Remember: <br> <br><li>Please place your index fingers on the <strong>'S'</strong> and <strong>'L'</strong> keys <br>to respond as fast and accurately as possible.</li><li>Every picture can be classified as either mechanical or non-mechanical.</li><li>If you do not respond in time or commit an error, you will receive a corresponding feedback. <br>Please try to respond as <strong> fast </strong> and as <strong> accurately as possible </strong>.</li><li> Please remember only the to-be-remembered <span style='color: dodgerblue; font-size: 28px'>O</span> pictures. <br></li><li> Please minimize distractions and stay focused. </li><br><br>Press SPACE to START</div>","32","","","","","","","","","","","","","","","","","","","",""
"html-keyboard-response","83","431497","0.0-3.0-3.0-0.0","42f7166td47psrf","practice_cue","5e19a8a96b550823487ecf7f","5f60e3c0a3b16e07647b2ff9","5f60ee54ff061c010ebdd812","false","null","<span style=""color: black; font-size: 48px"">M + N</span>","null","","","","resp_prompt","","","","","","","","","","","","","","","",""
"categorize-image","84","433503","0.0-3.0-3.0-1.0","42f7166td47psrf","practice_cue","5e19a8a96b550823487ecf7f","5f60e3c0a3b16e07647b2ff9","5f60ee54ff061c010ebdd812","true","null","./Stimuli/ImagesPractice/LM239.jpg","null","","","","test","false","M + N","83","","LM","LM239.jpg","remember","old","33","3","practice_forget","too_slow","","","",""
"html-keyboard-response","85","434011","0.0-3.0-3.0-2.0-0.0","42f7166td47psrf","practice_cue","5e19a8a96b550823487ecf7f","5f60e3c0a3b16e07647b2ff9","5f60ee54ff061c010ebdd812","false","null","<span style=""color: red; font-size: 48px"">Too slow!</span>","null","","","","feedback","","","","","","","","","","","","","","","",""
"html-keyboard-response","86","436024","0.0-3.0-3.0-3.0","42f7166td47psrf","practice_cue","5e19a8a96b550823487ecf7f","5f60e3c0a3b16e07647b2ff9","5f60ee54ff061c010ebdd812","false","null","<div style=""align-items: center; display: flex; color: dodgerblue; font-size: 90px""><b>o</b></div>","null","","","","forget_cue","","","","","","","","","","","","","","","",""
"html-keyboard-response","87","436739","0.0-3.0-3.0-0.1","42f7166td47psrf","practice_cue","5e19a8a96b550823487ecf7f","5f60e3c0a3b16e07647b2ff9","5f60ee54ff061c010ebdd812","false","null","<span style=""color: black; font-size: 48px"">N + M</span>","null","","","","resp_prompt","","","","","","","","","","","","","","","",""
"categorize-image","88","438204","0.0-3.0-3.0-1.1","42f7166td47psrf","practice_cue","5e19a8a96b550823487ecf7f","5f60e3c0a3b16e07647b2ff9","5f60ee54ff061c010ebdd812","true","1459.579999995185","./Stimuli/ImagesPractice/SM62.jpg","83","","","","test","false","N + M","76","","SM","SM62.jpg","forget","old","34","3","practice_forget","left","","","",""
"html-keyboard-response","89","438714","0.0-3.0-3.0-2.1-0.1","42f7166td47psrf","practice_cue","5e19a8a96b550823487ecf7f","5f60e3c0a3b16e07647b2ff9","5f60ee54ff061c010ebdd812","false","null","<span style=""color: red; font-size: 48px"">Error!</span>","null","","","","feedback","","","","","","","","","","","","","","","",""
"html-keyboard-response","90","440727","0.0-3.0-3.0-3.1","42f7166td47psrf","practice_cue","5e19a8a96b550823487ecf7f","5f60e3c0a3b16e07647b2ff9","5f60ee54ff061c010ebdd812","false","null","<div style=""align-items: center; display: flex; color: darkorange; font-size: 90px""><b>ø</b></div>","null","","","","forget_cue","","","","","","","","","","","","","","","",""
"html-keyboard-response","91","441431","0.0-3.0-3.0-0.2","42f7166td47psrf","practice_cue","5e19a8a96b550823487ecf7f","5f60e3c0a3b16e07647b2ff9","5f60ee54ff061c010ebdd812","false","null","<span style=""color: black; font-size: 48px"">M + N</span>","null","","","","resp_prompt","","","","","","","","","","","","","","","",""
"categorize-image","92","442005","0.0-3.0-3.0-1.2","42f7166td47psrf","practice_cue","5e19a8a96b550823487ecf7f","5f60e3c0a3b16e07647b2ff9","5f60ee54ff061c010ebdd812","true","566.4049999904819","./Stimuli/ImagesPractice/LN15.jpg","76","","","","test","true","M + N","76","","LN","LN15.jpg","remember","old","35","3","practice_forget","right","","","",""
"html-keyboard-response","93","444013","0.0-3.0-3.0-3.2","42f7166td47psrf","practice_cue","5e19a8a96b550823487ecf7f","5f60e3c0a3b16e07647b2ff9","5f60ee54ff061c010ebdd812","false","null","<div style=""align-items: center; display: flex; color: dodgerblue; font-size: 90px""><b>o</b></div>","null","","","","forget_cue","","","","","","","","","","","","","","","",""
"html-keyboard-response","94","444717","0.0-3.0-3.0-0.3","42f7166td47psrf","practice_cue","5e19a8a96b550823487ecf7f","5f60e3c0a3b16e07647b2ff9","5f60ee54ff061c010ebdd812","false","null","<span style=""color: black; font-size: 48px"">N + M</span>","null","","","","resp_prompt","","","","","","","","","","","","","","","",""
"categorize-image","95","445444","0.0-3.0-3.0-1.3","42f7166td47psrf","practice_cue","5e19a8a96b550823487ecf7f","5f60e3c0a3b16e07647b2ff9","5f60ee54ff061c010ebdd812","true","722.6199999859091","./Stimuli/ImagesPractice/SM35.jpg","83","","","","test","false","N + M","76","","SM","SM35.jpg","remember","old","36","3","practice_forget","left","","","",""
"html-keyboard-response","96","445951","0.0-3.0-3.0-2.3-0.3","42f7166td47psrf","practice_cue","5e19a8a96b550823487ecf7f","5f60e3c0a3b16e07647b2ff9","5f60ee54ff061c010ebdd812","false","null","<span style=""color: red; font-size: 48px"">Error!</span>","null","","","","feedback","","","","","","","","","","","","","","","",""
"html-keyboard-response","97","447955","0.0-3.0-3.0-3.3","42f7166td47psrf","practice_cue","5e19a8a96b550823487ecf7f","5f60e3c0a3b16e07647b2ff9","5f60ee54ff061c010ebdd812","false","null","<div style=""align-items: center; display: flex; color: dodgerblue; font-size: 90px""><b>o</b></div>","null","","","","forget_cue","","","","","","","","","","","","","","","",""
"html-keyboard-response","98","448664","0.0-3.0-3.0-0.4","42f7166td47psrf","practice_cue","5e19a8a96b550823487ecf7f","5f60e3c0a3b16e07647b2ff9","5f60ee54ff061c010ebdd812","false","null","<span style=""color: black; font-size: 48px"">M + N</span>","null","","","","resp_prompt","","","","","","","","","","","","","","","",""
"categorize-image","99","449246","0.0-3.0-3.0-1.4","42f7166td47psrf","practice_cue","5e19a8a96b550823487ecf7f","5f60e3c0a3b16e07647b2ff9","5f60ee54ff061c010ebdd812","true","576.1550000170246","./Stimuli/ImagesPractice/SM97.jpg","76","","","","test","false","M + N","83","","SM","SM97.jpg","forget","old","37","3","practice_forget","right","","","",""
"html-keyboard-response","100","449751","0.0-3.0-3.0-2.4-0.4","42f7166td47psrf","practice_cue","5e19a8a96b550823487ecf7f","5f60e3c0a3b16e07647b2ff9","5f60ee54ff061c010ebdd812","false","null","<span style=""color: red; font-size: 48px"">Error!</span>","null","","","","feedback","","","","","","","","","","","","","","","",""
"html-keyboard-response","101","451766","0.0-3.0-3.0-3.4","42f7166td47psrf","practice_cue","5e19a8a96b550823487ecf7f","5f60e3c0a3b16e07647b2ff9","5f60ee54ff061c010ebdd812","false","null","<div style=""align-items: center; display: flex; color: darkorange; font-size: 90px""><b>ø</b></div>","null","","","","forget_cue","","","","","","","","","","","","","","","",""
"html-keyboard-response","102","452482","0.0-3.0-3.0-0.5","42f7166td47psrf","practice_cue","5e19a8a96b550823487ecf7f","5f60e3c0a3b16e07647b2ff9","5f60ee54ff061c010ebdd812","false","null","<span style=""color: black; font-size: 48px"">M + N</span>","null","","","","resp_prompt","","","","","","","","","","","","","","","",""
"categorize-image","103","453532","0.0-3.0-3.0-1.5","42f7166td47psrf","practice_cue","5e19a8a96b550823487ecf7f","5f60e3c0a3b16e07647b2ff9","5f60ee54ff061c010ebdd812","true","1045.7099999766797","./Stimuli/ImagesPractice/LM55.jpg","83","","","","test","true","M + N","83","","LM","LM55.jpg","forget","old","38","3","practice_forget","left","","","",""
"html-keyboard-response","104","455550","0.0-3.0-3.0-3.5","42f7166td47psrf","practice_cue","5e19a8a96b550823487ecf7f","5f60e3c0a3b16e07647b2ff9","5f60ee54ff061c010ebdd812","false","null","<div style=""align-items: center; display: flex; color: darkorange; font-size: 90px""><b>ø</b></div>","null","","","","forget_cue","","","","","","","","","","","","","","","",""
"html-keyboard-response","105","456254","0.0-3.0-3.0-0.6","42f7166td47psrf","practice_cue","5e19a8a96b550823487ecf7f","5f60e3c0a3b16e07647b2ff9","5f60ee54ff061c010ebdd812","false","null","<span style=""color: black; font-size: 48px"">M + N</span>","null","","","","resp_prompt","","","","","","","","","","","","","","","",""
"categorize-image","106","456909","0.0-3.0-3.0-1.6","42f7166td47psrf","practice_cue","5e19a8a96b550823487ecf7f","5f60e3c0a3b16e07647b2ff9","5f60ee54ff061c010ebdd812","true","649.4300000194926","./Stimuli/ImagesPractice/SN222.jpg","76","","","","test","true","M + N","76","","SN","SN222.jpg","forget","old","39","3","practice_forget","right","","","",""
"html-keyboard-response","107","458914","0.0-3.0-3.0-3.6","42f7166td47psrf","practice_cue","5e19a8a96b550823487ecf7f","5f60e3c0a3b16e07647b2ff9","5f60ee54ff061c010ebdd812","false","null","<div style=""align-items: center; display: flex; color: darkorange; font-size: 90px""><b>ø</b></div>","null","","","","forget_cue","","","","","","","","","","","","","","","",""
"html-keyboard-response","108","459630","0.0-3.0-3.0-0.7","42f7166td47psrf","practice_cue","5e19a8a96b550823487ecf7f","5f60e3c0a3b16e07647b2ff9","5f60ee54ff061c010ebdd812","false","null","<span style=""color: black; font-size: 48px"">M + N</span>","null","","","","resp_prompt","","","","","","","","","","","","","","","",""
"categorize-image","109","460467","0.0-3.0-3.0-1.7","42f7166td47psrf","practice_cue","5e19a8a96b550823487ecf7f","5f60e3c0a3b16e07647b2ff9","5f60ee54ff061c010ebdd812","true","833.0249999999069","./Stimuli/ImagesPractice/LN4.jpg","76","","","","test","true","M + N","76","","LN","LN4.jpg","forget","old","40","3","practice_forget","right","","","",""
"html-keyboard-response","110","462477","0.0-3.0-3.0-3.7","42f7166td47psrf","practice_cue","5e19a8a96b550823487ecf7f","5f60e3c0a3b16e07647b2ff9","5f60ee54ff061c010ebdd812","false","null","<div style=""align-items: center; display: flex; color: darkorange; font-size: 90px""><b>ø</b></div>","null","","","","forget_cue","","","","","","","","","","","","","","","",""
"html-keyboard-response","111","463195","0.0-3.0-3.0-0.8","42f7166td47psrf","practice_cue","5e19a8a96b550823487ecf7f","5f60e3c0a3b16e07647b2ff9","5f60ee54ff061c010ebdd812","false","null","<span style=""color: black; font-size: 48px"">N + M</span>","null","","","","resp_prompt","","","","","","","","","","","","","","","",""
"categorize-image","112","464052","0.0-3.0-3.0-1.8","42f7166td47psrf","practice_cue","5e19a8a96b550823487ecf7f","5f60e3c0a3b16e07647b2ff9","5f60ee54ff061c010ebdd812","true","852.0199999911711","./Stimuli/ImagesPractice/LN17.jpg","76","","","","test","false","N + M","83","","LN","LN17.jpg","forget","old","41","3","practice_forget","right","","","",""
"html-keyboard-response","113","464563","0.0-3.0-3.0-2.8-0.8","42f7166td47psrf","practice_cue","5e19a8a96b550823487ecf7f","5f60e3c0a3b16e07647b2ff9","5f60ee54ff061c010ebdd812","false","null","<span style=""color: red; font-size: 48px"">Error!</span>","null","","","","feedback","","","","","","","","","","","","","","","",""
"html-keyboard-response","114","466571","0.0-3.0-3.0-3.8","42f7166td47psrf","practice_cue","5e19a8a96b550823487ecf7f","5f60e3c0a3b16e07647b2ff9","5f60ee54ff061c010ebdd812","false","null","<div style=""align-items: center; display: flex; color: darkorange; font-size: 90px""><b>ø</b></div>","null","","","","forget_cue","","","","","","","","","","","","","","","",""
"html-keyboard-response","115","467283","0.0-3.0-3.0-0.9","42f7166td47psrf","practice_cue","5e19a8a96b550823487ecf7f","5f60e3c0a3b16e07647b2ff9","5f60ee54ff061c010ebdd812","false","null","<span style=""color: black; font-size: 48px"">M + N</span>","null","","","","resp_prompt","","","","","","","","","","","","","","","",""
"categorize-image","116","467900","0.0-3.0-3.0-1.9","42f7166td47psrf","practice_cue","5e19a8a96b550823487ecf7f","5f60e3c0a3b16e07647b2ff9","5f60ee54ff061c010ebdd812","true","611.8799999821931","./Stimuli/ImagesPractice/SM98.jpg","83","","","","test","true","M + N","83","","SM","SM98.jpg","remember","old","42","3","practice_forget","left","","","",""
"html-keyboard-response","117","469915","0.0-3.0-3.0-3.9","42f7166td47psrf","practice_cue","5e19a8a96b550823487ecf7f","5f60e3c0a3b16e07647b2ff9","5f60ee54ff061c010ebdd812","false","null","<div style=""align-items: center; display: flex; color: dodgerblue; font-size: 90px""><b>o</b></div>","null","","","","forget_cue","","","","","","","","","","","","","","","",""
"html-keyboard-response","118","470618","0.0-3.0-3.0-0.10","42f7166td47psrf","practice_cue","5e19a8a96b550823487ecf7f","5f60e3c0a3b16e07647b2ff9","5f60ee54ff061c010ebdd812","false","null","<span style=""color: black; font-size: 48px"">N + M</span>","null","","","","resp_prompt","","","","","","","","","","","","","","","",""
"categorize-image","119","471588","0.0-3.0-3.0-1.10","42f7166td47psrf","practice_cue","5e19a8a96b550823487ecf7f","5f60e3c0a3b16e07647b2ff9","5f60ee54ff061c010ebdd812","true","965.1249999878928","./Stimuli/ImagesPractice/LN109.jpg","83","","","","test","true","N + M","83","","LN","LN109.jpg","forget","old","43","3","practice_forget","left","","","",""
"html-keyboard-response","120","473598","0.0-3.0-3.0-3.10","42f7166td47psrf","practice_cue","5e19a8a96b550823487ecf7f","5f60e3c0a3b16e07647b2ff9","5f60ee54ff061c010ebdd812","false","null","<div style=""align-items: center; display: flex; color: darkorange; font-size: 90px""><b>ø</b></div>","null","","","","forget_cue","","","","","","","","","","","","","","","",""
"html-keyboard-response","121","474312","0.0-3.0-3.0-0.11","42f7166td47psrf","practice_cue","5e19a8a96b550823487ecf7f","5f60e3c0a3b16e07647b2ff9","5f60ee54ff061c010ebdd812","false","null","<span style=""color: black; font-size: 48px"">N + M</span>","null","","","","resp_prompt","","","","","","","","","","","","","","","",""
"categorize-image","122","475068","0.0-3.0-3.0-1.11","42f7166td47psrf","practice_cue","5e19a8a96b550823487ecf7f","5f60e3c0a3b16e07647b2ff9","5f60ee54ff061c010ebdd812","true","750.9000000136439","./Stimuli/ImagesPractice/SN75.jpg","76","","","","test","false","N + M","83","","SN","SN75.jpg","remember","old","44","3","practice_forget","right","","","",""
"html-keyboard-response","123","475572","0.0-3.0-3.0-2.11-0.11","42f7166td47psrf","practice_cue","5e19a8a96b550823487ecf7f","5f60e3c0a3b16e07647b2ff9","5f60ee54ff061c010ebdd812","false","null","<span style=""color: red; font-size: 48px"">Error!</span>","null","","","","feedback","","","","","","","","","","","","","","","",""
"html-keyboard-response","124","477580","0.0-3.0-3.0-3.11","42f7166td47psrf","practice_cue","5e19a8a96b550823487ecf7f","5f60e3c0a3b16e07647b2ff9","5f60ee54ff061c010ebdd812","false","null","<div style=""align-items: center; display: flex; color: dodgerblue; font-size: 90px""><b>o</b></div>","null","","","","forget_cue","","","","","","","","","","","","","","","",""
"html-keyboard-response","125","478297","0.0-3.0-3.0-0.12","42f7166td47psrf","practice_cue","5e19a8a96b550823487ecf7f","5f60e3c0a3b16e07647b2ff9","5f60ee54ff061c010ebdd812","false","null","<span style=""color: black; font-size: 48px"">M + N</span>","null","","","","resp_prompt","","","","","","","","","","","","","","","",""
"categorize-image","126","478860","0.0-3.0-3.0-1.12","42f7166td47psrf","practice_cue","5e19a8a96b550823487ecf7f","5f60e3c0a3b16e07647b2ff9","5f60ee54ff061c010ebdd812","true","558.5350000183098","./Stimuli/ImagesPractice/SN205.jpg","83","","","","test","false","M + N","76","","SN","SN205.jpg","remember","old","45","3","practice_forget","left","","","",""
"html-keyboard-response","127","479364","0.0-3.0-3.0-2.12-0.12","42f7166td47psrf","practice_cue","5e19a8a96b550823487ecf7f","5f60e3c0a3b16e07647b2ff9","5f60ee54ff061c010ebdd812","false","null","<span style=""color: red; font-size: 48px"">Error!</span>","null","","","","feedback","","","","","","","","","","","","","","","",""
"html-keyboard-response","128","481377","0.0-3.0-3.0-3.12","42f7166td47psrf","practice_cue","5e19a8a96b550823487ecf7f","5f60e3c0a3b16e07647b2ff9","5f60ee54ff061c010ebdd812","false","null","<div style=""align-items: center; display: flex; color: dodgerblue; font-size: 90px""><b>o</b></div>","null","","","","forget_cue","","","","","","","","","","","","","","","",""
"html-keyboard-response","129","482082","0.0-3.0-3.0-0.13","42f7166td47psrf","practice_cue","5e19a8a96b550823487ecf7f","5f60e3c0a3b16e07647b2ff9","5f60ee54ff061c010ebdd812","false","null","<span style=""color: black; font-size: 48px"">N + M</span>","null","","","","resp_prompt","","","","","","","","","","","","","","","",""
"categorize-image","130","482597","0.0-3.0-3.0-1.13","42f7166td47psrf","practice_cue","5e19a8a96b550823487ecf7f","5f60e3c0a3b16e07647b2ff9","5f60ee54ff061c010ebdd812","true","509.24999997369014","./Stimuli/ImagesPractice/SN220.jpg","76","","","","test","false","N + M","83","","SN","SN220.jpg","forget","old","46","3","practice_forget","right","","","",""
"html-keyboard-response","131","483101","0.0-3.0-3.0-2.13-0.13","42f7166td47psrf","practice_cue","5e19a8a96b550823487ecf7f","5f60e3c0a3b16e07647b2ff9","5f60ee54ff061c010ebdd812","false","null","<span style=""color: red; font-size: 48px"">Error!</span>","null","","","","feedback","","","","","","","","","","","","","","","",""
"html-keyboard-response","132","485113","0.0-3.0-3.0-3.13","42f7166td47psrf","practice_cue","5e19a8a96b550823487ecf7f","5f60e3c0a3b16e07647b2ff9","5f60ee54ff061c010ebdd812","false","null","<div style=""align-items: center; display: flex; color: darkorange; font-size: 90px""><b>ø</b></div>","null","","","","forget_cue","","","","","","","","","","","","","","","",""
"html-keyboard-response","133","485830","0.0-3.0-3.0-0.14","42f7166td47psrf","practice_cue","5e19a8a96b550823487ecf7f","5f60e3c0a3b16e07647b2ff9","5f60ee54ff061c010ebdd812","false","null","<span style=""color: black; font-size: 48px"">N + M</span>","null","","","","resp_prompt","","","","","","","","","","","","","","","",""
"categorize-image","134","486309","0.0-3.0-3.0-1.14","42f7166td47psrf","practice_cue","5e19a8a96b550823487ecf7f","5f60e3c0a3b16e07647b2ff9","5f60ee54ff061c010ebdd812","true","472.8649999888148","./Stimuli/ImagesPractice/LM143.jpg","83","","","","test","false","N + M","76","","LM","LM143.jpg","remember","old","47","3","practice_forget","left","","","",""
"html-keyboard-response","135","486816","0.0-3.0-3.0-2.14-0.14","42f7166td47psrf","practice_cue","5e19a8a96b550823487ecf7f","5f60e3c0a3b16e07647b2ff9","5f60ee54ff061c010ebdd812","false","null","<span style=""color: red; font-size: 48px"">Error!</span>","null","","","","feedback","","","","","","","","","","","","","","","",""
"html-keyboard-response","136","488828","0.0-3.0-3.0-3.14","42f7166td47psrf","practice_cue","5e19a8a96b550823487ecf7f","5f60e3c0a3b16e07647b2ff9","5f60ee54ff061c010ebdd812","false","null","<div style=""align-items: center; display: flex; color: dodgerblue; font-size: 90px""><b>o</b></div>","null","","","","forget_cue","","","","","","","","","","","","","","","",""
"html-keyboard-response","137","489531","0.0-3.0-3.0-0.15","42f7166td47psrf","practice_cue","5e19a8a96b550823487ecf7f","5f60e3c0a3b16e07647b2ff9","5f60ee54ff061c010ebdd812","false","null","<span style=""color: black; font-size: 48px"">N + M</span>","null","","","","resp_prompt","","","","","","","","","","","","","","","",""
"categorize-image","138","490541","0.0-3.0-3.0-1.15","42f7166td47psrf","practice_cue","5e19a8a96b550823487ecf7f","5f60e3c0a3b16e07647b2ff9","5f60ee54ff061c010ebdd812","true","1004.2949999915436","./Stimuli/ImagesPractice/SM61.jpg","76","","","","test","true","N + M","76","","SM","SM61.jpg","remember","old","48","3","practice_forget","right","","","",""
"html-keyboard-response","139","492546","0.0-3.0-3.0-3.15","42f7166td47psrf","practice_cue","5e19a8a96b550823487ecf7f","5f60e3c0a3b16e07647b2ff9","5f60ee54ff061c010ebdd812","false","null","<div style=""align-items: center; display: flex; color: dodgerblue; font-size: 90px""><b>o</b></div>","null","","","","forget_cue","","","","","","","","","","","","","","","",""
"html-keyboard-response","140","496482","0.0-3.0-4.0","42f7166td47psrf","break","5e19a8a96b550823487ecf7f","5f60e3c0a3b16e07647b2ff9","5f60ee54ff061c010ebdd812","false","3933.019999996759","<p style='font-size: 32px;'>Break</><br><br><br><br><br><p style='font-size: 24px;'>In the last block, you committed 8 errors and did not respond in time on 1 trials.
</p><p style='font-size: 24px;'>Try to respond as fast and accurately as possible in the next block as well! </p><p style='font-size: 24px;'>Press SPACE to continue.</p>","32","","","","","","","","","","","","","","","","","","","",""
"html-keyboard-response","141","526005","0.0-3.0-5.0","42f7166td47psrf","instructions","5e19a8a96b550823487ecf7f","5f60e3c0a3b16e07647b2ff9","5f60ee54ff061c010ebdd812","false","29520.864999998594","<div align=left> Now, to practice, we kindly ask you to remember as many of the to-be-remembered pictures<br>of the previous learning phase as possible.<br><br>The pictures you were instructed to remember were the pictures followed by a <span style='color: dodgerblue; font-size: 28px'>O</span>.<br><br>In this memory test phase, you will also see some new pictures.<br>It is your task to remember whether you were presented with this specific picture in this study so far or not.<br>If you recognize an object (you have already seen it in this study), it is an OLD object. <br>If you do not recognize an object (you have NOT seen it in this study), it is a NEW object. <br><strong> Attention</strong>: As already mentioned, <span style='color: darkorange; font-size:28px'>Ø</span>-pictures will <strong>never</strong> appear in this memory test (neither as new objects). <br><br>Press SPACE to continue. </div>","32","","","","","","","","","","","","","","","","","","","",""
"html-keyboard-response","142","586675","0.0-3.0-6.0","42f7166td47psrf","instructions","5e19a8a96b550823487ecf7f","5f60e3c0a3b16e07647b2ff9","5f60ee54ff061c010ebdd812","false","60666.99999998673","<div align=left> M and N no longer will appear on the left/right of the fixation cross. <br>Instead there will be a note at the bottom of the left or right side  <br>indicating which key you should press for an old or new object:  <br> <br>Press the <strong>right</strong> key to classify an object as <strong>old</strong> and press the <strong>left</strong>, to classify an object as <strong>new</strong>.<br>Please classify the objects as new/old by again placing your index finger on the 'S' and 'L' keys <br>and press them accordingly.<br><br><strong>Old:</strong> This object has been presented before. <br><strong>New:</strong> This object has <strong>not</strong> been presented.<br><br>Now please put your right and left index fingers on the 'S' and 'L' keys of your keyboard. <br>Please respond as fast and as accurately as possible!<br><br>Press SPACE to continue. </div>","32","","","","","","","","","","","","","","","","","","","",""
"categorize-image","143","589947","0.0-3.0-7.0-0.0","42f7166td47psrf","practice_recog","5e19a8a96b550823487ecf7f","5f60e3c0a3b16e07647b2ff9","5f60ee54ff061c010ebdd812","true","2761.769999982789","./Stimuli/ImagesPractice/SN221.jpg","76","","","","test","true","","76","","SN","SN221.jpg","","new","49","4","practice_recog","right","","","",""
"categorize-image","144","592065","0.0-3.0-7.0-0.1","42f7166td47psrf","practice_recog","5e19a8a96b550823487ecf7f","5f60e3c0a3b16e07647b2ff9","5f60ee54ff061c010ebdd812","true","1611.4050000032876","./Stimuli/ImagesPractice/LM239.jpg","83","","","","test","true","","83","","LM","LM239.jpg","","old","50","4","practice_recog","left","","","",""
"categorize-image","145","594129","0.0-3.0-7.0-0.2","42f7166td47psrf","practice_recog","5e19a8a96b550823487ecf7f","5f60e3c0a3b16e07647b2ff9","5f60ee54ff061c010ebdd812","true","1557.6850000070408","./Stimuli/ImagesPractice/LM224.jpg","76","","","","test","true","","76","","LM","LM224.jpg","","new","51","4","practice_recog","right","","","",""
"categorize-image","146","595914","0.0-3.0-7.0-0.3","42f7166td47psrf","practice_recog","5e19a8a96b550823487ecf7f","5f60e3c0a3b16e07647b2ff9","5f60ee54ff061c010ebdd812","true","1269.1500000073574","./Stimuli/ImagesPractice/LN2.jpg","76","","","","test","true","","76","","LN","LN2.jpg","","new","52","4","practice_recog","right","","","",""
"categorize-image","147","597310","0.0-3.0-7.0-0.4","42f7166td47psrf","practice_recog","5e19a8a96b550823487ecf7f","5f60e3c0a3b16e07647b2ff9","5f60ee54ff061c010ebdd812","true","885.0950000050943","./Stimuli/ImagesPractice/LM230.jpg","76","","","","test","true","","76","","LM","LM230.jpg","","new","53","4","practice_recog","right","","","",""
"categorize-image","148","598595","0.0-3.0-7.0-0.5","42f7166td47psrf","practice_recog","5e19a8a96b550823487ecf7f","5f60e3c0a3b16e07647b2ff9","5f60ee54ff061c010ebdd812","true","776.6999999876134","./Stimuli/ImagesPractice/SN205.jpg","83","","","","test","true","","83","","SN","SN205.jpg","","old","54","4","practice_recog","left","","","",""
"categorize-image","149","599912","0.0-3.0-7.0-0.6","42f7166td47psrf","practice_recog","5e19a8a96b550823487ecf7f","5f60e3c0a3b16e07647b2ff9","5f60ee54ff061c010ebdd812","true","803.0350000190083","./Stimuli/ImagesPractice/LN15.jpg","83","","","","test","true","","83","","LN","LN15.jpg","","old","55","4","practice_recog","left","","","",""
"categorize-image","150","601378","0.0-3.0-7.0-0.7","42f7166td47psrf","practice_recog","5e19a8a96b550823487ecf7f","5f60e3c0a3b16e07647b2ff9","5f60ee54ff061c010ebdd812","true","950.4550000128802","./Stimuli/ImagesPractice/SM37.jpg","76","","","","test","true","","76","","SM","SM37.jpg","","new","56","4","practice_recog","right","","","",""
"categorize-image","151","602667","0.0-3.0-7.0-0.8","42f7166td47psrf","practice_recog","5e19a8a96b550823487ecf7f","5f60e3c0a3b16e07647b2ff9","5f60ee54ff061c010ebdd812","true","780.510000011418","./Stimuli/ImagesPractice/LN72.jpg","76","","","","test","true","","76","","LN","LN72.jpg","","new","57","4","practice_recog","right","","","",""
"categorize-image","152","603895","0.0-3.0-7.0-0.9","42f7166td47psrf","practice_recog","5e19a8a96b550823487ecf7f","5f60e3c0a3b16e07647b2ff9","5f60ee54ff061c010ebdd812","true","715.3549999929965","./Stimuli/ImagesPractice/SM35.jpg","83","","","","test","true","","83","","SM","SM35.jpg","","old","58","4","practice_recog","left","","","",""
"categorize-image","153","605028","0.0-3.0-7.0-0.10","42f7166td47psrf","practice_recog","5e19a8a96b550823487ecf7f","5f60e3c0a3b16e07647b2ff9","5f60ee54ff061c010ebdd812","true","616.5249999903608","./Stimuli/ImagesPractice/SN76.jpg","76","","","","test","true","","76","","SN","SN76.jpg","","new","59","4","practice_recog","right","","","",""
"categorize-image","154","607046","0.0-3.0-7.0-0.11","42f7166td47psrf","practice_recog","5e19a8a96b550823487ecf7f","5f60e3c0a3b16e07647b2ff9","5f60ee54ff061c010ebdd812","true","1506.7550000094343","./Stimuli/ImagesPractice/SM61.jpg","83","","","","test","true","","83","","SM","SM61.jpg","","old","60","4","practice_recog","left","","","",""
"categorize-image","155","608363","0.0-3.0-7.0-0.12","42f7166td47psrf","practice_recog","5e19a8a96b550823487ecf7f","5f60e3c0a3b16e07647b2ff9","5f60ee54ff061c010ebdd812","true","810.1000000024214","./Stimuli/ImagesPractice/LM143.jpg","83","","","","test","true","","83","","LM","LM143.jpg","","old","61","4","practice_recog","left","","","",""
"categorize-image","156","609547","0.0-3.0-7.0-0.13","42f7166td47psrf","practice_recog","5e19a8a96b550823487ecf7f","5f60e3c0a3b16e07647b2ff9","5f60ee54ff061c010ebdd812","true","675.7649999926798","./Stimuli/ImagesPractice/LM147.jpg","76","","","","test","true","","76","","LM","LM147.jpg","","new","62","4","practice_recog","right","","","",""
"categorize-image","157","610909","0.0-3.0-7.0-0.14","42f7166td47psrf","practice_recog","5e19a8a96b550823487ecf7f","5f60e3c0a3b16e07647b2ff9","5f60ee54ff061c010ebdd812","true","844.1400000010617","./Stimuli/ImagesPractice/SM98.jpg","83","","","","test","true","","83","","SM","SM98.jpg","","old","63","4","practice_recog","left","","","",""
"categorize-image","158","612165","0.0-3.0-7.0-0.15","42f7166td47psrf","practice_recog","5e19a8a96b550823487ecf7f","5f60e3c0a3b16e07647b2ff9","5f60ee54ff061c010ebdd812","true","738.2349999970756","./Stimuli/ImagesPractice/SN75.jpg","83","","","","test","true","","83","","SN","SN75.jpg","","old","64","4","practice_recog","left","","","",""
"html-keyboard-response","159","623490","0.0-3.0-8.0","42f7166td47psrf","instructions","5e19a8a96b550823487ecf7f","5f60e3c0a3b16e07647b2ff9","5f60ee54ff061c010ebdd812","false","11323.165000008885","<div align=left> Great!<br><br>Are you ready to continue?<br>If you want to reread the instructions and redo the practice trials, please <br>press „Z“.<br><br>You can proceed when you are ready.<br><br>After the presentation of each object, you will receive an instruction whether to <br>remember or to forget the object.<br>We will test your memory of the following pictures only at the very end of <br>the experiment after all learning blocks are completed. <br><br>Press SPACE to CONTINUE when you are ready. </div>","32","","","","","","","","","","","","","","","","","","","",""
"html-keyboard-response","160","638435","0.0-4.0-0.0","42f7166td47psrf","instructions","5e19a8a96b550823487ecf7f","5f60e3c0a3b16e07647b2ff9","5f60ee54ff061c010ebdd812","false","14942.190000001574","<div align=left> The actual experiment is about to start.<br>The practice trials are over!<br><br>Please always respond both fast and accurately!<br><br>Remember: <br> <br><li> Please place your index fingers on the <strong>'S'</strong> and <strong>'L'</strong> keys <br>to respond as fast and accurately as possible.</li><li> Every picture can be classified as either mechanical or non-mechanical.</li><li> If you do not respond in time or commit an error, you will receive a corresponding feedback.<br> Please try to respond as <strong> fast </strong> and as <strong> accurately as possible </strong>.</li><li> Remember the <span style='color: dodgerblue; font-size: 28px'>O</span> pictures. <br></li><li> Please minimize distractions and stay focused. </li><br><br>Press SPACE to START.</div>","32","","","","","","","","","","","","","","","","","","","",""
"html-keyboard-response","161","639139","0.0-4.0-1.0-0.0","42f7166td47psrf","prime","5e19a8a96b550823487ecf7f","5f60e3c0a3b16e07647b2ff9","5f60ee54ff061c010ebdd812","false","null","<span style=""color: black; font-size: 48px"">N + M</span>","null","","","","resp_prompt","","","","","","","","","","","","","","","",""
"categorize-image","162","640004","0.0-4.0-1.0-1.0","42f7166td47psrf","prime","5e19a8a96b550823487ecf7f","5f60e3c0a3b16e07647b2ff9","5f60ee54ff061c010ebdd812","true","859.0699999767821","./Stimuli/SelectedImages/SM/SM205.bmp","76","","","","test","true","N + M","76","repetition","SM","SM205.bmp","forget","","65","4","prime1","right","","","",""
"html-keyboard-response","163","642017","0.0-4.0-1.0-3.0","42f7166td47psrf","prime","5e19a8a96b550823487ecf7f","5f60e3c0a3b16e07647b2ff9","5f60ee54ff061c010ebdd812","false","null","<div style=""align-items: center; display: flex; color: darkorange; font-size: 90px""><b>ø</b></div>","null","","","","forget_cue","","","","","","","","","","","","","","","",""
"html-keyboard-response","164","642729","0.0-4.0-1.0-0.1","42f7166td47psrf","prime","5e19a8a96b550823487ecf7f","5f60e3c0a3b16e07647b2ff9","5f60ee54ff061c010ebdd812","false","null","<span style=""color: black; font-size: 48px"">M + N</span>","null","","","","resp_prompt","","","","","","","","","","","","","","","",""
"categorize-image","165","643741","0.0-4.0-1.0-1.1","42f7166td47psrf","prime","5e19a8a96b550823487ecf7f","5f60e3c0a3b16e07647b2ff9","5f60ee54ff061c010ebdd812","true","1005.2800000121351","./Stimuli/SelectedImages/SN/SN240.bmp","76","","","","test","true","M + N","76","repetition","SN","SN240.bmp","forget","","66","4","prime1","right","","","",""
"html-keyboard-response","166","645754","0.0-4.0-1.0-3.1","42f7166td47psrf","prime","5e19a8a96b550823487ecf7f","5f60e3c0a3b16e07647b2ff9","5f60ee54ff061c010ebdd812","false","null","<div style=""align-items: center; display: flex; color: darkorange; font-size: 90px""><b>ø</b></div>","null","","","","forget_cue","","","","","","","","","","","","","","","",""
"html-keyboard-response","167","646467","0.0-4.0-1.0-0.2","42f7166td47psrf","prime","5e19a8a96b550823487ecf7f","5f60e3c0a3b16e07647b2ff9","5f60ee54ff061c010ebdd812","false","null","<span style=""color: black; font-size: 48px"">M + N</span>","null","","","","resp_prompt","","","","","","","","","","","","","","","",""
"categorize-image","168","647356","0.0-4.0-1.0-1.2","42f7166td47psrf","prime","5e19a8a96b550823487ecf7f","5f60e3c0a3b16e07647b2ff9","5f60ee54ff061c010ebdd812","true","884.1049999755342","./Stimuli/SelectedImages/SN/SN52.bmp","76","","","","test","true","M + N","76","repetition","SN","SN52.bmp","forget","","67","4","prime1","right","","","",""
"html-keyboard-response","169","649372","0.0-4.0-1.0-3.2","42f7166td47psrf","prime","5e19a8a96b550823487ecf7f","5f60e3c0a3b16e07647b2ff9","5f60ee54ff061c010ebdd812","false","null","<div style=""align-items: center; display: flex; color: darkorange; font-size: 90px""><b>ø</b></div>","null","","","","forget_cue","","","","","","","","","","","","","","","",""
"html-keyboard-response","170","650086","0.0-4.0-1.0-0.3","42f7166td47psrf","prime","5e19a8a96b550823487ecf7f","5f60e3c0a3b16e07647b2ff9","5f60ee54ff061c010ebdd812","false","null","<span style=""color: black; font-size: 48px"">M + N</span>","null","","","","resp_prompt","","","","","","","","","","","","","","","",""
"categorize-image","171","651204","0.0-4.0-1.0-1.3","42f7166td47psrf","prime","5e19a8a96b550823487ecf7f","5f60e3c0a3b16e07647b2ff9","5f60ee54ff061c010ebdd812","true","1112.905000016326","./Stimuli/SelectedImages/LM/LM150.bmp","76","","","","test","false","M + N","83","switch","LM","LM150.bmp","remember","","68","4","prime1","right","","","",""
"html-keyboard-response","172","651713","0.0-4.0-1.0-2.3-0.3","42f7166td47psrf","prime","5e19a8a96b550823487ecf7f","5f60e3c0a3b16e07647b2ff9","5f60ee54ff061c010ebdd812","false","null","<span style=""color: red; font-size: 48px"">Error!</span>","null","","","","feedback","","","","","","","","","","","","","","","",""
"html-keyboard-response","173","653730","0.0-4.0-1.0-3.3","42f7166td47psrf","prime","5e19a8a96b550823487ecf7f","5f60e3c0a3b16e07647b2ff9","5f60ee54ff061c010ebdd812","false","null","<div style=""align-items: center; display: flex; color: dodgerblue; font-size: 90px""><b>o</b></div>","null","","","","forget_cue","","","","","","","","","","","","","","","",""
"html-keyboard-response","174","654447","0.0-4.0-1.0-0.4","42f7166td47psrf","prime","5e19a8a96b550823487ecf7f","5f60e3c0a3b16e07647b2ff9","5f60ee54ff061c010ebdd812","false","null","<span style=""color: black; font-size: 48px"">M + N</span>","null","","","","resp_prompt","","","","","","","","","","","","","","","",""
"categorize-image","175","655588","0.0-4.0-1.0-1.4","42f7166td47psrf","prime","5e19a8a96b550823487ecf7f","5f60e3c0a3b16e07647b2ff9","5f60ee54ff061c010ebdd812","true","1136.0850000055507","./Stimuli/SelectedImages/LN/LN131.bmp","76","","","","test","true","M + N","76","repetition","LN","LN131.bmp","forget","","69","4","prime1","right","","","",""
"html-keyboard-response","176","657594","0.0-4.0-1.0-3.4","42f7166td47psrf","prime","5e19a8a96b550823487ecf7f","5f60e3c0a3b16e07647b2ff9","5f60ee54ff061c010ebdd812","false","null","<div style=""align-items: center; display: flex; color: darkorange; font-size: 90px""><b>ø</b></div>","null","","","","forget_cue","","","","","","","","","","","","","","","",""
"html-keyboard-response","177","658302","0.0-4.0-1.0-0.5","42f7166td47psrf","prime","5e19a8a96b550823487ecf7f","5f60e3c0a3b16e07647b2ff9","5f60ee54ff061c010ebdd812","false","null","<span style=""color: black; font-size: 48px"">M + N</span>","null","","","","resp_prompt","","","","","","","","","","","","","","","",""
"categorize-image","178","659004","0.0-4.0-1.0-1.5","42f7166td47psrf","prime","5e19a8a96b550823487ecf7f","5f60e3c0a3b16e07647b2ff9","5f60ee54ff061c010ebdd812","true","696.3399999949615","./Stimuli/SelectedImages/SM/SM148.bmp","76","","","","test","false","M + N","83","switch","SM","SM148.bmp","remember","","70","4","prime1","right","","","",""
"html-keyboard-response","179","659514","0.0-4.0-1.0-2.5-0.5","42f7166td47psrf","prime","5e19a8a96b550823487ecf7f","5f60e3c0a3b16e07647b2ff9","5f60ee54ff061c010ebdd812","false","null","<span style=""color: red; font-size: 48px"">Error!</span>","null","","","","feedback","","","","","","","","","","","","","","","",""
"html-keyboard-response","180","661529","0.0-4.0-1.0-3.5","42f7166td47psrf","prime","5e19a8a96b550823487ecf7f","5f60e3c0a3b16e07647b2ff9","5f60ee54ff061c010ebdd812","false","null","<div style=""align-items: center; display: flex; color: dodgerblue; font-size: 90px""><b>o</b></div>","null","","","","forget_cue","","","","","","","","","","","","","","","",""
"html-keyboard-response","181","662245","0.0-4.0-1.0-0.6","42f7166td47psrf","prime","5e19a8a96b550823487ecf7f","5f60e3c0a3b16e07647b2ff9","5f60ee54ff061c010ebdd812","false","null","<span style=""color: black; font-size: 48px"">M + N</span>","null","","","","resp_prompt","","","","","","","","","","","","","","","",""
"categorize-image","182","663437","0.0-4.0-1.0-1.6","42f7166td47psrf","prime","5e19a8a96b550823487ecf7f","5f60e3c0a3b16e07647b2ff9","5f60ee54ff061c010ebdd812","true","1185.5600000126287","./Stimuli/SelectedImages/LN/LN166.bmp","83","","","","test","false","M + N","76","repetition","LN","LN166.bmp","remember","","71","4","prime1","left","","","",""
"html-keyboard-response","183","663950","0.0-4.0-1.0-2.6-0.6","42f7166td47psrf","prime","5e19a8a96b550823487ecf7f","5f60e3c0a3b16e07647b2ff9","5f60ee54ff061c010ebdd812","false","null","<span style=""color: red; font-size: 48px"">Error!</span>","null","","","","feedback","","","","","","","","","","","","","","","",""
"html-keyboard-response","184","665956","0.0-4.0-1.0-3.6","42f7166td47psrf","prime","5e19a8a96b550823487ecf7f","5f60e3c0a3b16e07647b2ff9","5f60ee54ff061c010ebdd812","false","null","<div style=""align-items: center; display: flex; color: dodgerblue; font-size: 90px""><b>o</b></div>","null","","","","forget_cue","","","","","","","","","","","","","","","",""
"html-keyboard-response","185","666669","0.0-4.0-1.0-0.7","42f7166td47psrf","prime","5e19a8a96b550823487ecf7f","5f60e3c0a3b16e07647b2ff9","5f60ee54ff061c010ebdd812","false","null","<span style=""color: black; font-size: 48px"">M + N</span>","null","","","","resp_prompt","","","","","","","","","","","","","","","",""
"categorize-image","186","667236","0.0-4.0-1.0-1.7","42f7166td47psrf","prime","5e19a8a96b550823487ecf7f","5f60e3c0a3b16e07647b2ff9","5f60ee54ff061c010ebdd812","true","561.3149999990128","./Stimuli/SelectedImages/LM/LM235.bmp","76","","","","test","false","M + N","83","switch","LM","LM235.bmp","remember","","72","4","prime1","right","","","",""
"html-keyboard-response","187","667747","0.0-4.0-1.0-2.7-0.7","42f7166td47psrf","prime","5e19a8a96b550823487ecf7f","5f60e3c0a3b16e07647b2ff9","5f60ee54ff061c010ebdd812","false","null","<span style=""color: red; font-size: 48px"">Error!</span>","null","","","","feedback","","","","","","","","","","","","","","","",""
"html-keyboard-response","188","669751","0.0-4.0-1.0-3.7","42f7166td47psrf","prime","5e19a8a96b550823487ecf7f","5f60e3c0a3b16e07647b2ff9","5f60ee54ff061c010ebdd812","false","null","<div style=""align-items: center; display: flex; color: dodgerblue; font-size: 90px""><b>o</b></div>","null","","","","forget_cue","","","","","","","","","","","","","","","",""
"html-keyboard-response","189","670457","0.0-4.0-1.0-0.8","42f7166td47psrf","prime","5e19a8a96b550823487ecf7f","5f60e3c0a3b16e07647b2ff9","5f60ee54ff061c010ebdd812","false","null","<span style=""color: black; font-size: 48px"">N + M</span>","null","","","","resp_prompt","","","","","","","","","","","","","","","",""
"categorize-image","190","671244","0.0-4.0-1.0-1.8","42f7166td47psrf","prime","5e19a8a96b550823487ecf7f","5f60e3c0a3b16e07647b2ff9","5f60ee54ff061c010ebdd812","true","781.4249999937601","./Stimuli/SelectedImages/LN/LN149.bmp","83","","","","test","true","N + M","83","repetition","LN","LN149.bmp","forget","","73","4","prime1","left","","","",""
"html-keyboard-response","191","673252","0.0-4.0-1.0-3.8","42f7166td47psrf","prime","5e19a8a96b550823487ecf7f","5f60e3c0a3b16e07647b2ff9","5f60ee54ff061c010ebdd812","false","null","<div style=""align-items: center; display: flex; color: darkorange; font-size: 90px""><b>ø</b></div>","null","","","","forget_cue","","","","","","","","","","","","","","","",""
"html-keyboard-response","192","673965","0.0-4.0-1.0-0.9","42f7166td47psrf","prime","5e19a8a96b550823487ecf7f","5f60e3c0a3b16e07647b2ff9","5f60ee54ff061c010ebdd812","false","null","<span style=""color: black; font-size: 48px"">N + M</span>","null","","","","resp_prompt","","","","","","","","","","","","","","","",""
"categorize-image","193","674804","0.0-4.0-1.0-1.9","42f7166td47psrf","prime","5e19a8a96b550823487ecf7f","5f60e3c0a3b16e07647b2ff9","5f60ee54ff061c010ebdd812","true","834.2050000210293","./Stimuli/SelectedImages/SN/SN140.bmp","76","","","","test","false","N + M","83","switch","SN","SN140.bmp","forget","","74","4","prime1","right","","","",""
"html-keyboard-response","194","675316","0.0-4.0-1.0-2.9-0.9","42f7166td47psrf","prime","5e19a8a96b550823487ecf7f","5f60e3c0a3b16e07647b2ff9","5f60ee54ff061c010ebdd812","false","null","<span style=""color: red; font-size: 48px"">Error!</span>","null","","","","feedback","","","","","","","","","","","","","","","",""
"html-keyboard-response","195","677320","0.0-4.0-1.0-3.9","42f7166td47psrf","prime","5e19a8a96b550823487ecf7f","5f60e3c0a3b16e07647b2ff9","5f60ee54ff061c010ebdd812","false","null","<div style=""align-items: center; display: flex; color: darkorange; font-size: 90px""><b>ø</b></div>","null","","","","forget_cue","","","","","","","","","","","","","","","",""
"html-keyboard-response","196","678031","0.0-4.0-1.0-0.10","42f7166td47psrf","prime","5e19a8a96b550823487ecf7f","5f60e3c0a3b16e07647b2ff9","5f60ee54ff061c010ebdd812","false","null","<span style=""color: black; font-size: 48px"">N + M</span>","null","","","","resp_prompt","","","","","","","","","","","","","","","",""
"categorize-image","197","678669","0.0-4.0-1.0-1.10","42f7166td47psrf","prime","5e19a8a96b550823487ecf7f","5f60e3c0a3b16e07647b2ff9","5f60ee54ff061c010ebdd812","true","631.8000000028405","./Stimuli/SelectedImages/LN/LN101.bmp","83","","","","test","true","N + M","83","switch","LN","LN101.bmp","remember","","75","4","prime1","left","","","",""
"html-keyboard-response","198","680681","0.0-4.0-1.0-3.10","42f7166td47psrf","prime","5e19a8a96b550823487ecf7f","5f60e3c0a3b16e07647b2ff9","5f60ee54ff061c010ebdd812","false","null","<div style=""align-items: center; display: flex; color: dodgerblue; font-size: 90px""><b>o</b></div>","null","","","","forget_cue","","","","","","","","","","","","","","","",""
"html-keyboard-response","199","681398","0.0-4.0-1.0-0.11","42f7166td47psrf","prime","5e19a8a96b550823487ecf7f","5f60e3c0a3b16e07647b2ff9","5f60ee54ff061c010ebdd812","false","null","<span style=""color: black; font-size: 48px"">M + N</span>","null","","","","resp_prompt","","","","","","","","","","","","","","","",""
"categorize-image","200","682596","0.0-4.0-1.0-1.11","42f7166td47psrf","prime","5e19a8a96b550823487ecf7f","5f60e3c0a3b16e07647b2ff9","5f60ee54ff061c010ebdd812","true","1192.700000014156","./Stimuli/SelectedImages/SN/SN18.bmp","76","","","","test","true","M + N","76","repetition","SN","SN18.bmp","remember","","76","4","prime1","right","","","",""
"html-keyboard-response","201","684605","0.0-4.0-1.0-3.11","42f7166td47psrf","prime","5e19a8a96b550823487ecf7f","5f60e3c0a3b16e07647b2ff9","5f60ee54ff061c010ebdd812","false","null","<div style=""align-items: center; display: flex; color: dodgerblue; font-size: 90px""><b>o</b></div>","null","","","","forget_cue","","","","","","","","","","","","","","","",""
"html-keyboard-response","202","685321","0.0-4.0-1.0-0.12","42f7166td47psrf","prime","5e19a8a96b550823487ecf7f","5f60e3c0a3b16e07647b2ff9","5f60ee54ff061c010ebdd812","false","null","<span style=""color: black; font-size: 48px"">M + N</span>","null","","","","resp_prompt","","","","","","","","","","","","","","","",""
"categorize-image","203","686508","0.0-4.0-1.0-1.12","42f7166td47psrf","prime","5e19a8a96b550823487ecf7f","5f60e3c0a3b16e07647b2ff9","5f60ee54ff061c010ebdd812","true","1181.9949999917299","./Stimuli/SelectedImages/SN/SN128.bmp","83","","","","test","false","M + N","76","switch","SN","SN128.bmp","forget","","77","4","prime1","left","","","",""
"html-keyboard-response","204","687015","0.0-4.0-1.0-2.12-0.12","42f7166td47psrf","prime","5e19a8a96b550823487ecf7f","5f60e3c0a3b16e07647b2ff9","5f60ee54ff061c010ebdd812","false","null","<span style=""color: red; font-size: 48px"">Error!</span>","null","","","","feedback","","","","","","","","","","","","","","","",""
"html-keyboard-response","205","689025","0.0-4.0-1.0-3.12","42f7166td47psrf","prime","5e19a8a96b550823487ecf7f","5f60e3c0a3b16e07647b2ff9","5f60ee54ff061c010ebdd812","false","null","<div style=""align-items: center; display: flex; color: darkorange; font-size: 90px""><b>ø</b></div>","null","","","","forget_cue","","","","","","","","","","","","","","","",""
"html-keyboard-response","206","689734","0.0-4.0-1.0-0.13","42f7166td47psrf","prime","5e19a8a96b550823487ecf7f","5f60e3c0a3b16e07647b2ff9","5f60ee54ff061c010ebdd812","false","null","<span style=""color: black; font-size: 48px"">N + M</span>","null","","","","resp_prompt","","","","","","","","","","","","","","","",""
"categorize-image","207","690252","0.0-4.0-1.0-1.13","42f7166td47psrf","prime","5e19a8a96b550823487ecf7f","5f60e3c0a3b16e07647b2ff9","5f60ee54ff061c010ebdd812","true","512.2399999818299","./Stimuli/SelectedImages/SM/SM195.bmp","76","","","","test","true","N + M","76","switch","SM","SM195.bmp","forget","","78","4","prime1","right","","","",""
"html-keyboard-response","208","692266","0.0-4.0-1.0-3.13","42f7166td47psrf","prime","5e19a8a96b550823487ecf7f","5f60e3c0a3b16e07647b2ff9","5f60ee54ff061c010ebdd812","false","null","<div style=""align-items: center; display: flex; color: darkorange; font-size: 90px""><b>ø</b></div>","null","","","","forget_cue","","","","","","","","","","","","","","","",""
"html-keyboard-response","209","692978","0.0-4.0-1.0-0.14","42f7166td47psrf","prime","5e19a8a96b550823487ecf7f","5f60e3c0a3b16e07647b2ff9","5f60ee54ff061c010ebdd812","false","null","<span style=""color: black; font-size: 48px"">N + M</span>","null","","","","resp_prompt","","","","","","","","","","","","","","","",""
"categorize-image","210","694133","0.0-4.0-1.0-1.14","42f7166td47psrf","prime","5e19a8a96b550823487ecf7f","5f60e3c0a3b16e07647b2ff9","5f60ee54ff061c010ebdd812","true","1148.2799999939743","./Stimuli/SelectedImages/SM/SM207.bmp","83","","","","test","false","N + M","76","switch","SM","SM207.bmp","forget","","79","4","prime1","left","","","",""
"html-keyboard-response","211","694648","0.0-4.0-1.0-2.14-0.14","42f7166td47psrf","prime","5e19a8a96b550823487ecf7f","5f60e3c0a3b16e07647b2ff9","5f60ee54ff061c010ebdd812","false","null","<span style=""color: red; font-size: 48px"">Error!</span>","null","","","","feedback","","","","","","","","","","","","","","","",""
"html-keyboard-response","212","696664","0.0-4.0-1.0-3.14","42f7166td47psrf","prime","5e19a8a96b550823487ecf7f","5f60e3c0a3b16e07647b2ff9","5f60ee54ff061c010ebdd812","false","null","<div style=""align-items: center; display: flex; color: darkorange; font-size: 90px""><b>ø</b></div>","null","","","","forget_cue","","","","","","","","","","","","","","","",""
"html-keyboard-response","213","697366","0.0-4.0-1.0-0.15","42f7166td47psrf","prime","5e19a8a96b550823487ecf7f","5f60e3c0a3b16e07647b2ff9","5f60ee54ff061c010ebdd812","false","null","<span style=""color: black; font-size: 48px"">N + M</span>","null","","","","resp_prompt","","","","","","","","","","","","","","","",""
"categorize-image","214","698204","0.0-4.0-1.0-1.15","42f7166td47psrf","prime","5e19a8a96b550823487ecf7f","5f60e3c0a3b16e07647b2ff9","5f60ee54ff061c010ebdd812","true","832.8250000195112","./Stimuli/SelectedImages/LM/LM58.bmp","76","","","","test","true","N + M","76","switch","LM","LM58.bmp","remember","","80","4","prime1","right","","","",""
"html-keyboard-response","215","700213","0.0-4.0-1.0-3.15","42f7166td47psrf","prime","5e19a8a96b550823487ecf7f","5f60e3c0a3b16e07647b2ff9","5f60ee54ff061c010ebdd812","false","null","<div style=""align-items: center; display: flex; color: dodgerblue; font-size: 90px""><b>o</b></div>","null","","","","forget_cue","","","","","","","","","","","","","","","",""
"html-keyboard-response","216","700916","0.0-4.0-1.0-0.16","42f7166td47psrf","prime","5e19a8a96b550823487ecf7f","5f60e3c0a3b16e07647b2ff9","5f60ee54ff061c010ebdd812","false","null","<span style=""color: black; font-size: 48px"">M + N</span>","null","","","","resp_prompt","","","","","","","","","","","","","","","",""
"categorize-image","217","701820","0.0-4.0-1.0-1.16","42f7166td47psrf","prime","5e19a8a96b550823487ecf7f","5f60e3c0a3b16e07647b2ff9","5f60ee54ff061c010ebdd812","true","898.4850000124425","./Stimuli/SelectedImages/LN/LN13.bmp","76","","","","test","true","M + N","76","repetition","LN","LN13.bmp","forget","","81","4","prime1","right","","","",""
"html-keyboard-response","218","703831","0.0-4.0-1.0-3.16","42f7166td47psrf","prime","5e19a8a96b550823487ecf7f","5f60e3c0a3b16e07647b2ff9","5f60ee54ff061c010ebdd812","false","null","<div style=""align-items: center; display: flex; color: darkorange; font-size: 90px""><b>ø</b></div>","null","","","","forget_cue","","","","","","","","","","","","","","","",""
"html-keyboard-response","219","704533","0.0-4.0-1.0-0.17","42f7166td47psrf","prime","5e19a8a96b550823487ecf7f","5f60e3c0a3b16e07647b2ff9","5f60ee54ff061c010ebdd812","false","null","<span style=""color: black; font-size: 48px"">M + N</span>","null","","","","resp_prompt","","","","","","","","","","","","","","","",""
"categorize-image","220","705524","0.0-4.0-1.0-1.17","42f7166td47psrf","prime","5e19a8a96b550823487ecf7f","5f60e3c0a3b16e07647b2ff9","5f60ee54ff061c010ebdd812","true","986.269999993965","./Stimuli/SelectedImages/SN/SN155.bmp","76","","","","test","true","M + N","76","switch","SN","SN155.bmp","remember","","82","4","prime1","right","","","",""
"html-keyboard-response","221","707538","0.0-4.0-1.0-3.17","42f7166td47psrf","prime","5e19a8a96b550823487ecf7f","5f60e3c0a3b16e07647b2ff9","5f60ee54ff061c010ebdd812","false","null","<div style=""align-items: center; display: flex; color: dodgerblue; font-size: 90px""><b>o</b></div>","null","","","","forget_cue","","","","","","","","","","","","","","","",""
"html-keyboard-response","222","708247","0.0-4.0-1.0-0.18","42f7166td47psrf","prime","5e19a8a96b550823487ecf7f","5f60e3c0a3b16e07647b2ff9","5f60ee54ff061c010ebdd812","false","null","<span style=""color: black; font-size: 48px"">M + N</span>","null","","","","resp_prompt","","","","","","","","","","","","","","","",""
"categorize-image","223","709325","0.0-4.0-1.0-1.18","42f7166td47psrf","prime","5e19a8a96b550823487ecf7f","5f60e3c0a3b16e07647b2ff9","5f60ee54ff061c010ebdd812","true","1071.7749999894295","./Stimuli/SelectedImages/SM/SM184.bmp","76","","","","test","false","M + N","83","repetition","SM","SM184.bmp","forget","","83","4","prime1","right","","","",""
"html-keyboard-response","224","709831","0.0-4.0-1.0-2.18-0.18","42f7166td47psrf","prime","5e19a8a96b550823487ecf7f","5f60e3c0a3b16e07647b2ff9","5f60ee54ff061c010ebdd812","false","null","<span style=""color: red; font-size: 48px"">Error!</span>","null","","","","feedback","","","","","","","","","","","","","","","",""
"html-keyboard-response","225","711846","0.0-4.0-1.0-3.18","42f7166td47psrf","prime","5e19a8a96b550823487ecf7f","5f60e3c0a3b16e07647b2ff9","5f60ee54ff061c010ebdd812","false","null","<div style=""align-items: center; display: flex; color: darkorange; font-size: 90px""><b>ø</b></div>","null","","","","forget_cue","","","","","","","","","","","","","","","",""
"html-keyboard-response","226","712551","0.0-4.0-1.0-0.19","42f7166td47psrf","prime","5e19a8a96b550823487ecf7f","5f60e3c0a3b16e07647b2ff9","5f60ee54ff061c010ebdd812","false","null","<span style=""color: black; font-size: 48px"">M + N</span>","null","","","","resp_prompt","","","","","","","","","","","","","","","",""
"categorize-image","227","713708","0.0-4.0-1.0-1.19","42f7166td47psrf","prime","5e19a8a96b550823487ecf7f","5f60e3c0a3b16e07647b2ff9","5f60ee54ff061c010ebdd812","true","1152.2949999780394","./Stimuli/SelectedImages/LN/LN82.bmp","76","","","","test","true","M + N","76","switch","LN","LN82.bmp","forget","","84","4","prime1","right","","","",""
"html-keyboard-response","228","715719","0.0-4.0-1.0-3.19","42f7166td47psrf","prime","5e19a8a96b550823487ecf7f","5f60e3c0a3b16e07647b2ff9","5f60ee54ff061c010ebdd812","false","null","<div style=""align-items: center; display: flex; color: darkorange; font-size: 90px""><b>ø</b></div>","null","","","","forget_cue","","","","","","","","","","","","","","","",""
"html-keyboard-response","229","716431","0.0-4.0-1.0-0.20","42f7166td47psrf","prime","5e19a8a96b550823487ecf7f","5f60e3c0a3b16e07647b2ff9","5f60ee54ff061c010ebdd812","false","null","<span style=""color: black; font-size: 48px"">M + N</span>","null","","","","resp_prompt","","","","","","","","","","","","","","","",""
"categorize-image","230","717540","0.0-4.0-1.0-1.20","42f7166td47psrf","prime","5e19a8a96b550823487ecf7f","5f60e3c0a3b16e07647b2ff9","5f60ee54ff061c010ebdd812","true","1104.5150000136346","./Stimuli/SelectedImages/LM/LM57.bmp","83","","","","test","true","M + N","83","repetition","LM","LM57.bmp","remember","","85","4","prime1","left","","","",""
"html-keyboard-response","231","719547","0.0-4.0-1.0-3.20","42f7166td47psrf","prime","5e19a8a96b550823487ecf7f","5f60e3c0a3b16e07647b2ff9","5f60ee54ff061c010ebdd812","false","null","<div style=""align-items: center; display: flex; color: dodgerblue; font-size: 90px""><b>o</b></div>","null","","","","forget_cue","","","","","","","","","","","","","","","",""
"html-keyboard-response","232","720250","0.0-4.0-1.0-0.21","42f7166td47psrf","prime","5e19a8a96b550823487ecf7f","5f60e3c0a3b16e07647b2ff9","5f60ee54ff061c010ebdd812","false","null","<span style=""color: black; font-size: 48px"">N + M</span>","null","","","","resp_prompt","","","","","","","","","","","","","","","",""
"categorize-image","233","721373","0.0-4.0-1.0-1.21","42f7166td47psrf","prime","5e19a8a96b550823487ecf7f","5f60e3c0a3b16e07647b2ff9","5f60ee54ff061c010ebdd812","true","1115.2000000001863","./Stimuli/SelectedImages/LM/LM59.bmp","76","","","","test","true","N + M","76","repetition","LM","LM59.bmp","forget","","86","4","prime1","right","","","",""
"html-keyboard-response","234","723381","0.0-4.0-1.0-3.21","42f7166td47psrf","prime","5e19a8a96b550823487ecf7f","5f60e3c0a3b16e07647b2ff9","5f60ee54ff061c010ebdd812","false","null","<div style=""align-items: center; display: flex; color: darkorange; font-size: 90px""><b>ø</b></div>","null","","","","forget_cue","","","","","","","","","","","","","","","",""
"html-keyboard-response","235","724083","0.0-4.0-1.0-0.22","42f7166td47psrf","prime","5e19a8a96b550823487ecf7f","5f60e3c0a3b16e07647b2ff9","5f60ee54ff061c010ebdd812","false","null","<span style=""color: black; font-size: 48px"">N + M</span>","null","","","","resp_prompt","","","","","","","","","","","","","","","",""
"categorize-image","236","725436","0.0-4.0-1.0-1.22","42f7166td47psrf","prime","5e19a8a96b550823487ecf7f","5f60e3c0a3b16e07647b2ff9","5f60ee54ff061c010ebdd812","true","1347.2850000252947","./Stimuli/SelectedImages/LM/LM179.bmp","83","","","","test","false","N + M","76","repetition","LM","LM179.bmp","remember","","87","4","prime1","left","","","",""
"html-keyboard-response","237","725948","0.0-4.0-1.0-2.22-0.22","42f7166td47psrf","prime","5e19a8a96b550823487ecf7f","5f60e3c0a3b16e07647b2ff9","5f60ee54ff061c010ebdd812","false","null","<span style=""color: red; font-size: 48px"">Error!</span>","null","","","","feedback","","","","","","","","","","","","","","","",""
"html-keyboard-response","238","727950","0.0-4.0-1.0-3.22","42f7166td47psrf","prime","5e19a8a96b550823487ecf7f","5f60e3c0a3b16e07647b2ff9","5f60ee54ff061c010ebdd812","false","null","<div style=""align-items: center; display: flex; color: dodgerblue; font-size: 90px""><b>o</b></div>","null","","","","forget_cue","","","","","","","","","","","","","","","",""
"html-keyboard-response","239","728665","0.0-4.0-1.0-0.23","42f7166td47psrf","prime","5e19a8a96b550823487ecf7f","5f60e3c0a3b16e07647b2ff9","5f60ee54ff061c010ebdd812","false","null","<span style=""color: black; font-size: 48px"">M + N</span>","null","","","","resp_prompt","","","","","","","","","","","","","","","",""
"categorize-image","240","729332","0.0-4.0-1.0-1.23","42f7166td47psrf","prime","5e19a8a96b550823487ecf7f","5f60e3c0a3b16e07647b2ff9","5f60ee54ff061c010ebdd812","true","661.7199999745935","./Stimuli/SelectedImages/LM/LM157.bmp","76","","","","test","false","M + N","83","switch","LM","LM157.bmp","forget","","88","4","prime1","right","","","",""
"html-keyboard-response","241","729847","0.0-4.0-1.0-2.23-0.23","42f7166td47psrf","prime","5e19a8a96b550823487ecf7f","5f60e3c0a3b16e07647b2ff9","5f60ee54ff061c010ebdd812","false","null","<span style=""color: red; font-size: 48px"">Error!</span>","null","","","","feedback","","","","","","","","","","","","","","","",""
"html-keyboard-response","242","731852","0.0-4.0-1.0-3.23","42f7166td47psrf","prime","5e19a8a96b550823487ecf7f","5f60e3c0a3b16e07647b2ff9","5f60ee54ff061c010ebdd812","false","null","<div style=""align-items: center; display: flex; color: darkorange; font-size: 90px""><b>ø</b></div>","null","","","","forget_cue","","","","","","","","","","","","","","","",""
"html-keyboard-response","243","732562","0.0-4.0-1.0-0.24","42f7166td47psrf","prime","5e19a8a96b550823487ecf7f","5f60e3c0a3b16e07647b2ff9","5f60ee54ff061c010ebdd812","false","null","<span style=""color: black; font-size: 48px"">M + N</span>","null","","","","resp_prompt","","","","","","","","","","","","","","","",""
"categorize-image","244","733229","0.0-4.0-1.0-1.24","42f7166td47psrf","prime","5e19a8a96b550823487ecf7f","5f60e3c0a3b16e07647b2ff9","5f60ee54ff061c010ebdd812","true","660.7149999763351","./Stimuli/SelectedImages/LM/LM75.bmp","83","","","","test","true","M + N","83","switch","LM","LM75.bmp","forget","","89","4","prime1","left","","","",""
"html-keyboard-response","245","735239","0.0-4.0-1.0-3.24","42f7166td47psrf","prime","5e19a8a96b550823487ecf7f","5f60e3c0a3b16e07647b2ff9","5f60ee54ff061c010ebdd812","false","null","<div style=""align-items: center; display: flex; color: darkorange; font-size: 90px""><b>ø</b></div>","null","","","","forget_cue","","","","","","","","","","","","","","","",""
"html-keyboard-response","246","735950","0.0-4.0-1.0-0.25","42f7166td47psrf","prime","5e19a8a96b550823487ecf7f","5f60e3c0a3b16e07647b2ff9","5f60ee54ff061c010ebdd812","false","null","<span style=""color: black; font-size: 48px"">N + M</span>","null","","","","resp_prompt","","","","","","","","","","","","","","","",""
