"trial_type","trial_index","time_elapsed","internal_node_id","subject","exp_part","prolific_PID","study_ID","session_ID","use","rt","stimulus","key_press","button_pressed","responses","question_order","trial_part","correct","resp_map","correct_resp","probe_condition","category","image","forget_condition","list","trial_num","block_num","block","response","test_part","n_span","sequence","num_spaces"
"pavlovia","0","2","0.0-0.0","2zlwuf2wfreca2d","","5d8507a6611c9700152f1126","5f60e3c0a3b16e07647b2ff9","5f61dbf9c0be8603ae86b440","false","","","","","","","","","","","","","","","","","","","","","","",""
"html-keyboard-response","1","3332","0.0-1.0-0.0-0.0","2zlwuf2wfreca2d","welcome","5d8507a6611c9700152f1126","5f60e3c0a3b16e07647b2ff9","5f61dbf9c0be8603ae86b440","false","3328.5099999999943","<div align=left>Dear participant, <br> thank you for participating in an online study of the Cognition, Action, and Sustainability Unit of the University of Freiburg! <br> <br>The aim of this study is to examine our ability to remember previously learned information. <br>Our goal is to find out, whether our memory improves, when we only remember information that is relevant to us. <br>The experiment will take about 35 minutes to complete. <br> <br>Please, note that you can only participate in this study if you are using a device with a keyboard (PC, Laptop etc.) <br>and not if you are using a mobile device such as a tablet or smartphone.<br> <br>Press 'SPACE' to proceed to the experiment. </div>","32","","","","","","","","","","","","","","","","","","","",""
"html-keyboard-response","2","7475","0.0-1.0-0.0-1.0","2zlwuf2wfreca2d","welcome","5d8507a6611c9700152f1126","5f60e3c0a3b16e07647b2ff9","5f61dbf9c0be8603ae86b440","false","4142.899999999998","<div align=left><strong> Time Course of this experiment: </strong> <br><br> <strong> 1.</strong>  First, please fill in some information regarding your demographic data. <br><br> <strong> 2.</strong>  Next, your task will be to classify everyday objects. <br>In addition, you will be asked to remember certain objects and recall them later. <br>Working on these tasks requires your undivided attention and concentration.<br>It is therefore essential that you eliminate any sources of distraction in your  <br>environment and ensure that you will not be disturbed. <br><br><strong> 3.</strong>  At the end of the experiment, you will be asked to answer a few additional questions. <br> <br><strong> Important:</strong> After finishing the experiment, only close the browser window <br> by clicking on the 'end the experiment'-button when you are asked to do so. <br>Closing the browser window prematurely will make the allocation of your participation credit impossible. <br><br> Press 'SPACE' to start the experiment. </div>","32","","","","","","","","","","","","","","","","","","","",""
"html-button-response","3","10107","0.0-1.0-0.0-2.0","2zlwuf2wfreca2d","welcome","5d8507a6611c9700152f1126","5f60e3c0a3b16e07647b2ff9","5f61dbf9c0be8603ae86b440","true","2630.2349999999715","<div align=left><strong> Informed consent </strong>  <br>The aim of our research is to better understand human behavior and mental processes. <br>In the following study your behavior (e.g. choices, reaction times) will be studied. <br> <br><strong> Voluntariness and Anonymity </strong> <br>Your participation in this study is  <strong> voluntary</strong>.<br>You may withdraw your consent to participate at any time without providing a reason for doing so and without fear of prejudice. <br><br>As no personal data will be collected, <strong>your data and your person cannot be connected after data collection</strong> – the data-set is anonymous. <br>Respectively, deletion of your data will not be possible after data collection has been completed, as we cannot retrace your data-set.<br>The results and anonymized data collected in this study will be published as a scientific publication. <br>This will happen in an <strong>anonymized format</strong>, so that no data can be traced back to a specific person. <br> <br>The anonymized data of this study will be made available to other researchers and/or in a data archive on the Internet as a means of transparency and to enable subsequent re-use. By doing so, this study follows the recommendations of the Deutsche Forschungsgemeinschaft (DFG, German Research Foundation) and Deutsche Gesellschaft für Psychologie (DGPS, German Psychological Society) regarding quality assurance in research.<br>If you have any questions now or after the experiment, please contact our team (experiments@cs.uni-freiburg.de).<br><br><br>I hereby declare, that I understand the above described conditions of participation and I agree to participate under these conditions. <br><br> </div>","","0","","","","","","","","","","","","","","","","","","",""
"html-keyboard-response","4","11851","0.0-1.0-0.0-3.0","2zlwuf2wfreca2d","welcome","5d8507a6611c9700152f1126","5f60e3c0a3b16e07647b2ff9","5f61dbf9c0be8603ae86b440","false","1743.675000000052","<div align=left><strong> General information concerning the experiment </strong>  <br> <br>Please follow the instructions:<ol> <li><strong> Do not leave this tab (your browser window) during the experiment and do not reload this tab! </strong>  <br>If you do switch tabs/windows during the experiment (to check your mail or visit another website, for example), <br>the experiment will end automatically and you will <strong>not receive credit</strong> for your participation. <br>Repeated participation or resumption of the experiment is impossible.</li> <br><li>Please close all other programs for the duration of your participation. </li> <br><li>Please mute or turn off your phone and put it out of your reach. </li> <br><li>Please also take off any disturbing accessories (such as wristwatches, bracelets, etc.). </li> <br><li>If you have music playing in the background, please turn it off now. </li> <br></ol>Thank you! <br>Press 'SPACE' to continue. </div>","32","","","","","","","","","","","","","","","","","","","",""
"survey-text","5","14042","0.0-1.0-1.0-0.0","2zlwuf2wfreca2d","demographics","5d8507a6611c9700152f1126","5f60e3c0a3b16e07647b2ff9","5f61dbf9c0be8603ae86b440","true","2188.11999999997","","","","{""age"":""18""}","","","","","","","","","","","","","","","","","",""
"survey-multi-choice","6","23505","0.0-1.0-1.0-1.0","2zlwuf2wfreca2d","demographics","5d8507a6611c9700152f1126","5f60e3c0a3b16e07647b2ff9","5f61dbf9c0be8603ae86b440","true","9461.59","","","","{""gender"":""male"",""school"":""high school"",""education"":""High school graduate, diploma or equivalent""}","[0,1,2]","","","","","","","","","","","","","","","","",""
"html-keyboard-response","7","27315","0.0-1.0-2.0","2zlwuf2wfreca2d","instructions","5d8507a6611c9700152f1126","5f60e3c0a3b16e07647b2ff9","5f61dbf9c0be8603ae86b440","false","3808.044999999991","<div align=left> The experiment is now about to start: <br> <br>In the following part, you will be presented pictures of everyday objects. <br>Your first task is to <strong>classify these objects. </strong> <br> <br> You will classify them either as mechanical or non-mechanical objects. <br> <br>Objects that include any kind of technical mechanism (for example, wheels, switches, levers, <br> electronic components) fall under the category of <strong>mechanical</strong> objects. <br>Only objects without any kind of technical mechanism should be classified as <strong>non-mechanical</strong>. <br><br>Press 'SPACE' to continue. </div>","32","","","","","","","","","","","","","","","","","","","",""
"html-keyboard-response","8","53876","0.0-2.0-0.0","2zlwuf2wfreca2d","instructions","5d8507a6611c9700152f1126","5f60e3c0a3b16e07647b2ff9","5f61dbf9c0be8603ae86b440","false","26559.80999999997","<div align=justify>You will classify the objects using the <strong>'S'</strong> and the <strong>'L'</strong> keys on your keyboard.<br>For doing so, please place your <strong>left index finger</strong> on the <strong>'S'</strong> key and place your <strong>right index finger</strong> on the <strong>'L'</strong> key. <br><br> Each trial starts with an instruction, indicating which key ('S'/'L') you need to press to classify <br>the object as mechanical (letter M) or non-mechanical (letter N).<br>The instruction <strong>M + N</strong> indicates that, in the current trial, by pressing the left key ('S') you classify the displayed object as mechanical (M) <br> and by pressing the right key ('L') you classify the object as non-mechanical (N). <br>The instruction <strong>N + M</strong> on the other hand indicates that by pressing the left key ('S') you classify the displayed object as non-mechanical (N) <br> and by pressing the right key ('L') you classify the object as mechanical (M). <br><br>Please press the key corresponding to the correct classification as fast as possible as soon as the object is displayed and try to avoid making mistakes.<br>If you do not respond within a 2 second window, a corresponding feedback will be displayed and the next trial will start.<br> The experiment is divided into multiple blocks to give you the opportunity to take a break after each block. <br>First, you can now practice this task. <br><br>Please place your <strong>LEFT INDEX FINGER</strong> on the 'S' key and your <strong>RIGHT INDEX FINGER</strong> on the 'L' key now. <br><br>Press SPACE to continue.</div>","32","","","","","","","","","","","","","","","","","","","",""
"html-keyboard-response","9","55060","0.0-2.0-1.0","2zlwuf2wfreca2d","instructions","5d8507a6611c9700152f1126","5f60e3c0a3b16e07647b2ff9","5f61dbf9c0be8603ae86b440","false","1183.0449999999983","<div align=left> You will now have time to practice this task.<br><br>Remember: <br> <br><li>Please place your index fingers on the <strong>'S'</strong> and <strong>'L'</strong> keys <br>to respond as fast and accurately as possible.</li><li>Every picture can be classified as either mechanical or non-mechanical.</li><li>If you do not respond in time or commit an error, you will receive a corresponding feedback. </li><li> Please try to respond as <strong> fast </strong> and as <strong> accurately as possible </strong> .<br><li>To ensure optimal results, please minimize distractions and stay focused. </li><br><br>Press SPACE to continue.</div>","32","","","","","","","","","","","","","","","","","","","",""
"html-keyboard-response","10","55762","0.0-2.0-2.0-0.0","2zlwuf2wfreca2d","practice_no_cue","5d8507a6611c9700152f1126","5f60e3c0a3b16e07647b2ff9","5f61dbf9c0be8603ae86b440","false","null","<span style=""color: black; font-size: 48px"">N + M</span>","null","","","","resp_prompt","","","","","","","","","","","","","","","",""
"categorize-image","11","58264","0.0-2.0-2.0-1.0","2zlwuf2wfreca2d","practice_no_cue","5d8507a6611c9700152f1126","5f60e3c0a3b16e07647b2ff9","5f61dbf9c0be8603ae86b440","true","null","./Stimuli/ImagesPractice/LM224.jpg","null","","","","test","false","N + M","76","","LM","LM224.jpg","forget","old","1","1","start","too_slow","","","",""
"html-keyboard-response","12","58966","0.0-2.0-2.0-0.1","2zlwuf2wfreca2d","practice_no_cue","5d8507a6611c9700152f1126","5f60e3c0a3b16e07647b2ff9","5f61dbf9c0be8603ae86b440","false","null","<span style=""color: black; font-size: 48px"">M + N</span>","null","","","","resp_prompt","","","","","","","","","","","","","","","",""
"categorize-image","13","60088","0.0-2.0-2.0-1.1","2zlwuf2wfreca2d","practice_no_cue","5d8507a6611c9700152f1126","5f60e3c0a3b16e07647b2ff9","5f61dbf9c0be8603ae86b440","true","620.7999999999738","./Stimuli/ImagesPractice/LM143.jpg","83","","","","test","true","M + N","83","","LM","LM143.jpg","forget","old","2","1","start","left","","","",""
"html-keyboard-response","14","60789","0.0-2.0-2.0-0.2","2zlwuf2wfreca2d","practice_no_cue","5d8507a6611c9700152f1126","5f60e3c0a3b16e07647b2ff9","5f61dbf9c0be8603ae86b440","false","null","<span style=""color: black; font-size: 48px"">M + N</span>","null","","","","resp_prompt","","","","","","","","","","","","","","","",""
"categorize-image","15","62048","0.0-2.0-2.0-1.2","2zlwuf2wfreca2d","practice_no_cue","5d8507a6611c9700152f1126","5f60e3c0a3b16e07647b2ff9","5f61dbf9c0be8603ae86b440","true","757.4450000000215","./Stimuli/ImagesPractice/LN109.jpg","76","","","","test","true","M + N","76","","LN","LN109.jpg","remember","old","3","1","start","right","","","",""
"html-keyboard-response","16","62749","0.0-2.0-2.0-0.3","2zlwuf2wfreca2d","practice_no_cue","5d8507a6611c9700152f1126","5f60e3c0a3b16e07647b2ff9","5f61dbf9c0be8603ae86b440","false","null","<span style=""color: black; font-size: 48px"">N + M</span>","null","","","","resp_prompt","","","","","","","","","","","","","","","",""
"categorize-image","17","63921","0.0-2.0-2.0-1.3","2zlwuf2wfreca2d","practice_no_cue","5d8507a6611c9700152f1126","5f60e3c0a3b16e07647b2ff9","5f61dbf9c0be8603ae86b440","true","669.6950000000434","./Stimuli/ImagesPractice/LN2.jpg","76","","","","test","false","N + M","83","","LN","LN2.jpg","remember","old","4","1","start","right","","","",""
"html-keyboard-response","18","64622","0.0-2.0-2.0-0.4","2zlwuf2wfreca2d","practice_no_cue","5d8507a6611c9700152f1126","5f60e3c0a3b16e07647b2ff9","5f61dbf9c0be8603ae86b440","false","null","<span style=""color: black; font-size: 48px"">M + N</span>","null","","","","resp_prompt","","","","","","","","","","","","","","","",""
"categorize-image","19","65745","0.0-2.0-2.0-1.4","2zlwuf2wfreca2d","practice_no_cue","5d8507a6611c9700152f1126","5f60e3c0a3b16e07647b2ff9","5f61dbf9c0be8603ae86b440","true","621.3200000000215","./Stimuli/ImagesPractice/SN205.jpg","76","","","","test","true","M + N","76","","SN","SN205.jpg","remember","old","5","1","start","right","","","",""
"html-keyboard-response","20","66445","0.0-2.0-2.0-0.5","2zlwuf2wfreca2d","practice_no_cue","5d8507a6611c9700152f1126","5f60e3c0a3b16e07647b2ff9","5f61dbf9c0be8603ae86b440","false","null","<span style=""color: black; font-size: 48px"">N + M</span>","null","","","","resp_prompt","","","","","","","","","","","","","","","",""
"categorize-image","21","67705","0.0-2.0-2.0-1.5","2zlwuf2wfreca2d","practice_no_cue","5d8507a6611c9700152f1126","5f60e3c0a3b16e07647b2ff9","5f61dbf9c0be8603ae86b440","true","757.4349999999977","./Stimuli/ImagesPractice/LM147.jpg","76","","","","test","true","N + M","76","","LM","LM147.jpg","remember","old","6","1","start","right","","","",""
"html-keyboard-response","22","68405","0.0-2.0-2.0-0.6","2zlwuf2wfreca2d","practice_no_cue","5d8507a6611c9700152f1126","5f60e3c0a3b16e07647b2ff9","5f61dbf9c0be8603ae86b440","false","null","<span style=""color: black; font-size: 48px"">N + M</span>","null","","","","resp_prompt","","","","","","","","","","","","","","","",""
"categorize-image","23","69609","0.0-2.0-2.0-1.6","2zlwuf2wfreca2d","practice_no_cue","5d8507a6611c9700152f1126","5f60e3c0a3b16e07647b2ff9","5f61dbf9c0be8603ae86b440","true","701.3700000000536","./Stimuli/ImagesPractice/LN17.jpg","83","","","","test","true","N + M","83","","LN","LN17.jpg","remember","old","7","1","start","left","","","",""
"html-keyboard-response","24","70309","0.0-2.0-2.0-0.7","2zlwuf2wfreca2d","practice_no_cue","5d8507a6611c9700152f1126","5f60e3c0a3b16e07647b2ff9","5f61dbf9c0be8603ae86b440","false","null","<span style=""color: black; font-size: 48px"">N + M</span>","null","","","","resp_prompt","","","","","","","","","","","","","","","",""
"categorize-image","25","71512","0.0-2.0-2.0-1.7","2zlwuf2wfreca2d","practice_no_cue","5d8507a6611c9700152f1126","5f60e3c0a3b16e07647b2ff9","5f61dbf9c0be8603ae86b440","true","701.2750000000087","./Stimuli/ImagesPractice/SM97.jpg","76","","","","test","true","N + M","76","","SM","SM97.jpg","forget","old","8","1","start","right","","","",""
"html-keyboard-response","26","72214","0.0-2.0-2.0-0.8","2zlwuf2wfreca2d","practice_no_cue","5d8507a6611c9700152f1126","5f60e3c0a3b16e07647b2ff9","5f61dbf9c0be8603ae86b440","false","null","<span style=""color: black; font-size: 48px"">M + N</span>","null","","","","resp_prompt","","","","","","","","","","","","","","","",""
"categorize-image","27","73536","0.0-2.0-2.0-1.8","2zlwuf2wfreca2d","practice_no_cue","5d8507a6611c9700152f1126","5f60e3c0a3b16e07647b2ff9","5f61dbf9c0be8603ae86b440","true","821.2199999999866","./Stimuli/ImagesPractice/SN75.jpg","76","","","","test","true","M + N","76","","SN","SN75.jpg","forget","old","9","1","start","right","","","",""
"html-keyboard-response","28","74237","0.0-2.0-2.0-0.9","2zlwuf2wfreca2d","practice_no_cue","5d8507a6611c9700152f1126","5f60e3c0a3b16e07647b2ff9","5f61dbf9c0be8603ae86b440","false","null","<span style=""color: black; font-size: 48px"">M + N</span>","null","","","","resp_prompt","","","","","","","","","","","","","","","",""
"categorize-image","29","75553","0.0-2.0-2.0-1.9","2zlwuf2wfreca2d","practice_no_cue","5d8507a6611c9700152f1126","5f60e3c0a3b16e07647b2ff9","5f61dbf9c0be8603ae86b440","true","813.5199999999895","./Stimuli/ImagesPractice/LN4.jpg","76","","","","test","true","M + N","76","","LN","LN4.jpg","remember","old","10","1","start","right","","","",""
"html-keyboard-response","30","76254","0.0-2.0-2.0-0.10","2zlwuf2wfreca2d","practice_no_cue","5d8507a6611c9700152f1126","5f60e3c0a3b16e07647b2ff9","5f61dbf9c0be8603ae86b440","false","null","<span style=""color: black; font-size: 48px"">M + N</span>","null","","","","resp_prompt","","","","","","","","","","","","","","","",""
"categorize-image","31","77336","0.0-2.0-2.0-1.10","2zlwuf2wfreca2d","practice_no_cue","5d8507a6611c9700152f1126","5f60e3c0a3b16e07647b2ff9","5f61dbf9c0be8603ae86b440","true","581.1800000000076","./Stimuli/ImagesPractice/SM61.jpg","76","","","","test","false","M + N","83","","SM","SM61.jpg","forget","old","11","1","start","right","","","",""
"html-keyboard-response","32","78037","0.0-2.0-2.0-0.11","2zlwuf2wfreca2d","practice_no_cue","5d8507a6611c9700152f1126","5f60e3c0a3b16e07647b2ff9","5f61dbf9c0be8603ae86b440","false","null","<span style=""color: black; font-size: 48px"">M + N</span>","null","","","","resp_prompt","","","","","","","","","","","","","","","",""
"categorize-image","33","79400","0.0-2.0-2.0-1.11","2zlwuf2wfreca2d","practice_no_cue","5d8507a6611c9700152f1126","5f60e3c0a3b16e07647b2ff9","5f61dbf9c0be8603ae86b440","true","862.140000000014","./Stimuli/ImagesPractice/SM62.jpg","83","","","","test","true","M + N","83","","SM","SM62.jpg","remember","old","12","1","start","left","","","",""
"html-keyboard-response","34","80101","0.0-2.0-2.0-0.12","2zlwuf2wfreca2d","practice_no_cue","5d8507a6611c9700152f1126","5f60e3c0a3b16e07647b2ff9","5f61dbf9c0be8603ae86b440","false","null","<span style=""color: black; font-size: 48px"">N + M</span>","null","","","","resp_prompt","","","","","","","","","","","","","","","",""
"categorize-image","35","81225","0.0-2.0-2.0-1.12","2zlwuf2wfreca2d","practice_no_cue","5d8507a6611c9700152f1126","5f60e3c0a3b16e07647b2ff9","5f61dbf9c0be8603ae86b440","true","621.8949999999895","./Stimuli/ImagesPractice/LM55.jpg","76","","","","test","true","N + M","76","","LM","LM55.jpg","forget","old","13","1","start","right","","","",""
"html-keyboard-response","36","81926","0.0-2.0-2.0-0.13","2zlwuf2wfreca2d","practice_no_cue","5d8507a6611c9700152f1126","5f60e3c0a3b16e07647b2ff9","5f61dbf9c0be8603ae86b440","false","null","<span style=""color: black; font-size: 48px"">M + N</span>","null","","","","resp_prompt","","","","","","","","","","","","","","","",""
"categorize-image","37","82992","0.0-2.0-2.0-1.13","2zlwuf2wfreca2d","practice_no_cue","5d8507a6611c9700152f1126","5f60e3c0a3b16e07647b2ff9","5f61dbf9c0be8603ae86b440","true","565.1899999999732","./Stimuli/ImagesPractice/SN76.jpg","76","","","","test","true","M + N","76","","SN","SN76.jpg","forget","old","14","1","start","right","","","",""
"html-keyboard-response","38","83693","0.0-2.0-2.0-0.14","2zlwuf2wfreca2d","practice_no_cue","5d8507a6611c9700152f1126","5f60e3c0a3b16e07647b2ff9","5f61dbf9c0be8603ae86b440","false","null","<span style=""color: black; font-size: 48px"">N + M</span>","null","","","","resp_prompt","","","","","","","","","","","","","","","",""
"categorize-image","39","84952","0.0-2.0-2.0-1.14","2zlwuf2wfreca2d","practice_no_cue","5d8507a6611c9700152f1126","5f60e3c0a3b16e07647b2ff9","5f61dbf9c0be8603ae86b440","true","757.7450000000099","./Stimuli/ImagesPractice/SM37.jpg","76","","","","test","true","N + M","76","","SM","SM37.jpg","forget","old","15","1","start","right","","","",""
"html-keyboard-response","40","85653","0.0-2.0-2.0-0.15","2zlwuf2wfreca2d","practice_no_cue","5d8507a6611c9700152f1126","5f60e3c0a3b16e07647b2ff9","5f61dbf9c0be8603ae86b440","false","null","<span style=""color: black; font-size: 48px"">N + M</span>","null","","","","resp_prompt","","","","","","","","","","","","","","","",""
"categorize-image","41","86672","0.0-2.0-2.0-1.15","2zlwuf2wfreca2d","practice_no_cue","5d8507a6611c9700152f1126","5f60e3c0a3b16e07647b2ff9","5f61dbf9c0be8603ae86b440","true","518.1100000000442","./Stimuli/ImagesPractice/LN15.jpg","83","","","","test","true","N + M","83","","LN","LN15.jpg","remember","old","16","1","start","left","","","",""
"html-keyboard-response","42","89460","0.0-2.0-3.0","2zlwuf2wfreca2d","break","5d8507a6611c9700152f1126","5f60e3c0a3b16e07647b2ff9","5f61dbf9c0be8603ae86b440","false","2786.985000000015","<p style='font-size: 32px;'>Break</><br><br><br><br><br><p style='font-size: 24px;'>In the last block, you committed 2 errors and did not respond in time on 1 trials.
</p><p style='font-size: 24px;'>Try to respond as fast and accurately as possible in the next block as well! </p><p style='font-size: 24px;'>Press SPACE to continue.</p>","32","","","","","","","","","","","","","","","","","","","",""
"html-keyboard-response","43","91251","0.0-2.0-4.0","2zlwuf2wfreca2d","instructions","5d8507a6611c9700152f1126","5f60e3c0a3b16e07647b2ff9","5f61dbf9c0be8603ae86b440","false","1791.0449999999983","<div align=left> Great!<br><br>Are you ready to continue?<br><br>If you want to reread the instructions and redo the practice trials, <br>please press „Z“. <br><br>Press SPACE to CONTINUE with the experiment when you are ready. </div>","32","","","","","","","","","","","","","","","","","","","",""
"html-keyboard-response","44","97844","0.0-3.0-0.0","2zlwuf2wfreca2d","instructions","5d8507a6611c9700152f1126","5f60e3c0a3b16e07647b2ff9","5f61dbf9c0be8603ae86b440","false","6591.459999999977","<div align=left>Great!<br> <strong>Attention</strong>! You will now receive a second, additional task! <br><br>To this point it was you <strong>first task</strong> to correctly <strong>classify objects</strong>. <br><br>As mentioned in the beginning, we aim to examine how well humans can remember previously learned information.<br>We would like to find out whether our memory improves if we only remember information that is relevant to us. <br><br>Therefore, your <strong>second task</strong> will be to <strong>remember</strong> the pictures you are to categorize. <br> After the learning phase, there will be a memory test phase, in which you will be asked to indicate whether you have seen a picture before or not. <br>Some, but not all pictures shown in the learning phase will appear in the memory test phase.<br>After classifying a picture, you will be told whether you should remember it for the memory test phase or not. <br>Thus, some pictures can be forgotten, whereas others have to be remembered. <br><br>Note: From now on, feedback will only be displayed if you responded incorrectly or not in time.<br><br>Press SPACE to continue.</div>","32","","","","","","","","","","","","","","","","","","","",""
"html-keyboard-response","45","99708","0.0-3.0-1.0","2zlwuf2wfreca2d","instructions","5d8507a6611c9700152f1126","5f60e3c0a3b16e07647b2ff9","5f61dbf9c0be8603ae86b440","false","1863.4150000000227","<div align=left>In the following part, you will thus have to remember only some pictures. <br>Immediately after seeing and classifying the picture, a symbol will be displayed, indicating whether you should remember or forget the previous picture. <br><br>A <span style='color: dodgerblue; font-size: 28px'>O</span> indicates REMEMBER. That means, you have to remember this picture, because it will be tested later. <br><br>A <span style='color: darkorange; font-size:28px'>Ø</span> indicates FORGET. You do not have to remember this picture. <br><br> As you will have to remember a lot of pictures, it will be hard for you to remember all of them. <br>It will put you at an advantage if you instantly forget the pictures you are not asked to remember. <br> This will make it easier for you to remember the pictures that will be tested afterwards. <br><br>Press SPACE to continue.</div>","32","","","","","","","","","","","","","","","","","","","",""
"html-keyboard-response","46","100724","0.0-3.0-2.0","2zlwuf2wfreca2d","instructions","5d8507a6611c9700152f1126","5f60e3c0a3b16e07647b2ff9","5f61dbf9c0be8603ae86b440","false","1015.2200000000012","<div align=left> Now you have the chance to practice both tasks together.<br><br>Remember: <br> <br><li>Please place your index fingers on the <strong>'S'</strong> and <strong>'L'</strong> keys <br>to respond as fast and accurately as possible.</li><li>Every picture can be classified as either mechanical or non-mechanical.</li><li>If you do not respond in time or commit an error, you will receive a corresponding feedback. <br>Please try to respond as <strong> fast </strong> and as <strong> accurately as possible </strong>.</li><li> Please remember only the to-be-remembered <span style='color: dodgerblue; font-size: 28px'>O</span> pictures. <br></li><li> Please minimize distractions and stay focused. </li><br><br>Press SPACE to START</div>","32","","","","","","","","","","","","","","","","","","","",""
"html-keyboard-response","47","101425","0.0-3.0-3.0-0.0","2zlwuf2wfreca2d","practice_cue","5d8507a6611c9700152f1126","5f60e3c0a3b16e07647b2ff9","5f61dbf9c0be8603ae86b440","false","null","<span style=""color: black; font-size: 48px"">M + N</span>","null","","","","resp_prompt","","","","","","","","","","","","","","","",""
"categorize-image","48","101998","0.0-3.0-3.0-1.0","2zlwuf2wfreca2d","practice_cue","5d8507a6611c9700152f1126","5f60e3c0a3b16e07647b2ff9","5f61dbf9c0be8603ae86b440","true","569.8650000000052","./Stimuli/ImagesPractice/SN76.jpg","76","","","","test","true","M + N","76","","SN","SN76.jpg","forget","old","17","2","practice_forget","right","","","",""
"html-keyboard-response","49","103999","0.0-3.0-3.0-3.0","2zlwuf2wfreca2d","practice_cue","5d8507a6611c9700152f1126","5f60e3c0a3b16e07647b2ff9","5f61dbf9c0be8603ae86b440","false","null","<div style=""align-items: center; display: flex; color: darkorange; font-size: 90px""><b>ø</b></div>","null","","","","forget_cue","","","","","","","","","","","","","","","",""
"html-keyboard-response","50","104701","0.0-3.0-3.0-0.1","2zlwuf2wfreca2d","practice_cue","5d8507a6611c9700152f1126","5f60e3c0a3b16e07647b2ff9","5f61dbf9c0be8603ae86b440","false","null","<span style=""color: black; font-size: 48px"">N + M</span>","null","","","","resp_prompt","","","","","","","","","","","","","","","",""
"categorize-image","51","105398","0.0-3.0-3.0-1.1","2zlwuf2wfreca2d","practice_cue","5d8507a6611c9700152f1126","5f60e3c0a3b16e07647b2ff9","5f61dbf9c0be8603ae86b440","true","693.9350000000122","./Stimuli/ImagesPractice/LM55.jpg","76","","","","test","true","N + M","76","","LM","LM55.jpg","forget","old","18","2","practice_forget","right","","","",""
"html-keyboard-response","52","107399","0.0-3.0-3.0-3.1","2zlwuf2wfreca2d","practice_cue","5d8507a6611c9700152f1126","5f60e3c0a3b16e07647b2ff9","5f61dbf9c0be8603ae86b440","false","null","<div style=""align-items: center; display: flex; color: darkorange; font-size: 90px""><b>ø</b></div>","null","","","","forget_cue","","","","","","","","","","","","","","","",""
"html-keyboard-response","53","108101","0.0-3.0-3.0-0.2","2zlwuf2wfreca2d","practice_cue","5d8507a6611c9700152f1126","5f60e3c0a3b16e07647b2ff9","5f61dbf9c0be8603ae86b440","false","null","<span style=""color: black; font-size: 48px"">N + M</span>","null","","","","resp_prompt","","","","","","","","","","","","","","","",""
"categorize-image","54","108645","0.0-3.0-3.0-1.2","2zlwuf2wfreca2d","practice_cue","5d8507a6611c9700152f1126","5f60e3c0a3b16e07647b2ff9","5f61dbf9c0be8603ae86b440","true","542.140000000014","./Stimuli/ImagesPractice/LM147.jpg","76","","","","test","true","N + M","76","","LM","LM147.jpg","remember","old","19","2","practice_forget","right","","","",""
"html-keyboard-response","55","110647","0.0-3.0-3.0-3.2","2zlwuf2wfreca2d","practice_cue","5d8507a6611c9700152f1126","5f60e3c0a3b16e07647b2ff9","5f61dbf9c0be8603ae86b440","false","null","<div style=""align-items: center; display: flex; color: dodgerblue; font-size: 90px""><b>o</b></div>","null","","","","forget_cue","","","","","","","","","","","","","","","",""
"html-keyboard-response","56","111348","0.0-3.0-3.0-0.3","2zlwuf2wfreca2d","practice_cue","5d8507a6611c9700152f1126","5f60e3c0a3b16e07647b2ff9","5f61dbf9c0be8603ae86b440","false","null","<span style=""color: black; font-size: 48px"">M + N</span>","null","","","","resp_prompt","","","","","","","","","","","","","","","",""
"categorize-image","57","112246","0.0-3.0-3.0-1.3","2zlwuf2wfreca2d","practice_cue","5d8507a6611c9700152f1126","5f60e3c0a3b16e07647b2ff9","5f61dbf9c0be8603ae86b440","true","895.0450000000856","./Stimuli/ImagesPractice/LM143.jpg","83","","","","test","true","M + N","83","","LM","LM143.jpg","forget","old","20","2","practice_forget","left","","","",""
"html-keyboard-response","58","114247","0.0-3.0-3.0-3.3","2zlwuf2wfreca2d","practice_cue","5d8507a6611c9700152f1126","5f60e3c0a3b16e07647b2ff9","5f61dbf9c0be8603ae86b440","false","null","<div style=""align-items: center; display: flex; color: darkorange; font-size: 90px""><b>ø</b></div>","null","","","","forget_cue","","","","","","","","","","","","","","","",""
"html-keyboard-response","59","114948","0.0-3.0-3.0-0.4","2zlwuf2wfreca2d","practice_cue","5d8507a6611c9700152f1126","5f60e3c0a3b16e07647b2ff9","5f61dbf9c0be8603ae86b440","false","null","<span style=""color: black; font-size: 48px"">M + N</span>","null","","","","resp_prompt","","","","","","","","","","","","","","","",""
"categorize-image","60","115662","0.0-3.0-3.0-1.4","2zlwuf2wfreca2d","practice_cue","5d8507a6611c9700152f1126","5f60e3c0a3b16e07647b2ff9","5f61dbf9c0be8603ae86b440","true","710.7449999999808","./Stimuli/ImagesPractice/SM62.jpg","83","","","","test","true","M + N","83","","SM","SM62.jpg","remember","old","21","2","practice_forget","left","","","",""
"html-keyboard-response","61","117663","0.0-3.0-3.0-3.4","2zlwuf2wfreca2d","practice_cue","5d8507a6611c9700152f1126","5f60e3c0a3b16e07647b2ff9","5f61dbf9c0be8603ae86b440","false","null","<div style=""align-items: center; display: flex; color: dodgerblue; font-size: 90px""><b>o</b></div>","null","","","","forget_cue","","","","","","","","","","","","","","","",""
"html-keyboard-response","62","118363","0.0-3.0-3.0-0.5","2zlwuf2wfreca2d","practice_cue","5d8507a6611c9700152f1126","5f60e3c0a3b16e07647b2ff9","5f61dbf9c0be8603ae86b440","false","null","<span style=""color: black; font-size: 48px"">M + N</span>","null","","","","resp_prompt","","","","","","","","","","","","","","","",""
"categorize-image","63","119142","0.0-3.0-3.0-1.5","2zlwuf2wfreca2d","practice_cue","5d8507a6611c9700152f1126","5f60e3c0a3b16e07647b2ff9","5f61dbf9c0be8603ae86b440","true","775.3250000000698","./Stimuli/ImagesPractice/LN4.jpg","76","","","","test","true","M + N","76","","LN","LN4.jpg","remember","old","22","2","practice_forget","right","","","",""
"html-keyboard-response","64","121144","0.0-3.0-3.0-3.5","2zlwuf2wfreca2d","practice_cue","5d8507a6611c9700152f1126","5f60e3c0a3b16e07647b2ff9","5f61dbf9c0be8603ae86b440","false","null","<div style=""align-items: center; display: flex; color: dodgerblue; font-size: 90px""><b>o</b></div>","null","","","","forget_cue","","","","","","","","","","","","","","","",""
"html-keyboard-response","65","121844","0.0-3.0-3.0-0.6","2zlwuf2wfreca2d","practice_cue","5d8507a6611c9700152f1126","5f60e3c0a3b16e07647b2ff9","5f61dbf9c0be8603ae86b440","false","null","<span style=""color: black; font-size: 48px"">M + N</span>","null","","","","resp_prompt","","","","","","","","","","","","","","","",""
"categorize-image","66","122406","0.0-3.0-3.0-1.6","2zlwuf2wfreca2d","practice_cue","5d8507a6611c9700152f1126","5f60e3c0a3b16e07647b2ff9","5f61dbf9c0be8603ae86b440","true","558.6550000000425","./Stimuli/ImagesPractice/SN205.jpg","76","","","","test","true","M + N","76","","SN","SN205.jpg","remember","old","23","2","practice_forget","right","","","",""
"html-keyboard-response","67","124407","0.0-3.0-3.0-3.6","2zlwuf2wfreca2d","practice_cue","5d8507a6611c9700152f1126","5f60e3c0a3b16e07647b2ff9","5f61dbf9c0be8603ae86b440","false","null","<div style=""align-items: center; display: flex; color: dodgerblue; font-size: 90px""><b>o</b></div>","null","","","","forget_cue","","","","","","","","","","","","","","","",""
"html-keyboard-response","68","125108","0.0-3.0-3.0-0.7","2zlwuf2wfreca2d","practice_cue","5d8507a6611c9700152f1126","5f60e3c0a3b16e07647b2ff9","5f61dbf9c0be8603ae86b440","false","null","<span style=""color: black; font-size: 48px"">M + N</span>","null","","","","resp_prompt","","","","","","","","","","","","","","","",""
"categorize-image","69","125709","0.0-3.0-3.0-1.7","2zlwuf2wfreca2d","practice_cue","5d8507a6611c9700152f1126","5f60e3c0a3b16e07647b2ff9","5f61dbf9c0be8603ae86b440","true","599.0249999999796","./Stimuli/ImagesPractice/SN75.jpg","76","","","","test","true","M + N","76","","SN","SN75.jpg","forget","old","24","2","practice_forget","right","","","",""
"html-keyboard-response","70","127710","0.0-3.0-3.0-3.7","2zlwuf2wfreca2d","practice_cue","5d8507a6611c9700152f1126","5f60e3c0a3b16e07647b2ff9","5f61dbf9c0be8603ae86b440","false","null","<div style=""align-items: center; display: flex; color: darkorange; font-size: 90px""><b>ø</b></div>","null","","","","forget_cue","","","","","","","","","","","","","","","",""
"html-keyboard-response","71","128411","0.0-3.0-3.0-0.8","2zlwuf2wfreca2d","practice_cue","5d8507a6611c9700152f1126","5f60e3c0a3b16e07647b2ff9","5f61dbf9c0be8603ae86b440","false","null","<span style=""color: black; font-size: 48px"">M + N</span>","null","","","","resp_prompt","","","","","","","","","","","","","","","",""
"categorize-image","72","129558","0.0-3.0-3.0-1.8","2zlwuf2wfreca2d","practice_cue","5d8507a6611c9700152f1126","5f60e3c0a3b16e07647b2ff9","5f61dbf9c0be8603ae86b440","true","1143.3749999999854","./Stimuli/ImagesPractice/SM61.jpg","76","","","","test","false","M + N","83","","SM","SM61.jpg","forget","old","25","2","practice_forget","right","","","",""
"html-keyboard-response","73","130059","0.0-3.0-3.0-2.8-0.8","2zlwuf2wfreca2d","practice_cue","5d8507a6611c9700152f1126","5f60e3c0a3b16e07647b2ff9","5f61dbf9c0be8603ae86b440","false","null","<span style=""color: red; font-size: 48px"">Error!</span>","null","","","","feedback","","","","","","","","","","","","","","","",""
"html-keyboard-response","74","132060","0.0-3.0-3.0-3.8","2zlwuf2wfreca2d","practice_cue","5d8507a6611c9700152f1126","5f60e3c0a3b16e07647b2ff9","5f61dbf9c0be8603ae86b440","false","null","<div style=""align-items: center; display: flex; color: darkorange; font-size: 90px""><b>ø</b></div>","null","","","","forget_cue","","","","","","","","","","","","","","","",""
"html-keyboard-response","75","132761","0.0-3.0-3.0-0.9","2zlwuf2wfreca2d","practice_cue","5d8507a6611c9700152f1126","5f60e3c0a3b16e07647b2ff9","5f61dbf9c0be8603ae86b440","false","null","<span style=""color: black; font-size: 48px"">N + M</span>","null","","","","resp_prompt","","","","","","","","","","","","","","","",""
"categorize-image","76","133470","0.0-3.0-3.0-1.9","2zlwuf2wfreca2d","practice_cue","5d8507a6611c9700152f1126","5f60e3c0a3b16e07647b2ff9","5f61dbf9c0be8603ae86b440","true","706.4549999999872","./Stimuli/ImagesPractice/LN15.jpg","83","","","","test","true","N + M","83","","LN","LN15.jpg","remember","old","26","2","practice_forget","left","","","",""
"html-keyboard-response","77","135471","0.0-3.0-3.0-3.9","2zlwuf2wfreca2d","practice_cue","5d8507a6611c9700152f1126","5f60e3c0a3b16e07647b2ff9","5f61dbf9c0be8603ae86b440","false","null","<div style=""align-items: center; display: flex; color: dodgerblue; font-size: 90px""><b>o</b></div>","null","","","","forget_cue","","","","","","","","","","","","","","","",""
"html-keyboard-response","78","136173","0.0-3.0-3.0-0.10","2zlwuf2wfreca2d","practice_cue","5d8507a6611c9700152f1126","5f60e3c0a3b16e07647b2ff9","5f61dbf9c0be8603ae86b440","false","null","<span style=""color: black; font-size: 48px"">N + M</span>","null","","","","resp_prompt","","","","","","","","","","","","","","","",""
"categorize-image","79","137469","0.0-3.0-3.0-1.10","2zlwuf2wfreca2d","practice_cue","5d8507a6611c9700152f1126","5f60e3c0a3b16e07647b2ff9","5f61dbf9c0be8603ae86b440","true","1294.125","./Stimuli/ImagesPractice/LN2.jpg","76","","","","test","false","N + M","83","","LN","LN2.jpg","remember","old","27","2","practice_forget","right","","","",""
"html-keyboard-response","80","137971","0.0-3.0-3.0-2.10-0.10","2zlwuf2wfreca2d","practice_cue","5d8507a6611c9700152f1126","5f60e3c0a3b16e07647b2ff9","5f61dbf9c0be8603ae86b440","false","null","<span style=""color: red; font-size: 48px"">Error!</span>","null","","","","feedback","","","","","","","","","","","","","","","",""
"html-keyboard-response","81","139972","0.0-3.0-3.0-3.10","2zlwuf2wfreca2d","practice_cue","5d8507a6611c9700152f1126","5f60e3c0a3b16e07647b2ff9","5f61dbf9c0be8603ae86b440","false","null","<div style=""align-items: center; display: flex; color: dodgerblue; font-size: 90px""><b>o</b></div>","null","","","","forget_cue","","","","","","","","","","","","","","","",""
"html-keyboard-response","82","140673","0.0-3.0-3.0-0.11","2zlwuf2wfreca2d","practice_cue","5d8507a6611c9700152f1126","5f60e3c0a3b16e07647b2ff9","5f61dbf9c0be8603ae86b440","false","null","<span style=""color: black; font-size: 48px"">N + M</span>","null","","","","resp_prompt","","","","","","","","","","","","","","","",""
"categorize-image","83","141238","0.0-3.0-3.0-1.11","2zlwuf2wfreca2d","practice_cue","5d8507a6611c9700152f1126","5f60e3c0a3b16e07647b2ff9","5f61dbf9c0be8603ae86b440","true","561.2499999999709","./Stimuli/ImagesPractice/SM97.jpg","76","","","","test","true","N + M","76","","SM","SM97.jpg","forget","old","28","2","practice_forget","right","","","",""
"html-keyboard-response","84","143238","0.0-3.0-3.0-3.11","2zlwuf2wfreca2d","practice_cue","5d8507a6611c9700152f1126","5f60e3c0a3b16e07647b2ff9","5f61dbf9c0be8603ae86b440","false","null","<div style=""align-items: center; display: flex; color: darkorange; font-size: 90px""><b>ø</b></div>","null","","","","forget_cue","","","","","","","","","","","","","","","",""
"html-keyboard-response","85","143939","0.0-3.0-3.0-0.12","2zlwuf2wfreca2d","practice_cue","5d8507a6611c9700152f1126","5f60e3c0a3b16e07647b2ff9","5f61dbf9c0be8603ae86b440","false","null","<span style=""color: black; font-size: 48px"">N + M</span>","null","","","","resp_prompt","","","","","","","","","","","","","","","",""
"categorize-image","86","144622","0.0-3.0-3.0-1.12","2zlwuf2wfreca2d","practice_cue","5d8507a6611c9700152f1126","5f60e3c0a3b16e07647b2ff9","5f61dbf9c0be8603ae86b440","true","679.625","./Stimuli/ImagesPractice/LM224.jpg","76","","","","test","true","N + M","76","","LM","LM224.jpg","forget","old","29","2","practice_forget","right","","","",""
"html-keyboard-response","87","146624","0.0-3.0-3.0-3.12","2zlwuf2wfreca2d","practice_cue","5d8507a6611c9700152f1126","5f60e3c0a3b16e07647b2ff9","5f61dbf9c0be8603ae86b440","false","null","<div style=""align-items: center; display: flex; color: darkorange; font-size: 90px""><b>ø</b></div>","null","","","","forget_cue","","","","","","","","","","","","","","","",""
"html-keyboard-response","88","147325","0.0-3.0-3.0-0.13","2zlwuf2wfreca2d","practice_cue","5d8507a6611c9700152f1126","5f60e3c0a3b16e07647b2ff9","5f61dbf9c0be8603ae86b440","false","null","<span style=""color: black; font-size: 48px"">N + M</span>","null","","","","resp_prompt","","","","","","","","","","","","","","","",""
"categorize-image","89","147861","0.0-3.0-3.0-1.13","2zlwuf2wfreca2d","practice_cue","5d8507a6611c9700152f1126","5f60e3c0a3b16e07647b2ff9","5f61dbf9c0be8603ae86b440","true","534.0200000000768","./Stimuli/ImagesPractice/LN17.jpg","83","","","","test","true","N + M","83","","LN","LN17.jpg","remember","old","30","2","practice_forget","left","","","",""
"html-keyboard-response","90","149862","0.0-3.0-3.0-3.13","2zlwuf2wfreca2d","practice_cue","5d8507a6611c9700152f1126","5f60e3c0a3b16e07647b2ff9","5f61dbf9c0be8603ae86b440","false","null","<div style=""align-items: center; display: flex; color: dodgerblue; font-size: 90px""><b>o</b></div>","null","","","","forget_cue","","","","","","","","","","","","","","","",""
"html-keyboard-response","91","150563","0.0-3.0-3.0-0.14","2zlwuf2wfreca2d","practice_cue","5d8507a6611c9700152f1126","5f60e3c0a3b16e07647b2ff9","5f61dbf9c0be8603ae86b440","false","null","<span style=""color: black; font-size: 48px"">N + M</span>","null","","","","resp_prompt","","","","","","","","","","","","","","","",""
"categorize-image","92","151621","0.0-3.0-3.0-1.14","2zlwuf2wfreca2d","practice_cue","5d8507a6611c9700152f1126","5f60e3c0a3b16e07647b2ff9","5f61dbf9c0be8603ae86b440","true","1055.219999999972","./Stimuli/ImagesPractice/SM37.jpg","76","","","","test","true","N + M","76","","SM","SM37.jpg","forget","old","31","2","practice_forget","right","","","",""
"html-keyboard-response","93","153623","0.0-3.0-3.0-3.14","2zlwuf2wfreca2d","practice_cue","5d8507a6611c9700152f1126","5f60e3c0a3b16e07647b2ff9","5f61dbf9c0be8603ae86b440","false","null","<div style=""align-items: center; display: flex; color: darkorange; font-size: 90px""><b>ø</b></div>","null","","","","forget_cue","","","","","","","","","","","","","","","",""
"html-keyboard-response","94","154324","0.0-3.0-3.0-0.15","2zlwuf2wfreca2d","practice_cue","5d8507a6611c9700152f1126","5f60e3c0a3b16e07647b2ff9","5f61dbf9c0be8603ae86b440","false","null","<span style=""color: black; font-size: 48px"">M + N</span>","null","","","","resp_prompt","","","","","","","","","","","","","","","",""
"categorize-image","95","154942","0.0-3.0-3.0-1.15","2zlwuf2wfreca2d","practice_cue","5d8507a6611c9700152f1126","5f60e3c0a3b16e07647b2ff9","5f61dbf9c0be8603ae86b440","true","614.8799999999756","./Stimuli/ImagesPractice/LN109.jpg","83","","","","test","false","M + N","76","","LN","LN109.jpg","remember","old","32","2","practice_forget","left","","","",""
"html-keyboard-response","96","155443","0.0-3.0-3.0-2.15-0.15","2zlwuf2wfreca2d","practice_cue","5d8507a6611c9700152f1126","5f60e3c0a3b16e07647b2ff9","5f61dbf9c0be8603ae86b440","false","null","<span style=""color: red; font-size: 48px"">Error!</span>","null","","","","feedback","","","","","","","","","","","","","","","",""
"html-keyboard-response","97","157444","0.0-3.0-3.0-3.15","2zlwuf2wfreca2d","practice_cue","5d8507a6611c9700152f1126","5f60e3c0a3b16e07647b2ff9","5f61dbf9c0be8603ae86b440","false","null","<div style=""align-items: center; display: flex; color: dodgerblue; font-size: 90px""><b>o</b></div>","null","","","","forget_cue","","","","","","","","","","","","","","","",""
"html-keyboard-response","98","161980","0.0-3.0-4.0","2zlwuf2wfreca2d","break","5d8507a6611c9700152f1126","5f60e3c0a3b16e07647b2ff9","5f61dbf9c0be8603ae86b440","false","4534.854999999981","<p style='font-size: 32px;'>Break</><br><br><br><br><br><p style='font-size: 24px;'>In the last block, you committed 3 errors and did not respond in time on 0 trials.
</p><p style='font-size: 24px;'>Try to respond as fast and accurately as possible in the next block as well! </p><p style='font-size: 24px;'>Press SPACE to continue.</p>","32","","","","","","","","","","","","","","","","","","","",""
"html-keyboard-response","99","174755","0.0-3.0-5.0","2zlwuf2wfreca2d","instructions","5d8507a6611c9700152f1126","5f60e3c0a3b16e07647b2ff9","5f61dbf9c0be8603ae86b440","false","12775.375000000058","<div align=left> Now, to practice, we kindly ask you to remember as many of the to-be-remembered pictures<br>of the previous learning phase as possible.<br><br>The pictures you were instructed to remember were the pictures followed by a <span style='color: dodgerblue; font-size: 28px'>O</span>.<br><br>In this memory test phase, you will also see some new pictures.<br>It is your task to remember whether you were presented with this specific picture in this study so far or not.<br>If you recognize an object (you have already seen it in this study), it is an OLD object. <br>If you do not recognize an object (you have NOT seen it in this study), it is a NEW object. <br><strong> Attention</strong>: As already mentioned, <span style='color: darkorange; font-size:28px'>Ø</span>-pictures will <strong>never</strong> appear in this memory test (neither as new objects). <br><br>Press SPACE to continue. </div>","32","","","","","","","","","","","","","","","","","","","",""
"html-keyboard-response","100","180963","0.0-3.0-6.0","2zlwuf2wfreca2d","instructions","5d8507a6611c9700152f1126","5f60e3c0a3b16e07647b2ff9","5f61dbf9c0be8603ae86b440","false","6207.070000000036","<div align=left> M and N no longer will appear on the left/right of the fixation cross. <br>Instead there will be a note at the bottom of the left or right side  <br>indicating which key you should press for an old or new object:  <br> <br>Press the <strong>right</strong> key to classify an object as <strong>old</strong> and press the <strong>left</strong>, to classify an object as <strong>new</strong>.<br>Please classify the objects as new/old by again placing your index finger on the 'S' and 'L' keys <br>and press them accordingly.<br><br><strong>Old:</strong> This object has been presented before. <br><strong>New:</strong> This object has <strong>not</strong> been presented.<br><br>Now please put your right and left index fingers on the 'S' and 'L' keys of your keyboard. <br>Please respond as fast and as accurately as possible!<br><br>Press SPACE to continue. </div>","32","","","","","","","","","","","","","","","","","","","",""
"categorize-image","101","182991","0.0-3.0-7.0-0.0","2zlwuf2wfreca2d","practice_recog","5d8507a6611c9700152f1126","5f60e3c0a3b16e07647b2ff9","5f61dbf9c0be8603ae86b440","true","1526.759999999951","./Stimuli/ImagesPractice/LM239.jpg","76","","","","test","true","","76","","LM","LM239.jpg","","new","33","3","practice_recog","right","","","",""
"categorize-image","102","184279","0.0-3.0-7.0-0.1","2zlwuf2wfreca2d","practice_recog","5d8507a6611c9700152f1126","5f60e3c0a3b16e07647b2ff9","5f61dbf9c0be8603ae86b440","true","786.875","./Stimuli/ImagesPractice/SN222.jpg","76","","","","test","true","","76","","SN","SN222.jpg","","new","34","3","practice_recog","right","","","",""
"categorize-image","103","185544","0.0-3.0-7.0-0.2","2zlwuf2wfreca2d","practice_recog","5d8507a6611c9700152f1126","5f60e3c0a3b16e07647b2ff9","5f61dbf9c0be8603ae86b440","true","763.3099999999395","./Stimuli/ImagesPractice/SN221.jpg","76","","","","test","true","","76","","SN","SN221.jpg","","new","35","3","practice_recog","right","","","",""
"categorize-image","104","186680","0.0-3.0-7.0-0.3","2zlwuf2wfreca2d","practice_recog","5d8507a6611c9700152f1126","5f60e3c0a3b16e07647b2ff9","5f61dbf9c0be8603ae86b440","true","633.8399999999674","./Stimuli/ImagesPractice/LN15.jpg","83","","","","test","true","","83","","LN","LN15.jpg","","old","36","3","practice_recog","left","","","",""
"categorize-image","105","187769","0.0-3.0-7.0-0.4","2zlwuf2wfreca2d","practice_recog","5d8507a6611c9700152f1126","5f60e3c0a3b16e07647b2ff9","5f61dbf9c0be8603ae86b440","true","586.1549999999697","./Stimuli/ImagesPractice/LN17.jpg","83","","","","test","true","","83","","LN","LN17.jpg","","old","37","3","practice_recog","left","","","",""
"categorize-image","106","188840","0.0-3.0-7.0-0.5","2zlwuf2wfreca2d","practice_recog","5d8507a6611c9700152f1126","5f60e3c0a3b16e07647b2ff9","5f61dbf9c0be8603ae86b440","true","569.5850000000792","./Stimuli/ImagesPractice/SN205.jpg","83","","","","test","true","","83","","SN","SN205.jpg","","old","38","3","practice_recog","left","","","",""
"categorize-image","107","189904","0.0-3.0-7.0-0.6","2zlwuf2wfreca2d","practice_recog","5d8507a6611c9700152f1126","5f60e3c0a3b16e07647b2ff9","5f61dbf9c0be8603ae86b440","true","562.4450000000361","./Stimuli/ImagesPractice/LN4.jpg","83","","","","test","true","","83","","LN","LN4.jpg","","old","39","3","practice_recog","left","","","",""
"categorize-image","108","191104","0.0-3.0-7.0-0.7","2zlwuf2wfreca2d","practice_recog","5d8507a6611c9700152f1126","5f60e3c0a3b16e07647b2ff9","5f61dbf9c0be8603ae86b440","true","698.1449999999604","./Stimuli/ImagesPractice/SM98.jpg","76","","","","test","true","","76","","SM","SM98.jpg","","new","40","3","practice_recog","right","","","",""
"categorize-image","109","192424","0.0-3.0-7.0-0.8","2zlwuf2wfreca2d","practice_recog","5d8507a6611c9700152f1126","5f60e3c0a3b16e07647b2ff9","5f61dbf9c0be8603ae86b440","true","819.0600000000268","./Stimuli/ImagesPractice/LM147.jpg","83","","","","test","true","","83","","LM","LM147.jpg","","old","41","3","practice_recog","left","","","",""
"categorize-image","110","193864","0.0-3.0-7.0-0.9","2zlwuf2wfreca2d","practice_recog","5d8507a6611c9700152f1126","5f60e3c0a3b16e07647b2ff9","5f61dbf9c0be8603ae86b440","true","938.7349999999278","./Stimuli/ImagesPractice/LN72.jpg","76","","","","test","true","","76","","LN","LN72.jpg","","new","42","3","practice_recog","right","","","",""
"categorize-image","111","196392","0.0-3.0-7.0-0.10","2zlwuf2wfreca2d","practice_recog","5d8507a6611c9700152f1126","5f60e3c0a3b16e07647b2ff9","5f61dbf9c0be8603ae86b440","true","2026.4249999999884","./Stimuli/ImagesPractice/SM35.jpg","83","","","","test","false","","76","","SM","SM35.jpg","","new","43","3","practice_recog","left","","","",""
"categorize-image","112","197016","0.0-3.0-7.0-0.11","2zlwuf2wfreca2d","practice_recog","5d8507a6611c9700152f1126","5f60e3c0a3b16e07647b2ff9","5f61dbf9c0be8603ae86b440","true","122.05000000004657","./Stimuli/ImagesPractice/LN109.jpg","76","","","","test","false","","83","","LN","LN109.jpg","","old","44","3","practice_recog","right","","","",""
"categorize-image","113","198272","0.0-3.0-7.0-0.12","2zlwuf2wfreca2d","practice_recog","5d8507a6611c9700152f1126","5f60e3c0a3b16e07647b2ff9","5f61dbf9c0be8603ae86b440","true","754.765000000014","./Stimuli/ImagesPractice/SN220.jpg","76","","","","test","true","","76","","SN","SN220.jpg","","new","45","3","practice_recog","right","","","",""
"categorize-image","114","199512","0.0-3.0-7.0-0.13","2zlwuf2wfreca2d","practice_recog","5d8507a6611c9700152f1126","5f60e3c0a3b16e07647b2ff9","5f61dbf9c0be8603ae86b440","true","738.7249999999476","./Stimuli/ImagesPractice/SM62.jpg","83","","","","test","true","","83","","SM","SM62.jpg","","old","46","3","practice_recog","left","","","",""
"categorize-image","115","200647","0.0-3.0-7.0-0.14","2zlwuf2wfreca2d","practice_recog","5d8507a6611c9700152f1126","5f60e3c0a3b16e07647b2ff9","5f61dbf9c0be8603ae86b440","true","633.9100000000326","./Stimuli/ImagesPractice/LN2.jpg","83","","","","test","true","","83","","LN","LN2.jpg","","old","47","3","practice_recog","left","","","",""
"categorize-image","116","202223","0.0-3.0-7.0-0.15","2zlwuf2wfreca2d","practice_recog","5d8507a6611c9700152f1126","5f60e3c0a3b16e07647b2ff9","5f61dbf9c0be8603ae86b440","true","1074.984999999986","./Stimuli/ImagesPractice/LM230.jpg","83","","","","test","false","","76","","LM","LM230.jpg","","new","48","3","practice_recog","left","","","",""
"html-keyboard-response","117","203091","0.0-3.0-8.0","2zlwuf2wfreca2d","instructions","5d8507a6611c9700152f1126","5f60e3c0a3b16e07647b2ff9","5f61dbf9c0be8603ae86b440","false","867.1399999999558","<div align=left> Great!<br><br>Are you ready to continue?<br>If you want to reread the instructions and redo the practice trials, please <br>press „Z“.<br><br>You can proceed when you are ready.<br><br>After the presentation of each object, you will receive an instruction whether to <br>remember or to forget the object.<br>We will test your memory of the following pictures only at the very end of <br>the experiment after all learning blocks are completed. <br><br>Press SPACE to CONTINUE when you are ready. </div>","32","","","","","","","","","","","","","","","","","","","",""
"html-keyboard-response","118","203659","0.0-4.0-0.0","2zlwuf2wfreca2d","instructions","5d8507a6611c9700152f1126","5f60e3c0a3b16e07647b2ff9","5f61dbf9c0be8603ae86b440","false","567.4849999998987","<div align=left> The actual experiment is about to start.<br>The practice trials are over!<br><br>Please always respond both fast and accurately!<br><br>Remember: <br> <br><li> Please place your index fingers on the <strong>'S'</strong> and <strong>'L'</strong> keys <br>to respond as fast and accurately as possible.</li><li> Every picture can be classified as either mechanical or non-mechanical.</li><li> If you do not respond in time or commit an error, you will receive a corresponding feedback.<br> Please try to respond as <strong> fast </strong> and as <strong> accurately as possible </strong>.</li><li> Remember the <span style='color: dodgerblue; font-size: 28px'>O</span> pictures. <br></li><li> Please minimize distractions and stay focused. </li><br><br>Press SPACE to START.</div>","32","","","","","","","","","","","","","","","","","","","",""
"html-keyboard-response","119","204361","0.0-4.0-1.0-0.0","2zlwuf2wfreca2d","prime","5d8507a6611c9700152f1126","5f60e3c0a3b16e07647b2ff9","5f61dbf9c0be8603ae86b440","false","null","<span style=""color: black; font-size: 48px"">N + M</span>","null","","","","resp_prompt","","","","","","","","","","","","","","","",""
"categorize-image","120","205189","0.0-4.0-1.0-1.0","2zlwuf2wfreca2d","prime","5d8507a6611c9700152f1126","5f60e3c0a3b16e07647b2ff9","5f61dbf9c0be8603ae86b440","true","825.195000000007","./Stimuli/SelectedImages/LM/LM100.bmp","76","","","","test","true","N + M","76","repetition","LM","LM100.bmp","forget","","49","3","prime1","right","","","",""
"html-keyboard-response","121","207190","0.0-4.0-1.0-3.0","2zlwuf2wfreca2d","prime","5d8507a6611c9700152f1126","5f60e3c0a3b16e07647b2ff9","5f61dbf9c0be8603ae86b440","false","null","<div style=""align-items: center; display: flex; color: darkorange; font-size: 90px""><b>ø</b></div>","null","","","","forget_cue","","","","","","","","","","","","","","","",""
"html-keyboard-response","122","207891","0.0-4.0-1.0-0.1","2zlwuf2wfreca2d","prime","5d8507a6611c9700152f1126","5f60e3c0a3b16e07647b2ff9","5f61dbf9c0be8603ae86b440","false","null","<span style=""color: black; font-size: 48px"">M + N</span>","null","","","","resp_prompt","","","","","","","","","","","","","","","",""
"categorize-image","123","208918","0.0-4.0-1.0-1.1","2zlwuf2wfreca2d","prime","5d8507a6611c9700152f1126","5f60e3c0a3b16e07647b2ff9","5f61dbf9c0be8603ae86b440","true","1023.4299999999348","./Stimuli/SelectedImages/SM/SM200.bmp","83","","","","test","true","M + N","83","switch","SM","SM200.bmp","forget","","50","3","prime1","left","","","",""
"html-keyboard-response","124","210919","0.0-4.0-1.0-3.1","2zlwuf2wfreca2d","prime","5d8507a6611c9700152f1126","5f60e3c0a3b16e07647b2ff9","5f61dbf9c0be8603ae86b440","false","null","<div style=""align-items: center; display: flex; color: darkorange; font-size: 90px""><b>ø</b></div>","null","","","","forget_cue","","","","","","","","","","","","","","","",""
"html-keyboard-response","125","211620","0.0-4.0-1.0-0.2","2zlwuf2wfreca2d","prime","5d8507a6611c9700152f1126","5f60e3c0a3b16e07647b2ff9","5f61dbf9c0be8603ae86b440","false","null","<span style=""color: black; font-size: 48px"">M + N</span>","null","","","","resp_prompt","","","","","","","","","","","","","","","",""
"categorize-image","126","212237","0.0-4.0-1.0-1.2","2zlwuf2wfreca2d","prime","5d8507a6611c9700152f1126","5f60e3c0a3b16e07647b2ff9","5f61dbf9c0be8603ae86b440","true","614.4550000000163","./Stimuli/SelectedImages/SN/SN187.bmp","76","","","","test","true","M + N","76","switch","SN","SN187.bmp","remember","","51","3","prime1","right","","","",""
"html-keyboard-response","127","214238","0.0-4.0-1.0-3.2","2zlwuf2wfreca2d","prime","5d8507a6611c9700152f1126","5f60e3c0a3b16e07647b2ff9","5f61dbf9c0be8603ae86b440","false","null","<div style=""align-items: center; display: flex; color: dodgerblue; font-size: 90px""><b>o</b></div>","null","","","","forget_cue","","","","","","","","","","","","","","","",""
"html-keyboard-response","128","214939","0.0-4.0-1.0-0.3","2zlwuf2wfreca2d","prime","5d8507a6611c9700152f1126","5f60e3c0a3b16e07647b2ff9","5f61dbf9c0be8603ae86b440","false","null","<span style=""color: black; font-size: 48px"">M + N</span>","null","","","","resp_prompt","","","","","","","","","","","","","","","",""
"categorize-image","129","215454","0.0-4.0-1.0-1.3","2zlwuf2wfreca2d","prime","5d8507a6611c9700152f1126","5f60e3c0a3b16e07647b2ff9","5f61dbf9c0be8603ae86b440","true","511.13999999995576","./Stimuli/SelectedImages/LM/LM179.bmp","83","","","","test","true","M + N","83","switch","LM","LM179.bmp","forget","","52","3","prime1","left","","","",""
"html-keyboard-response","130","217455","0.0-4.0-1.0-3.3","2zlwuf2wfreca2d","prime","5d8507a6611c9700152f1126","5f60e3c0a3b16e07647b2ff9","5f61dbf9c0be8603ae86b440","false","null","<div style=""align-items: center; display: flex; color: darkorange; font-size: 90px""><b>ø</b></div>","null","","","","forget_cue","","","","","","","","","","","","","","","",""
"html-keyboard-response","131","218156","0.0-4.0-1.0-0.4","2zlwuf2wfreca2d","prime","5d8507a6611c9700152f1126","5f60e3c0a3b16e07647b2ff9","5f61dbf9c0be8603ae86b440","false","null","<span style=""color: black; font-size: 48px"">M + N</span>","null","","","","resp_prompt","","","","","","","","","","","","","","","",""
"categorize-image","132","218741","0.0-4.0-1.0-1.4","2zlwuf2wfreca2d","prime","5d8507a6611c9700152f1126","5f60e3c0a3b16e07647b2ff9","5f61dbf9c0be8603ae86b440","true","582.2949999999255","./Stimuli/SelectedImages/SN/SN179.bmp","76","","","","test","true","M + N","76","switch","SN","SN179.bmp","remember","","53","3","prime1","right","","","",""
"html-keyboard-response","133","220742","0.0-4.0-1.0-3.4","2zlwuf2wfreca2d","prime","5d8507a6611c9700152f1126","5f60e3c0a3b16e07647b2ff9","5f61dbf9c0be8603ae86b440","false","null","<div style=""align-items: center; display: flex; color: dodgerblue; font-size: 90px""><b>o</b></div>","null","","","","forget_cue","","","","","","","","","","","","","","","",""
"html-keyboard-response","134","221443","0.0-4.0-1.0-0.5","2zlwuf2wfreca2d","prime","5d8507a6611c9700152f1126","5f60e3c0a3b16e07647b2ff9","5f61dbf9c0be8603ae86b440","false","null","<span style=""color: black; font-size: 48px"">M + N</span>","null","","","","resp_prompt","","","","","","","","","","","","","","","",""
"categorize-image","135","222141","0.0-4.0-1.0-1.5","2zlwuf2wfreca2d","prime","5d8507a6611c9700152f1126","5f60e3c0a3b16e07647b2ff9","5f61dbf9c0be8603ae86b440","true","695.7700000000186","./Stimuli/SelectedImages/LM/LM209.bmp","83","","","","test","true","M + N","83","switch","LM","LM209.bmp","remember","","54","3","prime1","left","","","",""
"html-keyboard-response","136","224142","0.0-4.0-1.0-3.5","2zlwuf2wfreca2d","prime","5d8507a6611c9700152f1126","5f60e3c0a3b16e07647b2ff9","5f61dbf9c0be8603ae86b440","false","null","<div style=""align-items: center; display: flex; color: dodgerblue; font-size: 90px""><b>o</b></div>","null","","","","forget_cue","","","","","","","","","","","","","","","",""
"html-keyboard-response","137","224844","0.0-4.0-1.0-0.6","2zlwuf2wfreca2d","prime","5d8507a6611c9700152f1126","5f60e3c0a3b16e07647b2ff9","5f61dbf9c0be8603ae86b440","false","null","<span style=""color: black; font-size: 48px"">N + M</span>","null","","","","resp_prompt","","","","","","","","","","","","","","","",""
"categorize-image","138","225694","0.0-4.0-1.0-1.6","2zlwuf2wfreca2d","prime","5d8507a6611c9700152f1126","5f60e3c0a3b16e07647b2ff9","5f61dbf9c0be8603ae86b440","true","846.8249999999825","./Stimuli/SelectedImages/LN/LN111.bmp","83","","","","test","true","N + M","83","switch","LN","LN111.bmp","forget","","55","3","prime1","left","","","",""
"html-keyboard-response","139","227695","0.0-4.0-1.0-3.6","2zlwuf2wfreca2d","prime","5d8507a6611c9700152f1126","5f60e3c0a3b16e07647b2ff9","5f61dbf9c0be8603ae86b440","false","null","<div style=""align-items: center; display: flex; color: darkorange; font-size: 90px""><b>ø</b></div>","null","","","","forget_cue","","","","","","","","","","","","","","","",""
"html-keyboard-response","140","228396","0.0-4.0-1.0-0.7","2zlwuf2wfreca2d","prime","5d8507a6611c9700152f1126","5f60e3c0a3b16e07647b2ff9","5f61dbf9c0be8603ae86b440","false","null","<span style=""color: black; font-size: 48px"">N + M</span>","null","","","","resp_prompt","","","","","","","","","","","","","","","",""
"categorize-image","141","228966","0.0-4.0-1.0-1.7","2zlwuf2wfreca2d","prime","5d8507a6611c9700152f1126","5f60e3c0a3b16e07647b2ff9","5f61dbf9c0be8603ae86b440","true","566.0699999999779","./Stimuli/SelectedImages/SN/SN240.bmp","83","","","","test","true","N + M","83","switch","SN","SN240.bmp","forget","","56","3","prime1","left","","","",""
"html-keyboard-response","142","230966","0.0-4.0-1.0-3.7","2zlwuf2wfreca2d","prime","5d8507a6611c9700152f1126","5f60e3c0a3b16e07647b2ff9","5f61dbf9c0be8603ae86b440","false","null","<div style=""align-items: center; display: flex; color: darkorange; font-size: 90px""><b>ø</b></div>","null","","","","forget_cue","","","","","","","","","","","","","","","",""
"html-keyboard-response","143","231667","0.0-4.0-1.0-0.8","2zlwuf2wfreca2d","prime","5d8507a6611c9700152f1126","5f60e3c0a3b16e07647b2ff9","5f61dbf9c0be8603ae86b440","false","null","<span style=""color: black; font-size: 48px"">M + N</span>","null","","","","resp_prompt","","","","","","","","","","","","","","","",""
"categorize-image","144","232470","0.0-4.0-1.0-1.8","2zlwuf2wfreca2d","prime","5d8507a6611c9700152f1126","5f60e3c0a3b16e07647b2ff9","5f61dbf9c0be8603ae86b440","true","799.1799999999639","./Stimuli/SelectedImages/LM/LM216.bmp","83","","","","test","true","M + N","83","repetition","LM","LM216.bmp","forget","","57","3","prime1","left","","","",""
"html-keyboard-response","145","234471","0.0-4.0-1.0-3.8","2zlwuf2wfreca2d","prime","5d8507a6611c9700152f1126","5f60e3c0a3b16e07647b2ff9","5f61dbf9c0be8603ae86b440","false","null","<div style=""align-items: center; display: flex; color: darkorange; font-size: 90px""><b>ø</b></div>","null","","","","forget_cue","","","","","","","","","","","","","","","",""
"html-keyboard-response","146","235172","0.0-4.0-1.0-0.9","2zlwuf2wfreca2d","prime","5d8507a6611c9700152f1126","5f60e3c0a3b16e07647b2ff9","5f61dbf9c0be8603ae86b440","false","null","<span style=""color: black; font-size: 48px"">M + N</span>","null","","","","resp_prompt","","","","","","","","","","","","","","","",""
"categorize-image","147","235733","0.0-4.0-1.0-1.9","2zlwuf2wfreca2d","prime","5d8507a6611c9700152f1126","5f60e3c0a3b16e07647b2ff9","5f61dbf9c0be8603ae86b440","true","558.2249999999767","./Stimuli/SelectedImages/LM/LM129.bmp","83","","","","test","true","M + N","83","repetition","LM","LM129.bmp","forget","","58","3","prime1","left","","","",""
"html-keyboard-response","148","237735","0.0-4.0-1.0-3.9","2zlwuf2wfreca2d","prime","5d8507a6611c9700152f1126","5f60e3c0a3b16e07647b2ff9","5f61dbf9c0be8603ae86b440","false","null","<div style=""align-items: center; display: flex; color: darkorange; font-size: 90px""><b>ø</b></div>","null","","","","forget_cue","","","","","","","","","","","","","","","",""
"html-keyboard-response","149","238436","0.0-4.0-1.0-0.10","2zlwuf2wfreca2d","prime","5d8507a6611c9700152f1126","5f60e3c0a3b16e07647b2ff9","5f61dbf9c0be8603ae86b440","false","null","<span style=""color: black; font-size: 48px"">N + M</span>","null","","","","resp_prompt","","","","","","","","","","","","","","","",""
"categorize-image","150","238949","0.0-4.0-1.0-1.10","2zlwuf2wfreca2d","prime","5d8507a6611c9700152f1126","5f60e3c0a3b16e07647b2ff9","5f61dbf9c0be8603ae86b440","true","510.58499999999185","./Stimuli/SelectedImages/LM/LM103.bmp","76","","","","test","true","N + M","76","switch","LM","LM103.bmp","remember","","59","3","prime1","right","","","",""
"html-keyboard-response","151","240950","0.0-4.0-1.0-3.10","2zlwuf2wfreca2d","prime","5d8507a6611c9700152f1126","5f60e3c0a3b16e07647b2ff9","5f61dbf9c0be8603ae86b440","false","null","<div style=""align-items: center; display: flex; color: dodgerblue; font-size: 90px""><b>o</b></div>","null","","","","forget_cue","","","","","","","","","","","","","","","",""
"html-keyboard-response","152","241651","0.0-4.0-1.0-0.11","2zlwuf2wfreca2d","prime","5d8507a6611c9700152f1126","5f60e3c0a3b16e07647b2ff9","5f61dbf9c0be8603ae86b440","false","null","<span style=""color: black; font-size: 48px"">M + N</span>","null","","","","resp_prompt","","","","","","","","","","","","","","","",""
"categorize-image","153","242822","0.0-4.0-1.0-1.11","2zlwuf2wfreca2d","prime","5d8507a6611c9700152f1126","5f60e3c0a3b16e07647b2ff9","5f61dbf9c0be8603ae86b440","true","1168","./Stimuli/SelectedImages/LM/LM59.bmp","76","","","","test","false","M + N","83","repetition","LM","LM59.bmp","remember","","60","3","prime1","right","","","",""
"html-keyboard-response","154","243323","0.0-4.0-1.0-2.11-0.11","2zlwuf2wfreca2d","prime","5d8507a6611c9700152f1126","5f60e3c0a3b16e07647b2ff9","5f61dbf9c0be8603ae86b440","false","null","<span style=""color: red; font-size: 48px"">Error!</span>","null","","","","feedback","","","","","","","","","","","","","","","",""
"html-keyboard-response","155","245324","0.0-4.0-1.0-3.11","2zlwuf2wfreca2d","prime","5d8507a6611c9700152f1126","5f60e3c0a3b16e07647b2ff9","5f61dbf9c0be8603ae86b440","false","null","<div style=""align-items: center; display: flex; color: dodgerblue; font-size: 90px""><b>o</b></div>","null","","","","forget_cue","","","","","","","","","","","","","","","",""
"html-keyboard-response","156","246025","0.0-4.0-1.0-0.12","2zlwuf2wfreca2d","prime","5d8507a6611c9700152f1126","5f60e3c0a3b16e07647b2ff9","5f61dbf9c0be8603ae86b440","false","null","<span style=""color: black; font-size: 48px"">M + N</span>","null","","","","resp_prompt","","","","","","","","","","","","","","","",""
"categorize-image","157","246606","0.0-4.0-1.0-1.12","2zlwuf2wfreca2d","prime","5d8507a6611c9700152f1126","5f60e3c0a3b16e07647b2ff9","5f61dbf9c0be8603ae86b440","true","577.2050000000454","./Stimuli/SelectedImages/LN/LN149.bmp","76","","","","test","true","M + N","76","repetition","LN","LN149.bmp","remember","","61","3","prime1","right","","","",""
"html-keyboard-response","158","248607","0.0-4.0-1.0-3.12","2zlwuf2wfreca2d","prime","5d8507a6611c9700152f1126","5f60e3c0a3b16e07647b2ff9","5f61dbf9c0be8603ae86b440","false","null","<div style=""align-items: center; display: flex; color: dodgerblue; font-size: 90px""><b>o</b></div>","null","","","","forget_cue","","","","","","","","","","","","","","","",""
"html-keyboard-response","159","249308","0.0-4.0-1.0-0.13","2zlwuf2wfreca2d","prime","5d8507a6611c9700152f1126","5f60e3c0a3b16e07647b2ff9","5f61dbf9c0be8603ae86b440","false","null","<span style=""color: black; font-size: 48px"">M + N</span>","null","","","","resp_prompt","","","","","","","","","","","","","","","",""
"categorize-image","160","249981","0.0-4.0-1.0-1.13","2zlwuf2wfreca2d","prime","5d8507a6611c9700152f1126","5f60e3c0a3b16e07647b2ff9","5f61dbf9c0be8603ae86b440","true","670.7550000000047","./Stimuli/SelectedImages/LN/LN166.bmp","83","","","","test","false","M + N","76","repetition","LN","LN166.bmp","forget","","62","3","prime1","left","","","",""
"html-keyboard-response","161","250481","0.0-4.0-1.0-2.13-0.13","2zlwuf2wfreca2d","prime","5d8507a6611c9700152f1126","5f60e3c0a3b16e07647b2ff9","5f61dbf9c0be8603ae86b440","false","null","<span style=""color: red; font-size: 48px"">Error!</span>","null","","","","feedback","","","","","","","","","","","","","","","",""
"html-keyboard-response","162","252482","0.0-4.0-1.0-3.13","2zlwuf2wfreca2d","prime","5d8507a6611c9700152f1126","5f60e3c0a3b16e07647b2ff9","5f61dbf9c0be8603ae86b440","false","null","<div style=""align-items: center; display: flex; color: darkorange; font-size: 90px""><b>ø</b></div>","null","","","","forget_cue","","","","","","","","","","","","","","","",""
"html-keyboard-response","163","253183","0.0-4.0-1.0-0.14","2zlwuf2wfreca2d","prime","5d8507a6611c9700152f1126","5f60e3c0a3b16e07647b2ff9","5f61dbf9c0be8603ae86b440","false","null","<span style=""color: black; font-size: 48px"">M + N</span>","null","","","","resp_prompt","","","","","","","","","","","","","","","",""
"categorize-image","164","253910","0.0-4.0-1.0-1.14","2zlwuf2wfreca2d","prime","5d8507a6611c9700152f1126","5f60e3c0a3b16e07647b2ff9","5f61dbf9c0be8603ae86b440","true","723.9749999999767","./Stimuli/SelectedImages/SM/SM213.bmp","76","","","","test","false","M + N","83","repetition","SM","SM213.bmp","remember","","63","3","prime1","right","","","",""
"html-keyboard-response","165","254410","0.0-4.0-1.0-2.14-0.14","2zlwuf2wfreca2d","prime","5d8507a6611c9700152f1126","5f60e3c0a3b16e07647b2ff9","5f61dbf9c0be8603ae86b440","false","null","<span style=""color: red; font-size: 48px"">Error!</span>","null","","","","feedback","","","","","","","","","","","","","","","",""
"html-keyboard-response","166","256412","0.0-4.0-1.0-3.14","2zlwuf2wfreca2d","prime","5d8507a6611c9700152f1126","5f60e3c0a3b16e07647b2ff9","5f61dbf9c0be8603ae86b440","false","null","<div style=""align-items: center; display: flex; color: dodgerblue; font-size: 90px""><b>o</b></div>","null","","","","forget_cue","","","","","","","","","","","","","","","",""
"html-keyboard-response","167","257113","0.0-4.0-1.0-0.15","2zlwuf2wfreca2d","prime","5d8507a6611c9700152f1126","5f60e3c0a3b16e07647b2ff9","5f61dbf9c0be8603ae86b440","false","null","<span style=""color: black; font-size: 48px"">N + M</span>","null","","","","resp_prompt","","","","","","","","","","","","","","","",""
"categorize-image","168","257702","0.0-4.0-1.0-1.15","2zlwuf2wfreca2d","prime","5d8507a6611c9700152f1126","5f60e3c0a3b16e07647b2ff9","5f61dbf9c0be8603ae86b440","true","585.9350000000559","./Stimuli/SelectedImages/LM/LM48.bmp","76","","","","test","true","N + M","76","switch","LM","LM48.bmp","forget","","64","3","prime1","right","","","",""
"html-keyboard-response","169","259703","0.0-4.0-1.0-3.15","2zlwuf2wfreca2d","prime","5d8507a6611c9700152f1126","5f60e3c0a3b16e07647b2ff9","5f61dbf9c0be8603ae86b440","false","null","<div style=""align-items: center; display: flex; color: darkorange; font-size: 90px""><b>ø</b></div>","null","","","","forget_cue","","","","","","","","","","","","","","","",""
"html-keyboard-response","170","260404","0.0-4.0-1.0-0.16","2zlwuf2wfreca2d","prime","5d8507a6611c9700152f1126","5f60e3c0a3b16e07647b2ff9","5f61dbf9c0be8603ae86b440","false","null","<span style=""color: black; font-size: 48px"">N + M</span>","null","","","","resp_prompt","","","","","","","","","","","","","","","",""
"categorize-image","171","260934","0.0-4.0-1.0-1.16","2zlwuf2wfreca2d","prime","5d8507a6611c9700152f1126","5f60e3c0a3b16e07647b2ff9","5f61dbf9c0be8603ae86b440","true","526.8449999999721","./Stimuli/SelectedImages/SM/SM78.bmp","76","","","","test","true","N + M","76","repetition","SM","SM78.bmp","forget","","65","3","prime1","right","","","",""
"html-keyboard-response","172","262936","0.0-4.0-1.0-3.16","2zlwuf2wfreca2d","prime","5d8507a6611c9700152f1126","5f60e3c0a3b16e07647b2ff9","5f61dbf9c0be8603ae86b440","false","null","<div style=""align-items: center; display: flex; color: darkorange; font-size: 90px""><b>ø</b></div>","null","","","","forget_cue","","","","","","","","","","","","","","","",""
"html-keyboard-response","173","263637","0.0-4.0-1.0-0.17","2zlwuf2wfreca2d","prime","5d8507a6611c9700152f1126","5f60e3c0a3b16e07647b2ff9","5f61dbf9c0be8603ae86b440","false","null","<span style=""color: black; font-size: 48px"">N + M</span>","null","","","","resp_prompt","","","","","","","","","","","","","","","",""
"categorize-image","174","264134","0.0-4.0-1.0-1.17","2zlwuf2wfreca2d","prime","5d8507a6611c9700152f1126","5f60e3c0a3b16e07647b2ff9","5f61dbf9c0be8603ae86b440","true","493.98499999998603","./Stimuli/SelectedImages/SN/SN64.bmp","83","","","","test","true","N + M","83","repetition","SN","SN64.bmp","forget","","66","3","prime1","left","","","",""
"html-keyboard-response","175","266135","0.0-4.0-1.0-3.17","2zlwuf2wfreca2d","prime","5d8507a6611c9700152f1126","5f60e3c0a3b16e07647b2ff9","5f61dbf9c0be8603ae86b440","false","null","<div style=""align-items: center; display: flex; color: darkorange; font-size: 90px""><b>ø</b></div>","null","","","","forget_cue","","","","","","","","","","","","","","","",""
"html-keyboard-response","176","266837","0.0-4.0-1.0-0.18","2zlwuf2wfreca2d","prime","5d8507a6611c9700152f1126","5f60e3c0a3b16e07647b2ff9","5f61dbf9c0be8603ae86b440","false","null","<span style=""color: black; font-size: 48px"">N + M</span>","null","","","","resp_prompt","","","","","","","","","","","","","","","",""
"categorize-image","177","267613","0.0-4.0-1.0-1.18","2zlwuf2wfreca2d","prime","5d8507a6611c9700152f1126","5f60e3c0a3b16e07647b2ff9","5f61dbf9c0be8603ae86b440","true","773.554999999993","./Stimuli/SelectedImages/SM/SM74.bmp","76","","","","test","true","N + M","76","switch","SM","SM74.bmp","remember","","67","3","prime1","right","","","",""
"html-keyboard-response","178","269614","0.0-4.0-1.0-3.18","2zlwuf2wfreca2d","prime","5d8507a6611c9700152f1126","5f60e3c0a3b16e07647b2ff9","5f61dbf9c0be8603ae86b440","false","null","<div style=""align-items: center; display: flex; color: dodgerblue; font-size: 90px""><b>o</b></div>","null","","","","forget_cue","","","","","","","","","","","","","","","",""
"html-keyboard-response","179","270315","0.0-4.0-1.0-0.19","2zlwuf2wfreca2d","prime","5d8507a6611c9700152f1126","5f60e3c0a3b16e07647b2ff9","5f61dbf9c0be8603ae86b440","false","null","<span style=""color: black; font-size: 48px"">M + N</span>","null","","","","resp_prompt","","","","","","","","","","","","","","","",""
"categorize-image","180","270894","0.0-4.0-1.0-1.19","2zlwuf2wfreca2d","prime","5d8507a6611c9700152f1126","5f60e3c0a3b16e07647b2ff9","5f61dbf9c0be8603ae86b440","true","575.3650000000489","./Stimuli/SelectedImages/SM/SM24.bmp","83","","","","test","true","M + N","83","repetition","SM","SM24.bmp","forget","","68","3","prime1","left","","","",""
"html-keyboard-response","181","272895","0.0-4.0-1.0-3.19","2zlwuf2wfreca2d","prime","5d8507a6611c9700152f1126","5f60e3c0a3b16e07647b2ff9","5f61dbf9c0be8603ae86b440","false","null","<div style=""align-items: center; display: flex; color: darkorange; font-size: 90px""><b>ø</b></div>","null","","","","forget_cue","","","","","","","","","","","","","","","",""
"html-keyboard-response","182","273596","0.0-4.0-1.0-0.20","2zlwuf2wfreca2d","prime","5d8507a6611c9700152f1126","5f60e3c0a3b16e07647b2ff9","5f61dbf9c0be8603ae86b440","false","null","<span style=""color: black; font-size: 48px"">N + M</span>","null","","","","resp_prompt","","","","","","","","","","","","","","","",""
"categorize-image","183","274141","0.0-4.0-1.0-1.20","2zlwuf2wfreca2d","prime","5d8507a6611c9700152f1126","5f60e3c0a3b16e07647b2ff9","5f61dbf9c0be8603ae86b440","true","542.585000000021","./Stimuli/SelectedImages/LN/LN101.bmp","83","","","","test","true","N + M","83","switch","LN","LN101.bmp","remember","","69","3","prime1","left","","","",""
"html-keyboard-response","184","276142","0.0-4.0-1.0-3.20","2zlwuf2wfreca2d","prime","5d8507a6611c9700152f1126","5f60e3c0a3b16e07647b2ff9","5f61dbf9c0be8603ae86b440","false","null","<div style=""align-items: center; display: flex; color: dodgerblue; font-size: 90px""><b>o</b></div>","null","","","","forget_cue","","","","","","","","","","","","","","","",""
"html-keyboard-response","185","276844","0.0-4.0-1.0-0.21","2zlwuf2wfreca2d","prime","5d8507a6611c9700152f1126","5f60e3c0a3b16e07647b2ff9","5f61dbf9c0be8603ae86b440","false","null","<span style=""color: black; font-size: 48px"">M + N</span>","null","","","","resp_prompt","","","","","","","","","","","","","","","",""
"categorize-image","186","277565","0.0-4.0-1.0-1.21","2zlwuf2wfreca2d","prime","5d8507a6611c9700152f1126","5f60e3c0a3b16e07647b2ff9","5f61dbf9c0be8603ae86b440","true","718.7999999999884","./Stimuli/SelectedImages/LN/LN9.bmp","76","","","","test","true","M + N","76","switch","LN","LN9.bmp","forget","","70","3","prime1","right","","","",""
"html-keyboard-response","187","279566","0.0-4.0-1.0-3.21","2zlwuf2wfreca2d","prime","5d8507a6611c9700152f1126","5f60e3c0a3b16e07647b2ff9","5f61dbf9c0be8603ae86b440","false","null","<div style=""align-items: center; display: flex; color: darkorange; font-size: 90px""><b>ø</b></div>","null","","","","forget_cue","","","","","","","","","","","","","","","",""
"html-keyboard-response","188","280268","0.0-4.0-1.0-0.22","2zlwuf2wfreca2d","prime","5d8507a6611c9700152f1126","5f60e3c0a3b16e07647b2ff9","5f61dbf9c0be8603ae86b440","false","null","<span style=""color: black; font-size: 48px"">M + N</span>","null","","","","resp_prompt","","","","","","","","","","","","","","","",""
"categorize-image","189","280950","0.0-4.0-1.0-1.22","2zlwuf2wfreca2d","prime","5d8507a6611c9700152f1126","5f60e3c0a3b16e07647b2ff9","5f61dbf9c0be8603ae86b440","true","678.8700000000536","./Stimuli/SelectedImages/SN/SN49.bmp","76","","","","test","true","M + N","76","switch","SN","SN49.bmp","forget","","71","3","prime1","right","","","",""
"html-keyboard-response","190","282951","0.0-4.0-1.0-3.22","2zlwuf2wfreca2d","prime","5d8507a6611c9700152f1126","5f60e3c0a3b16e07647b2ff9","5f61dbf9c0be8603ae86b440","false","null","<div style=""align-items: center; display: flex; color: darkorange; font-size: 90px""><b>ø</b></div>","null","","","","forget_cue","","","","","","","","","","","","","","","",""
"html-keyboard-response","191","283652","0.0-4.0-1.0-0.23","2zlwuf2wfreca2d","prime","5d8507a6611c9700152f1126","5f60e3c0a3b16e07647b2ff9","5f61dbf9c0be8603ae86b440","false","null","<span style=""color: black; font-size: 48px"">M + N</span>","null","","","","resp_prompt","","","","","","","","","","","","","","","",""
"categorize-image","192","284478","0.0-4.0-1.0-1.23","2zlwuf2wfreca2d","prime","5d8507a6611c9700152f1126","5f60e3c0a3b16e07647b2ff9","5f61dbf9c0be8603ae86b440","true","822.8849999998929","./Stimuli/SelectedImages/SM/SM17.bmp","76","","","","test","false","M + N","83","switch","SM","SM17.bmp","forget","","72","3","prime1","right","","","",""
"html-keyboard-response","193","284979","0.0-4.0-1.0-2.23-0.23","2zlwuf2wfreca2d","prime","5d8507a6611c9700152f1126","5f60e3c0a3b16e07647b2ff9","5f61dbf9c0be8603ae86b440","false","null","<span style=""color: red; font-size: 48px"">Error!</span>","null","","","","feedback","","","","","","","","","","","","","","","",""
"html-keyboard-response","194","286980","0.0-4.0-1.0-3.23","2zlwuf2wfreca2d","prime","5d8507a6611c9700152f1126","5f60e3c0a3b16e07647b2ff9","5f61dbf9c0be8603ae86b440","false","null","<div style=""align-items: center; display: flex; color: darkorange; font-size: 90px""><b>ø</b></div>","null","","","","forget_cue","","","","","","","","","","","","","","","",""
"html-keyboard-response","195","287681","0.0-4.0-1.0-0.24","2zlwuf2wfreca2d","prime","5d8507a6611c9700152f1126","5f60e3c0a3b16e07647b2ff9","5f61dbf9c0be8603ae86b440","false","null","<span style=""color: black; font-size: 48px"">N + M</span>","null","","","","resp_prompt","","","","","","","","","","","","","","","",""
"categorize-image","196","288413","0.0-4.0-1.0-1.24","2zlwuf2wfreca2d","prime","5d8507a6611c9700152f1126","5f60e3c0a3b16e07647b2ff9","5f61dbf9c0be8603ae86b440","true","729.1300000000629","./Stimuli/SelectedImages/LM/LM57.bmp","76","","","","test","true","N + M","76","switch","LM","LM57.bmp","forget","","73","3","prime1","right","","","",""
"html-keyboard-response","197","290414","0.0-4.0-1.0-3.24","2zlwuf2wfreca2d","prime","5d8507a6611c9700152f1126","5f60e3c0a3b16e07647b2ff9","5f61dbf9c0be8603ae86b440","false","null","<div style=""align-items: center; display: flex; color: darkorange; font-size: 90px""><b>ø</b></div>","null","","","","forget_cue","","","","","","","","","","","","","","","",""
"html-keyboard-response","198","291116","0.0-4.0-1.0-0.25","2zlwuf2wfreca2d","prime","5d8507a6611c9700152f1126","5f60e3c0a3b16e07647b2ff9","5f61dbf9c0be8603ae86b440","false","null","<span style=""color: black; font-size: 48px"">M + N</span>","null","","","","resp_prompt","","","","","","","","","","","","","","","",""
"categorize-image","199","291757","0.0-4.0-1.0-1.25","2zlwuf2wfreca2d","prime","5d8507a6611c9700152f1126","5f60e3c0a3b16e07647b2ff9","5f61dbf9c0be8603ae86b440","true","638.3199999999488","./Stimuli/SelectedImages/SM/SM108.bmp","83","","","","test","true","M + N","83","repetition","SM","SM108.bmp","forget","","74","3","prime1","left","","","",""
"html-keyboard-response","200","293758","0.0-4.0-1.0-3.25","2zlwuf2wfreca2d","prime","5d8507a6611c9700152f1126","5f60e3c0a3b16e07647b2ff9","5f61dbf9c0be8603ae86b440","false","null","<div style=""align-items: center; display: flex; color: darkorange; font-size: 90px""><b>ø</b></div>","null","","","","forget_cue","","","","","","","","","","","","","","","",""
"html-keyboard-response","201","294458","0.0-4.0-1.0-0.26","2zlwuf2wfreca2d","prime","5d8507a6611c9700152f1126","5f60e3c0a3b16e07647b2ff9","5f61dbf9c0be8603ae86b440","false","null","<span style=""color: black; font-size: 48px"">N + M</span>","null","","","","resp_prompt","","","","","","","","","","","","","","","",""
"categorize-image","202","295014","0.0-4.0-1.0-1.26","2zlwuf2wfreca2d","prime","5d8507a6611c9700152f1126","5f60e3c0a3b16e07647b2ff9","5f61dbf9c0be8603ae86b440","true","552.6000000000349","./Stimuli/SelectedImages/LM/LM51.bmp","76","","","","test","true","N + M","76","repetition","LM","LM51.bmp","forget","","75","3","prime1","right","","","",""
"html-keyboard-response","203","297015","0.0-4.0-1.0-3.26","2zlwuf2wfreca2d","prime","5d8507a6611c9700152f1126","5f60e3c0a3b16e07647b2ff9","5f61dbf9c0be8603ae86b440","false","null","<div style=""align-items: center; display: flex; color: darkorange; font-size: 90px""><b>ø</b></div>","null","","","","forget_cue","","","","","","","","","","","","","","","",""
"html-keyboard-response","204","297716","0.0-4.0-1.0-0.27","2zlwuf2wfreca2d","prime","5d8507a6611c9700152f1126","5f60e3c0a3b16e07647b2ff9","5f61dbf9c0be8603ae86b440","false","null","<span style=""color: black; font-size: 48px"">M + N</span>","null","","","","resp_prompt","","","","","","","","","","","","","","","",""
"categorize-image","205","298349","0.0-4.0-1.0-1.27","2zlwuf2wfreca2d","prime","5d8507a6611c9700152f1126","5f60e3c0a3b16e07647b2ff9","5f61dbf9c0be8603ae86b440","true","630.070000000007","./Stimuli/SelectedImages/SN/SN182.bmp","76","","","","test","true","M + N","76","repetition","SN","SN182.bmp","forget","","76","3","prime1","right","","","",""
"html-keyboard-response","206","300350","0.0-4.0-1.0-3.27","2zlwuf2wfreca2d","prime","5d8507a6611c9700152f1126","5f60e3c0a3b16e07647b2ff9","5f61dbf9c0be8603ae86b440","false","null","<div style=""align-items: center; display: flex; color: darkorange; font-size: 90px""><b>ø</b></div>","null","","","","forget_cue","","","","","","","","","","","","","","","",""
"html-keyboard-response","207","301051","0.0-4.0-1.0-0.28","2zlwuf2wfreca2d","prime","5d8507a6611c9700152f1126","5f60e3c0a3b16e07647b2ff9","5f61dbf9c0be8603ae86b440","false","null","<span style=""color: black; font-size: 48px"">M + N</span>","null","","","","resp_prompt","","","","","","","","","","","","","","","",""
"categorize-image","208","301605","0.0-4.0-1.0-1.28","2zlwuf2wfreca2d","prime","5d8507a6611c9700152f1126","5f60e3c0a3b16e07647b2ff9","5f61dbf9c0be8603ae86b440","true","551.7200000000303","./Stimuli/SelectedImages/SM/SM207.bmp","83","","","","test","true","M + N","83","switch","SM","SM207.bmp","remember","","77","3","prime1","left","","","",""
"html-keyboard-response","209","303606","0.0-4.0-1.0-3.28","2zlwuf2wfreca2d","prime","5d8507a6611c9700152f1126","5f60e3c0a3b16e07647b2ff9","5f61dbf9c0be8603ae86b440","false","null","<div style=""align-items: center; display: flex; color: dodgerblue; font-size: 90px""><b>o</b></div>","null","","","","forget_cue","","","","","","","","","","","","","","","",""
"html-keyboard-response","210","304308","0.0-4.0-1.0-0.29","2zlwuf2wfreca2d","prime","5d8507a6611c9700152f1126","5f60e3c0a3b16e07647b2ff9","5f61dbf9c0be8603ae86b440","false","null","<span style=""color: black; font-size: 48px"">N + M</span>","null","","","","resp_prompt","","","","","","","","","","","","","","","",""
"categorize-image","211","305286","0.0-4.0-1.0-1.29","2zlwuf2wfreca2d","prime","5d8507a6611c9700152f1126","5f60e3c0a3b16e07647b2ff9","5f61dbf9c0be8603ae86b440","true","975.414999999979","./Stimuli/SelectedImages/LN/LN12.bmp","76","","","","test","false","N + M","83","repetition","LN","LN12.bmp","remember","","78","3","prime1","right","","","",""
"html-keyboard-response","212","305787","0.0-4.0-1.0-2.29-0.29","2zlwuf2wfreca2d","prime","5d8507a6611c9700152f1126","5f60e3c0a3b16e07647b2ff9","5f61dbf9c0be8603ae86b440","false","null","<span style=""color: red; font-size: 48px"">Error!</span>","null","","","","feedback","","","","","","","","","","","","","","","",""
"html-keyboard-response","213","307788","0.0-4.0-1.0-3.29","2zlwuf2wfreca2d","prime","5d8507a6611c9700152f1126","5f60e3c0a3b16e07647b2ff9","5f61dbf9c0be8603ae86b440","false","null","<div style=""align-items: center; display: flex; color: dodgerblue; font-size: 90px""><b>o</b></div>","null","","","","forget_cue","","","","","","","","","","","","","","","",""
"html-keyboard-response","214","308490","0.0-4.0-1.0-0.30","2zlwuf2wfreca2d","prime","5d8507a6611c9700152f1126","5f60e3c0a3b16e07647b2ff9","5f61dbf9c0be8603ae86b440","false","null","<span style=""color: black; font-size: 48px"">N + M</span>","null","","","","resp_prompt","","","","","","","","","","","","","","","",""
"categorize-image","215","309045","0.0-4.0-1.0-1.30","2zlwuf2wfreca2d","prime","5d8507a6611c9700152f1126","5f60e3c0a3b16e07647b2ff9","5f61dbf9c0be8603ae86b440","true","552.8800000000047","./Stimuli/SelectedImages/LN/LN128.bmp","83","","","","test","true","N + M","83","repetition","LN","LN128.bmp","remember","","79","3","prime1","left","","","",""
"html-keyboard-response","216","311046","0.0-4.0-1.0-3.30","2zlwuf2wfreca2d","prime","5d8507a6611c9700152f1126","5f60e3c0a3b16e07647b2ff9","5f61dbf9c0be8603ae86b440","false","null","<div style=""align-items: center; display: flex; color: dodgerblue; font-size: 90px""><b>o</b></div>","null","","","","forget_cue","","","","","","","","","","","","","","","",""
"html-keyboard-response","217","311748","0.0-4.0-1.0-0.31","2zlwuf2wfreca2d","prime","5d8507a6611c9700152f1126","5f60e3c0a3b16e07647b2ff9","5f61dbf9c0be8603ae86b440","false","null","<span style=""color: black; font-size: 48px"">N + M</span>","null","","","","resp_prompt","","","","","","","","","","","","","","","",""
"categorize-image","218","312398","0.0-4.0-1.0-1.31","2zlwuf2wfreca2d","prime","5d8507a6611c9700152f1126","5f60e3c0a3b16e07647b2ff9","5f61dbf9c0be8603ae86b440","true","646.8399999999674","./Stimuli/SelectedImages/SN/SN111.bmp","83","","","","test","true","N + M","83","switch","SN","SN111.bmp","remember","","80","3","prime1","left","","","",""
"html-keyboard-response","219","314399","0.0-4.0-1.0-3.31","2zlwuf2wfreca2d","prime","5d8507a6611c9700152f1126","5f60e3c0a3b16e07647b2ff9","5f61dbf9c0be8603ae86b440","false","null","<div style=""align-items: center; display: flex; color: dodgerblue; font-size: 90px""><b>o</b></div>","null","","","","forget_cue","","","","","","","","","","","","","","","",""
"html-keyboard-response","220","315100","0.0-4.0-1.0-0.32","2zlwuf2wfreca2d","prime","5d8507a6611c9700152f1126","5f60e3c0a3b16e07647b2ff9","5f61dbf9c0be8603ae86b440","false","null","<span style=""color: black; font-size: 48px"">M + N</span>","null","","","","resp_prompt","","","","","","","","","","","","","","","",""
"categorize-image","221","315766","0.0-4.0-1.0-1.32","2zlwuf2wfreca2d","prime","5d8507a6611c9700152f1126","5f60e3c0a3b16e07647b2ff9","5f61dbf9c0be8603ae86b440","true","662.4199999999837","./Stimuli/SelectedImages/SN/SN128.bmp","76","","","","test","true","M + N","76","repetition","SN","SN128.bmp","remember","","81","3","prime1","right","","","",""
"html-keyboard-response","222","317768","0.0-4.0-1.0-3.32","2zlwuf2wfreca2d","prime","5d8507a6611c9700152f1126","5f60e3c0a3b16e07647b2ff9","5f61dbf9c0be8603ae86b440","false","null","<div style=""align-items: center; display: flex; color: dodgerblue; font-size: 90px""><b>o</b></div>","null","","","","forget_cue","","","","","","","","","","","","","","","",""
"html-keyboard-response","223","318469","0.0-4.0-1.0-0.33","2zlwuf2wfreca2d","prime","5d8507a6611c9700152f1126","5f60e3c0a3b16e07647b2ff9","5f61dbf9c0be8603ae86b440","false","null","<span style=""color: black; font-size: 48px"">M + N</span>","null","","","","resp_prompt","","","","","","","","","","","","","","","",""
"categorize-image","224","319213","0.0-4.0-1.0-1.33","2zlwuf2wfreca2d","prime","5d8507a6611c9700152f1126","5f60e3c0a3b16e07647b2ff9","5f61dbf9c0be8603ae86b440","true","741.7850000000326","./Stimuli/SelectedImages/SN/SN60.bmp","76","","","","test","true","M + N","76","repetition","SN","SN60.bmp","remember","","82","3","prime1","right","","","",""
"html-keyboard-response","225","321215","0.0-4.0-1.0-3.33","2zlwuf2wfreca2d","prime","5d8507a6611c9700152f1126","5f60e3c0a3b16e07647b2ff9","5f61dbf9c0be8603ae86b440","false","null","<div style=""align-items: center; display: flex; color: dodgerblue; font-size: 90px""><b>o</b></div>","null","","","","forget_cue","","","","","","","","","","","","","","","",""
"html-keyboard-response","226","321915","0.0-4.0-1.0-0.34","2zlwuf2wfreca2d","prime","5d8507a6611c9700152f1126","5f60e3c0a3b16e07647b2ff9","5f61dbf9c0be8603ae86b440","false","null","<span style=""color: black; font-size: 48px"">M + N</span>","null","","","","resp_prompt","","","","","","","","","","","","","","","",""
"categorize-image","227","322502","0.0-4.0-1.0-1.34","2zlwuf2wfreca2d","prime","5d8507a6611c9700152f1126","5f60e3c0a3b16e07647b2ff9","5f61dbf9c0be8603ae86b440","true","583.2400000000489","./Stimuli/SelectedImages/SN/SN155.bmp","76","","","","test","true","M + N","76","switch","SN","SN155.bmp","forget","","83","3","prime1","right","","","",""
"html-keyboard-response","228","324502","0.0-4.0-1.0-3.34","2zlwuf2wfreca2d","prime","5d8507a6611c9700152f1126","5f60e3c0a3b16e07647b2ff9","5f61dbf9c0be8603ae86b440","false","null","<div style=""align-items: center; display: flex; color: darkorange; font-size: 90px""><b>ø</b></div>","null","","","","forget_cue","","","","","","","","","","","","","","","",""
"html-keyboard-response","229","325203","0.0-4.0-1.0-0.35","2zlwuf2wfreca2d","prime","5d8507a6611c9700152f1126","5f60e3c0a3b16e07647b2ff9","5f61dbf9c0be8603ae86b440","false","null","<span style=""color: black; font-size: 48px"">N + M</span>","null","","","","resp_prompt","","","","","","","","","","","","","","","",""
"categorize-image","230","325981","0.0-4.0-1.0-1.35","2zlwuf2wfreca2d","prime","5d8507a6611c9700152f1126","5f60e3c0a3b16e07647b2ff9","5f61dbf9c0be8603ae86b440","true","775.2700000000186","./Stimuli/SelectedImages/LN/LN82.bmp","83","","","","test","true","N + M","83","switch","LN","LN82.bmp","forget","","84","3","prime1","left","","","",""
"html-keyboard-response","231","327982","0.0-4.0-1.0-3.35","2zlwuf2wfreca2d","prime","5d8507a6611c9700152f1126","5f60e3c0a3b16e07647b2ff9","5f61dbf9c0be8603ae86b440","false","null","<div style=""align-items: center; display: flex; color: darkorange; font-size: 90px""><b>ø</b></div>","null","","","","forget_cue","","","","","","","","","","","","","","","",""
"html-keyboard-response","232","328683","0.0-4.0-1.0-0.36","2zlwuf2wfreca2d","prime","5d8507a6611c9700152f1126","5f60e3c0a3b16e07647b2ff9","5f61dbf9c0be8603ae86b440","false","null","<span style=""color: black; font-size: 48px"">N + M</span>","null","","","","resp_prompt","","","","","","","","","","","","","","","",""
"categorize-image","233","329205","0.0-4.0-1.0-1.36","2zlwuf2wfreca2d","prime","5d8507a6611c9700152f1126","5f60e3c0a3b16e07647b2ff9","5f61dbf9c0be8603ae86b440","true","519.5599999999395","./Stimuli/SelectedImages/LN/LN131.bmp","83","","","","test","true","N + M","83","switch","LN","LN131.bmp","remember","","85","3","prime1","left","","","",""
"html-keyboard-response","234","331206","0.0-4.0-1.0-3.36","2zlwuf2wfreca2d","prime","5d8507a6611c9700152f1126","5f60e3c0a3b16e07647b2ff9","5f61dbf9c0be8603ae86b440","false","null","<div style=""align-items: center; display: flex; color: dodgerblue; font-size: 90px""><b>o</b></div>","null","","","","forget_cue","","","","","","","","","","","","","","","",""
"html-keyboard-response","235","331907","0.0-4.0-1.0-0.37","2zlwuf2wfreca2d","prime","5d8507a6611c9700152f1126","5f60e3c0a3b16e07647b2ff9","5f61dbf9c0be8603ae86b440","false","null","<span style=""color: black; font-size: 48px"">M + N</span>","null","","","","resp_prompt","","","","","","","","","","","","","","","",""
"categorize-image","236","332470","0.0-4.0-1.0-1.37","2zlwuf2wfreca2d","prime","5d8507a6611c9700152f1126","5f60e3c0a3b16e07647b2ff9","5f61dbf9c0be8603ae86b440","true","559.2450000000536","./Stimuli/SelectedImages/LN/LN177.bmp","76","","","","test","true","M + N","76","switch","LN","LN177.bmp","forget","","86","3","prime1","right","","","",""
"html-keyboard-response","237","334470","0.0-4.0-1.0-3.37","2zlwuf2wfreca2d","prime","5d8507a6611c9700152f1126","5f60e3c0a3b16e07647b2ff9","5f61dbf9c0be8603ae86b440","false","null","<div style=""align-items: center; display: flex; color: darkorange; font-size: 90px""><b>ø</b></div>","null","","","","forget_cue","","","","","","","","","","","","","","","",""
"html-keyboard-response","238","335172","0.0-4.0-1.0-0.38","2zlwuf2wfreca2d","prime","5d8507a6611c9700152f1126","5f60e3c0a3b16e07647b2ff9","5f61dbf9c0be8603ae86b440","false","null","<span style=""color: black; font-size: 48px"">N + M</span>","null","","","","resp_prompt","","","","","","","","","","","","","","","",""
"categorize-image","239","335822","0.0-4.0-1.0-1.38","2zlwuf2wfreca2d","prime","5d8507a6611c9700152f1126","5f60e3c0a3b16e07647b2ff9","5f61dbf9c0be8603ae86b440","true","646.8549999999814","./Stimuli/SelectedImages/SM/SM205.bmp","76","","","","test","true","N + M","76","switch","SM","SM205.bmp","remember","","87","3","prime1","right","","","",""
"html-keyboard-response","240","337822","0.0-4.0-1.0-3.38","2zlwuf2wfreca2d","prime","5d8507a6611c9700152f1126","5f60e3c0a3b16e07647b2ff9","5f61dbf9c0be8603ae86b440","false","null","<div style=""align-items: center; display: flex; color: dodgerblue; font-size: 90px""><b>o</b></div>","null","","","","forget_cue","","","","","","","","","","","","","","","",""
"html-keyboard-response","241","338523","0.0-4.0-1.0-0.39","2zlwuf2wfreca2d","prime","5d8507a6611c9700152f1126","5f60e3c0a3b16e07647b2ff9","5f61dbf9c0be8603ae86b440","false","null","<span style=""color: black; font-size: 48px"">M + N</span>","null","","","","resp_prompt","","","","","","","","","","","","","","","",""
"categorize-image","242","339229","0.0-4.0-1.0-1.39","2zlwuf2wfreca2d","prime","5d8507a6611c9700152f1126","5f60e3c0a3b16e07647b2ff9","5f61dbf9c0be8603ae86b440","true","703.6399999999558","./Stimuli/SelectedImages/LN/LN92.bmp","76","","","","test","true","M + N","76","repetition","LN","LN92.bmp","remember","","88","3","prime1","right","","","",""
"html-keyboard-response","243","341230","0.0-4.0-1.0-3.39","2zlwuf2wfreca2d","prime","5d8507a6611c9700152f1126","5f60e3c0a3b16e07647b2ff9","5f61dbf9c0be8603ae86b440","false","null","<div style=""align-items: center; display: flex; color: dodgerblue; font-size: 90px""><b>o</b></div>","null","","","","forget_cue","","","","","","","","","","","","","","","",""
"html-keyboard-response","244","341931","0.0-4.0-1.0-0.40","2zlwuf2wfreca2d","prime","5d8507a6611c9700152f1126","5f60e3c0a3b16e07647b2ff9","5f61dbf9c0be8603ae86b440","false","null","<span style=""color: black; font-size: 48px"">M + N</span>","null","","","","resp_prompt","","","","","","","","","","","","","","","",""
"categorize-image","245","342806","0.0-4.0-1.0-1.40","2zlwuf2wfreca2d","prime","5d8507a6611c9700152f1126","5f60e3c0a3b16e07647b2ff9","5f61dbf9c0be8603ae86b440","true","871.1499999999651","./Stimuli/SelectedImages/LM/LM235.bmp","83","","","","test","true","M + N","83","switch","LM","LM235.bmp","remember","","89","3","prime1","left","","","",""
"html-keyboard-response","246","344807","0.0-4.0-1.0-3.40","2zlwuf2wfreca2d","prime","5d8507a6611c9700152f1126","5f60e3c0a3b16e07647b2ff9","5f61dbf9c0be8603ae86b440","false","null","<div style=""align-items: center; display: flex; color: dodgerblue; font-size: 90px""><b>o</b></div>","null","","","","forget_cue","","","","","","","","","","","","","","","",""
"html-keyboard-response","247","345508","0.0-4.0-1.0-0.41","2zlwuf2wfreca2d","prime","5d8507a6611c9700152f1126","5f60e3c0a3b16e07647b2ff9","5f61dbf9c0be8603ae86b440","false","null","<span style=""color: black; font-size: 48px"">M + N</span>","null","","","","resp_prompt","","","","","","","","","","","","","","","",""
"categorize-image","248","346445","0.0-4.0-1.0-1.41","2zlwuf2wfreca2d","prime","5d8507a6611c9700152f1126","5f60e3c0a3b16e07647b2ff9","5f61dbf9c0be8603ae86b440","true","934.3649999999325","./Stimuli/SelectedImages/LM/LM150.bmp","83","","","","test","true","M + N","83","switch","LM","LM150.bmp","forget","","90","3","prime1","left","","","",""
"html-keyboard-response","249","348446","0.0-4.0-1.0-3.41","2zlwuf2wfreca2d","prime","5d8507a6611c9700152f1126","5f60e3c0a3b16e07647b2ff9","5f61dbf9c0be8603ae86b440","false","null","<div style=""align-items: center; display: flex; color: darkorange; font-size: 90px""><b>ø</b></div>","null","","","","forget_cue","","","","","","","","","","","","","","","",""
"html-keyboard-response","250","349147","0.0-4.0-1.0-0.42","2zlwuf2wfreca2d","prime","5d8507a6611c9700152f1126","5f60e3c0a3b16e07647b2ff9","5f61dbf9c0be8603ae86b440","false","null","<span style=""color: black; font-size: 48px"">M + N</span>","null","","","","resp_prompt","","","","","","","","","","","","","","","",""
"categorize-image","251","349757","0.0-4.0-1.0-1.42","2zlwuf2wfreca2d","prime","5d8507a6611c9700152f1126","5f60e3c0a3b16e07647b2ff9","5f61dbf9c0be8603ae86b440","true","607.5299999999697","./Stimuli/SelectedImages/SM/SM106.bmp","83","","","","test","true","M + N","83","switch","SM","SM106.bmp","remember","","91","3","prime1","left","","","",""
"html-keyboard-response","252","351759","0.0-4.0-1.0-3.42","2zlwuf2wfreca2d","prime","5d8507a6611c9700152f1126","5f60e3c0a3b16e07647b2ff9","5f61dbf9c0be8603ae86b440","false","null","<div style=""align-items: center; display: flex; color: dodgerblue; font-size: 90px""><b>o</b></div>","null","","","","forget_cue","","","","","","","","","","","","","","","",""
"html-keyboard-response","253","352459","0.0-4.0-1.0-0.43","2zlwuf2wfreca2d","prime","5d8507a6611c9700152f1126","5f60e3c0a3b16e07647b2ff9","5f61dbf9c0be8603ae86b440","false","null","<span style=""color: black; font-size: 48px"">N + M</span>","null","","","","resp_prompt","","","","","","","","","","","","","","","",""
