"trial_type","trial_index","time_elapsed","internal_node_id","subject","exp_part","prolific_PID","study_ID","session_ID","use","rt","stimulus","key_press","button_pressed","responses","question_order","trial_part","correct","resp_map","correct_resp","probe_condition","category","image","forget_condition","list","trial_num","block_num","block","response","test_part","n_span","sequence","num_spaces"
"pavlovia","0","10","0.0-0.0","3snv0z4cx984lbm","","5f454173b7fe9e0e53e90385","5f60e3c0a3b16e07647b2ff9","5f6104f83bb6c603668cc556","false","","","","","","","","","","","","","","","","","","","","","","",""
"html-keyboard-response","1","2144364","0.0-1.0-0.0-0.0","3snv0z4cx984lbm","welcome","5f454173b7fe9e0e53e90385","5f60e3c0a3b16e07647b2ff9","5f6104f83bb6c603668cc556","false","2144354","<div align=left>Dear participant, <br> thank you for participating in an online study of the Cognition, Action, and Sustainability Unit of the University of Freiburg! <br> <br>The aim of this study is to examine our ability to remember previously learned information. <br>Our goal is to find out, whether our memory improves, when we only remember information that is relevant to us. <br>The experiment will take about 35 minutes to complete. <br> <br>Please, note that you can only participate in this study if you are using a device with a keyboard (PC, Laptop etc.) <br>and not if you are using a mobile device such as a tablet or smartphone.<br> <br>Press 'SPACE' to proceed to the experiment. </div>","32","","","","","","","","","","","","","","","","","","","",""
"html-keyboard-response","2","2154018","0.0-1.0-0.0-1.0","3snv0z4cx984lbm","welcome","5f454173b7fe9e0e53e90385","5f60e3c0a3b16e07647b2ff9","5f6104f83bb6c603668cc556","false","9650","<div align=left><strong> Time Course of this experiment: </strong> <br><br> <strong> 1.</strong>  First, please fill in some information regarding your demographic data. <br><br> <strong> 2.</strong>  Next, your task will be to classify everyday objects. <br>In addition, you will be asked to remember certain objects and recall them later. <br>Working on these tasks requires your undivided attention and concentration.<br>It is therefore essential that you eliminate any sources of distraction in your  <br>environment and ensure that you will not be disturbed. <br><br><strong> 3.</strong>  At the end of the experiment, you will be asked to answer a few additional questions. <br> <br><strong> Important:</strong> After finishing the experiment, only close the browser window <br> by clicking on the 'end the experiment'-button when you are asked to do so. <br>Closing the browser window prematurely will make the allocation of your participation credit impossible. <br><br> Press 'SPACE' to start the experiment. </div>","32","","","","","","","","","","","","","","","","","","","",""
"html-button-response","3","2156255","0.0-1.0-0.0-2.0","3snv0z4cx984lbm","welcome","5f454173b7fe9e0e53e90385","5f60e3c0a3b16e07647b2ff9","5f6104f83bb6c603668cc556","true","2236","<div align=left><strong> Informed consent </strong>  <br>The aim of our research is to better understand human behavior and mental processes. <br>In the following study your behavior (e.g. choices, reaction times) will be studied. <br> <br><strong> Voluntariness and Anonymity </strong> <br>Your participation in this study is  <strong> voluntary</strong>.<br>You may withdraw your consent to participate at any time without providing a reason for doing so and without fear of prejudice. <br><br>As no personal data will be collected, <strong>your data and your person cannot be connected after data collection</strong> – the data-set is anonymous. <br>Respectively, deletion of your data will not be possible after data collection has been completed, as we cannot retrace your data-set.<br>The results and anonymized data collected in this study will be published as a scientific publication. <br>This will happen in an <strong>anonymized format</strong>, so that no data can be traced back to a specific person. <br> <br>The anonymized data of this study will be made available to other researchers and/or in a data archive on the Internet as a means of transparency and to enable subsequent re-use. By doing so, this study follows the recommendations of the Deutsche Forschungsgemeinschaft (DFG, German Research Foundation) and Deutsche Gesellschaft für Psychologie (DGPS, German Psychological Society) regarding quality assurance in research.<br>If you have any questions now or after the experiment, please contact our team (experiments@cs.uni-freiburg.de).<br><br><br>I hereby declare, that I understand the above described conditions of participation and I agree to participate under these conditions. <br><br> </div>","","0","","","","","","","","","","","","","","","","","","",""
"html-keyboard-response","4","2169835","0.0-1.0-0.0-3.0","3snv0z4cx984lbm","welcome","5f454173b7fe9e0e53e90385","5f60e3c0a3b16e07647b2ff9","5f6104f83bb6c603668cc556","false","13578","<div align=left><strong> General information concerning the experiment </strong>  <br> <br>Please follow the instructions:<ol> <li><strong> Do not leave this tab (your browser window) during the experiment and do not reload this tab! </strong>  <br>If you do switch tabs/windows during the experiment (to check your mail or visit another website, for example), <br>the experiment will end automatically and you will <strong>not receive credit</strong> for your participation. <br>Repeated participation or resumption of the experiment is impossible.</li> <br><li>Please close all other programs for the duration of your participation. </li> <br><li>Please mute or turn off your phone and put it out of your reach. </li> <br><li>Please also take off any disturbing accessories (such as wristwatches, bracelets, etc.). </li> <br><li>If you have music playing in the background, please turn it off now. </li> <br></ol>Thank you! <br>Press 'SPACE' to continue. </div>","32","","","","","","","","","","","","","","","","","","","",""
"survey-text","5","2171802","0.0-1.0-1.0-0.0","3snv0z4cx984lbm","demographics","5f454173b7fe9e0e53e90385","5f60e3c0a3b16e07647b2ff9","5f6104f83bb6c603668cc556","true","1965","","","","{""age"":""24""}","","","","","","","","","","","","","","","","","",""
"survey-multi-choice","6","2191073","0.0-1.0-1.0-1.0","3snv0z4cx984lbm","demographics","5f454173b7fe9e0e53e90385","5f60e3c0a3b16e07647b2ff9","5f6104f83bb6c603668cc556","true","19267","","","","{""gender"":""male"",""school"":""high school"",""education"":""Still in training/ university""}","[0,1,2]","","","","","","","","","","","","","","","","",""
"survey-text","7","2202918","0.0-1.0-1.0-2.0-0.0","3snv0z4cx984lbm","demographics","5f454173b7fe9e0e53e90385","5f60e3c0a3b16e07647b2ff9","5f6104f83bb6c603668cc556","true","11842","","","","{""education_text"":""Computer Science Degree (Final Year)""}","","","","","","","","","","","","","","","","","",""
"html-keyboard-response","8","2216372","0.0-1.0-2.0","3snv0z4cx984lbm","instructions","5f454173b7fe9e0e53e90385","5f60e3c0a3b16e07647b2ff9","5f6104f83bb6c603668cc556","false","13453","<div align=left> The experiment is now about to start: <br> <br>In the following part, you will be presented pictures of everyday objects. <br>Your first task is to <strong>classify these objects. </strong> <br> <br> You will classify them either as mechanical or non-mechanical objects. <br> <br>Objects that include any kind of technical mechanism (for example, wheels, switches, levers, <br> electronic components) fall under the category of <strong>mechanical</strong> objects. <br>Only objects without any kind of technical mechanism should be classified as <strong>non-mechanical</strong>. <br><br>Press 'SPACE' to continue. </div>","32","","","","","","","","","","","","","","","","","","","",""
"html-keyboard-response","9","2246818","0.0-2.0-0.0","3snv0z4cx984lbm","instructions","5f454173b7fe9e0e53e90385","5f60e3c0a3b16e07647b2ff9","5f6104f83bb6c603668cc556","false","30445","<div align=justify>You will classify the objects using the <strong>'S'</strong> and the <strong>'L'</strong> keys on your keyboard.<br>For doing so, please place your <strong>left index finger</strong> on the <strong>'S'</strong> key and place your <strong>right index finger</strong> on the <strong>'L'</strong> key. <br><br> Each trial starts with an instruction, indicating which key ('S'/'L') you need to press to classify <br>the object as mechanical (letter M) or non-mechanical (letter N).<br>The instruction <strong>M + N</strong> indicates that, in the current trial, by pressing the left key ('S') you classify the displayed object as mechanical (M) <br> and by pressing the right key ('L') you classify the object as non-mechanical (N). <br>The instruction <strong>N + M</strong> on the other hand indicates that by pressing the left key ('S') you classify the displayed object as non-mechanical (N) <br> and by pressing the right key ('L') you classify the object as mechanical (M). <br><br>Please press the key corresponding to the correct classification as fast as possible as soon as the object is displayed and try to avoid making mistakes.<br>If you do not respond within a 2 second window, a corresponding feedback will be displayed and the next trial will start.<br> The experiment is divided into multiple blocks to give you the opportunity to take a break after each block. <br>First, you can now practice this task. <br><br>Please place your <strong>LEFT INDEX FINGER</strong> on the 'S' key and your <strong>RIGHT INDEX FINGER</strong> on the 'L' key now. <br><br>Press SPACE to continue.</div>","32","","","","","","","","","","","","","","","","","","","",""
"html-keyboard-response","10","2258088","0.0-2.0-1.0","3snv0z4cx984lbm","instructions","5f454173b7fe9e0e53e90385","5f60e3c0a3b16e07647b2ff9","5f6104f83bb6c603668cc556","false","11267","<div align=left> You will now have time to practice this task.<br><br>Remember: <br> <br><li>Please place your index fingers on the <strong>'S'</strong> and <strong>'L'</strong> keys <br>to respond as fast and accurately as possible.</li><li>Every picture can be classified as either mechanical or non-mechanical.</li><li>If you do not respond in time or commit an error, you will receive a corresponding feedback. </li><li> Please try to respond as <strong> fast </strong> and as <strong> accurately as possible </strong> .<br><li>To ensure optimal results, please minimize distractions and stay focused. </li><br><br>Press SPACE to continue.</div>","32","","","","","","","","","","","","","","","","","","","",""
"html-keyboard-response","11","2258790","0.0-2.0-2.0-0.0","3snv0z4cx984lbm","practice_no_cue","5f454173b7fe9e0e53e90385","5f60e3c0a3b16e07647b2ff9","5f6104f83bb6c603668cc556","false","null","<span style=""color: black; font-size: 48px"">M + N</span>","null","","","","resp_prompt","","","","","","","","","","","","","","","",""
"categorize-image","12","2261293","0.0-2.0-2.0-1.0","3snv0z4cx984lbm","practice_no_cue","5f454173b7fe9e0e53e90385","5f60e3c0a3b16e07647b2ff9","5f6104f83bb6c603668cc556","true","null","./Stimuli/ImagesPractice/SN222.jpg","null","","","","test","false","M + N","76","","SN","SN222.jpg","forget","old","1","1","start","too_slow","","","",""
"html-keyboard-response","13","2261995","0.0-2.0-2.0-0.1","3snv0z4cx984lbm","practice_no_cue","5f454173b7fe9e0e53e90385","5f60e3c0a3b16e07647b2ff9","5f6104f83bb6c603668cc556","false","null","<span style=""color: black; font-size: 48px"">M + N</span>","null","","","","resp_prompt","","","","","","","","","","","","","","","",""
"categorize-image","14","2263419","0.0-2.0-2.0-1.1","3snv0z4cx984lbm","practice_no_cue","5f454173b7fe9e0e53e90385","5f60e3c0a3b16e07647b2ff9","5f6104f83bb6c603668cc556","true","920","./Stimuli/ImagesPractice/LM230.jpg","76","","","","test","false","M + N","83","","LM","LM230.jpg","remember","old","2","1","start","right","","","",""
"html-keyboard-response","15","2264119","0.0-2.0-2.0-0.2","3snv0z4cx984lbm","practice_no_cue","5f454173b7fe9e0e53e90385","5f60e3c0a3b16e07647b2ff9","5f6104f83bb6c603668cc556","false","null","<span style=""color: black; font-size: 48px"">N + M</span>","null","","","","resp_prompt","","","","","","","","","","","","","","","",""
"categorize-image","16","2265341","0.0-2.0-2.0-1.2","3snv0z4cx984lbm","practice_no_cue","5f454173b7fe9e0e53e90385","5f60e3c0a3b16e07647b2ff9","5f6104f83bb6c603668cc556","true","720","./Stimuli/ImagesPractice/SN205.jpg","76","","","","test","false","N + M","83","","SN","SN205.jpg","remember","old","3","1","start","right","","","",""
"html-keyboard-response","17","2266042","0.0-2.0-2.0-0.3","3snv0z4cx984lbm","practice_no_cue","5f454173b7fe9e0e53e90385","5f60e3c0a3b16e07647b2ff9","5f6104f83bb6c603668cc556","false","null","<span style=""color: black; font-size: 48px"">N + M</span>","null","","","","resp_prompt","","","","","","","","","","","","","","","",""
"categorize-image","18","2267493","0.0-2.0-2.0-1.3","3snv0z4cx984lbm","practice_no_cue","5f454173b7fe9e0e53e90385","5f60e3c0a3b16e07647b2ff9","5f6104f83bb6c603668cc556","true","950","./Stimuli/ImagesPractice/SM97.jpg","76","","","","test","true","N + M","76","","SM","SM97.jpg","remember","old","4","1","start","right","","","",""
"html-keyboard-response","19","2268195","0.0-2.0-2.0-0.4","3snv0z4cx984lbm","practice_no_cue","5f454173b7fe9e0e53e90385","5f60e3c0a3b16e07647b2ff9","5f6104f83bb6c603668cc556","false","null","<span style=""color: black; font-size: 48px"">M + N</span>","null","","","","resp_prompt","","","","","","","","","","","","","","","",""
"categorize-image","20","2269398","0.0-2.0-2.0-1.4","3snv0z4cx984lbm","practice_no_cue","5f454173b7fe9e0e53e90385","5f60e3c0a3b16e07647b2ff9","5f6104f83bb6c603668cc556","true","704","./Stimuli/ImagesPractice/LN15.jpg","76","","","","test","true","M + N","76","","LN","LN15.jpg","remember","old","5","1","start","right","","","",""
"html-keyboard-response","21","2270100","0.0-2.0-2.0-0.5","3snv0z4cx984lbm","practice_no_cue","5f454173b7fe9e0e53e90385","5f60e3c0a3b16e07647b2ff9","5f6104f83bb6c603668cc556","false","null","<span style=""color: black; font-size: 48px"">N + M</span>","null","","","","resp_prompt","","","","","","","","","","","","","","","",""
"categorize-image","22","2271667","0.0-2.0-2.0-1.5","3snv0z4cx984lbm","practice_no_cue","5f454173b7fe9e0e53e90385","5f60e3c0a3b16e07647b2ff9","5f6104f83bb6c603668cc556","true","1064","./Stimuli/ImagesPractice/SM98.jpg","76","","","","test","true","N + M","76","","SM","SM98.jpg","forget","old","6","1","start","right","","","",""
"html-keyboard-response","23","2272368","0.0-2.0-2.0-0.6","3snv0z4cx984lbm","practice_no_cue","5f454173b7fe9e0e53e90385","5f60e3c0a3b16e07647b2ff9","5f6104f83bb6c603668cc556","false","null","<span style=""color: black; font-size: 48px"">N + M</span>","null","","","","resp_prompt","","","","","","","","","","","","","","","",""
"categorize-image","24","2273756","0.0-2.0-2.0-1.6","3snv0z4cx984lbm","practice_no_cue","5f454173b7fe9e0e53e90385","5f60e3c0a3b16e07647b2ff9","5f6104f83bb6c603668cc556","true","886","./Stimuli/ImagesPractice/SM61.jpg","83","","","","test","false","N + M","76","","SM","SM61.jpg","forget","old","7","1","start","left","","","",""
"html-keyboard-response","25","2274456","0.0-2.0-2.0-0.7","3snv0z4cx984lbm","practice_no_cue","5f454173b7fe9e0e53e90385","5f60e3c0a3b16e07647b2ff9","5f6104f83bb6c603668cc556","false","null","<span style=""color: black; font-size: 48px"">M + N</span>","null","","","","resp_prompt","","","","","","","","","","","","","","","",""
"categorize-image","26","2276088","0.0-2.0-2.0-1.7","3snv0z4cx984lbm","practice_no_cue","5f454173b7fe9e0e53e90385","5f60e3c0a3b16e07647b2ff9","5f6104f83bb6c603668cc556","true","1127","./Stimuli/ImagesPractice/LN4.jpg","76","","","","test","true","M + N","76","","LN","LN4.jpg","forget","old","8","1","start","right","","","",""
"html-keyboard-response","27","2276790","0.0-2.0-2.0-0.8","3snv0z4cx984lbm","practice_no_cue","5f454173b7fe9e0e53e90385","5f60e3c0a3b16e07647b2ff9","5f6104f83bb6c603668cc556","false","null","<span style=""color: black; font-size: 48px"">N + M</span>","null","","","","resp_prompt","","","","","","","","","","","","","","","",""
"categorize-image","28","2278297","0.0-2.0-2.0-1.8","3snv0z4cx984lbm","practice_no_cue","5f454173b7fe9e0e53e90385","5f60e3c0a3b16e07647b2ff9","5f6104f83bb6c603668cc556","true","1004","./Stimuli/ImagesPractice/LM143.jpg","83","","","","test","false","N + M","76","","LM","LM143.jpg","forget","old","9","1","start","left","","","",""
"html-keyboard-response","29","2278997","0.0-2.0-2.0-0.9","3snv0z4cx984lbm","practice_no_cue","5f454173b7fe9e0e53e90385","5f60e3c0a3b16e07647b2ff9","5f6104f83bb6c603668cc556","false","null","<span style=""color: black; font-size: 48px"">N + M</span>","null","","","","resp_prompt","","","","","","","","","","","","","","","",""
"categorize-image","30","2280154","0.0-2.0-2.0-1.9","3snv0z4cx984lbm","practice_no_cue","5f454173b7fe9e0e53e90385","5f60e3c0a3b16e07647b2ff9","5f6104f83bb6c603668cc556","true","656","./Stimuli/ImagesPractice/LN17.jpg","83","","","","test","true","N + M","83","","LN","LN17.jpg","remember","old","10","1","start","left","","","",""
"html-keyboard-response","31","2280857","0.0-2.0-2.0-0.10","3snv0z4cx984lbm","practice_no_cue","5f454173b7fe9e0e53e90385","5f60e3c0a3b16e07647b2ff9","5f6104f83bb6c603668cc556","false","null","<span style=""color: black; font-size: 48px"">M + N</span>","null","","","","resp_prompt","","","","","","","","","","","","","","","",""
"categorize-image","32","2282284","0.0-2.0-2.0-1.10","3snv0z4cx984lbm","practice_no_cue","5f454173b7fe9e0e53e90385","5f60e3c0a3b16e07647b2ff9","5f6104f83bb6c603668cc556","true","925","./Stimuli/ImagesPractice/LM147.jpg","83","","","","test","true","M + N","83","","LM","LM147.jpg","remember","old","11","1","start","left","","","",""
"html-keyboard-response","33","2282985","0.0-2.0-2.0-0.11","3snv0z4cx984lbm","practice_no_cue","5f454173b7fe9e0e53e90385","5f60e3c0a3b16e07647b2ff9","5f6104f83bb6c603668cc556","false","null","<span style=""color: black; font-size: 48px"">M + N</span>","null","","","","resp_prompt","","","","","","","","","","","","","","","",""
"categorize-image","34","2284294","0.0-2.0-2.0-1.11","3snv0z4cx984lbm","practice_no_cue","5f454173b7fe9e0e53e90385","5f60e3c0a3b16e07647b2ff9","5f6104f83bb6c603668cc556","true","808","./Stimuli/ImagesPractice/LM55.jpg","83","","","","test","true","M + N","83","","LM","LM55.jpg","remember","old","12","1","start","left","","","",""
"html-keyboard-response","35","2284994","0.0-2.0-2.0-0.12","3snv0z4cx984lbm","practice_no_cue","5f454173b7fe9e0e53e90385","5f60e3c0a3b16e07647b2ff9","5f6104f83bb6c603668cc556","false","null","<span style=""color: black; font-size: 48px"">M + N</span>","null","","","","resp_prompt","","","","","","","","","","","","","","","",""
"categorize-image","36","2286447","0.0-2.0-2.0-1.12","3snv0z4cx984lbm","practice_no_cue","5f454173b7fe9e0e53e90385","5f60e3c0a3b16e07647b2ff9","5f6104f83bb6c603668cc556","true","951","./Stimuli/ImagesPractice/SM35.jpg","76","","","","test","false","M + N","83","","SM","SM35.jpg","forget","old","13","1","start","right","","","",""
"html-keyboard-response","37","2287148","0.0-2.0-2.0-0.13","3snv0z4cx984lbm","practice_no_cue","5f454173b7fe9e0e53e90385","5f60e3c0a3b16e07647b2ff9","5f6104f83bb6c603668cc556","false","null","<span style=""color: black; font-size: 48px"">N + M</span>","null","","","","resp_prompt","","","","","","","","","","","","","","","",""
"categorize-image","38","2288448","0.0-2.0-2.0-1.13","3snv0z4cx984lbm","practice_no_cue","5f454173b7fe9e0e53e90385","5f60e3c0a3b16e07647b2ff9","5f6104f83bb6c603668cc556","true","798","./Stimuli/ImagesPractice/SN221.jpg","83","","","","test","true","N + M","83","","SN","SN221.jpg","remember","old","14","1","start","left","","","",""
"html-keyboard-response","39","2289148","0.0-2.0-2.0-0.14","3snv0z4cx984lbm","practice_no_cue","5f454173b7fe9e0e53e90385","5f60e3c0a3b16e07647b2ff9","5f6104f83bb6c603668cc556","false","null","<span style=""color: black; font-size: 48px"">N + M</span>","null","","","","resp_prompt","","","","","","","","","","","","","","","",""
"categorize-image","40","2290227","0.0-2.0-2.0-1.14","3snv0z4cx984lbm","practice_no_cue","5f454173b7fe9e0e53e90385","5f60e3c0a3b16e07647b2ff9","5f6104f83bb6c603668cc556","true","578","./Stimuli/ImagesPractice/SM37.jpg","76","","","","test","true","N + M","76","","SM","SM37.jpg","forget","old","15","1","start","right","","","",""
"html-keyboard-response","41","2290928","0.0-2.0-2.0-0.15","3snv0z4cx984lbm","practice_no_cue","5f454173b7fe9e0e53e90385","5f60e3c0a3b16e07647b2ff9","5f6104f83bb6c603668cc556","false","null","<span style=""color: black; font-size: 48px"">M + N</span>","null","","","","resp_prompt","","","","","","","","","","","","","","","",""
"categorize-image","42","2292173","0.0-2.0-2.0-1.15","3snv0z4cx984lbm","practice_no_cue","5f454173b7fe9e0e53e90385","5f60e3c0a3b16e07647b2ff9","5f6104f83bb6c603668cc556","true","742","./Stimuli/ImagesPractice/LN2.jpg","76","","","","test","true","M + N","76","","LN","LN2.jpg","forget","old","16","1","start","right","","","",""
"html-keyboard-response","43","2297398","0.0-2.0-3.0","3snv0z4cx984lbm","break","5f454173b7fe9e0e53e90385","5f60e3c0a3b16e07647b2ff9","5f6104f83bb6c603668cc556","false","5223","<p style='font-size: 32px;'>Break</><br><br><br><br><br><p style='font-size: 24px;'>In the last block, you committed 5 errors and did not respond in time on 1 trials.
</p><p style='font-size: 24px;'>Try to respond as fast and accurately as possible in the next block as well! </p><p style='font-size: 24px;'>Press SPACE to continue.</p>","32","","","","","","","","","","","","","","","","","","","",""
"html-keyboard-response","44","2301516","0.0-2.0-4.0","3snv0z4cx984lbm","instructions","5f454173b7fe9e0e53e90385","5f60e3c0a3b16e07647b2ff9","5f6104f83bb6c603668cc556","false","4118","<div align=left> Great!<br><br>Are you ready to continue?<br><br>If you want to reread the instructions and redo the practice trials, <br>please press „Z“. <br><br>Press SPACE to CONTINUE with the experiment when you are ready. </div>","32","","","","","","","","","","","","","","","","","","","",""
"html-keyboard-response","45","2324700","0.0-3.0-0.0","3snv0z4cx984lbm","instructions","5f454173b7fe9e0e53e90385","5f60e3c0a3b16e07647b2ff9","5f6104f83bb6c603668cc556","false","23183","<div align=left>Great!<br> <strong>Attention</strong>! You will now receive a second, additional task! <br><br>To this point it was you <strong>first task</strong> to correctly <strong>classify objects</strong>. <br><br>As mentioned in the beginning, we aim to examine how well humans can remember previously learned information.<br>We would like to find out whether our memory improves if we only remember information that is relevant to us. <br><br>Therefore, your <strong>second task</strong> will be to <strong>remember</strong> the pictures you are to categorize. <br> After the learning phase, there will be a memory test phase, in which you will be asked to indicate whether you have seen a picture before or not. <br>Some, but not all pictures shown in the learning phase will appear in the memory test phase.<br>After classifying a picture, you will be told whether you should remember it for the memory test phase or not. <br>Thus, some pictures can be forgotten, whereas others have to be remembered. <br><br>Note: From now on, feedback will only be displayed if you responded incorrectly or not in time.<br><br>Press SPACE to continue.</div>","32","","","","","","","","","","","","","","","","","","","",""
"html-keyboard-response","46","2340793","0.0-3.0-1.0","3snv0z4cx984lbm","instructions","5f454173b7fe9e0e53e90385","5f60e3c0a3b16e07647b2ff9","5f6104f83bb6c603668cc556","false","16093","<div align=left>In the following part, you will thus have to remember only some pictures. <br>Immediately after seeing and classifying the picture, a symbol will be displayed, indicating whether you should remember or forget the previous picture. <br><br>A <span style='color: dodgerblue; font-size: 28px'>O</span> indicates REMEMBER. That means, you have to remember this picture, because it will be tested later. <br><br>A <span style='color: darkorange; font-size:28px'>Ø</span> indicates FORGET. You do not have to remember this picture. <br><br> As you will have to remember a lot of pictures, it will be hard for you to remember all of them. <br>It will put you at an advantage if you instantly forget the pictures you are not asked to remember. <br> This will make it easier for you to remember the pictures that will be tested afterwards. <br><br>Press SPACE to continue.</div>","32","","","","","","","","","","","","","","","","","","","",""
"html-keyboard-response","47","2345591","0.0-3.0-2.0","3snv0z4cx984lbm","instructions","5f454173b7fe9e0e53e90385","5f60e3c0a3b16e07647b2ff9","5f6104f83bb6c603668cc556","false","4798","<div align=left> Now you have the chance to practice both tasks together.<br><br>Remember: <br> <br><li>Please place your index fingers on the <strong>'S'</strong> and <strong>'L'</strong> keys <br>to respond as fast and accurately as possible.</li><li>Every picture can be classified as either mechanical or non-mechanical.</li><li>If you do not respond in time or commit an error, you will receive a corresponding feedback. <br>Please try to respond as <strong> fast </strong> and as <strong> accurately as possible </strong>.</li><li> Please remember only the to-be-remembered <span style='color: dodgerblue; font-size: 28px'>O</span> pictures. <br></li><li> Please minimize distractions and stay focused. </li><br><br>Press SPACE to START</div>","32","","","","","","","","","","","","","","","","","","","",""
"html-keyboard-response","48","2346292","0.0-3.0-3.0-0.0","3snv0z4cx984lbm","practice_cue","5f454173b7fe9e0e53e90385","5f60e3c0a3b16e07647b2ff9","5f6104f83bb6c603668cc556","false","null","<span style=""color: black; font-size: 48px"">N + M</span>","null","","","","resp_prompt","","","","","","","","","","","","","","","",""
"categorize-image","49","2347004","0.0-3.0-3.0-1.0","3snv0z4cx984lbm","practice_cue","5f454173b7fe9e0e53e90385","5f60e3c0a3b16e07647b2ff9","5f6104f83bb6c603668cc556","true","711","./Stimuli/ImagesPractice/LN17.jpg","83","","","","test","true","N + M","83","","LN","LN17.jpg","remember","old","17","2","practice_forget","left","","","",""
"html-keyboard-response","50","2349006","0.0-3.0-3.0-3.0","3snv0z4cx984lbm","practice_cue","5f454173b7fe9e0e53e90385","5f60e3c0a3b16e07647b2ff9","5f6104f83bb6c603668cc556","false","null","<div style=""align-items: center; display: flex; color: dodgerblue; font-size: 90px""><b>o</b></div>","null","","","","forget_cue","","","","","","","","","","","","","","","",""
"html-keyboard-response","51","2349706","0.0-3.0-3.0-0.1","3snv0z4cx984lbm","practice_cue","5f454173b7fe9e0e53e90385","5f60e3c0a3b16e07647b2ff9","5f6104f83bb6c603668cc556","false","null","<span style=""color: black; font-size: 48px"">N + M</span>","null","","","","resp_prompt","","","","","","","","","","","","","","","",""
"categorize-image","52","2350508","0.0-3.0-3.0-1.1","3snv0z4cx984lbm","practice_cue","5f454173b7fe9e0e53e90385","5f60e3c0a3b16e07647b2ff9","5f6104f83bb6c603668cc556","true","801","./Stimuli/ImagesPractice/SN221.jpg","83","","","","test","true","N + M","83","","SN","SN221.jpg","remember","old","18","2","practice_forget","left","","","",""
"html-keyboard-response","53","2352511","0.0-3.0-3.0-3.1","3snv0z4cx984lbm","practice_cue","5f454173b7fe9e0e53e90385","5f60e3c0a3b16e07647b2ff9","5f6104f83bb6c603668cc556","false","null","<div style=""align-items: center; display: flex; color: dodgerblue; font-size: 90px""><b>o</b></div>","null","","","","forget_cue","","","","","","","","","","","","","","","",""
"html-keyboard-response","54","2353212","0.0-3.0-3.0-0.2","3snv0z4cx984lbm","practice_cue","5f454173b7fe9e0e53e90385","5f60e3c0a3b16e07647b2ff9","5f6104f83bb6c603668cc556","false","null","<span style=""color: black; font-size: 48px"">M + N</span>","null","","","","resp_prompt","","","","","","","","","","","","","","","",""
"categorize-image","55","2353903","0.0-3.0-3.0-1.2","3snv0z4cx984lbm","practice_cue","5f454173b7fe9e0e53e90385","5f60e3c0a3b16e07647b2ff9","5f6104f83bb6c603668cc556","true","690","./Stimuli/ImagesPractice/LN2.jpg","76","","","","test","true","M + N","76","","LN","LN2.jpg","forget","old","19","2","practice_forget","right","","","",""
"html-keyboard-response","56","2355904","0.0-3.0-3.0-3.2","3snv0z4cx984lbm","practice_cue","5f454173b7fe9e0e53e90385","5f60e3c0a3b16e07647b2ff9","5f6104f83bb6c603668cc556","false","null","<div style=""align-items: center; display: flex; color: darkorange; font-size: 90px""><b>ø</b></div>","null","","","","forget_cue","","","","","","","","","","","","","","","",""
"html-keyboard-response","57","2356605","0.0-3.0-3.0-0.3","3snv0z4cx984lbm","practice_cue","5f454173b7fe9e0e53e90385","5f60e3c0a3b16e07647b2ff9","5f6104f83bb6c603668cc556","false","null","<span style=""color: black; font-size: 48px"">M + N</span>","null","","","","resp_prompt","","","","","","","","","","","","","","","",""
"categorize-image","58","2357317","0.0-3.0-3.0-1.3","3snv0z4cx984lbm","practice_cue","5f454173b7fe9e0e53e90385","5f60e3c0a3b16e07647b2ff9","5f6104f83bb6c603668cc556","true","711","./Stimuli/ImagesPractice/LN15.jpg","76","","","","test","true","M + N","76","","LN","LN15.jpg","remember","old","20","2","practice_forget","right","","","",""
"html-keyboard-response","59","2359318","0.0-3.0-3.0-3.3","3snv0z4cx984lbm","practice_cue","5f454173b7fe9e0e53e90385","5f60e3c0a3b16e07647b2ff9","5f6104f83bb6c603668cc556","false","null","<div style=""align-items: center; display: flex; color: dodgerblue; font-size: 90px""><b>o</b></div>","null","","","","forget_cue","","","","","","","","","","","","","","","",""
"html-keyboard-response","60","2360018","0.0-3.0-3.0-0.4","3snv0z4cx984lbm","practice_cue","5f454173b7fe9e0e53e90385","5f60e3c0a3b16e07647b2ff9","5f6104f83bb6c603668cc556","false","null","<span style=""color: black; font-size: 48px"">N + M</span>","null","","","","resp_prompt","","","","","","","","","","","","","","","",""
"categorize-image","61","2360761","0.0-3.0-3.0-1.4","3snv0z4cx984lbm","practice_cue","5f454173b7fe9e0e53e90385","5f60e3c0a3b16e07647b2ff9","5f6104f83bb6c603668cc556","true","741","./Stimuli/ImagesPractice/SM97.jpg","76","","","","test","true","N + M","76","","SM","SM97.jpg","remember","old","21","2","practice_forget","right","","","",""
"html-keyboard-response","62","2362762","0.0-3.0-3.0-3.4","3snv0z4cx984lbm","practice_cue","5f454173b7fe9e0e53e90385","5f60e3c0a3b16e07647b2ff9","5f6104f83bb6c603668cc556","false","null","<div style=""align-items: center; display: flex; color: dodgerblue; font-size: 90px""><b>o</b></div>","null","","","","forget_cue","","","","","","","","","","","","","","","",""
"html-keyboard-response","63","2363462","0.0-3.0-3.0-0.5","3snv0z4cx984lbm","practice_cue","5f454173b7fe9e0e53e90385","5f60e3c0a3b16e07647b2ff9","5f6104f83bb6c603668cc556","false","null","<span style=""color: black; font-size: 48px"">N + M</span>","null","","","","resp_prompt","","","","","","","","","","","","","","","",""
"categorize-image","64","2364642","0.0-3.0-3.0-1.5","3snv0z4cx984lbm","practice_cue","5f454173b7fe9e0e53e90385","5f60e3c0a3b16e07647b2ff9","5f6104f83bb6c603668cc556","true","1178","./Stimuli/ImagesPractice/SN205.jpg","83","","","","test","true","N + M","83","","SN","SN205.jpg","remember","old","22","2","practice_forget","left","","","",""
"html-keyboard-response","65","2366643","0.0-3.0-3.0-3.5","3snv0z4cx984lbm","practice_cue","5f454173b7fe9e0e53e90385","5f60e3c0a3b16e07647b2ff9","5f6104f83bb6c603668cc556","false","null","<div style=""align-items: center; display: flex; color: dodgerblue; font-size: 90px""><b>o</b></div>","null","","","","forget_cue","","","","","","","","","","","","","","","",""
"html-keyboard-response","66","2367345","0.0-3.0-3.0-0.6","3snv0z4cx984lbm","practice_cue","5f454173b7fe9e0e53e90385","5f60e3c0a3b16e07647b2ff9","5f6104f83bb6c603668cc556","false","null","<span style=""color: black; font-size: 48px"">N + M</span>","null","","","","resp_prompt","","","","","","","","","","","","","","","",""
"categorize-image","67","2367965","0.0-3.0-3.0-1.6","3snv0z4cx984lbm","practice_cue","5f454173b7fe9e0e53e90385","5f60e3c0a3b16e07647b2ff9","5f6104f83bb6c603668cc556","true","620","./Stimuli/ImagesPractice/SM98.jpg","76","","","","test","true","N + M","76","","SM","SM98.jpg","forget","old","23","2","practice_forget","right","","","",""
"html-keyboard-response","68","2369967","0.0-3.0-3.0-3.6","3snv0z4cx984lbm","practice_cue","5f454173b7fe9e0e53e90385","5f60e3c0a3b16e07647b2ff9","5f6104f83bb6c603668cc556","false","null","<div style=""align-items: center; display: flex; color: darkorange; font-size: 90px""><b>ø</b></div>","null","","","","forget_cue","","","","","","","","","","","","","","","",""
"html-keyboard-response","69","2370669","0.0-3.0-3.0-0.7","3snv0z4cx984lbm","practice_cue","5f454173b7fe9e0e53e90385","5f60e3c0a3b16e07647b2ff9","5f6104f83bb6c603668cc556","false","null","<span style=""color: black; font-size: 48px"">M + N</span>","null","","","","resp_prompt","","","","","","","","","","","","","","","",""
"categorize-image","70","2371647","0.0-3.0-3.0-1.7","3snv0z4cx984lbm","practice_cue","5f454173b7fe9e0e53e90385","5f60e3c0a3b16e07647b2ff9","5f6104f83bb6c603668cc556","true","975","./Stimuli/ImagesPractice/LM55.jpg","83","","","","test","true","M + N","83","","LM","LM55.jpg","remember","old","24","2","practice_forget","left","","","",""
"html-keyboard-response","71","2373648","0.0-3.0-3.0-3.7","3snv0z4cx984lbm","practice_cue","5f454173b7fe9e0e53e90385","5f60e3c0a3b16e07647b2ff9","5f6104f83bb6c603668cc556","false","null","<div style=""align-items: center; display: flex; color: dodgerblue; font-size: 90px""><b>o</b></div>","null","","","","forget_cue","","","","","","","","","","","","","","","",""
"html-keyboard-response","72","2374350","0.0-3.0-3.0-0.8","3snv0z4cx984lbm","practice_cue","5f454173b7fe9e0e53e90385","5f60e3c0a3b16e07647b2ff9","5f6104f83bb6c603668cc556","false","null","<span style=""color: black; font-size: 48px"">M + N</span>","null","","","","resp_prompt","","","","","","","","","","","","","","","",""
"categorize-image","73","2375264","0.0-3.0-3.0-1.8","3snv0z4cx984lbm","practice_cue","5f454173b7fe9e0e53e90385","5f60e3c0a3b16e07647b2ff9","5f6104f83bb6c603668cc556","true","912","./Stimuli/ImagesPractice/LM230.jpg","76","","","","test","false","M + N","83","","LM","LM230.jpg","remember","old","25","2","practice_forget","right","","","",""
"html-keyboard-response","74","2375764","0.0-3.0-3.0-2.8-0.8","3snv0z4cx984lbm","practice_cue","5f454173b7fe9e0e53e90385","5f60e3c0a3b16e07647b2ff9","5f6104f83bb6c603668cc556","false","null","<span style=""color: red; font-size: 48px"">Error!</span>","null","","","","feedback","","","","","","","","","","","","","","","",""
"html-keyboard-response","75","2377766","0.0-3.0-3.0-3.8","3snv0z4cx984lbm","practice_cue","5f454173b7fe9e0e53e90385","5f60e3c0a3b16e07647b2ff9","5f6104f83bb6c603668cc556","false","null","<div style=""align-items: center; display: flex; color: dodgerblue; font-size: 90px""><b>o</b></div>","null","","","","forget_cue","","","","","","","","","","","","","","","",""
"html-keyboard-response","76","2378466","0.0-3.0-3.0-0.9","3snv0z4cx984lbm","practice_cue","5f454173b7fe9e0e53e90385","5f60e3c0a3b16e07647b2ff9","5f6104f83bb6c603668cc556","false","null","<span style=""color: black; font-size: 48px"">N + M</span>","null","","","","resp_prompt","","","","","","","","","","","","","","","",""
"categorize-image","77","2379270","0.0-3.0-3.0-1.9","3snv0z4cx984lbm","practice_cue","5f454173b7fe9e0e53e90385","5f60e3c0a3b16e07647b2ff9","5f6104f83bb6c603668cc556","true","802","./Stimuli/ImagesPractice/LM143.jpg","76","","","","test","true","N + M","76","","LM","LM143.jpg","forget","old","26","2","practice_forget","right","","","",""
"html-keyboard-response","78","2381272","0.0-3.0-3.0-3.9","3snv0z4cx984lbm","practice_cue","5f454173b7fe9e0e53e90385","5f60e3c0a3b16e07647b2ff9","5f6104f83bb6c603668cc556","false","null","<div style=""align-items: center; display: flex; color: darkorange; font-size: 90px""><b>ø</b></div>","null","","","","forget_cue","","","","","","","","","","","","","","","",""
"html-keyboard-response","79","2381974","0.0-3.0-3.0-0.10","3snv0z4cx984lbm","practice_cue","5f454173b7fe9e0e53e90385","5f60e3c0a3b16e07647b2ff9","5f6104f83bb6c603668cc556","false","null","<span style=""color: black; font-size: 48px"">N + M</span>","null","","","","resp_prompt","","","","","","","","","","","","","","","",""
"categorize-image","80","2383084","0.0-3.0-3.0-1.10","3snv0z4cx984lbm","practice_cue","5f454173b7fe9e0e53e90385","5f60e3c0a3b16e07647b2ff9","5f6104f83bb6c603668cc556","true","1109","./Stimuli/ImagesPractice/SM61.jpg","76","","","","test","true","N + M","76","","SM","SM61.jpg","forget","old","27","2","practice_forget","right","","","",""
"html-keyboard-response","81","2385085","0.0-3.0-3.0-3.10","3snv0z4cx984lbm","practice_cue","5f454173b7fe9e0e53e90385","5f60e3c0a3b16e07647b2ff9","5f6104f83bb6c603668cc556","false","null","<div style=""align-items: center; display: flex; color: darkorange; font-size: 90px""><b>ø</b></div>","null","","","","forget_cue","","","","","","","","","","","","","","","",""
"html-keyboard-response","82","2385786","0.0-3.0-3.0-0.11","3snv0z4cx984lbm","practice_cue","5f454173b7fe9e0e53e90385","5f60e3c0a3b16e07647b2ff9","5f6104f83bb6c603668cc556","false","null","<span style=""color: black; font-size: 48px"">M + N</span>","null","","","","resp_prompt","","","","","","","","","","","","","","","",""
"categorize-image","83","2386451","0.0-3.0-3.0-1.11","3snv0z4cx984lbm","practice_cue","5f454173b7fe9e0e53e90385","5f60e3c0a3b16e07647b2ff9","5f6104f83bb6c603668cc556","true","664","./Stimuli/ImagesPractice/LN4.jpg","76","","","","test","true","M + N","76","","LN","LN4.jpg","forget","old","28","2","practice_forget","right","","","",""
"html-keyboard-response","84","2388452","0.0-3.0-3.0-3.11","3snv0z4cx984lbm","practice_cue","5f454173b7fe9e0e53e90385","5f60e3c0a3b16e07647b2ff9","5f6104f83bb6c603668cc556","false","null","<div style=""align-items: center; display: flex; color: darkorange; font-size: 90px""><b>ø</b></div>","null","","","","forget_cue","","","","","","","","","","","","","","","",""
"html-keyboard-response","85","2389153","0.0-3.0-3.0-0.12","3snv0z4cx984lbm","practice_cue","5f454173b7fe9e0e53e90385","5f60e3c0a3b16e07647b2ff9","5f6104f83bb6c603668cc556","false","null","<span style=""color: black; font-size: 48px"">M + N</span>","null","","","","resp_prompt","","","","","","","","","","","","","","","",""
"categorize-image","86","2390064","0.0-3.0-3.0-1.12","3snv0z4cx984lbm","practice_cue","5f454173b7fe9e0e53e90385","5f60e3c0a3b16e07647b2ff9","5f6104f83bb6c603668cc556","true","910","./Stimuli/ImagesPractice/LM147.jpg","83","","","","test","true","M + N","83","","LM","LM147.jpg","remember","old","29","2","practice_forget","left","","","",""
"html-keyboard-response","87","2392066","0.0-3.0-3.0-3.12","3snv0z4cx984lbm","practice_cue","5f454173b7fe9e0e53e90385","5f60e3c0a3b16e07647b2ff9","5f6104f83bb6c603668cc556","false","null","<div style=""align-items: center; display: flex; color: dodgerblue; font-size: 90px""><b>o</b></div>","null","","","","forget_cue","","","","","","","","","","","","","","","",""
"html-keyboard-response","88","2392766","0.0-3.0-3.0-0.13","3snv0z4cx984lbm","practice_cue","5f454173b7fe9e0e53e90385","5f60e3c0a3b16e07647b2ff9","5f6104f83bb6c603668cc556","false","null","<span style=""color: black; font-size: 48px"">M + N</span>","null","","","","resp_prompt","","","","","","","","","","","","","","","",""
"categorize-image","89","2393820","0.0-3.0-3.0-1.13","3snv0z4cx984lbm","practice_cue","5f454173b7fe9e0e53e90385","5f60e3c0a3b16e07647b2ff9","5f6104f83bb6c603668cc556","true","1053","./Stimuli/ImagesPractice/SN222.jpg","76","","","","test","true","M + N","76","","SN","SN222.jpg","forget","old","30","2","practice_forget","right","","","",""
"html-keyboard-response","90","2395822","0.0-3.0-3.0-3.13","3snv0z4cx984lbm","practice_cue","5f454173b7fe9e0e53e90385","5f60e3c0a3b16e07647b2ff9","5f6104f83bb6c603668cc556","false","null","<div style=""align-items: center; display: flex; color: darkorange; font-size: 90px""><b>ø</b></div>","null","","","","forget_cue","","","","","","","","","","","","","","","",""
"html-keyboard-response","91","2396524","0.0-3.0-3.0-0.14","3snv0z4cx984lbm","practice_cue","5f454173b7fe9e0e53e90385","5f60e3c0a3b16e07647b2ff9","5f6104f83bb6c603668cc556","false","null","<span style=""color: black; font-size: 48px"">M + N</span>","null","","","","resp_prompt","","","","","","","","","","","","","","","",""
"categorize-image","92","2397583","0.0-3.0-3.0-1.14","3snv0z4cx984lbm","practice_cue","5f454173b7fe9e0e53e90385","5f60e3c0a3b16e07647b2ff9","5f6104f83bb6c603668cc556","true","1056","./Stimuli/ImagesPractice/SM35.jpg","83","","","","test","true","M + N","83","","SM","SM35.jpg","forget","old","31","2","practice_forget","left","","","",""
"html-keyboard-response","93","2399584","0.0-3.0-3.0-3.14","3snv0z4cx984lbm","practice_cue","5f454173b7fe9e0e53e90385","5f60e3c0a3b16e07647b2ff9","5f6104f83bb6c603668cc556","false","null","<div style=""align-items: center; display: flex; color: darkorange; font-size: 90px""><b>ø</b></div>","null","","","","forget_cue","","","","","","","","","","","","","","","",""
"html-keyboard-response","94","2400285","0.0-3.0-3.0-0.15","3snv0z4cx984lbm","practice_cue","5f454173b7fe9e0e53e90385","5f60e3c0a3b16e07647b2ff9","5f6104f83bb6c603668cc556","false","null","<span style=""color: black; font-size: 48px"">N + M</span>","null","","","","resp_prompt","","","","","","","","","","","","","","","",""
"categorize-image","95","2400955","0.0-3.0-3.0-1.15","3snv0z4cx984lbm","practice_cue","5f454173b7fe9e0e53e90385","5f60e3c0a3b16e07647b2ff9","5f6104f83bb6c603668cc556","true","669","./Stimuli/ImagesPractice/SM37.jpg","76","","","","test","true","N + M","76","","SM","SM37.jpg","forget","old","32","2","practice_forget","right","","","",""
"html-keyboard-response","96","2402956","0.0-3.0-3.0-3.15","3snv0z4cx984lbm","practice_cue","5f454173b7fe9e0e53e90385","5f60e3c0a3b16e07647b2ff9","5f6104f83bb6c603668cc556","false","null","<div style=""align-items: center; display: flex; color: darkorange; font-size: 90px""><b>ø</b></div>","null","","","","forget_cue","","","","","","","","","","","","","","","",""
"html-keyboard-response","97","2404509","0.0-3.0-4.0","3snv0z4cx984lbm","break","5f454173b7fe9e0e53e90385","5f60e3c0a3b16e07647b2ff9","5f6104f83bb6c603668cc556","false","1551","<p style='font-size: 32px;'>Break</><br><br><br><br><br><p style='font-size: 24px;'>In the last block, you committed 1 errors and did not respond in time on 0 trials.
</p><p style='font-size: 24px;'>Try to respond as fast and accurately as possible in the next block as well! </p><p style='font-size: 24px;'>Press SPACE to continue.</p>","32","","","","","","","","","","","","","","","","","","","",""
"html-keyboard-response","98","2416445","0.0-3.0-5.0","3snv0z4cx984lbm","instructions","5f454173b7fe9e0e53e90385","5f60e3c0a3b16e07647b2ff9","5f6104f83bb6c603668cc556","false","11937","<div align=left> Now, to practice, we kindly ask you to remember as many of the to-be-remembered pictures<br>of the previous learning phase as possible.<br><br>The pictures you were instructed to remember were the pictures followed by a <span style='color: dodgerblue; font-size: 28px'>O</span>.<br><br>In this memory test phase, you will also see some new pictures.<br>It is your task to remember whether you were presented with this specific picture in this study so far or not.<br>If you recognize an object (you have already seen it in this study), it is an OLD object. <br>If you do not recognize an object (you have NOT seen it in this study), it is a NEW object. <br><strong> Attention</strong>: As already mentioned, <span style='color: darkorange; font-size:28px'>Ø</span>-pictures will <strong>never</strong> appear in this memory test (neither as new objects). <br><br>Press SPACE to continue. </div>","32","","","","","","","","","","","","","","","","","","","",""
"html-keyboard-response","99","2441561","0.0-3.0-6.0","3snv0z4cx984lbm","instructions","5f454173b7fe9e0e53e90385","5f60e3c0a3b16e07647b2ff9","5f6104f83bb6c603668cc556","false","25114","<div align=left> M and N no longer will appear on the left/right of the fixation cross. <br>Instead there will be a note at the bottom of the left or right side  <br>indicating which key you should press for an old or new object:  <br> <br>Press the <strong>right</strong> key to classify an object as <strong>old</strong> and press the <strong>left</strong>, to classify an object as <strong>new</strong>.<br>Please classify the objects as new/old by again placing your index finger on the 'S' and 'L' keys <br>and press them accordingly.<br><br><strong>Old:</strong> This object has been presented before. <br><strong>New:</strong> This object has <strong>not</strong> been presented.<br><br>Now please put your right and left index fingers on the 'S' and 'L' keys of your keyboard. <br>Please respond as fast and as accurately as possible!<br><br>Press SPACE to continue. </div>","32","","","","","","","","","","","","","","","","","","","",""
"categorize-image","100","2443473","0.0-3.0-7.0-0.0","3snv0z4cx984lbm","practice_recog","5f454173b7fe9e0e53e90385","5f60e3c0a3b16e07647b2ff9","5f6104f83bb6c603668cc556","true","1411","./Stimuli/ImagesPractice/LN109.jpg","83","","","","test","true","","83","","LN","LN109.jpg","","new","33","3","practice_recog","left","","","",""
"categorize-image","101","2445028","0.0-3.0-7.0-0.1","3snv0z4cx984lbm","practice_recog","5f454173b7fe9e0e53e90385","5f60e3c0a3b16e07647b2ff9","5f6104f83bb6c603668cc556","true","1053","./Stimuli/ImagesPractice/SN205.jpg","76","","","","test","true","","76","","SN","SN205.jpg","","old","34","3","practice_recog","right","","","",""
"categorize-image","102","2446478","0.0-3.0-7.0-0.2","3snv0z4cx984lbm","practice_recog","5f454173b7fe9e0e53e90385","5f60e3c0a3b16e07647b2ff9","5f6104f83bb6c603668cc556","true","950","./Stimuli/ImagesPractice/SN220.jpg","83","","","","test","true","","83","","SN","SN220.jpg","","new","35","3","practice_recog","left","","","",""
"categorize-image","103","2447678","0.0-3.0-7.0-0.3","3snv0z4cx984lbm","practice_recog","5f454173b7fe9e0e53e90385","5f60e3c0a3b16e07647b2ff9","5f6104f83bb6c603668cc556","true","698","./Stimuli/ImagesPractice/SM62.jpg","83","","","","test","true","","83","","SM","SM62.jpg","","new","36","3","practice_recog","left","","","",""
"categorize-image","104","2448905","0.0-3.0-7.0-0.4","3snv0z4cx984lbm","practice_recog","5f454173b7fe9e0e53e90385","5f60e3c0a3b16e07647b2ff9","5f6104f83bb6c603668cc556","true","725","./Stimuli/ImagesPractice/LN15.jpg","76","","","","test","true","","76","","LN","LN15.jpg","","old","37","3","practice_recog","right","","","",""
"categorize-image","105","2450728","0.0-3.0-7.0-0.5","3snv0z4cx984lbm","practice_recog","5f454173b7fe9e0e53e90385","5f60e3c0a3b16e07647b2ff9","5f6104f83bb6c603668cc556","true","1322","./Stimuli/ImagesPractice/SN76.jpg","83","","","","test","true","","83","","SN","SN76.jpg","","new","38","3","practice_recog","left","","","",""
"categorize-image","106","2452146","0.0-3.0-7.0-0.6","3snv0z4cx984lbm","practice_recog","5f454173b7fe9e0e53e90385","5f60e3c0a3b16e07647b2ff9","5f6104f83bb6c603668cc556","true","913","./Stimuli/ImagesPractice/LM55.jpg","76","","","","test","true","","76","","LM","LM55.jpg","","old","39","3","practice_recog","right","","","",""
"categorize-image","107","2453427","0.0-3.0-7.0-0.7","3snv0z4cx984lbm","practice_recog","5f454173b7fe9e0e53e90385","5f60e3c0a3b16e07647b2ff9","5f6104f83bb6c603668cc556","true","781","./Stimuli/ImagesPractice/LN17.jpg","76","","","","test","true","","76","","LN","LN17.jpg","","old","40","3","practice_recog","right","","","",""
"categorize-image","108","2454824","0.0-3.0-7.0-0.8","3snv0z4cx984lbm","practice_recog","5f454173b7fe9e0e53e90385","5f60e3c0a3b16e07647b2ff9","5f6104f83bb6c603668cc556","true","895","./Stimuli/ImagesPractice/LM239.jpg","83","","","","test","true","","83","","LM","LM239.jpg","","new","41","3","practice_recog","left","","","",""
"categorize-image","109","2456064","0.0-3.0-7.0-0.9","3snv0z4cx984lbm","practice_recog","5f454173b7fe9e0e53e90385","5f60e3c0a3b16e07647b2ff9","5f6104f83bb6c603668cc556","true","739","./Stimuli/ImagesPractice/SM97.jpg","76","","","","test","true","","76","","SM","SM97.jpg","","old","42","3","practice_recog","right","","","",""
"categorize-image","110","2457320","0.0-3.0-7.0-0.10","3snv0z4cx984lbm","practice_recog","5f454173b7fe9e0e53e90385","5f60e3c0a3b16e07647b2ff9","5f6104f83bb6c603668cc556","true","755","./Stimuli/ImagesPractice/LM147.jpg","76","","","","test","true","","76","","LM","LM147.jpg","","old","43","3","practice_recog","right","","","",""
"categorize-image","111","2458502","0.0-3.0-7.0-0.11","3snv0z4cx984lbm","practice_recog","5f454173b7fe9e0e53e90385","5f60e3c0a3b16e07647b2ff9","5f6104f83bb6c603668cc556","true","680","./Stimuli/ImagesPractice/SN221.jpg","76","","","","test","true","","76","","SN","SN221.jpg","","old","44","3","practice_recog","right","","","",""
"categorize-image","112","2459656","0.0-3.0-7.0-0.12","3snv0z4cx984lbm","practice_recog","5f454173b7fe9e0e53e90385","5f60e3c0a3b16e07647b2ff9","5f6104f83bb6c603668cc556","true","653","./Stimuli/ImagesPractice/LM224.jpg","83","","","","test","true","","83","","LM","LM224.jpg","","new","45","3","practice_recog","left","","","",""
"categorize-image","113","2460756","0.0-3.0-7.0-0.13","3snv0z4cx984lbm","practice_recog","5f454173b7fe9e0e53e90385","5f60e3c0a3b16e07647b2ff9","5f6104f83bb6c603668cc556","true","598","./Stimuli/ImagesPractice/LN72.jpg","83","","","","test","true","","83","","LN","LN72.jpg","","new","46","3","practice_recog","left","","","",""
"categorize-image","114","2461967","0.0-3.0-7.0-0.14","3snv0z4cx984lbm","practice_recog","5f454173b7fe9e0e53e90385","5f60e3c0a3b16e07647b2ff9","5f6104f83bb6c603668cc556","true","710","./Stimuli/ImagesPractice/LM230.jpg","76","","","","test","true","","76","","LM","LM230.jpg","","old","47","3","practice_recog","right","","","",""
"categorize-image","115","2463042","0.0-3.0-7.0-0.15","3snv0z4cx984lbm","practice_recog","5f454173b7fe9e0e53e90385","5f60e3c0a3b16e07647b2ff9","5f6104f83bb6c603668cc556","true","572","./Stimuli/ImagesPractice/SN75.jpg","83","","","","test","true","","83","","SN","SN75.jpg","","new","48","3","practice_recog","left","","","",""
"html-keyboard-response","116","2470406","0.0-3.0-8.0","3snv0z4cx984lbm","instructions","5f454173b7fe9e0e53e90385","5f60e3c0a3b16e07647b2ff9","5f6104f83bb6c603668cc556","false","7363","<div align=left> Great!<br><br>Are you ready to continue?<br>If you want to reread the instructions and redo the practice trials, please <br>press „Z“.<br><br>You can proceed when you are ready.<br><br>After the presentation of each object, you will receive an instruction whether to <br>remember or to forget the object.<br>We will test your memory of the following pictures only at the very end of <br>the experiment after all learning blocks are completed. <br><br>Press SPACE to CONTINUE when you are ready. </div>","32","","","","","","","","","","","","","","","","","","","",""
"html-keyboard-response","117","2483779","0.0-4.0-0.0","3snv0z4cx984lbm","instructions","5f454173b7fe9e0e53e90385","5f60e3c0a3b16e07647b2ff9","5f6104f83bb6c603668cc556","false","13372","<div align=left> The actual experiment is about to start.<br>The practice trials are over!<br><br>Please always respond both fast and accurately!<br><br>Remember: <br> <br><li> Please place your index fingers on the <strong>'S'</strong> and <strong>'L'</strong> keys <br>to respond as fast and accurately as possible.</li><li> Every picture can be classified as either mechanical or non-mechanical.</li><li> If you do not respond in time or commit an error, you will receive a corresponding feedback.<br> Please try to respond as <strong> fast </strong> and as <strong> accurately as possible </strong>.</li><li> Remember the <span style='color: dodgerblue; font-size: 28px'>O</span> pictures. <br></li><li> Please minimize distractions and stay focused. </li><br><br>Press SPACE to START.</div>","32","","","","","","","","","","","","","","","","","","","",""
"html-keyboard-response","118","2484480","0.0-4.0-1.0-0.0","3snv0z4cx984lbm","prime","5f454173b7fe9e0e53e90385","5f60e3c0a3b16e07647b2ff9","5f6104f83bb6c603668cc556","false","null","<span style=""color: black; font-size: 48px"">N + M</span>","null","","","","resp_prompt","","","","","","","","","","","","","","","",""
"categorize-image","119","2485197","0.0-4.0-1.0-1.0","3snv0z4cx984lbm","prime","5f454173b7fe9e0e53e90385","5f60e3c0a3b16e07647b2ff9","5f6104f83bb6c603668cc556","true","715","./Stimuli/SelectedImages/LN/LN128.bmp","83","","","","test","true","N + M","83","switch","LN","LN128.bmp","remember","","49","3","prime1","left","","","",""
"html-keyboard-response","120","2487198","0.0-4.0-1.0-3.0","3snv0z4cx984lbm","prime","5f454173b7fe9e0e53e90385","5f60e3c0a3b16e07647b2ff9","5f6104f83bb6c603668cc556","false","null","<div style=""align-items: center; display: flex; color: dodgerblue; font-size: 90px""><b>o</b></div>","null","","","","forget_cue","","","","","","","","","","","","","","","",""
"html-keyboard-response","121","2487898","0.0-4.0-1.0-0.1","3snv0z4cx984lbm","prime","5f454173b7fe9e0e53e90385","5f60e3c0a3b16e07647b2ff9","5f6104f83bb6c603668cc556","false","null","<span style=""color: black; font-size: 48px"">M + N</span>","null","","","","resp_prompt","","","","","","","","","","","","","","","",""
"categorize-image","122","2489167","0.0-4.0-1.0-1.1","3snv0z4cx984lbm","prime","5f454173b7fe9e0e53e90385","5f60e3c0a3b16e07647b2ff9","5f6104f83bb6c603668cc556","true","1268","./Stimuli/SelectedImages/SN/SN187.bmp","76","","","","test","true","M + N","76","switch","SN","SN187.bmp","remember","","50","3","prime1","right","","","",""
"html-keyboard-response","123","2491167","0.0-4.0-1.0-3.1","3snv0z4cx984lbm","prime","5f454173b7fe9e0e53e90385","5f60e3c0a3b16e07647b2ff9","5f6104f83bb6c603668cc556","false","null","<div style=""align-items: center; display: flex; color: dodgerblue; font-size: 90px""><b>o</b></div>","null","","","","forget_cue","","","","","","","","","","","","","","","",""
"html-keyboard-response","124","2491868","0.0-4.0-1.0-0.2","3snv0z4cx984lbm","prime","5f454173b7fe9e0e53e90385","5f60e3c0a3b16e07647b2ff9","5f6104f83bb6c603668cc556","false","null","<span style=""color: black; font-size: 48px"">M + N</span>","null","","","","resp_prompt","","","","","","","","","","","","","","","",""
"categorize-image","125","2492714","0.0-4.0-1.0-1.2","3snv0z4cx984lbm","prime","5f454173b7fe9e0e53e90385","5f60e3c0a3b16e07647b2ff9","5f6104f83bb6c603668cc556","true","846","./Stimuli/SelectedImages/LM/LM216.bmp","83","","","","test","true","M + N","83","repetition","LM","LM216.bmp","forget","","51","3","prime1","left","","","",""
"html-keyboard-response","126","2494716","0.0-4.0-1.0-3.2","3snv0z4cx984lbm","prime","5f454173b7fe9e0e53e90385","5f60e3c0a3b16e07647b2ff9","5f6104f83bb6c603668cc556","false","null","<div style=""align-items: center; display: flex; color: darkorange; font-size: 90px""><b>ø</b></div>","null","","","","forget_cue","","","","","","","","","","","","","","","",""
"html-keyboard-response","127","2495417","0.0-4.0-1.0-0.3","3snv0z4cx984lbm","prime","5f454173b7fe9e0e53e90385","5f60e3c0a3b16e07647b2ff9","5f6104f83bb6c603668cc556","false","null","<span style=""color: black; font-size: 48px"">M + N</span>","null","","","","resp_prompt","","","","","","","","","","","","","","","",""
"categorize-image","128","2496021","0.0-4.0-1.0-1.3","3snv0z4cx984lbm","prime","5f454173b7fe9e0e53e90385","5f60e3c0a3b16e07647b2ff9","5f6104f83bb6c603668cc556","true","604","./Stimuli/SelectedImages/SN/SN93.bmp","76","","","","test","true","M + N","76","repetition","SN","SN93.bmp","forget","","52","3","prime1","right","","","",""
"html-keyboard-response","129","2498021","0.0-4.0-1.0-3.3","3snv0z4cx984lbm","prime","5f454173b7fe9e0e53e90385","5f60e3c0a3b16e07647b2ff9","5f6104f83bb6c603668cc556","false","null","<div style=""align-items: center; display: flex; color: darkorange; font-size: 90px""><b>ø</b></div>","null","","","","forget_cue","","","","","","","","","","","","","","","",""
"html-keyboard-response","130","2498723","0.0-4.0-1.0-0.4","3snv0z4cx984lbm","prime","5f454173b7fe9e0e53e90385","5f60e3c0a3b16e07647b2ff9","5f6104f83bb6c603668cc556","false","null","<span style=""color: black; font-size: 48px"">M + N</span>","null","","","","resp_prompt","","","","","","","","","","","","","","","",""
"categorize-image","131","2499581","0.0-4.0-1.0-1.4","3snv0z4cx984lbm","prime","5f454173b7fe9e0e53e90385","5f60e3c0a3b16e07647b2ff9","5f6104f83bb6c603668cc556","true","858","./Stimuli/SelectedImages/LN/LN42.bmp","76","","","","test","true","M + N","76","repetition","LN","LN42.bmp","remember","","53","3","prime1","right","","","",""
"html-keyboard-response","132","2501583","0.0-4.0-1.0-3.4","3snv0z4cx984lbm","prime","5f454173b7fe9e0e53e90385","5f60e3c0a3b16e07647b2ff9","5f6104f83bb6c603668cc556","false","null","<div style=""align-items: center; display: flex; color: dodgerblue; font-size: 90px""><b>o</b></div>","null","","","","forget_cue","","","","","","","","","","","","","","","",""
"html-keyboard-response","133","2502284","0.0-4.0-1.0-0.5","3snv0z4cx984lbm","prime","5f454173b7fe9e0e53e90385","5f60e3c0a3b16e07647b2ff9","5f6104f83bb6c603668cc556","false","null","<span style=""color: black; font-size: 48px"">N + M</span>","null","","","","resp_prompt","","","","","","","","","","","","","","","",""
"categorize-image","134","2502945","0.0-4.0-1.0-1.5","3snv0z4cx984lbm","prime","5f454173b7fe9e0e53e90385","5f60e3c0a3b16e07647b2ff9","5f6104f83bb6c603668cc556","true","659","./Stimuli/SelectedImages/LN/LN101.bmp","83","","","","test","true","N + M","83","repetition","LN","LN101.bmp","remember","","54","3","prime1","left","","","",""
"html-keyboard-response","135","2504945","0.0-4.0-1.0-3.5","3snv0z4cx984lbm","prime","5f454173b7fe9e0e53e90385","5f60e3c0a3b16e07647b2ff9","5f6104f83bb6c603668cc556","false","null","<div style=""align-items: center; display: flex; color: dodgerblue; font-size: 90px""><b>o</b></div>","null","","","","forget_cue","","","","","","","","","","","","","","","",""
"html-keyboard-response","136","2505645","0.0-4.0-1.0-0.6","3snv0z4cx984lbm","prime","5f454173b7fe9e0e53e90385","5f60e3c0a3b16e07647b2ff9","5f6104f83bb6c603668cc556","false","null","<span style=""color: black; font-size: 48px"">M + N</span>","null","","","","resp_prompt","","","","","","","","","","","","","","","",""
"categorize-image","137","2506359","0.0-4.0-1.0-1.6","3snv0z4cx984lbm","prime","5f454173b7fe9e0e53e90385","5f60e3c0a3b16e07647b2ff9","5f6104f83bb6c603668cc556","true","712","./Stimuli/SelectedImages/SN/SN155.bmp","76","","","","test","true","M + N","76","switch","SN","SN155.bmp","forget","","55","3","prime1","right","","","",""
"html-keyboard-response","138","2508360","0.0-4.0-1.0-3.6","3snv0z4cx984lbm","prime","5f454173b7fe9e0e53e90385","5f60e3c0a3b16e07647b2ff9","5f6104f83bb6c603668cc556","false","null","<div style=""align-items: center; display: flex; color: darkorange; font-size: 90px""><b>ø</b></div>","null","","","","forget_cue","","","","","","","","","","","","","","","",""
"html-keyboard-response","139","2509061","0.0-4.0-1.0-0.7","3snv0z4cx984lbm","prime","5f454173b7fe9e0e53e90385","5f60e3c0a3b16e07647b2ff9","5f6104f83bb6c603668cc556","false","null","<span style=""color: black; font-size: 48px"">N + M</span>","null","","","","resp_prompt","","","","","","","","","","","","","","","",""
"categorize-image","140","2509890","0.0-4.0-1.0-1.7","3snv0z4cx984lbm","prime","5f454173b7fe9e0e53e90385","5f60e3c0a3b16e07647b2ff9","5f6104f83bb6c603668cc556","true","828","./Stimuli/SelectedImages/LN/LN131.bmp","83","","","","test","true","N + M","83","repetition","LN","LN131.bmp","forget","","56","3","prime1","left","","","",""
"html-keyboard-response","141","2511892","0.0-4.0-1.0-3.7","3snv0z4cx984lbm","prime","5f454173b7fe9e0e53e90385","5f60e3c0a3b16e07647b2ff9","5f6104f83bb6c603668cc556","false","null","<div style=""align-items: center; display: flex; color: darkorange; font-size: 90px""><b>ø</b></div>","null","","","","forget_cue","","","","","","","","","","","","","","","",""
"html-keyboard-response","142","2512593","0.0-4.0-1.0-0.8","3snv0z4cx984lbm","prime","5f454173b7fe9e0e53e90385","5f60e3c0a3b16e07647b2ff9","5f6104f83bb6c603668cc556","false","null","<span style=""color: black; font-size: 48px"">N + M</span>","null","","","","resp_prompt","","","","","","","","","","","","","","","",""
"categorize-image","143","2513519","0.0-4.0-1.0-1.8","3snv0z4cx984lbm","prime","5f454173b7fe9e0e53e90385","5f60e3c0a3b16e07647b2ff9","5f6104f83bb6c603668cc556","true","926","./Stimuli/SelectedImages/SM/SM17.bmp","83","","","","test","false","N + M","76","switch","SM","SM17.bmp","remember","","57","3","prime1","left","","","",""
"html-keyboard-response","144","2514020","0.0-4.0-1.0-2.8-0.8","3snv0z4cx984lbm","prime","5f454173b7fe9e0e53e90385","5f60e3c0a3b16e07647b2ff9","5f6104f83bb6c603668cc556","false","null","<span style=""color: red; font-size: 48px"">Error!</span>","null","","","","feedback","","","","","","","","","","","","","","","",""
"html-keyboard-response","145","2516021","0.0-4.0-1.0-3.8","3snv0z4cx984lbm","prime","5f454173b7fe9e0e53e90385","5f60e3c0a3b16e07647b2ff9","5f6104f83bb6c603668cc556","false","null","<div style=""align-items: center; display: flex; color: dodgerblue; font-size: 90px""><b>o</b></div>","null","","","","forget_cue","","","","","","","","","","","","","","","",""
"html-keyboard-response","146","2516722","0.0-4.0-1.0-0.9","3snv0z4cx984lbm","prime","5f454173b7fe9e0e53e90385","5f60e3c0a3b16e07647b2ff9","5f6104f83bb6c603668cc556","false","null","<span style=""color: black; font-size: 48px"">N + M</span>","null","","","","resp_prompt","","","","","","","","","","","","","","","",""
"categorize-image","147","2517861","0.0-4.0-1.0-1.9","3snv0z4cx984lbm","prime","5f454173b7fe9e0e53e90385","5f60e3c0a3b16e07647b2ff9","5f6104f83bb6c603668cc556","true","1138","./Stimuli/SelectedImages/SM/SM74.bmp","76","","","","test","true","N + M","76","repetition","SM","SM74.bmp","remember","","58","3","prime1","right","","","",""
"html-keyboard-response","148","2519861","0.0-4.0-1.0-3.9","3snv0z4cx984lbm","prime","5f454173b7fe9e0e53e90385","5f60e3c0a3b16e07647b2ff9","5f6104f83bb6c603668cc556","false","null","<div style=""align-items: center; display: flex; color: dodgerblue; font-size: 90px""><b>o</b></div>","null","","","","forget_cue","","","","","","","","","","","","","","","",""
"html-keyboard-response","149","2520562","0.0-4.0-1.0-0.10","3snv0z4cx984lbm","prime","5f454173b7fe9e0e53e90385","5f60e3c0a3b16e07647b2ff9","5f6104f83bb6c603668cc556","false","null","<span style=""color: black; font-size: 48px"">M + N</span>","null","","","","resp_prompt","","","","","","","","","","","","","","","",""
"categorize-image","150","2521417","0.0-4.0-1.0-1.10","3snv0z4cx984lbm","prime","5f454173b7fe9e0e53e90385","5f60e3c0a3b16e07647b2ff9","5f6104f83bb6c603668cc556","true","855","./Stimuli/SelectedImages/LN/LN12.bmp","76","","","","test","true","M + N","76","repetition","LN","LN12.bmp","remember","","59","3","prime1","right","","","",""
"html-keyboard-response","151","2523419","0.0-4.0-1.0-3.10","3snv0z4cx984lbm","prime","5f454173b7fe9e0e53e90385","5f60e3c0a3b16e07647b2ff9","5f6104f83bb6c603668cc556","false","null","<div style=""align-items: center; display: flex; color: dodgerblue; font-size: 90px""><b>o</b></div>","null","","","","forget_cue","","","","","","","","","","","","","","","",""
"html-keyboard-response","152","2524121","0.0-4.0-1.0-0.11","3snv0z4cx984lbm","prime","5f454173b7fe9e0e53e90385","5f60e3c0a3b16e07647b2ff9","5f6104f83bb6c603668cc556","false","null","<span style=""color: black; font-size: 48px"">N + M</span>","null","","","","resp_prompt","","","","","","","","","","","","","","","",""
"categorize-image","153","2525041","0.0-4.0-1.0-1.11","3snv0z4cx984lbm","prime","5f454173b7fe9e0e53e90385","5f60e3c0a3b16e07647b2ff9","5f6104f83bb6c603668cc556","true","919","./Stimuli/SelectedImages/SN/SN18.bmp","83","","","","test","true","N + M","83","repetition","SN","SN18.bmp","remember","","60","3","prime1","left","","","",""
"html-keyboard-response","154","2527041","0.0-4.0-1.0-3.11","3snv0z4cx984lbm","prime","5f454173b7fe9e0e53e90385","5f60e3c0a3b16e07647b2ff9","5f6104f83bb6c603668cc556","false","null","<div style=""align-items: center; display: flex; color: dodgerblue; font-size: 90px""><b>o</b></div>","null","","","","forget_cue","","","","","","","","","","","","","","","",""
"html-keyboard-response","155","2527743","0.0-4.0-1.0-0.12","3snv0z4cx984lbm","prime","5f454173b7fe9e0e53e90385","5f60e3c0a3b16e07647b2ff9","5f6104f83bb6c603668cc556","false","null","<span style=""color: black; font-size: 48px"">N + M</span>","null","","","","resp_prompt","","","","","","","","","","","","","","","",""
"categorize-image","156","2528553","0.0-4.0-1.0-1.12","3snv0z4cx984lbm","prime","5f454173b7fe9e0e53e90385","5f60e3c0a3b16e07647b2ff9","5f6104f83bb6c603668cc556","true","809","./Stimuli/SelectedImages/SN/SN140.bmp","83","","","","test","true","N + M","83","switch","SN","SN140.bmp","forget","","61","3","prime1","left","","","",""
"html-keyboard-response","157","2530553","0.0-4.0-1.0-3.12","3snv0z4cx984lbm","prime","5f454173b7fe9e0e53e90385","5f60e3c0a3b16e07647b2ff9","5f6104f83bb6c603668cc556","false","null","<div style=""align-items: center; display: flex; color: darkorange; font-size: 90px""><b>ø</b></div>","null","","","","forget_cue","","","","","","","","","","","","","","","",""
"html-keyboard-response","158","2531255","0.0-4.0-1.0-0.13","3snv0z4cx984lbm","prime","5f454173b7fe9e0e53e90385","5f60e3c0a3b16e07647b2ff9","5f6104f83bb6c603668cc556","false","null","<span style=""color: black; font-size: 48px"">M + N</span>","null","","","","resp_prompt","","","","","","","","","","","","","","","",""
"categorize-image","159","2532000","0.0-4.0-1.0-1.13","3snv0z4cx984lbm","prime","5f454173b7fe9e0e53e90385","5f60e3c0a3b16e07647b2ff9","5f6104f83bb6c603668cc556","true","742","./Stimuli/SelectedImages/LN/LN92.bmp","76","","","","test","true","M + N","76","switch","LN","LN92.bmp","remember","","62","3","prime1","right","","","",""
"html-keyboard-response","160","2534001","0.0-4.0-1.0-3.13","3snv0z4cx984lbm","prime","5f454173b7fe9e0e53e90385","5f60e3c0a3b16e07647b2ff9","5f6104f83bb6c603668cc556","false","null","<div style=""align-items: center; display: flex; color: dodgerblue; font-size: 90px""><b>o</b></div>","null","","","","forget_cue","","","","","","","","","","","","","","","",""
"html-keyboard-response","161","2534701","0.0-4.0-1.0-0.14","3snv0z4cx984lbm","prime","5f454173b7fe9e0e53e90385","5f60e3c0a3b16e07647b2ff9","5f6104f83bb6c603668cc556","false","null","<span style=""color: black; font-size: 48px"">M + N</span>","null","","","","resp_prompt","","","","","","","","","","","","","","","",""
"categorize-image","162","2535525","0.0-4.0-1.0-1.14","3snv0z4cx984lbm","prime","5f454173b7fe9e0e53e90385","5f60e3c0a3b16e07647b2ff9","5f6104f83bb6c603668cc556","true","822","./Stimuli/SelectedImages/LM/LM235.bmp","83","","","","test","true","M + N","83","switch","LM","LM235.bmp","remember","","63","3","prime1","left","","","",""
"html-keyboard-response","163","2537526","0.0-4.0-1.0-3.14","3snv0z4cx984lbm","prime","5f454173b7fe9e0e53e90385","5f60e3c0a3b16e07647b2ff9","5f6104f83bb6c603668cc556","false","null","<div style=""align-items: center; display: flex; color: dodgerblue; font-size: 90px""><b>o</b></div>","null","","","","forget_cue","","","","","","","","","","","","","","","",""
"html-keyboard-response","164","2538227","0.0-4.0-1.0-0.15","3snv0z4cx984lbm","prime","5f454173b7fe9e0e53e90385","5f60e3c0a3b16e07647b2ff9","5f6104f83bb6c603668cc556","false","null","<span style=""color: black; font-size: 48px"">N + M</span>","null","","","","resp_prompt","","","","","","","","","","","","","","","",""
"categorize-image","165","2538995","0.0-4.0-1.0-1.15","3snv0z4cx984lbm","prime","5f454173b7fe9e0e53e90385","5f60e3c0a3b16e07647b2ff9","5f6104f83bb6c603668cc556","true","767","./Stimuli/SelectedImages/SN/SN128.bmp","83","","","","test","true","N + M","83","switch","SN","SN128.bmp","forget","","64","3","prime1","left","","","",""
"html-keyboard-response","166","2540997","0.0-4.0-1.0-3.15","3snv0z4cx984lbm","prime","5f454173b7fe9e0e53e90385","5f60e3c0a3b16e07647b2ff9","5f6104f83bb6c603668cc556","false","null","<div style=""align-items: center; display: flex; color: darkorange; font-size: 90px""><b>ø</b></div>","null","","","","forget_cue","","","","","","","","","","","","","","","",""
"html-keyboard-response","167","2541700","0.0-4.0-1.0-0.16","3snv0z4cx984lbm","prime","5f454173b7fe9e0e53e90385","5f60e3c0a3b16e07647b2ff9","5f6104f83bb6c603668cc556","false","null","<span style=""color: black; font-size: 48px"">M + N</span>","null","","","","resp_prompt","","","","","","","","","","","","","","","",""
"categorize-image","168","2542594","0.0-4.0-1.0-1.16","3snv0z4cx984lbm","prime","5f454173b7fe9e0e53e90385","5f60e3c0a3b16e07647b2ff9","5f6104f83bb6c603668cc556","true","894","./Stimuli/SelectedImages/SM/SM184.bmp","83","","","","test","true","M + N","83","switch","SM","SM184.bmp","remember","","65","3","prime1","left","","","",""
"html-keyboard-response","169","2544596","0.0-4.0-1.0-3.16","3snv0z4cx984lbm","prime","5f454173b7fe9e0e53e90385","5f60e3c0a3b16e07647b2ff9","5f6104f83bb6c603668cc556","false","null","<div style=""align-items: center; display: flex; color: dodgerblue; font-size: 90px""><b>o</b></div>","null","","","","forget_cue","","","","","","","","","","","","","","","",""
"html-keyboard-response","170","2545297","0.0-4.0-1.0-0.17","3snv0z4cx984lbm","prime","5f454173b7fe9e0e53e90385","5f60e3c0a3b16e07647b2ff9","5f6104f83bb6c603668cc556","false","null","<span style=""color: black; font-size: 48px"">N + M</span>","null","","","","resp_prompt","","","","","","","","","","","","","","","",""
"categorize-image","171","2546121","0.0-4.0-1.0-1.17","3snv0z4cx984lbm","prime","5f454173b7fe9e0e53e90385","5f60e3c0a3b16e07647b2ff9","5f6104f83bb6c603668cc556","true","823","./Stimuli/SelectedImages/LM/LM100.bmp","76","","","","test","true","N + M","76","repetition","LM","LM100.bmp","remember","","66","3","prime1","right","","","",""
"html-keyboard-response","172","2548122","0.0-4.0-1.0-3.17","3snv0z4cx984lbm","prime","5f454173b7fe9e0e53e90385","5f60e3c0a3b16e07647b2ff9","5f6104f83bb6c603668cc556","false","null","<div style=""align-items: center; display: flex; color: dodgerblue; font-size: 90px""><b>o</b></div>","null","","","","forget_cue","","","","","","","","","","","","","","","",""
"html-keyboard-response","173","2548824","0.0-4.0-1.0-0.18","3snv0z4cx984lbm","prime","5f454173b7fe9e0e53e90385","5f60e3c0a3b16e07647b2ff9","5f6104f83bb6c603668cc556","false","null","<span style=""color: black; font-size: 48px"">N + M</span>","null","","","","resp_prompt","","","","","","","","","","","","","","","",""
"categorize-image","174","2550298","0.0-4.0-1.0-1.18","3snv0z4cx984lbm","prime","5f454173b7fe9e0e53e90385","5f60e3c0a3b16e07647b2ff9","5f6104f83bb6c603668cc556","true","1472","./Stimuli/SelectedImages/LN/LN82.bmp","83","","","","test","true","N + M","83","switch","LN","LN82.bmp","forget","","67","3","prime1","left","","","",""
"html-keyboard-response","175","2552300","0.0-4.0-1.0-3.18","3snv0z4cx984lbm","prime","5f454173b7fe9e0e53e90385","5f60e3c0a3b16e07647b2ff9","5f6104f83bb6c603668cc556","false","null","<div style=""align-items: center; display: flex; color: darkorange; font-size: 90px""><b>ø</b></div>","null","","","","forget_cue","","","","","","","","","","","","","","","",""
"html-keyboard-response","176","2553000","0.0-4.0-1.0-0.19","3snv0z4cx984lbm","prime","5f454173b7fe9e0e53e90385","5f60e3c0a3b16e07647b2ff9","5f6104f83bb6c603668cc556","false","null","<span style=""color: black; font-size: 48px"">M + N</span>","null","","","","resp_prompt","","","","","","","","","","","","","","","",""
"categorize-image","177","2554254","0.0-4.0-1.0-1.19","3snv0z4cx984lbm","prime","5f454173b7fe9e0e53e90385","5f60e3c0a3b16e07647b2ff9","5f6104f83bb6c603668cc556","true","1253","./Stimuli/SelectedImages/SN/SN64.bmp","76","","","","test","true","M + N","76","switch","SN","SN64.bmp","forget","","68","3","prime1","right","","","",""
"html-keyboard-response","178","2556254","0.0-4.0-1.0-3.19","3snv0z4cx984lbm","prime","5f454173b7fe9e0e53e90385","5f60e3c0a3b16e07647b2ff9","5f6104f83bb6c603668cc556","false","null","<div style=""align-items: center; display: flex; color: darkorange; font-size: 90px""><b>ø</b></div>","null","","","","forget_cue","","","","","","","","","","","","","","","",""
"html-keyboard-response","179","2556954","0.0-4.0-1.0-0.20","3snv0z4cx984lbm","prime","5f454173b7fe9e0e53e90385","5f60e3c0a3b16e07647b2ff9","5f6104f83bb6c603668cc556","false","null","<span style=""color: black; font-size: 48px"">M + N</span>","null","","","","resp_prompt","","","","","","","","","","","","","","","",""
"categorize-image","180","2557786","0.0-4.0-1.0-1.20","3snv0z4cx984lbm","prime","5f454173b7fe9e0e53e90385","5f60e3c0a3b16e07647b2ff9","5f6104f83bb6c603668cc556","true","830","./Stimuli/SelectedImages/SN/SN240.bmp","76","","","","test","true","M + N","76","switch","SN","SN240.bmp","remember","","69","3","prime1","right","","","",""
"html-keyboard-response","181","2559786","0.0-4.0-1.0-3.20","3snv0z4cx984lbm","prime","5f454173b7fe9e0e53e90385","5f60e3c0a3b16e07647b2ff9","5f6104f83bb6c603668cc556","false","null","<div style=""align-items: center; display: flex; color: dodgerblue; font-size: 90px""><b>o</b></div>","null","","","","forget_cue","","","","","","","","","","","","","","","",""
"html-keyboard-response","182","2560488","0.0-4.0-1.0-0.21","3snv0z4cx984lbm","prime","5f454173b7fe9e0e53e90385","5f60e3c0a3b16e07647b2ff9","5f6104f83bb6c603668cc556","false","null","<span style=""color: black; font-size: 48px"">N + M</span>","null","","","","resp_prompt","","","","","","","","","","","","","","","",""
"categorize-image","183","2561447","0.0-4.0-1.0-1.21","3snv0z4cx984lbm","prime","5f454173b7fe9e0e53e90385","5f60e3c0a3b16e07647b2ff9","5f6104f83bb6c603668cc556","true","957","./Stimuli/SelectedImages/LM/LM209.bmp","76","","","","test","true","N + M","76","switch","LM","LM209.bmp","forget","","70","3","prime1","right","","","",""
"html-keyboard-response","184","2563447","0.0-4.0-1.0-3.21","3snv0z4cx984lbm","prime","5f454173b7fe9e0e53e90385","5f60e3c0a3b16e07647b2ff9","5f6104f83bb6c603668cc556","false","null","<div style=""align-items: center; display: flex; color: darkorange; font-size: 90px""><b>ø</b></div>","null","","","","forget_cue","","","","","","","","","","","","","","","",""
"html-keyboard-response","185","2564149","0.0-4.0-1.0-0.22","3snv0z4cx984lbm","prime","5f454173b7fe9e0e53e90385","5f60e3c0a3b16e07647b2ff9","5f6104f83bb6c603668cc556","false","null","<span style=""color: black; font-size: 48px"">M + N</span>","null","","","","resp_prompt","","","","","","","","","","","","","","","",""
"categorize-image","186","2564945","0.0-4.0-1.0-1.22","3snv0z4cx984lbm","prime","5f454173b7fe9e0e53e90385","5f60e3c0a3b16e07647b2ff9","5f6104f83bb6c603668cc556","true","797","./Stimuli/SelectedImages/SM/SM76.bmp","83","","","","test","true","M + N","83","repetition","SM","SM76.bmp","forget","","71","3","prime1","left","","","",""
"html-keyboard-response","187","2566947","0.0-4.0-1.0-3.22","3snv0z4cx984lbm","prime","5f454173b7fe9e0e53e90385","5f60e3c0a3b16e07647b2ff9","5f6104f83bb6c603668cc556","false","null","<div style=""align-items: center; display: flex; color: darkorange; font-size: 90px""><b>ø</b></div>","null","","","","forget_cue","","","","","","","","","","","","","","","",""
"html-keyboard-response","188","2567649","0.0-4.0-1.0-0.23","3snv0z4cx984lbm","prime","5f454173b7fe9e0e53e90385","5f60e3c0a3b16e07647b2ff9","5f6104f83bb6c603668cc556","false","null","<span style=""color: black; font-size: 48px"">N + M</span>","null","","","","resp_prompt","","","","","","","","","","","","","","","",""
"categorize-image","189","2568342","0.0-4.0-1.0-1.23","3snv0z4cx984lbm","prime","5f454173b7fe9e0e53e90385","5f60e3c0a3b16e07647b2ff9","5f6104f83bb6c603668cc556","true","694","./Stimuli/SelectedImages/SM/SM200.bmp","76","","","","test","true","N + M","76","repetition","SM","SM200.bmp","forget","","72","3","prime1","right","","","",""
"html-keyboard-response","190","2570344","0.0-4.0-1.0-3.23","3snv0z4cx984lbm","prime","5f454173b7fe9e0e53e90385","5f60e3c0a3b16e07647b2ff9","5f6104f83bb6c603668cc556","false","null","<div style=""align-items: center; display: flex; color: darkorange; font-size: 90px""><b>ø</b></div>","null","","","","forget_cue","","","","","","","","","","","","","","","",""
"html-keyboard-response","191","2571046","0.0-4.0-1.0-0.24","3snv0z4cx984lbm","prime","5f454173b7fe9e0e53e90385","5f60e3c0a3b16e07647b2ff9","5f6104f83bb6c603668cc556","false","null","<span style=""color: black; font-size: 48px"">N + M</span>","null","","","","resp_prompt","","","","","","","","","","","","","","","",""
"categorize-image","192","2571932","0.0-4.0-1.0-1.24","3snv0z4cx984lbm","prime","5f454173b7fe9e0e53e90385","5f60e3c0a3b16e07647b2ff9","5f6104f83bb6c603668cc556","true","885","./Stimuli/SelectedImages/SM/SM78.bmp","76","","","","test","true","N + M","76","switch","SM","SM78.bmp","forget","","73","3","prime1","right","","","",""
"html-keyboard-response","193","2573933","0.0-4.0-1.0-3.24","3snv0z4cx984lbm","prime","5f454173b7fe9e0e53e90385","5f60e3c0a3b16e07647b2ff9","5f6104f83bb6c603668cc556","false","null","<div style=""align-items: center; display: flex; color: darkorange; font-size: 90px""><b>ø</b></div>","null","","","","forget_cue","","","","","","","","","","","","","","","",""
"html-keyboard-response","194","2574634","0.0-4.0-1.0-0.25","3snv0z4cx984lbm","prime","5f454173b7fe9e0e53e90385","5f60e3c0a3b16e07647b2ff9","5f6104f83bb6c603668cc556","false","null","<span style=""color: black; font-size: 48px"">M + N</span>","null","","","","resp_prompt","","","","","","","","","","","","","","","",""
"categorize-image","195","2575331","0.0-4.0-1.0-1.25","3snv0z4cx984lbm","prime","5f454173b7fe9e0e53e90385","5f60e3c0a3b16e07647b2ff9","5f6104f83bb6c603668cc556","true","696","./Stimuli/SelectedImages/LM/LM157.bmp","83","","","","test","true","M + N","83","repetition","LM","LM157.bmp","forget","","74","3","prime1","left","","","",""
"html-keyboard-response","196","2577333","0.0-4.0-1.0-3.25","3snv0z4cx984lbm","prime","5f454173b7fe9e0e53e90385","5f60e3c0a3b16e07647b2ff9","5f6104f83bb6c603668cc556","false","null","<div style=""align-items: center; display: flex; color: darkorange; font-size: 90px""><b>ø</b></div>","null","","","","forget_cue","","","","","","","","","","","","","","","",""
"html-keyboard-response","197","2578035","0.0-4.0-1.0-0.26","3snv0z4cx984lbm","prime","5f454173b7fe9e0e53e90385","5f60e3c0a3b16e07647b2ff9","5f6104f83bb6c603668cc556","false","null","<span style=""color: black; font-size: 48px"">M + N</span>","null","","","","resp_prompt","","","","","","","","","","","","","","","",""
"categorize-image","198","2579294","0.0-4.0-1.0-1.26","3snv0z4cx984lbm","prime","5f454173b7fe9e0e53e90385","5f60e3c0a3b16e07647b2ff9","5f6104f83bb6c603668cc556","true","1259","./Stimuli/SelectedImages/LN/LN59.bmp","76","","","","test","true","M + N","76","switch","LN","LN59.bmp","forget","","75","3","prime1","right","","","",""
"html-keyboard-response","199","2581297","0.0-4.0-1.0-3.26","3snv0z4cx984lbm","prime","5f454173b7fe9e0e53e90385","5f60e3c0a3b16e07647b2ff9","5f6104f83bb6c603668cc556","false","null","<div style=""align-items: center; display: flex; color: darkorange; font-size: 90px""><b>ø</b></div>","null","","","","forget_cue","","","","","","","","","","","","","","","",""
"html-keyboard-response","200","2581999","0.0-4.0-1.0-0.27","3snv0z4cx984lbm","prime","5f454173b7fe9e0e53e90385","5f60e3c0a3b16e07647b2ff9","5f6104f83bb6c603668cc556","false","null","<span style=""color: black; font-size: 48px"">N + M</span>","null","","","","resp_prompt","","","","","","","","","","","","","","","",""
"categorize-image","201","2583056","0.0-4.0-1.0-1.27","3snv0z4cx984lbm","prime","5f454173b7fe9e0e53e90385","5f60e3c0a3b16e07647b2ff9","5f6104f83bb6c603668cc556","true","1056","./Stimuli/SelectedImages/LM/LM57.bmp","76","","","","test","true","N + M","76","repetition","LM","LM57.bmp","remember","","76","3","prime1","right","","","",""
"html-keyboard-response","202","2585057","0.0-4.0-1.0-3.27","3snv0z4cx984lbm","prime","5f454173b7fe9e0e53e90385","5f60e3c0a3b16e07647b2ff9","5f6104f83bb6c603668cc556","false","null","<div style=""align-items: center; display: flex; color: dodgerblue; font-size: 90px""><b>o</b></div>","null","","","","forget_cue","","","","","","","","","","","","","","","",""
"html-keyboard-response","203","2585759","0.0-4.0-1.0-0.28","3snv0z4cx984lbm","prime","5f454173b7fe9e0e53e90385","5f60e3c0a3b16e07647b2ff9","5f6104f83bb6c603668cc556","false","null","<span style=""color: black; font-size: 48px"">M + N</span>","null","","","","resp_prompt","","","","","","","","","","","","","","","",""
"categorize-image","204","2586618","0.0-4.0-1.0-1.28","3snv0z4cx984lbm","prime","5f454173b7fe9e0e53e90385","5f60e3c0a3b16e07647b2ff9","5f6104f83bb6c603668cc556","true","857","./Stimuli/SelectedImages/SM/SM106.bmp","83","","","","test","true","M + N","83","repetition","SM","SM106.bmp","remember","","77","3","prime1","left","","","",""
"html-keyboard-response","205","2588619","0.0-4.0-1.0-3.28","3snv0z4cx984lbm","prime","5f454173b7fe9e0e53e90385","5f60e3c0a3b16e07647b2ff9","5f6104f83bb6c603668cc556","false","null","<div style=""align-items: center; display: flex; color: dodgerblue; font-size: 90px""><b>o</b></div>","null","","","","forget_cue","","","","","","","","","","","","","","","",""
"html-keyboard-response","206","2589320","0.0-4.0-1.0-0.29","3snv0z4cx984lbm","prime","5f454173b7fe9e0e53e90385","5f60e3c0a3b16e07647b2ff9","5f6104f83bb6c603668cc556","false","null","<span style=""color: black; font-size: 48px"">M + N</span>","null","","","","resp_prompt","","","","","","","","","","","","","","","",""
"categorize-image","207","2590313","0.0-4.0-1.0-1.29","3snv0z4cx984lbm","prime","5f454173b7fe9e0e53e90385","5f60e3c0a3b16e07647b2ff9","5f6104f83bb6c603668cc556","true","991","./Stimuli/SelectedImages/SN/SN52.bmp","76","","","","test","true","M + N","76","repetition","SN","SN52.bmp","remember","","78","3","prime1","right","","","",""
"html-keyboard-response","208","2592314","0.0-4.0-1.0-3.29","3snv0z4cx984lbm","prime","5f454173b7fe9e0e53e90385","5f60e3c0a3b16e07647b2ff9","5f6104f83bb6c603668cc556","false","null","<div style=""align-items: center; display: flex; color: dodgerblue; font-size: 90px""><b>o</b></div>","null","","","","forget_cue","","","","","","","","","","","","","","","",""
"html-keyboard-response","209","2593015","0.0-4.0-1.0-0.30","3snv0z4cx984lbm","prime","5f454173b7fe9e0e53e90385","5f60e3c0a3b16e07647b2ff9","5f6104f83bb6c603668cc556","false","null","<span style=""color: black; font-size: 48px"">M + N</span>","null","","","","resp_prompt","","","","","","","","","","","","","","","",""
"categorize-image","210","2594299","0.0-4.0-1.0-1.30","3snv0z4cx984lbm","prime","5f454173b7fe9e0e53e90385","5f60e3c0a3b16e07647b2ff9","5f6104f83bb6c603668cc556","true","1282","./Stimuli/SelectedImages/LN/LN111.bmp","76","","","","test","true","M + N","76","repetition","LN","LN111.bmp","forget","","79","3","prime1","right","","","",""
"html-keyboard-response","211","2596301","0.0-4.0-1.0-3.30","3snv0z4cx984lbm","prime","5f454173b7fe9e0e53e90385","5f60e3c0a3b16e07647b2ff9","5f6104f83bb6c603668cc556","false","null","<div style=""align-items: center; display: flex; color: darkorange; font-size: 90px""><b>ø</b></div>","null","","","","forget_cue","","","","","","","","","","","","","","","",""
"html-keyboard-response","212","2597002","0.0-4.0-1.0-0.31","3snv0z4cx984lbm","prime","5f454173b7fe9e0e53e90385","5f60e3c0a3b16e07647b2ff9","5f6104f83bb6c603668cc556","false","null","<span style=""color: black; font-size: 48px"">N + M</span>","null","","","","resp_prompt","","","","","","","","","","","","","","","",""
"categorize-image","213","2597886","0.0-4.0-1.0-1.31","3snv0z4cx984lbm","prime","5f454173b7fe9e0e53e90385","5f60e3c0a3b16e07647b2ff9","5f6104f83bb6c603668cc556","true","883","./Stimuli/SelectedImages/LN/LN149.bmp","83","","","","test","true","N + M","83","repetition","LN","LN149.bmp","forget","","80","3","prime1","left","","","",""
"html-keyboard-response","214","2599886","0.0-4.0-1.0-3.31","3snv0z4cx984lbm","prime","5f454173b7fe9e0e53e90385","5f60e3c0a3b16e07647b2ff9","5f6104f83bb6c603668cc556","false","null","<div style=""align-items: center; display: flex; color: darkorange; font-size: 90px""><b>ø</b></div>","null","","","","forget_cue","","","","","","","","","","","","","","","",""
"html-keyboard-response","215","2600587","0.0-4.0-1.0-0.32","3snv0z4cx984lbm","prime","5f454173b7fe9e0e53e90385","5f60e3c0a3b16e07647b2ff9","5f6104f83bb6c603668cc556","false","null","<span style=""color: black; font-size: 48px"">N + M</span>","null","","","","resp_prompt","","","","","","","","","","","","","","","",""
"categorize-image","216","2601798","0.0-4.0-1.0-1.32","3snv0z4cx984lbm","prime","5f454173b7fe9e0e53e90385","5f60e3c0a3b16e07647b2ff9","5f6104f83bb6c603668cc556","true","1210","./Stimuli/SelectedImages/LN/LN166.bmp","83","","","","test","true","N + M","83","switch","LN","LN166.bmp","forget","","81","3","prime1","left","","","",""
"html-keyboard-response","217","2603800","0.0-4.0-1.0-3.32","3snv0z4cx984lbm","prime","5f454173b7fe9e0e53e90385","5f60e3c0a3b16e07647b2ff9","5f6104f83bb6c603668cc556","false","null","<div style=""align-items: center; display: flex; color: darkorange; font-size: 90px""><b>ø</b></div>","null","","","","forget_cue","","","","","","","","","","","","","","","",""
"html-keyboard-response","218","2604501","0.0-4.0-1.0-0.33","3snv0z4cx984lbm","prime","5f454173b7fe9e0e53e90385","5f60e3c0a3b16e07647b2ff9","5f6104f83bb6c603668cc556","false","null","<span style=""color: black; font-size: 48px"">N + M</span>","null","","","","resp_prompt","","","","","","","","","","","","","","","",""
"categorize-image","219","2605141","0.0-4.0-1.0-1.33","3snv0z4cx984lbm","prime","5f454173b7fe9e0e53e90385","5f60e3c0a3b16e07647b2ff9","5f6104f83bb6c603668cc556","true","638","./Stimuli/SelectedImages/SN/SN182.bmp","83","","","","test","true","N + M","83","switch","SN","SN182.bmp","remember","","82","3","prime1","left","","","",""
"html-keyboard-response","220","2607141","0.0-4.0-1.0-3.33","3snv0z4cx984lbm","prime","5f454173b7fe9e0e53e90385","5f60e3c0a3b16e07647b2ff9","5f6104f83bb6c603668cc556","false","null","<div style=""align-items: center; display: flex; color: dodgerblue; font-size: 90px""><b>o</b></div>","null","","","","forget_cue","","","","","","","","","","","","","","","",""
"html-keyboard-response","221","2607842","0.0-4.0-1.0-0.34","3snv0z4cx984lbm","prime","5f454173b7fe9e0e53e90385","5f60e3c0a3b16e07647b2ff9","5f6104f83bb6c603668cc556","false","null","<span style=""color: black; font-size: 48px"">M + N</span>","null","","","","resp_prompt","","","","","","","","","","","","","","","",""
"categorize-image","222","2609049","0.0-4.0-1.0-1.34","3snv0z4cx984lbm","prime","5f454173b7fe9e0e53e90385","5f60e3c0a3b16e07647b2ff9","5f6104f83bb6c603668cc556","true","1206","./Stimuli/SelectedImages/LN/LN150.bmp","76","","","","test","true","M + N","76","switch","LN","LN150.bmp","remember","","83","3","prime1","right","","","",""
"html-keyboard-response","223","2611050","0.0-4.0-1.0-3.34","3snv0z4cx984lbm","prime","5f454173b7fe9e0e53e90385","5f60e3c0a3b16e07647b2ff9","5f6104f83bb6c603668cc556","false","null","<div style=""align-items: center; display: flex; color: dodgerblue; font-size: 90px""><b>o</b></div>","null","","","","forget_cue","","","","","","","","","","","","","","","",""
"html-keyboard-response","224","2611752","0.0-4.0-1.0-0.35","3snv0z4cx984lbm","prime","5f454173b7fe9e0e53e90385","5f60e3c0a3b16e07647b2ff9","5f6104f83bb6c603668cc556","false","null","<span style=""color: black; font-size: 48px"">M + N</span>","null","","","","resp_prompt","","","","","","","","","","","","","","","",""
"categorize-image","225","2612701","0.0-4.0-1.0-1.35","3snv0z4cx984lbm","prime","5f454173b7fe9e0e53e90385","5f60e3c0a3b16e07647b2ff9","5f6104f83bb6c603668cc556","true","948","./Stimuli/SelectedImages/LN/LN177.bmp","76","","","","test","true","M + N","76","switch","LN","LN177.bmp","forget","","84","3","prime1","right","","","",""
"html-keyboard-response","226","2614701","0.0-4.0-1.0-3.35","3snv0z4cx984lbm","prime","5f454173b7fe9e0e53e90385","5f60e3c0a3b16e07647b2ff9","5f6104f83bb6c603668cc556","false","null","<div style=""align-items: center; display: flex; color: darkorange; font-size: 90px""><b>ø</b></div>","null","","","","forget_cue","","","","","","","","","","","","","","","",""
"html-keyboard-response","227","2615402","0.0-4.0-1.0-0.36","3snv0z4cx984lbm","prime","5f454173b7fe9e0e53e90385","5f60e3c0a3b16e07647b2ff9","5f6104f83bb6c603668cc556","false","null","<span style=""color: black; font-size: 48px"">M + N</span>","null","","","","resp_prompt","","","","","","","","","","","","","","","",""
"categorize-image","228","2616170","0.0-4.0-1.0-1.36","3snv0z4cx984lbm","prime","5f454173b7fe9e0e53e90385","5f60e3c0a3b16e07647b2ff9","5f6104f83bb6c603668cc556","true","764","./Stimuli/SelectedImages/LM/LM150.bmp","83","","","","test","true","M + N","83","repetition","LM","LM150.bmp","remember","","85","3","prime1","left","","","",""
"html-keyboard-response","229","2618170","0.0-4.0-1.0-3.36","3snv0z4cx984lbm","prime","5f454173b7fe9e0e53e90385","5f60e3c0a3b16e07647b2ff9","5f6104f83bb6c603668cc556","false","null","<div style=""align-items: center; display: flex; color: dodgerblue; font-size: 90px""><b>o</b></div>","null","","","","forget_cue","","","","","","","","","","","","","","","",""
"html-keyboard-response","230","2618871","0.0-4.0-1.0-0.37","3snv0z4cx984lbm","prime","5f454173b7fe9e0e53e90385","5f60e3c0a3b16e07647b2ff9","5f6104f83bb6c603668cc556","false","null","<span style=""color: black; font-size: 48px"">M + N</span>","null","","","","resp_prompt","","","","","","","","","","","","","","","",""
"categorize-image","231","2620332","0.0-4.0-1.0-1.37","3snv0z4cx984lbm","prime","5f454173b7fe9e0e53e90385","5f60e3c0a3b16e07647b2ff9","5f6104f83bb6c603668cc556","true","1459","./Stimuli/SelectedImages/SM/SM205.bmp","83","","","","test","true","M + N","83","switch","SM","SM205.bmp","forget","","86","3","prime1","left","","","",""
"html-keyboard-response","232","2622332","0.0-4.0-1.0-3.37","3snv0z4cx984lbm","prime","5f454173b7fe9e0e53e90385","5f60e3c0a3b16e07647b2ff9","5f6104f83bb6c603668cc556","false","null","<div style=""align-items: center; display: flex; color: darkorange; font-size: 90px""><b>ø</b></div>","null","","","","forget_cue","","","","","","","","","","","","","","","",""
"html-keyboard-response","233","2623034","0.0-4.0-1.0-0.38","3snv0z4cx984lbm","prime","5f454173b7fe9e0e53e90385","5f60e3c0a3b16e07647b2ff9","5f6104f83bb6c603668cc556","false","null","<span style=""color: black; font-size: 48px"">N + M</span>","null","","","","resp_prompt","","","","","","","","","","","","","","","",""
"categorize-image","234","2623810","0.0-4.0-1.0-1.38","3snv0z4cx984lbm","prime","5f454173b7fe9e0e53e90385","5f60e3c0a3b16e07647b2ff9","5f6104f83bb6c603668cc556","true","776","./Stimuli/SelectedImages/SM/SM213.bmp","76","","","","test","true","N + M","76","switch","SM","SM213.bmp","remember","","87","3","prime1","right","","","",""
"html-keyboard-response","235","2625811","0.0-4.0-1.0-3.38","3snv0z4cx984lbm","prime","5f454173b7fe9e0e53e90385","5f60e3c0a3b16e07647b2ff9","5f6104f83bb6c603668cc556","false","null","<div style=""align-items: center; display: flex; color: dodgerblue; font-size: 90px""><b>o</b></div>","null","","","","forget_cue","","","","","","","","","","","","","","","",""
"html-keyboard-response","236","2626513","0.0-4.0-1.0-0.39","3snv0z4cx984lbm","prime","5f454173b7fe9e0e53e90385","5f60e3c0a3b16e07647b2ff9","5f6104f83bb6c603668cc556","false","null","<span style=""color: black; font-size: 48px"">M + N</span>","null","","","","resp_prompt","","","","","","","","","","","","","","","",""
"categorize-image","237","2627317","0.0-4.0-1.0-1.39","3snv0z4cx984lbm","prime","5f454173b7fe9e0e53e90385","5f60e3c0a3b16e07647b2ff9","5f6104f83bb6c603668cc556","true","803","./Stimuli/SelectedImages/LM/LM51.bmp","83","","","","test","true","M + N","83","switch","LM","LM51.bmp","forget","","88","3","prime1","left","","","",""
"html-keyboard-response","238","2629317","0.0-4.0-1.0-3.39","3snv0z4cx984lbm","prime","5f454173b7fe9e0e53e90385","5f60e3c0a3b16e07647b2ff9","5f6104f83bb6c603668cc556","false","null","<div style=""align-items: center; display: flex; color: darkorange; font-size: 90px""><b>ø</b></div>","null","","","","forget_cue","","","","","","","","","","","","","","","",""
"html-keyboard-response","239","2630020","0.0-4.0-1.0-0.40","3snv0z4cx984lbm","prime","5f454173b7fe9e0e53e90385","5f60e3c0a3b16e07647b2ff9","5f6104f83bb6c603668cc556","false","null","<span style=""color: black; font-size: 48px"">M + N</span>","null","","","","resp_prompt","","","","","","","","","","","","","","","",""
"categorize-image","240","2630682","0.0-4.0-1.0-1.40","3snv0z4cx984lbm","prime","5f454173b7fe9e0e53e90385","5f60e3c0a3b16e07647b2ff9","5f6104f83bb6c603668cc556","true","662","./Stimuli/SelectedImages/SM/SM73.bmp","83","","","","test","true","M + N","83","repetition","SM","SM73.bmp","forget","","89","3","prime1","left","","","",""
"html-keyboard-response","241","2632684","0.0-4.0-1.0-3.40","3snv0z4cx984lbm","prime","5f454173b7fe9e0e53e90385","5f60e3c0a3b16e07647b2ff9","5f6104f83bb6c603668cc556","false","null","<div style=""align-items: center; display: flex; color: darkorange; font-size: 90px""><b>ø</b></div>","null","","","","forget_cue","","","","","","","","","","","","","","","",""
"html-keyboard-response","242","2633385","0.0-4.0-1.0-0.41","3snv0z4cx984lbm","prime","5f454173b7fe9e0e53e90385","5f60e3c0a3b16e07647b2ff9","5f6104f83bb6c603668cc556","false","null","<span style=""color: black; font-size: 48px"">N + M</span>","null","","","","resp_prompt","","","","","","","","","","","","","","","",""
"categorize-image","243","2634434","0.0-4.0-1.0-1.41","3snv0z4cx984lbm","prime","5f454173b7fe9e0e53e90385","5f60e3c0a3b16e07647b2ff9","5f6104f83bb6c603668cc556","true","1048","./Stimuli/SelectedImages/SM/SM108.bmp","76","","","","test","true","N + M","76","repetition","SM","SM108.bmp","forget","","90","3","prime1","right","","","",""
"html-keyboard-response","244","2636434","0.0-4.0-1.0-3.41","3snv0z4cx984lbm","prime","5f454173b7fe9e0e53e90385","5f60e3c0a3b16e07647b2ff9","5f6104f83bb6c603668cc556","false","null","<div style=""align-items: center; display: flex; color: darkorange; font-size: 90px""><b>ø</b></div>","null","","","","forget_cue","","","","","","","","","","","","","","","",""
"html-keyboard-response","245","2637134","0.0-4.0-1.0-0.42","3snv0z4cx984lbm","prime","5f454173b7fe9e0e53e90385","5f60e3c0a3b16e07647b2ff9","5f6104f83bb6c603668cc556","false","null","<span style=""color: black; font-size: 48px"">M + N</span>","null","","","","resp_prompt","","","","","","","","","","","","","","","",""
"categorize-image","246","2638258","0.0-4.0-1.0-1.42","3snv0z4cx984lbm","prime","5f454173b7fe9e0e53e90385","5f60e3c0a3b16e07647b2ff9","5f6104f83bb6c603668cc556","true","1123","./Stimuli/SelectedImages/SN/SN60.bmp","76","","","","test","true","M + N","76","repetition","SN","SN60.bmp","remember","","91","3","prime1","right","","","",""
"html-keyboard-response","247","2640259","0.0-4.0-1.0-3.42","3snv0z4cx984lbm","prime","5f454173b7fe9e0e53e90385","5f60e3c0a3b16e07647b2ff9","5f6104f83bb6c603668cc556","false","null","<div style=""align-items: center; display: flex; color: dodgerblue; font-size: 90px""><b>o</b></div>","null","","","","forget_cue","","","","","","","","","","","","","","","",""
"html-keyboard-response","248","2640959","0.0-4.0-1.0-0.43","3snv0z4cx984lbm","prime","5f454173b7fe9e0e53e90385","5f60e3c0a3b16e07647b2ff9","5f6104f83bb6c603668cc556","false","null","<span style=""color: black; font-size: 48px"">N + M</span>","null","","","","resp_prompt","","","","","","","","","","","","","","","",""
"categorize-image","249","2641855","0.0-4.0-1.0-1.43","3snv0z4cx984lbm","prime","5f454173b7fe9e0e53e90385","5f60e3c0a3b16e07647b2ff9","5f6104f83bb6c603668cc556","true","896","./Stimuli/SelectedImages/LM/LM103.bmp","76","","","","test","true","N + M","76","switch","LM","LM103.bmp","forget","","92","3","prime1","right","","","",""
"html-keyboard-response","250","2643856","0.0-4.0-1.0-3.43","3snv0z4cx984lbm","prime","5f454173b7fe9e0e53e90385","5f60e3c0a3b16e07647b2ff9","5f6104f83bb6c603668cc556","false","null","<div style=""align-items: center; display: flex; color: darkorange; font-size: 90px""><b>ø</b></div>","null","","","","forget_cue","","","","","","","","","","","","","","","",""
"html-keyboard-response","251","2644557","0.0-4.0-1.0-0.44","3snv0z4cx984lbm","prime","5f454173b7fe9e0e53e90385","5f60e3c0a3b16e07647b2ff9","5f6104f83bb6c603668cc556","false","null","<span style=""color: black; font-size: 48px"">N + M</span>","null","","","","resp_prompt","","","","","","","","","","","","","","","",""
"categorize-image","252","2646514","0.0-4.0-1.0-1.44","3snv0z4cx984lbm","prime","5f454173b7fe9e0e53e90385","5f60e3c0a3b16e07647b2ff9","5f6104f83bb6c603668cc556","true","1956","./Stimuli/SelectedImages/SN/SN49.bmp","83","","","","test","true","N + M","83","repetition","SN","SN49.bmp","forget","","93","3","prime1","left","","","",""
"html-keyboard-response","253","2648515","0.0-4.0-1.0-3.44","3snv0z4cx984lbm","prime","5f454173b7fe9e0e53e90385","5f60e3c0a3b16e07647b2ff9","5f6104f83bb6c603668cc556","false","null","<div style=""align-items: center; display: flex; color: darkorange; font-size: 90px""><b>ø</b></div>","null","","","","forget_cue","","","","","","","","","","","","","","","",""
"html-keyboard-response","254","2649216","0.0-4.0-1.0-0.45","3snv0z4cx984lbm","prime","5f454173b7fe9e0e53e90385","5f60e3c0a3b16e07647b2ff9","5f6104f83bb6c603668cc556","false","null","<span style=""color: black; font-size: 48px"">M + N</span>","null","","","","resp_prompt","","","","","","","","","","","","","","","",""
"categorize-image","255","2649967","0.0-4.0-1.0-1.45","3snv0z4cx984lbm","prime","5f454173b7fe9e0e53e90385","5f60e3c0a3b16e07647b2ff9","5f6104f83bb6c603668cc556","true","749","./Stimuli/SelectedImages/LN/LN13.bmp","76","","","","test","true","M + N","76","repetition","LN","LN13.bmp","forget","","94","3","prime1","right","","","",""
"html-keyboard-response","256","2651967","0.0-4.0-1.0-3.45","3snv0z4cx984lbm","prime","5f454173b7fe9e0e53e90385","5f60e3c0a3b16e07647b2ff9","5f6104f83bb6c603668cc556","false","null","<div style=""align-items: center; display: flex; color: darkorange; font-size: 90px""><b>ø</b></div>","null","","","","forget_cue","","","","","","","","","","","","","","","",""
