"trial_type","trial_index","time_elapsed","internal_node_id","subject","exp_part","prolific_PID","study_ID","session_ID","use","rt","stimulus","key_press","button_pressed","responses","question_order","trial_part","correct","resp_map","correct_resp","probe_condition","category","image","forget_condition","list","trial_num","block_num","block","response","test_part","n_span","sequence","num_spaces"
"pavlovia","0","8","0.0-0.0","3xkljm8d5at23j8","","5f5634241dd5b50165a94243","5f60e3c0a3b16e07647b2ff9","5f61dbf558002d197f936ecc","false","","","","","","","","","","","","","","","","","","","","","","",""
"html-keyboard-response","1","16771","0.0-1.0-0.0-0.0","3xkljm8d5at23j8","welcome","5f5634241dd5b50165a94243","5f60e3c0a3b16e07647b2ff9","5f61dbf558002d197f936ecc","false","16759.39500000004","<div align=left>Dear participant, <br> thank you for participating in an online study of the Cognition, Action, and Sustainability Unit of the University of Freiburg! <br> <br>The aim of this study is to examine our ability to remember previously learned information. <br>Our goal is to find out, whether our memory improves, when we only remember information that is relevant to us. <br>The experiment will take about 35 minutes to complete. <br> <br>Please, note that you can only participate in this study if you are using a device with a keyboard (PC, Laptop etc.) <br>and not if you are using a mobile device such as a tablet or smartphone.<br> <br>Press 'SPACE' to proceed to the experiment. </div>","32","","","","","","","","","","","","","","","","","","","",""
"html-keyboard-response","2","46543","0.0-1.0-0.0-1.0","3xkljm8d5at23j8","welcome","5f5634241dd5b50165a94243","5f60e3c0a3b16e07647b2ff9","5f61dbf558002d197f936ecc","false","29770.269999999982","<div align=left><strong> Time Course of this experiment: </strong> <br><br> <strong> 1.</strong>  First, please fill in some information regarding your demographic data. <br><br> <strong> 2.</strong>  Next, your task will be to classify everyday objects. <br>In addition, you will be asked to remember certain objects and recall them later. <br>Working on these tasks requires your undivided attention and concentration.<br>It is therefore essential that you eliminate any sources of distraction in your  <br>environment and ensure that you will not be disturbed. <br><br><strong> 3.</strong>  At the end of the experiment, you will be asked to answer a few additional questions. <br> <br><strong> Important:</strong> After finishing the experiment, only close the browser window <br> by clicking on the 'end the experiment'-button when you are asked to do so. <br>Closing the browser window prematurely will make the allocation of your participation credit impossible. <br><br> Press 'SPACE' to start the experiment. </div>","32","","","","","","","","","","","","","","","","","","","",""
"html-button-response","3","50075","0.0-1.0-0.0-2.0","3xkljm8d5at23j8","welcome","5f5634241dd5b50165a94243","5f60e3c0a3b16e07647b2ff9","5f61dbf558002d197f936ecc","true","3529.540000000452","<div align=left><strong> Informed consent </strong>  <br>The aim of our research is to better understand human behavior and mental processes. <br>In the following study your behavior (e.g. choices, reaction times) will be studied. <br> <br><strong> Voluntariness and Anonymity </strong> <br>Your participation in this study is  <strong> voluntary</strong>.<br>You may withdraw your consent to participate at any time without providing a reason for doing so and without fear of prejudice. <br><br>As no personal data will be collected, <strong>your data and your person cannot be connected after data collection</strong> – the data-set is anonymous. <br>Respectively, deletion of your data will not be possible after data collection has been completed, as we cannot retrace your data-set.<br>The results and anonymized data collected in this study will be published as a scientific publication. <br>This will happen in an <strong>anonymized format</strong>, so that no data can be traced back to a specific person. <br> <br>The anonymized data of this study will be made available to other researchers and/or in a data archive on the Internet as a means of transparency and to enable subsequent re-use. By doing so, this study follows the recommendations of the Deutsche Forschungsgemeinschaft (DFG, German Research Foundation) and Deutsche Gesellschaft für Psychologie (DGPS, German Psychological Society) regarding quality assurance in research.<br>If you have any questions now or after the experiment, please contact our team (experiments@cs.uni-freiburg.de).<br><br><br>I hereby declare, that I understand the above described conditions of participation and I agree to participate under these conditions. <br><br> </div>","","0","","","","","","","","","","","","","","","","","","",""
"html-keyboard-response","4","66883","0.0-1.0-0.0-3.0","3xkljm8d5at23j8","welcome","5f5634241dd5b50165a94243","5f60e3c0a3b16e07647b2ff9","5f61dbf558002d197f936ecc","false","16804.990000000544","<div align=left><strong> General information concerning the experiment </strong>  <br> <br>Please follow the instructions:<ol> <li><strong> Do not leave this tab (your browser window) during the experiment and do not reload this tab! </strong>  <br>If you do switch tabs/windows during the experiment (to check your mail or visit another website, for example), <br>the experiment will end automatically and you will <strong>not receive credit</strong> for your participation. <br>Repeated participation or resumption of the experiment is impossible.</li> <br><li>Please close all other programs for the duration of your participation. </li> <br><li>Please mute or turn off your phone and put it out of your reach. </li> <br><li>Please also take off any disturbing accessories (such as wristwatches, bracelets, etc.). </li> <br><li>If you have music playing in the background, please turn it off now. </li> <br></ol>Thank you! <br>Press 'SPACE' to continue. </div>","32","","","","","","","","","","","","","","","","","","","",""
"survey-text","5","69451","0.0-1.0-1.0-0.0","3xkljm8d5at23j8","demographics","5f5634241dd5b50165a94243","5f60e3c0a3b16e07647b2ff9","5f61dbf558002d197f936ecc","true","2557.6549999996205","","","","{""age"":""21 ""}","","","","","","","","","","","","","","","","","",""
"survey-multi-choice","6","96453","0.0-1.0-1.0-1.0","3xkljm8d5at23j8","demographics","5f5634241dd5b50165a94243","5f60e3c0a3b16e07647b2ff9","5f61dbf558002d197f936ecc","true","26998.68499999956","","","","{""gender"":""female"",""school"":""others"",""education"":""Completed university degree or equivalent""}","[0,1,2]","","","","","","","","","","","","","","","","",""
"html-keyboard-response","7","107558","0.0-1.0-2.0","3xkljm8d5at23j8","instructions","5f5634241dd5b50165a94243","5f60e3c0a3b16e07647b2ff9","5f61dbf558002d197f936ecc","false","11101.600000000879","<div align=left> The experiment is now about to start: <br> <br>In the following part, you will be presented pictures of everyday objects. <br>Your first task is to <strong>classify these objects. </strong> <br> <br> You will classify them either as mechanical or non-mechanical objects. <br> <br>Objects that include any kind of technical mechanism (for example, wheels, switches, levers, <br> electronic components) fall under the category of <strong>mechanical</strong> objects. <br>Only objects without any kind of technical mechanism should be classified as <strong>non-mechanical</strong>. <br><br>Press 'SPACE' to continue. </div>","32","","","","","","","","","","","","","","","","","","","",""
"html-keyboard-response","8","162888","0.0-2.0-0.0","3xkljm8d5at23j8","instructions","5f5634241dd5b50165a94243","5f60e3c0a3b16e07647b2ff9","5f61dbf558002d197f936ecc","false","55326.23500000045","<div align=justify>You will classify the objects using the <strong>'S'</strong> and the <strong>'L'</strong> keys on your keyboard.<br>For doing so, please place your <strong>left index finger</strong> on the <strong>'S'</strong> key and place your <strong>right index finger</strong> on the <strong>'L'</strong> key. <br><br> Each trial starts with an instruction, indicating which key ('S'/'L') you need to press to classify <br>the object as mechanical (letter M) or non-mechanical (letter N).<br>The instruction <strong>M + N</strong> indicates that, in the current trial, by pressing the left key ('S') you classify the displayed object as mechanical (M) <br> and by pressing the right key ('L') you classify the object as non-mechanical (N). <br>The instruction <strong>N + M</strong> on the other hand indicates that by pressing the left key ('S') you classify the displayed object as non-mechanical (N) <br> and by pressing the right key ('L') you classify the object as mechanical (M). <br><br>Please press the key corresponding to the correct classification as fast as possible as soon as the object is displayed and try to avoid making mistakes.<br>If you do not respond within a 2 second window, a corresponding feedback will be displayed and the next trial will start.<br> The experiment is divided into multiple blocks to give you the opportunity to take a break after each block. <br>First, you can now practice this task. <br><br>Please place your <strong>LEFT INDEX FINGER</strong> on the 'S' key and your <strong>RIGHT INDEX FINGER</strong> on the 'L' key now. <br><br>Press SPACE to continue.</div>","32","","","","","","","","","","","","","","","","","","","",""
"html-keyboard-response","9","166075","0.0-2.0-1.0","3xkljm8d5at23j8","instructions","5f5634241dd5b50165a94243","5f60e3c0a3b16e07647b2ff9","5f61dbf558002d197f936ecc","false","3185.415000000823","<div align=left> You will now have time to practice this task.<br><br>Remember: <br> <br><li>Please place your index fingers on the <strong>'S'</strong> and <strong>'L'</strong> keys <br>to respond as fast and accurately as possible.</li><li>Every picture can be classified as either mechanical or non-mechanical.</li><li>If you do not respond in time or commit an error, you will receive a corresponding feedback. </li><li> Please try to respond as <strong> fast </strong> and as <strong> accurately as possible </strong> .<br><li>To ensure optimal results, please minimize distractions and stay focused. </li><br><br>Press SPACE to continue.</div>","32","","","","","","","","","","","","","","","","","","","",""
"html-keyboard-response","10","166784","0.0-2.0-2.0-0.0","3xkljm8d5at23j8","practice_no_cue","5f5634241dd5b50165a94243","5f60e3c0a3b16e07647b2ff9","5f61dbf558002d197f936ecc","false","null","<span style=""color: black; font-size: 48px"">N + M</span>","null","","","","resp_prompt","","","","","","","","","","","","","","","",""
"categorize-image","11","169299","0.0-2.0-2.0-1.0","3xkljm8d5at23j8","practice_no_cue","5f5634241dd5b50165a94243","5f60e3c0a3b16e07647b2ff9","5f61dbf558002d197f936ecc","true","null","./Stimuli/ImagesPractice/SM35.jpg","null","","","","test","false","N + M","76","","SM","SM35.jpg","remember","old","1","1","start","too_slow","","","",""
"html-keyboard-response","12","170009","0.0-2.0-2.0-0.1","3xkljm8d5at23j8","practice_no_cue","5f5634241dd5b50165a94243","5f60e3c0a3b16e07647b2ff9","5f61dbf558002d197f936ecc","false","null","<span style=""color: black; font-size: 48px"">M + N</span>","null","","","","resp_prompt","","","","","","","","","","","","","","","",""
"categorize-image","13","170540","0.0-2.0-2.0-1.1","3xkljm8d5at23j8","practice_no_cue","5f5634241dd5b50165a94243","5f60e3c0a3b16e07647b2ff9","5f61dbf558002d197f936ecc","true","23.455000000452856","./Stimuli/ImagesPractice/SM62.jpg","83","","","","test","true","M + N","83","","SM","SM62.jpg","forget","old","2","1","start","left","","","",""
"html-keyboard-response","14","171246","0.0-2.0-2.0-0.2","3xkljm8d5at23j8","practice_no_cue","5f5634241dd5b50165a94243","5f60e3c0a3b16e07647b2ff9","5f61dbf558002d197f936ecc","false","null","<span style=""color: black; font-size: 48px"">N + M</span>","null","","","","resp_prompt","","","","","","","","","","","","","","","",""
"categorize-image","15","171842","0.0-2.0-2.0-1.2","3xkljm8d5at23j8","practice_no_cue","5f5634241dd5b50165a94243","5f60e3c0a3b16e07647b2ff9","5f61dbf558002d197f936ecc","true","92.99499999996624","./Stimuli/ImagesPractice/LN17.jpg","76","","","","test","false","N + M","83","","LN","LN17.jpg","forget","old","3","1","start","right","","","",""
"html-keyboard-response","16","172545","0.0-2.0-2.0-0.3","3xkljm8d5at23j8","practice_no_cue","5f5634241dd5b50165a94243","5f60e3c0a3b16e07647b2ff9","5f61dbf558002d197f936ecc","false","null","<span style=""color: black; font-size: 48px"">M + N</span>","null","","","","resp_prompt","","","","","","","","","","","","","","","",""
"categorize-image","17","173729","0.0-2.0-2.0-1.3","3xkljm8d5at23j8","practice_no_cue","5f5634241dd5b50165a94243","5f60e3c0a3b16e07647b2ff9","5f61dbf558002d197f936ecc","true","674.6199999997625","./Stimuli/ImagesPractice/LM239.jpg","76","","","","test","false","M + N","83","","LM","LM239.jpg","forget","old","4","1","start","right","","","",""
"html-keyboard-response","18","174446","0.0-2.0-2.0-0.4","3xkljm8d5at23j8","practice_no_cue","5f5634241dd5b50165a94243","5f60e3c0a3b16e07647b2ff9","5f61dbf558002d197f936ecc","false","null","<span style=""color: black; font-size: 48px"">N + M</span>","null","","","","resp_prompt","","","","","","","","","","","","","","","",""
"categorize-image","19","176431","0.0-2.0-2.0-1.4","3xkljm8d5at23j8","practice_no_cue","5f5634241dd5b50165a94243","5f60e3c0a3b16e07647b2ff9","5f61dbf558002d197f936ecc","true","1475.9999999996508","./Stimuli/ImagesPractice/SN76.jpg","76","","","","test","false","N + M","83","","SN","SN76.jpg","forget","old","5","1","start","right","","","",""
"html-keyboard-response","20","177135","0.0-2.0-2.0-0.5","3xkljm8d5at23j8","practice_no_cue","5f5634241dd5b50165a94243","5f60e3c0a3b16e07647b2ff9","5f61dbf558002d197f936ecc","false","null","<span style=""color: black; font-size: 48px"">N + M</span>","null","","","","resp_prompt","","","","","","","","","","","","","","","",""
"categorize-image","21","178200","0.0-2.0-2.0-1.5","3xkljm8d5at23j8","practice_no_cue","5f5634241dd5b50165a94243","5f60e3c0a3b16e07647b2ff9","5f61dbf558002d197f936ecc","true","556.434999999532","./Stimuli/ImagesPractice/SM37.jpg","83","","","","test","false","N + M","76","","SM","SM37.jpg","forget","old","6","1","start","left","","","",""
"html-keyboard-response","22","178904","0.0-2.0-2.0-0.6","3xkljm8d5at23j8","practice_no_cue","5f5634241dd5b50165a94243","5f60e3c0a3b16e07647b2ff9","5f61dbf558002d197f936ecc","false","null","<span style=""color: black; font-size: 48px"">M + N</span>","null","","","","resp_prompt","","","","","","","","","","","","","","","",""
"categorize-image","23","179875","0.0-2.0-2.0-1.6","3xkljm8d5at23j8","practice_no_cue","5f5634241dd5b50165a94243","5f60e3c0a3b16e07647b2ff9","5f61dbf558002d197f936ecc","true","460.44499999971595","./Stimuli/ImagesPractice/LN109.jpg","83","","","","test","false","M + N","76","","LN","LN109.jpg","remember","old","7","1","start","left","","","",""
"html-keyboard-response","24","180577","0.0-2.0-2.0-0.7","3xkljm8d5at23j8","practice_no_cue","5f5634241dd5b50165a94243","5f60e3c0a3b16e07647b2ff9","5f61dbf558002d197f936ecc","false","null","<span style=""color: black; font-size: 48px"">N + M</span>","null","","","","resp_prompt","","","","","","","","","","","","","","","",""
"categorize-image","25","181715","0.0-2.0-2.0-1.7","3xkljm8d5at23j8","practice_no_cue","5f5634241dd5b50165a94243","5f60e3c0a3b16e07647b2ff9","5f61dbf558002d197f936ecc","true","629.2299999995448","./Stimuli/ImagesPractice/SN222.jpg","83","","","","test","true","N + M","83","","SN","SN222.jpg","remember","old","8","1","start","left","","","",""
"html-keyboard-response","26","182420","0.0-2.0-2.0-0.8","3xkljm8d5at23j8","practice_no_cue","5f5634241dd5b50165a94243","5f60e3c0a3b16e07647b2ff9","5f61dbf558002d197f936ecc","false","null","<span style=""color: black; font-size: 48px"">M + N</span>","null","","","","resp_prompt","","","","","","","","","","","","","","","",""
"categorize-image","27","183480","0.0-2.0-2.0-1.8","3xkljm8d5at23j8","practice_no_cue","5f5634241dd5b50165a94243","5f60e3c0a3b16e07647b2ff9","5f61dbf558002d197f936ecc","true","552.9949999999953","./Stimuli/ImagesPractice/SN220.jpg","76","","","","test","true","M + N","76","","SN","SN220.jpg","forget","old","9","1","start","right","","","",""
"html-keyboard-response","28","184184","0.0-2.0-2.0-0.9","3xkljm8d5at23j8","practice_no_cue","5f5634241dd5b50165a94243","5f60e3c0a3b16e07647b2ff9","5f61dbf558002d197f936ecc","false","null","<span style=""color: black; font-size: 48px"">M + N</span>","null","","","","resp_prompt","","","","","","","","","","","","","","","",""
"categorize-image","29","185292","0.0-2.0-2.0-1.9","3xkljm8d5at23j8","practice_no_cue","5f5634241dd5b50165a94243","5f60e3c0a3b16e07647b2ff9","5f61dbf558002d197f936ecc","true","601.2249999994237","./Stimuli/ImagesPractice/LN15.jpg","76","","","","test","true","M + N","76","","LN","LN15.jpg","remember","old","10","1","start","right","","","",""
"html-keyboard-response","30","185999","0.0-2.0-2.0-0.10","3xkljm8d5at23j8","practice_no_cue","5f5634241dd5b50165a94243","5f60e3c0a3b16e07647b2ff9","5f61dbf558002d197f936ecc","false","null","<span style=""color: black; font-size: 48px"">N + M</span>","null","","","","resp_prompt","","","","","","","","","","","","","","","",""
"categorize-image","31","187278","0.0-2.0-2.0-1.10","3xkljm8d5at23j8","practice_no_cue","5f5634241dd5b50165a94243","5f60e3c0a3b16e07647b2ff9","5f61dbf558002d197f936ecc","true","769.1249999997963","./Stimuli/ImagesPractice/LM147.jpg","76","","","","test","true","N + M","76","","LM","LM147.jpg","forget","old","11","1","start","right","","","",""
"html-keyboard-response","32","187989","0.0-2.0-2.0-0.11","3xkljm8d5at23j8","practice_no_cue","5f5634241dd5b50165a94243","5f60e3c0a3b16e07647b2ff9","5f61dbf558002d197f936ecc","false","null","<span style=""color: black; font-size: 48px"">M + N</span>","null","","","","resp_prompt","","","","","","","","","","","","","","","",""
"categorize-image","33","189208","0.0-2.0-2.0-1.11","3xkljm8d5at23j8","practice_no_cue","5f5634241dd5b50165a94243","5f60e3c0a3b16e07647b2ff9","5f61dbf558002d197f936ecc","true","709.8050000004005","./Stimuli/ImagesPractice/LN4.jpg","76","","","","test","true","M + N","76","","LN","LN4.jpg","remember","old","12","1","start","right","","","",""
"html-keyboard-response","34","189913","0.0-2.0-2.0-0.12","3xkljm8d5at23j8","practice_no_cue","5f5634241dd5b50165a94243","5f60e3c0a3b16e07647b2ff9","5f61dbf558002d197f936ecc","false","null","<span style=""color: black; font-size: 48px"">N + M</span>","null","","","","resp_prompt","","","","","","","","","","","","","","","",""
"categorize-image","35","191196","0.0-2.0-2.0-1.12","3xkljm8d5at23j8","practice_no_cue","5f5634241dd5b50165a94243","5f60e3c0a3b16e07647b2ff9","5f61dbf558002d197f936ecc","true","778.2799999995332","./Stimuli/ImagesPractice/LN72.jpg","76","","","","test","false","N + M","83","","LN","LN72.jpg","remember","old","13","1","start","right","","","",""
"html-keyboard-response","36","191902","0.0-2.0-2.0-0.13","3xkljm8d5at23j8","practice_no_cue","5f5634241dd5b50165a94243","5f60e3c0a3b16e07647b2ff9","5f61dbf558002d197f936ecc","false","null","<span style=""color: black; font-size: 48px"">M + N</span>","null","","","","resp_prompt","","","","","","","","","","","","","","","",""
"categorize-image","37","192933","0.0-2.0-2.0-1.13","3xkljm8d5at23j8","practice_no_cue","5f5634241dd5b50165a94243","5f60e3c0a3b16e07647b2ff9","5f61dbf558002d197f936ecc","true","518.5850000007194","./Stimuli/ImagesPractice/SM61.jpg","76","","","","test","false","M + N","83","","SM","SM61.jpg","forget","old","14","1","start","right","","","",""
"html-keyboard-response","38","193636","0.0-2.0-2.0-0.14","3xkljm8d5at23j8","practice_no_cue","5f5634241dd5b50165a94243","5f60e3c0a3b16e07647b2ff9","5f61dbf558002d197f936ecc","false","null","<span style=""color: black; font-size: 48px"">N + M</span>","null","","","","resp_prompt","","","","","","","","","","","","","","","",""
"categorize-image","39","194984","0.0-2.0-2.0-1.14","3xkljm8d5at23j8","practice_no_cue","5f5634241dd5b50165a94243","5f60e3c0a3b16e07647b2ff9","5f61dbf558002d197f936ecc","true","844.8550000003015","./Stimuli/ImagesPractice/LN2.jpg","83","","","","test","true","N + M","83","","LN","LN2.jpg","remember","old","15","1","start","left","","","",""
"html-keyboard-response","40","195693","0.0-2.0-2.0-0.15","3xkljm8d5at23j8","practice_no_cue","5f5634241dd5b50165a94243","5f60e3c0a3b16e07647b2ff9","5f61dbf558002d197f936ecc","false","null","<span style=""color: black; font-size: 48px"">M + N</span>","null","","","","resp_prompt","","","","","","","","","","","","","","","",""
"categorize-image","41","197036","0.0-2.0-2.0-1.15","3xkljm8d5at23j8","practice_no_cue","5f5634241dd5b50165a94243","5f60e3c0a3b16e07647b2ff9","5f61dbf558002d197f936ecc","true","835.8950000001641","./Stimuli/ImagesPractice/SN75.jpg","83","","","","test","false","M + N","76","","SN","SN75.jpg","remember","old","16","1","start","left","","","",""
"html-keyboard-response","42","206454","0.0-2.0-3.0","3xkljm8d5at23j8","break","5f5634241dd5b50165a94243","5f60e3c0a3b16e07647b2ff9","5f61dbf558002d197f936ecc","false","9411.51999999967","<p style='font-size: 32px;'>Break</><br><br><br><br><br><p style='font-size: 24px;'>In the last block, you committed 8 errors and did not respond in time on 1 trials.
</p><p style='font-size: 24px;'>Try to respond as fast and accurately as possible in the next block as well! </p><p style='font-size: 24px;'>Press SPACE to continue.</p>","32","","","","","","","","","","","","","","","","","","","",""
"html-keyboard-response","43","209973","0.0-2.0-4.0","3xkljm8d5at23j8","instructions","5f5634241dd5b50165a94243","5f60e3c0a3b16e07647b2ff9","5f61dbf558002d197f936ecc","false","3513.09999999922","<div align=left> Great!<br><br>Are you ready to continue?<br><br>If you want to reread the instructions and redo the practice trials, <br>please press „Z“. <br><br>Press SPACE to CONTINUE with the experiment when you are ready. </div>","32","","","","","","","","","","","","","","","","","","","",""
"html-keyboard-response","44","220397","0.0-3.0-0.0","3xkljm8d5at23j8","instructions","5f5634241dd5b50165a94243","5f60e3c0a3b16e07647b2ff9","5f61dbf558002d197f936ecc","false","10420.255000000005","<div align=left>Great!<br> <strong>Attention</strong>! You will now receive a second, additional task! <br><br>To this point it was you <strong>first task</strong> to correctly <strong>classify objects</strong>. <br><br>As mentioned in the beginning, we aim to examine how well humans can remember previously learned information.<br>We would like to find out whether our memory improves if we only remember information that is relevant to us. <br><br>Therefore, your <strong>second task</strong> will be to <strong>remember</strong> the pictures you are to categorize. <br> After the learning phase, there will be a memory test phase, in which you will be asked to indicate whether you have seen a picture before or not. <br>Some, but not all pictures shown in the learning phase will appear in the memory test phase.<br>After classifying a picture, you will be told whether you should remember it for the memory test phase or not. <br>Thus, some pictures can be forgotten, whereas others have to be remembered. <br><br>Note: From now on, feedback will only be displayed if you responded incorrectly or not in time.<br><br>Press SPACE to continue.</div>","32","","","","","","","","","","","","","","","","","","","",""
"html-keyboard-response","45","240150","0.0-3.0-1.0","3xkljm8d5at23j8","instructions","5f5634241dd5b50165a94243","5f60e3c0a3b16e07647b2ff9","5f61dbf558002d197f936ecc","false","19747.91999999981","<div align=left>In the following part, you will thus have to remember only some pictures. <br>Immediately after seeing and classifying the picture, a symbol will be displayed, indicating whether you should remember or forget the previous picture. <br><br>A <span style='color: dodgerblue; font-size: 28px'>O</span> indicates REMEMBER. That means, you have to remember this picture, because it will be tested later. <br><br>A <span style='color: darkorange; font-size:28px'>Ø</span> indicates FORGET. You do not have to remember this picture. <br><br> As you will have to remember a lot of pictures, it will be hard for you to remember all of them. <br>It will put you at an advantage if you instantly forget the pictures you are not asked to remember. <br> This will make it easier for you to remember the pictures that will be tested afterwards. <br><br>Press SPACE to continue.</div>","32","","","","","","","","","","","","","","","","","","","",""
"html-keyboard-response","46","246506","0.0-3.0-2.0","3xkljm8d5at23j8","instructions","5f5634241dd5b50165a94243","5f60e3c0a3b16e07647b2ff9","5f61dbf558002d197f936ecc","false","6352.514999999577","<div align=left> Now you have the chance to practice both tasks together.<br><br>Remember: <br> <br><li>Please place your index fingers on the <strong>'S'</strong> and <strong>'L'</strong> keys <br>to respond as fast and accurately as possible.</li><li>Every picture can be classified as either mechanical or non-mechanical.</li><li>If you do not respond in time or commit an error, you will receive a corresponding feedback. <br>Please try to respond as <strong> fast </strong> and as <strong> accurately as possible </strong>.</li><li> Please remember only the to-be-remembered <span style='color: dodgerblue; font-size: 28px'>O</span> pictures. <br></li><li> Please minimize distractions and stay focused. </li><br><br>Press SPACE to START</div>","32","","","","","","","","","","","","","","","","","","","",""
"html-keyboard-response","47","247215","0.0-3.0-3.0-0.0","3xkljm8d5at23j8","practice_cue","5f5634241dd5b50165a94243","5f60e3c0a3b16e07647b2ff9","5f61dbf558002d197f936ecc","false","null","<span style=""color: black; font-size: 48px"">N + M</span>","null","","","","resp_prompt","","","","","","","","","","","","","","","",""
"categorize-image","48","248019","0.0-3.0-3.0-1.0","3xkljm8d5at23j8","practice_cue","5f5634241dd5b50165a94243","5f60e3c0a3b16e07647b2ff9","5f61dbf558002d197f936ecc","true","784.0999999998603","./Stimuli/ImagesPractice/SN76.jpg","83","","","","test","true","N + M","83","","SN","SN76.jpg","forget","old","17","2","practice_forget","left","","","",""
"html-keyboard-response","49","250029","0.0-3.0-3.0-3.0","3xkljm8d5at23j8","practice_cue","5f5634241dd5b50165a94243","5f60e3c0a3b16e07647b2ff9","5f61dbf558002d197f936ecc","false","null","<div style=""align-items: center; display: flex; color: darkorange; font-size: 90px""><b>ø</b></div>","null","","","","forget_cue","","","","","","","","","","","","","","","",""
"html-keyboard-response","50","250739","0.0-3.0-3.0-0.1","3xkljm8d5at23j8","practice_cue","5f5634241dd5b50165a94243","5f60e3c0a3b16e07647b2ff9","5f61dbf558002d197f936ecc","false","null","<span style=""color: black; font-size: 48px"">M + N</span>","null","","","","resp_prompt","","","","","","","","","","","","","","","",""
"categorize-image","51","251718","0.0-3.0-3.0-1.1","3xkljm8d5at23j8","practice_cue","5f5634241dd5b50165a94243","5f60e3c0a3b16e07647b2ff9","5f61dbf558002d197f936ecc","true","973.2400000002526","./Stimuli/ImagesPractice/LN15.jpg","76","","","","test","true","M + N","76","","LN","LN15.jpg","remember","old","18","2","practice_forget","right","","","",""
"html-keyboard-response","52","253722","0.0-3.0-3.0-3.1","3xkljm8d5at23j8","practice_cue","5f5634241dd5b50165a94243","5f60e3c0a3b16e07647b2ff9","5f61dbf558002d197f936ecc","false","null","<div style=""align-items: center; display: flex; color: dodgerblue; font-size: 90px""><b>o</b></div>","null","","","","forget_cue","","","","","","","","","","","","","","","",""
"html-keyboard-response","53","254428","0.0-3.0-3.0-0.2","3xkljm8d5at23j8","practice_cue","5f5634241dd5b50165a94243","5f60e3c0a3b16e07647b2ff9","5f61dbf558002d197f936ecc","false","null","<span style=""color: black; font-size: 48px"">M + N</span>","null","","","","resp_prompt","","","","","","","","","","","","","","","",""
"categorize-image","54","255430","0.0-3.0-3.0-1.2","3xkljm8d5at23j8","practice_cue","5f5634241dd5b50165a94243","5f60e3c0a3b16e07647b2ff9","5f61dbf558002d197f936ecc","true","993.9000000003725","./Stimuli/ImagesPractice/SM62.jpg","76","","","","test","false","M + N","83","","SM","SM62.jpg","forget","old","19","2","practice_forget","right","","","",""
"html-keyboard-response","55","255936","0.0-3.0-3.0-2.2-0.2","3xkljm8d5at23j8","practice_cue","5f5634241dd5b50165a94243","5f60e3c0a3b16e07647b2ff9","5f61dbf558002d197f936ecc","false","null","<span style=""color: red; font-size: 48px"">Error!</span>","null","","","","feedback","","","","","","","","","","","","","","","",""
"html-keyboard-response","56","257945","0.0-3.0-3.0-3.2","3xkljm8d5at23j8","practice_cue","5f5634241dd5b50165a94243","5f60e3c0a3b16e07647b2ff9","5f61dbf558002d197f936ecc","false","null","<div style=""align-items: center; display: flex; color: darkorange; font-size: 90px""><b>ø</b></div>","null","","","","forget_cue","","","","","","","","","","","","","","","",""
"html-keyboard-response","57","258649","0.0-3.0-3.0-0.3","3xkljm8d5at23j8","practice_cue","5f5634241dd5b50165a94243","5f60e3c0a3b16e07647b2ff9","5f61dbf558002d197f936ecc","false","null","<span style=""color: black; font-size: 48px"">N + M</span>","null","","","","resp_prompt","","","","","","","","","","","","","","","",""
"categorize-image","58","259859","0.0-3.0-3.0-1.3","3xkljm8d5at23j8","practice_cue","5f5634241dd5b50165a94243","5f60e3c0a3b16e07647b2ff9","5f61dbf558002d197f936ecc","true","1199.4199999999255","./Stimuli/ImagesPractice/SM35.jpg","76","","","","test","true","N + M","76","","SM","SM35.jpg","remember","old","20","2","practice_forget","right","","","",""
"html-keyboard-response","59","261867","0.0-3.0-3.0-3.3","3xkljm8d5at23j8","practice_cue","5f5634241dd5b50165a94243","5f60e3c0a3b16e07647b2ff9","5f61dbf558002d197f936ecc","false","null","<div style=""align-items: center; display: flex; color: dodgerblue; font-size: 90px""><b>o</b></div>","null","","","","forget_cue","","","","","","","","","","","","","","","",""
"html-keyboard-response","60","262576","0.0-3.0-3.0-0.4","3xkljm8d5at23j8","practice_cue","5f5634241dd5b50165a94243","5f60e3c0a3b16e07647b2ff9","5f61dbf558002d197f936ecc","false","null","<span style=""color: black; font-size: 48px"">N + M</span>","null","","","","resp_prompt","","","","","","","","","","","","","","","",""
"categorize-image","61","263642","0.0-3.0-3.0-1.4","3xkljm8d5at23j8","practice_cue","5f5634241dd5b50165a94243","5f60e3c0a3b16e07647b2ff9","5f61dbf558002d197f936ecc","true","1053.5700000000652","./Stimuli/ImagesPractice/SN222.jpg","83","","","","test","true","N + M","83","","SN","SN222.jpg","remember","old","21","2","practice_forget","left","","","",""
"html-keyboard-response","62","265652","0.0-3.0-3.0-3.4","3xkljm8d5at23j8","practice_cue","5f5634241dd5b50165a94243","5f60e3c0a3b16e07647b2ff9","5f61dbf558002d197f936ecc","false","null","<div style=""align-items: center; display: flex; color: dodgerblue; font-size: 90px""><b>o</b></div>","null","","","","forget_cue","","","","","","","","","","","","","","","",""
"html-keyboard-response","63","266361","0.0-3.0-3.0-0.5","3xkljm8d5at23j8","practice_cue","5f5634241dd5b50165a94243","5f60e3c0a3b16e07647b2ff9","5f61dbf558002d197f936ecc","false","null","<span style=""color: black; font-size: 48px"">N + M</span>","null","","","","resp_prompt","","","","","","","","","","","","","","","",""
"categorize-image","64","267356","0.0-3.0-3.0-1.5","3xkljm8d5at23j8","practice_cue","5f5634241dd5b50165a94243","5f60e3c0a3b16e07647b2ff9","5f61dbf558002d197f936ecc","true","985.969999999681","./Stimuli/ImagesPractice/LM147.jpg","76","","","","test","true","N + M","76","","LM","LM147.jpg","forget","old","22","2","practice_forget","right","","","",""
"html-keyboard-response","65","269364","0.0-3.0-3.0-3.5","3xkljm8d5at23j8","practice_cue","5f5634241dd5b50165a94243","5f60e3c0a3b16e07647b2ff9","5f61dbf558002d197f936ecc","false","null","<div style=""align-items: center; display: flex; color: darkorange; font-size: 90px""><b>ø</b></div>","null","","","","forget_cue","","","","","","","","","","","","","","","",""
"html-keyboard-response","66","270069","0.0-3.0-3.0-0.6","3xkljm8d5at23j8","practice_cue","5f5634241dd5b50165a94243","5f60e3c0a3b16e07647b2ff9","5f61dbf558002d197f936ecc","false","null","<span style=""color: black; font-size: 48px"">M + N</span>","null","","","","resp_prompt","","","","","","","","","","","","","","","",""
"categorize-image","67","271184","0.0-3.0-3.0-1.6","3xkljm8d5at23j8","practice_cue","5f5634241dd5b50165a94243","5f60e3c0a3b16e07647b2ff9","5f61dbf558002d197f936ecc","true","1100.1300000007614","./Stimuli/ImagesPractice/LN4.jpg","76","","","","test","true","M + N","76","","LN","LN4.jpg","remember","old","23","2","practice_forget","right","","","",""
"html-keyboard-response","68","273194","0.0-3.0-3.0-3.6","3xkljm8d5at23j8","practice_cue","5f5634241dd5b50165a94243","5f60e3c0a3b16e07647b2ff9","5f61dbf558002d197f936ecc","false","null","<div style=""align-items: center; display: flex; color: dodgerblue; font-size: 90px""><b>o</b></div>","null","","","","forget_cue","","","","","","","","","","","","","","","",""
"html-keyboard-response","69","273903","0.0-3.0-3.0-0.7","3xkljm8d5at23j8","practice_cue","5f5634241dd5b50165a94243","5f60e3c0a3b16e07647b2ff9","5f61dbf558002d197f936ecc","false","null","<span style=""color: black; font-size: 48px"">M + N</span>","null","","","","resp_prompt","","","","","","","","","","","","","","","",""
"categorize-image","70","275220","0.0-3.0-3.0-1.7","3xkljm8d5at23j8","practice_cue","5f5634241dd5b50165a94243","5f60e3c0a3b16e07647b2ff9","5f61dbf558002d197f936ecc","true","1301.3149999997113","./Stimuli/ImagesPractice/LN109.jpg","83","","","","test","false","M + N","76","","LN","LN109.jpg","remember","old","24","2","practice_forget","left","","","",""
"html-keyboard-response","71","275727","0.0-3.0-3.0-2.7-0.7","3xkljm8d5at23j8","practice_cue","5f5634241dd5b50165a94243","5f60e3c0a3b16e07647b2ff9","5f61dbf558002d197f936ecc","false","null","<span style=""color: red; font-size: 48px"">Error!</span>","null","","","","feedback","","","","","","","","","","","","","","","",""
"html-keyboard-response","72","277732","0.0-3.0-3.0-3.7","3xkljm8d5at23j8","practice_cue","5f5634241dd5b50165a94243","5f60e3c0a3b16e07647b2ff9","5f61dbf558002d197f936ecc","false","null","<div style=""align-items: center; display: flex; color: dodgerblue; font-size: 90px""><b>o</b></div>","null","","","","forget_cue","","","","","","","","","","","","","","","",""
"html-keyboard-response","73","278436","0.0-3.0-3.0-0.8","3xkljm8d5at23j8","practice_cue","5f5634241dd5b50165a94243","5f60e3c0a3b16e07647b2ff9","5f61dbf558002d197f936ecc","false","null","<span style=""color: black; font-size: 48px"">N + M</span>","null","","","","resp_prompt","","","","","","","","","","","","","","","",""
"categorize-image","74","279383","0.0-3.0-3.0-1.8","3xkljm8d5at23j8","practice_cue","5f5634241dd5b50165a94243","5f60e3c0a3b16e07647b2ff9","5f61dbf558002d197f936ecc","true","933.1900000006426","./Stimuli/ImagesPractice/LN72.jpg","83","","","","test","true","N + M","83","","LN","LN72.jpg","remember","old","25","2","practice_forget","left","","","",""
"html-keyboard-response","75","281392","0.0-3.0-3.0-3.8","3xkljm8d5at23j8","practice_cue","5f5634241dd5b50165a94243","5f60e3c0a3b16e07647b2ff9","5f61dbf558002d197f936ecc","false","null","<div style=""align-items: center; display: flex; color: dodgerblue; font-size: 90px""><b>o</b></div>","null","","","","forget_cue","","","","","","","","","","","","","","","",""
"html-keyboard-response","76","282103","0.0-3.0-3.0-0.9","3xkljm8d5at23j8","practice_cue","5f5634241dd5b50165a94243","5f60e3c0a3b16e07647b2ff9","5f61dbf558002d197f936ecc","false","null","<span style=""color: black; font-size: 48px"">N + M</span>","null","","","","resp_prompt","","","","","","","","","","","","","","","",""
"categorize-image","77","282931","0.0-3.0-3.0-1.9","3xkljm8d5at23j8","practice_cue","5f5634241dd5b50165a94243","5f60e3c0a3b16e07647b2ff9","5f61dbf558002d197f936ecc","true","824.2099999997299","./Stimuli/ImagesPractice/LN2.jpg","83","","","","test","true","N + M","83","","LN","LN2.jpg","remember","old","26","2","practice_forget","left","","","",""
"html-keyboard-response","78","284942","0.0-3.0-3.0-3.9","3xkljm8d5at23j8","practice_cue","5f5634241dd5b50165a94243","5f60e3c0a3b16e07647b2ff9","5f61dbf558002d197f936ecc","false","null","<div style=""align-items: center; display: flex; color: dodgerblue; font-size: 90px""><b>o</b></div>","null","","","","forget_cue","","","","","","","","","","","","","","","",""
"html-keyboard-response","79","285650","0.0-3.0-3.0-0.10","3xkljm8d5at23j8","practice_cue","5f5634241dd5b50165a94243","5f60e3c0a3b16e07647b2ff9","5f61dbf558002d197f936ecc","false","null","<span style=""color: black; font-size: 48px"">M + N</span>","null","","","","resp_prompt","","","","","","","","","","","","","","","",""
"categorize-image","80","286497","0.0-3.0-3.0-1.10","3xkljm8d5at23j8","practice_cue","5f5634241dd5b50165a94243","5f60e3c0a3b16e07647b2ff9","5f61dbf558002d197f936ecc","true","841.9999999996508","./Stimuli/ImagesPractice/LM239.jpg","76","","","","test","false","M + N","83","","LM","LM239.jpg","forget","old","27","2","practice_forget","right","","","",""
"html-keyboard-response","81","287001","0.0-3.0-3.0-2.10-0.10","3xkljm8d5at23j8","practice_cue","5f5634241dd5b50165a94243","5f60e3c0a3b16e07647b2ff9","5f61dbf558002d197f936ecc","false","null","<span style=""color: red; font-size: 48px"">Error!</span>","null","","","","feedback","","","","","","","","","","","","","","","",""
"html-keyboard-response","82","289010","0.0-3.0-3.0-3.10","3xkljm8d5at23j8","practice_cue","5f5634241dd5b50165a94243","5f60e3c0a3b16e07647b2ff9","5f61dbf558002d197f936ecc","false","null","<div style=""align-items: center; display: flex; color: darkorange; font-size: 90px""><b>ø</b></div>","null","","","","forget_cue","","","","","","","","","","","","","","","",""
"html-keyboard-response","83","289719","0.0-3.0-3.0-0.11","3xkljm8d5at23j8","practice_cue","5f5634241dd5b50165a94243","5f60e3c0a3b16e07647b2ff9","5f61dbf558002d197f936ecc","false","null","<span style=""color: black; font-size: 48px"">M + N</span>","null","","","","resp_prompt","","","","","","","","","","","","","","","",""
"categorize-image","84","290630","0.0-3.0-3.0-1.11","3xkljm8d5at23j8","practice_cue","5f5634241dd5b50165a94243","5f60e3c0a3b16e07647b2ff9","5f61dbf558002d197f936ecc","true","903.159999999858","./Stimuli/ImagesPractice/SN75.jpg","76","","","","test","true","M + N","76","","SN","SN75.jpg","remember","old","28","2","practice_forget","right","","","",""
"html-keyboard-response","85","292636","0.0-3.0-3.0-3.11","3xkljm8d5at23j8","practice_cue","5f5634241dd5b50165a94243","5f60e3c0a3b16e07647b2ff9","5f61dbf558002d197f936ecc","false","null","<div style=""align-items: center; display: flex; color: dodgerblue; font-size: 90px""><b>o</b></div>","null","","","","forget_cue","","","","","","","","","","","","","","","",""
"html-keyboard-response","86","293346","0.0-3.0-3.0-0.12","3xkljm8d5at23j8","practice_cue","5f5634241dd5b50165a94243","5f60e3c0a3b16e07647b2ff9","5f61dbf558002d197f936ecc","false","null","<span style=""color: black; font-size: 48px"">M + N</span>","null","","","","resp_prompt","","","","","","","","","","","","","","","",""
"categorize-image","87","294156","0.0-3.0-3.0-1.12","3xkljm8d5at23j8","practice_cue","5f5634241dd5b50165a94243","5f60e3c0a3b16e07647b2ff9","5f61dbf558002d197f936ecc","true","795.215000000142","./Stimuli/ImagesPractice/SM61.jpg","83","","","","test","true","M + N","83","","SM","SM61.jpg","forget","old","29","2","practice_forget","left","","","",""
"html-keyboard-response","88","296159","0.0-3.0-3.0-3.12","3xkljm8d5at23j8","practice_cue","5f5634241dd5b50165a94243","5f60e3c0a3b16e07647b2ff9","5f61dbf558002d197f936ecc","false","null","<div style=""align-items: center; display: flex; color: darkorange; font-size: 90px""><b>ø</b></div>","null","","","","forget_cue","","","","","","","","","","","","","","","",""
"html-keyboard-response","89","296861","0.0-3.0-3.0-0.13","3xkljm8d5at23j8","practice_cue","5f5634241dd5b50165a94243","5f60e3c0a3b16e07647b2ff9","5f61dbf558002d197f936ecc","false","null","<span style=""color: black; font-size: 48px"">N + M</span>","null","","","","resp_prompt","","","","","","","","","","","","","","","",""
"categorize-image","90","298002","0.0-3.0-3.0-1.13","3xkljm8d5at23j8","practice_cue","5f5634241dd5b50165a94243","5f60e3c0a3b16e07647b2ff9","5f61dbf558002d197f936ecc","true","1132.4600000007194","./Stimuli/ImagesPractice/LN17.jpg","83","","","","test","true","N + M","83","","LN","LN17.jpg","forget","old","30","2","practice_forget","left","","","",""
"html-keyboard-response","91","300010","0.0-3.0-3.0-3.13","3xkljm8d5at23j8","practice_cue","5f5634241dd5b50165a94243","5f60e3c0a3b16e07647b2ff9","5f61dbf558002d197f936ecc","false","null","<div style=""align-items: center; display: flex; color: darkorange; font-size: 90px""><b>ø</b></div>","null","","","","forget_cue","","","","","","","","","","","","","","","",""
"html-keyboard-response","92","300719","0.0-3.0-3.0-0.14","3xkljm8d5at23j8","practice_cue","5f5634241dd5b50165a94243","5f60e3c0a3b16e07647b2ff9","5f61dbf558002d197f936ecc","false","null","<span style=""color: black; font-size: 48px"">N + M</span>","null","","","","resp_prompt","","","","","","","","","","","","","","","",""
"categorize-image","93","302202","0.0-3.0-3.0-1.14","3xkljm8d5at23j8","practice_cue","5f5634241dd5b50165a94243","5f60e3c0a3b16e07647b2ff9","5f61dbf558002d197f936ecc","true","1472.1799999997602","./Stimuli/ImagesPractice/SM37.jpg","76","","","","test","true","N + M","76","","SM","SM37.jpg","forget","old","31","2","practice_forget","right","","","",""
"html-keyboard-response","94","304216","0.0-3.0-3.0-3.14","3xkljm8d5at23j8","practice_cue","5f5634241dd5b50165a94243","5f60e3c0a3b16e07647b2ff9","5f61dbf558002d197f936ecc","false","null","<div style=""align-items: center; display: flex; color: darkorange; font-size: 90px""><b>ø</b></div>","null","","","","forget_cue","","","","","","","","","","","","","","","",""
"html-keyboard-response","95","304922","0.0-3.0-3.0-0.15","3xkljm8d5at23j8","practice_cue","5f5634241dd5b50165a94243","5f60e3c0a3b16e07647b2ff9","5f61dbf558002d197f936ecc","false","null","<span style=""color: black; font-size: 48px"">M + N</span>","null","","","","resp_prompt","","","","","","","","","","","","","","","",""
"categorize-image","96","305643","0.0-3.0-3.0-1.15","3xkljm8d5at23j8","practice_cue","5f5634241dd5b50165a94243","5f60e3c0a3b16e07647b2ff9","5f61dbf558002d197f936ecc","true","709.8949999999604","./Stimuli/ImagesPractice/SN220.jpg","76","","","","test","true","M + N","76","","SN","SN220.jpg","forget","old","32","2","practice_forget","right","","","",""
"html-keyboard-response","97","307654","0.0-3.0-3.0-3.15","3xkljm8d5at23j8","practice_cue","5f5634241dd5b50165a94243","5f60e3c0a3b16e07647b2ff9","5f61dbf558002d197f936ecc","false","null","<div style=""align-items: center; display: flex; color: darkorange; font-size: 90px""><b>ø</b></div>","null","","","","forget_cue","","","","","","","","","","","","","","","",""
"html-keyboard-response","98","310997","0.0-3.0-4.0","3xkljm8d5at23j8","break","5f5634241dd5b50165a94243","5f60e3c0a3b16e07647b2ff9","5f61dbf558002d197f936ecc","false","3339.0799999997253","<p style='font-size: 32px;'>Break</><br><br><br><br><br><p style='font-size: 24px;'>In the last block, you committed 3 errors and did not respond in time on 0 trials.
</p><p style='font-size: 24px;'>Try to respond as fast and accurately as possible in the next block as well! </p><p style='font-size: 24px;'>Press SPACE to continue.</p>","32","","","","","","","","","","","","","","","","","","","",""
"html-keyboard-response","99","323917","0.0-3.0-5.0","3xkljm8d5at23j8","instructions","5f5634241dd5b50165a94243","5f60e3c0a3b16e07647b2ff9","5f61dbf558002d197f936ecc","false","12917.57500000036","<div align=left> Now, to practice, we kindly ask you to remember as many of the to-be-remembered pictures<br>of the previous learning phase as possible.<br><br>The pictures you were instructed to remember were the pictures followed by a <span style='color: dodgerblue; font-size: 28px'>O</span>.<br><br>In this memory test phase, you will also see some new pictures.<br>It is your task to remember whether you were presented with this specific picture in this study so far or not.<br>If you recognize an object (you have already seen it in this study), it is an OLD object. <br>If you do not recognize an object (you have NOT seen it in this study), it is a NEW object. <br><strong> Attention</strong>: As already mentioned, <span style='color: darkorange; font-size:28px'>Ø</span>-pictures will <strong>never</strong> appear in this memory test (neither as new objects). <br><br>Press SPACE to continue. </div>","32","","","","","","","","","","","","","","","","","","","",""
"html-keyboard-response","100","348346","0.0-3.0-6.0","3xkljm8d5at23j8","instructions","5f5634241dd5b50165a94243","5f60e3c0a3b16e07647b2ff9","5f61dbf558002d197f936ecc","false","24424.39000000013","<div align=left> M and N no longer will appear on the left/right of the fixation cross. <br>Instead there will be a note at the bottom of the left or right side  <br>indicating which key you should press for an old or new object:  <br> <br>Press the <strong>right</strong> key to classify an object as <strong>old</strong> and press the <strong>left</strong>, to classify an object as <strong>new</strong>.<br>Please classify the objects as new/old by again placing your index finger on the 'S' and 'L' keys <br>and press them accordingly.<br><br><strong>Old:</strong> This object has been presented before. <br><strong>New:</strong> This object has <strong>not</strong> been presented.<br><br>Now please put your right and left index fingers on the 'S' and 'L' keys of your keyboard. <br>Please respond as fast and as accurately as possible!<br><br>Press SPACE to continue. </div>","32","","","","","","","","","","","","","","","","","","","",""
"categorize-image","101","350342","0.0-3.0-7.0-0.0","3xkljm8d5at23j8","practice_recog","5f5634241dd5b50165a94243","5f60e3c0a3b16e07647b2ff9","5f61dbf558002d197f936ecc","true","1484.9599999997881","./Stimuli/ImagesPractice/LN2.jpg","83","","","","test","true","","83","","LN","LN2.jpg","","old","33","3","practice_recog","left","","","",""
"categorize-image","102","351651","0.0-3.0-7.0-0.1","3xkljm8d5at23j8","practice_recog","5f5634241dd5b50165a94243","5f60e3c0a3b16e07647b2ff9","5f61dbf558002d197f936ecc","true","800.3950000001932","./Stimuli/ImagesPractice/LN109.jpg","83","","","","test","true","","83","","LN","LN109.jpg","","old","34","3","practice_recog","left","","","",""
"categorize-image","103","352808","0.0-3.0-7.0-0.2","3xkljm8d5at23j8","practice_recog","5f5634241dd5b50165a94243","5f60e3c0a3b16e07647b2ff9","5f61dbf558002d197f936ecc","true","651.6799999999348","./Stimuli/ImagesPractice/SM35.jpg","83","","","","test","true","","83","","SM","SM35.jpg","","old","35","3","practice_recog","left","","","",""
"categorize-image","104","353974","0.0-3.0-7.0-0.3","3xkljm8d5at23j8","practice_recog","5f5634241dd5b50165a94243","5f60e3c0a3b16e07647b2ff9","5f61dbf558002d197f936ecc","true","659.964999999851","./Stimuli/ImagesPractice/LN4.jpg","83","","","","test","true","","83","","LN","LN4.jpg","","old","36","3","practice_recog","left","","","",""
"categorize-image","105","355153","0.0-3.0-7.0-0.4","3xkljm8d5at23j8","practice_recog","5f5634241dd5b50165a94243","5f60e3c0a3b16e07647b2ff9","5f61dbf558002d197f936ecc","true","672.1550000002026","./Stimuli/ImagesPractice/LM224.jpg","76","","","","test","true","","76","","LM","LM224.jpg","","new","37","3","practice_recog","right","","","",""
"categorize-image","106","356422","0.0-3.0-7.0-0.5","3xkljm8d5at23j8","practice_recog","5f5634241dd5b50165a94243","5f60e3c0a3b16e07647b2ff9","5f61dbf558002d197f936ecc","true","758.0999999999767","./Stimuli/ImagesPractice/LM55.jpg","76","","","","test","true","","76","","LM","LM55.jpg","","new","38","3","practice_recog","right","","","",""
"categorize-image","107","357467","0.0-3.0-7.0-0.6","3xkljm8d5at23j8","practice_recog","5f5634241dd5b50165a94243","5f60e3c0a3b16e07647b2ff9","5f61dbf558002d197f936ecc","true","535.4150000002701","./Stimuli/ImagesPractice/SN205.jpg","76","","","","test","true","","76","","SN","SN205.jpg","","new","39","3","practice_recog","right","","","",""
"categorize-image","108","358536","0.0-3.0-7.0-0.7","3xkljm8d5at23j8","practice_recog","5f5634241dd5b50165a94243","5f60e3c0a3b16e07647b2ff9","5f61dbf558002d197f936ecc","true","552.3450000000885","./Stimuli/ImagesPractice/SN222.jpg","83","","","","test","true","","83","","SN","SN222.jpg","","old","40","3","practice_recog","left","","","",""
"categorize-image","109","359622","0.0-3.0-7.0-0.8","3xkljm8d5at23j8","practice_recog","5f5634241dd5b50165a94243","5f60e3c0a3b16e07647b2ff9","5f61dbf558002d197f936ecc","true","578.6199999992969","./Stimuli/ImagesPractice/SN75.jpg","83","","","","test","true","","83","","SN","SN75.jpg","","old","41","3","practice_recog","left","","","",""
"categorize-image","110","360804","0.0-3.0-7.0-0.9","3xkljm8d5at23j8","practice_recog","5f5634241dd5b50165a94243","5f60e3c0a3b16e07647b2ff9","5f61dbf558002d197f936ecc","true","677.9999999998836","./Stimuli/ImagesPractice/LM230.jpg","76","","","","test","true","","76","","LM","LM230.jpg","","new","42","3","practice_recog","right","","","",""
"categorize-image","111","361910","0.0-3.0-7.0-0.10","3xkljm8d5at23j8","practice_recog","5f5634241dd5b50165a94243","5f60e3c0a3b16e07647b2ff9","5f61dbf558002d197f936ecc","true","594.6700000003912","./Stimuli/ImagesPractice/SM98.jpg","76","","","","test","true","","76","","SM","SM98.jpg","","new","43","3","practice_recog","right","","","",""
"categorize-image","112","362993","0.0-3.0-7.0-0.11","3xkljm8d5at23j8","practice_recog","5f5634241dd5b50165a94243","5f60e3c0a3b16e07647b2ff9","5f61dbf558002d197f936ecc","true","578.1149999993504","./Stimuli/ImagesPractice/SN221.jpg","76","","","","test","true","","76","","SN","SN221.jpg","","new","44","3","practice_recog","right","","","",""
"categorize-image","113","364047","0.0-3.0-7.0-0.12","3xkljm8d5at23j8","practice_recog","5f5634241dd5b50165a94243","5f60e3c0a3b16e07647b2ff9","5f61dbf558002d197f936ecc","true","543.8949999997858","./Stimuli/ImagesPractice/LN15.jpg","83","","","","test","true","","83","","LN","LN15.jpg","","old","45","3","practice_recog","left","","","",""
"categorize-image","114","365109","0.0-3.0-7.0-0.13","3xkljm8d5at23j8","practice_recog","5f5634241dd5b50165a94243","5f60e3c0a3b16e07647b2ff9","5f61dbf558002d197f936ecc","true","549.5750000000116","./Stimuli/ImagesPractice/LM143.jpg","76","","","","test","true","","76","","LM","LM143.jpg","","new","46","3","practice_recog","right","","","",""
"categorize-image","115","366357","0.0-3.0-7.0-0.14","3xkljm8d5at23j8","practice_recog","5f5634241dd5b50165a94243","5f60e3c0a3b16e07647b2ff9","5f61dbf558002d197f936ecc","true","739.1649999999208","./Stimuli/ImagesPractice/LN72.jpg","83","","","","test","true","","83","","LN","LN72.jpg","","old","47","3","practice_recog","left","","","",""
"categorize-image","116","367500","0.0-3.0-7.0-0.15","3xkljm8d5at23j8","practice_recog","5f5634241dd5b50165a94243","5f60e3c0a3b16e07647b2ff9","5f61dbf558002d197f936ecc","true","633.6650000003283","./Stimuli/ImagesPractice/SM97.jpg","76","","","","test","true","","76","","SM","SM97.jpg","","new","48","3","practice_recog","right","","","",""
"html-keyboard-response","117","371927","0.0-3.0-8.0","3xkljm8d5at23j8","instructions","5f5634241dd5b50165a94243","5f60e3c0a3b16e07647b2ff9","5f61dbf558002d197f936ecc","false","4425.145000000193","<div align=left> Great!<br><br>Are you ready to continue?<br>If you want to reread the instructions and redo the practice trials, please <br>press „Z“.<br><br>You can proceed when you are ready.<br><br>After the presentation of each object, you will receive an instruction whether to <br>remember or to forget the object.<br>We will test your memory of the following pictures only at the very end of <br>the experiment after all learning blocks are completed. <br><br>Press SPACE to CONTINUE when you are ready. </div>","32","","","","","","","","","","","","","","","","","","","",""
"html-keyboard-response","118","380866","0.0-4.0-0.0","3xkljm8d5at23j8","instructions","5f5634241dd5b50165a94243","5f60e3c0a3b16e07647b2ff9","5f61dbf558002d197f936ecc","false","8936.600000000035","<div align=left> The actual experiment is about to start.<br>The practice trials are over!<br><br>Please always respond both fast and accurately!<br><br>Remember: <br> <br><li> Please place your index fingers on the <strong>'S'</strong> and <strong>'L'</strong> keys <br>to respond as fast and accurately as possible.</li><li> Every picture can be classified as either mechanical or non-mechanical.</li><li> If you do not respond in time or commit an error, you will receive a corresponding feedback.<br> Please try to respond as <strong> fast </strong> and as <strong> accurately as possible </strong>.</li><li> Remember the <span style='color: dodgerblue; font-size: 28px'>O</span> pictures. <br></li><li> Please minimize distractions and stay focused. </li><br><br>Press SPACE to START.</div>","32","","","","","","","","","","","","","","","","","","","",""
"html-keyboard-response","119","381575","0.0-4.0-1.0-0.0","3xkljm8d5at23j8","prime","5f5634241dd5b50165a94243","5f60e3c0a3b16e07647b2ff9","5f61dbf558002d197f936ecc","false","null","<span style=""color: black; font-size: 48px"">M + N</span>","null","","","","resp_prompt","","","","","","","","","","","","","","","",""
"categorize-image","120","382374","0.0-4.0-1.0-1.0","3xkljm8d5at23j8","prime","5f5634241dd5b50165a94243","5f60e3c0a3b16e07647b2ff9","5f61dbf558002d197f936ecc","true","791.3349999998463","./Stimuli/SelectedImages/LN/LN82.bmp","76","","","","test","true","M + N","76","repetition","LN","LN82.bmp","remember","","49","3","prime1","right","","","",""
"html-keyboard-response","121","384390","0.0-4.0-1.0-3.0","3xkljm8d5at23j8","prime","5f5634241dd5b50165a94243","5f60e3c0a3b16e07647b2ff9","5f61dbf558002d197f936ecc","false","null","<div style=""align-items: center; display: flex; color: dodgerblue; font-size: 90px""><b>o</b></div>","null","","","","forget_cue","","","","","","","","","","","","","","","",""
"html-keyboard-response","122","385094","0.0-4.0-1.0-0.1","3xkljm8d5at23j8","prime","5f5634241dd5b50165a94243","5f60e3c0a3b16e07647b2ff9","5f61dbf558002d197f936ecc","false","null","<span style=""color: black; font-size: 48px"">M + N</span>","null","","","","resp_prompt","","","","","","","","","","","","","","","",""
"categorize-image","123","385816","0.0-4.0-1.0-1.1","3xkljm8d5at23j8","prime","5f5634241dd5b50165a94243","5f60e3c0a3b16e07647b2ff9","5f61dbf558002d197f936ecc","true","713.179999999702","./Stimuli/SelectedImages/SN/SN60.bmp","76","","","","test","true","M + N","76","repetition","SN","SN60.bmp","forget","","50","3","prime1","right","","","",""
"html-keyboard-response","124","387826","0.0-4.0-1.0-3.1","3xkljm8d5at23j8","prime","5f5634241dd5b50165a94243","5f60e3c0a3b16e07647b2ff9","5f61dbf558002d197f936ecc","false","null","<div style=""align-items: center; display: flex; color: darkorange; font-size: 90px""><b>ø</b></div>","null","","","","forget_cue","","","","","","","","","","","","","","","",""
"html-keyboard-response","125","388533","0.0-4.0-1.0-0.2","3xkljm8d5at23j8","prime","5f5634241dd5b50165a94243","5f60e3c0a3b16e07647b2ff9","5f61dbf558002d197f936ecc","false","null","<span style=""color: black; font-size: 48px"">M + N</span>","null","","","","resp_prompt","","","","","","","","","","","","","","","",""
"categorize-image","126","389521","0.0-4.0-1.0-1.2","3xkljm8d5at23j8","prime","5f5634241dd5b50165a94243","5f60e3c0a3b16e07647b2ff9","5f61dbf558002d197f936ecc","true","976.0249999999651","./Stimuli/SelectedImages/LN/LN13.bmp","76","","","","test","true","M + N","76","switch","LN","LN13.bmp","remember","","51","3","prime1","right","","","",""
"html-keyboard-response","127","391532","0.0-4.0-1.0-3.2","3xkljm8d5at23j8","prime","5f5634241dd5b50165a94243","5f60e3c0a3b16e07647b2ff9","5f61dbf558002d197f936ecc","false","null","<div style=""align-items: center; display: flex; color: dodgerblue; font-size: 90px""><b>o</b></div>","null","","","","forget_cue","","","","","","","","","","","","","","","",""
"html-keyboard-response","128","392239","0.0-4.0-1.0-0.3","3xkljm8d5at23j8","prime","5f5634241dd5b50165a94243","5f60e3c0a3b16e07647b2ff9","5f61dbf558002d197f936ecc","false","null","<span style=""color: black; font-size: 48px"">M + N</span>","null","","","","resp_prompt","","","","","","","","","","","","","","","",""
"categorize-image","129","392914","0.0-4.0-1.0-1.3","3xkljm8d5at23j8","prime","5f5634241dd5b50165a94243","5f60e3c0a3b16e07647b2ff9","5f61dbf558002d197f936ecc","true","669.1499999997322","./Stimuli/SelectedImages/SN/SN49.bmp","76","","","","test","true","M + N","76","switch","SN","SN49.bmp","forget","","52","3","prime1","right","","","",""
"html-keyboard-response","130","394925","0.0-4.0-1.0-3.3","3xkljm8d5at23j8","prime","5f5634241dd5b50165a94243","5f60e3c0a3b16e07647b2ff9","5f61dbf558002d197f936ecc","false","null","<div style=""align-items: center; display: flex; color: darkorange; font-size: 90px""><b>ø</b></div>","null","","","","forget_cue","","","","","","","","","","","","","","","",""
"html-keyboard-response","131","395627","0.0-4.0-1.0-0.4","3xkljm8d5at23j8","prime","5f5634241dd5b50165a94243","5f60e3c0a3b16e07647b2ff9","5f61dbf558002d197f936ecc","false","null","<span style=""color: black; font-size: 48px"">N + M</span>","null","","","","resp_prompt","","","","","","","","","","","","","","","",""
"categorize-image","132","396467","0.0-4.0-1.0-1.4","3xkljm8d5at23j8","prime","5f5634241dd5b50165a94243","5f60e3c0a3b16e07647b2ff9","5f61dbf558002d197f936ecc","true","831.909999999858","./Stimuli/SelectedImages/SN/SN128.bmp","83","","","","test","true","N + M","83","repetition","SN","SN128.bmp","remember","","53","3","prime1","left","","","",""
"html-keyboard-response","133","398473","0.0-4.0-1.0-3.4","3xkljm8d5at23j8","prime","5f5634241dd5b50165a94243","5f60e3c0a3b16e07647b2ff9","5f61dbf558002d197f936ecc","false","null","<div style=""align-items: center; display: flex; color: dodgerblue; font-size: 90px""><b>o</b></div>","null","","","","forget_cue","","","","","","","","","","","","","","","",""
"html-keyboard-response","134","399178","0.0-4.0-1.0-0.5","3xkljm8d5at23j8","prime","5f5634241dd5b50165a94243","5f60e3c0a3b16e07647b2ff9","5f61dbf558002d197f936ecc","false","null","<span style=""color: black; font-size: 48px"">N + M</span>","null","","","","resp_prompt","","","","","","","","","","","","","","","",""
"categorize-image","135","399940","0.0-4.0-1.0-1.5","3xkljm8d5at23j8","prime","5f5634241dd5b50165a94243","5f60e3c0a3b16e07647b2ff9","5f61dbf558002d197f936ecc","true","745.565000000177","./Stimuli/SelectedImages/SN/SN93.bmp","83","","","","test","true","N + M","83","switch","SN","SN93.bmp","forget","","54","3","prime1","left","","","",""
"html-keyboard-response","136","401949","0.0-4.0-1.0-3.5","3xkljm8d5at23j8","prime","5f5634241dd5b50165a94243","5f60e3c0a3b16e07647b2ff9","5f61dbf558002d197f936ecc","false","null","<div style=""align-items: center; display: flex; color: darkorange; font-size: 90px""><b>ø</b></div>","null","","","","forget_cue","","","","","","","","","","","","","","","",""
"html-keyboard-response","137","402652","0.0-4.0-1.0-0.6","3xkljm8d5at23j8","prime","5f5634241dd5b50165a94243","5f60e3c0a3b16e07647b2ff9","5f61dbf558002d197f936ecc","false","null","<span style=""color: black; font-size: 48px"">M + N</span>","null","","","","resp_prompt","","","","","","","","","","","","","","","",""
"categorize-image","138","403743","0.0-4.0-1.0-1.6","3xkljm8d5at23j8","prime","5f5634241dd5b50165a94243","5f60e3c0a3b16e07647b2ff9","5f61dbf558002d197f936ecc","true","1086.0449999999837","./Stimuli/SelectedImages/LM/LM179.bmp","83","","","","test","true","M + N","83","repetition","LM","LM179.bmp","remember","","55","3","prime1","left","","","",""
"html-keyboard-response","139","405746","0.0-4.0-1.0-3.6","3xkljm8d5at23j8","prime","5f5634241dd5b50165a94243","5f60e3c0a3b16e07647b2ff9","5f61dbf558002d197f936ecc","false","null","<div style=""align-items: center; display: flex; color: dodgerblue; font-size: 90px""><b>o</b></div>","null","","","","forget_cue","","","","","","","","","","","","","","","",""
"html-keyboard-response","140","406456","0.0-4.0-1.0-0.7","3xkljm8d5at23j8","prime","5f5634241dd5b50165a94243","5f60e3c0a3b16e07647b2ff9","5f61dbf558002d197f936ecc","false","null","<span style=""color: black; font-size: 48px"">M + N</span>","null","","","","resp_prompt","","","","","","","","","","","","","","","",""
"categorize-image","141","407216","0.0-4.0-1.0-1.7","3xkljm8d5at23j8","prime","5f5634241dd5b50165a94243","5f60e3c0a3b16e07647b2ff9","5f61dbf558002d197f936ecc","true","741.3699999997043","./Stimuli/SelectedImages/LN/LN150.bmp","76","","","","test","true","M + N","76","repetition","LN","LN150.bmp","remember","","56","3","prime1","right","","","",""
"html-keyboard-response","142","409221","0.0-4.0-1.0-3.7","3xkljm8d5at23j8","prime","5f5634241dd5b50165a94243","5f60e3c0a3b16e07647b2ff9","5f61dbf558002d197f936ecc","false","null","<div style=""align-items: center; display: flex; color: dodgerblue; font-size: 90px""><b>o</b></div>","null","","","","forget_cue","","","","","","","","","","","","","","","",""
"html-keyboard-response","143","409930","0.0-4.0-1.0-0.8","3xkljm8d5at23j8","prime","5f5634241dd5b50165a94243","5f60e3c0a3b16e07647b2ff9","5f61dbf558002d197f936ecc","false","null","<span style=""color: black; font-size: 48px"">N + M</span>","null","","","","resp_prompt","","","","","","","","","","","","","","","",""
"categorize-image","144","410831","0.0-4.0-1.0-1.8","3xkljm8d5at23j8","prime","5f5634241dd5b50165a94243","5f60e3c0a3b16e07647b2ff9","5f61dbf558002d197f936ecc","true","894.4499999997788","./Stimuli/SelectedImages/LM/LM58.bmp","76","","","","test","true","N + M","76","switch","LM","LM58.bmp","remember","","57","3","prime1","right","","","",""
"html-keyboard-response","145","412842","0.0-4.0-1.0-3.8","3xkljm8d5at23j8","prime","5f5634241dd5b50165a94243","5f60e3c0a3b16e07647b2ff9","5f61dbf558002d197f936ecc","false","null","<div style=""align-items: center; display: flex; color: dodgerblue; font-size: 90px""><b>o</b></div>","null","","","","forget_cue","","","","","","","","","","","","","","","",""
"html-keyboard-response","146","413547","0.0-4.0-1.0-0.9","3xkljm8d5at23j8","prime","5f5634241dd5b50165a94243","5f60e3c0a3b16e07647b2ff9","5f61dbf558002d197f936ecc","false","null","<span style=""color: black; font-size: 48px"">N + M</span>","null","","","","resp_prompt","","","","","","","","","","","","","","","",""
"categorize-image","147","414369","0.0-4.0-1.0-1.9","3xkljm8d5at23j8","prime","5f5634241dd5b50165a94243","5f60e3c0a3b16e07647b2ff9","5f61dbf558002d197f936ecc","true","808.6649999995716","./Stimuli/SelectedImages/LN/LN177.bmp","83","","","","test","true","N + M","83","switch","LN","LN177.bmp","remember","","58","3","prime1","left","","","",""
"html-keyboard-response","148","416374","0.0-4.0-1.0-3.9","3xkljm8d5at23j8","prime","5f5634241dd5b50165a94243","5f60e3c0a3b16e07647b2ff9","5f61dbf558002d197f936ecc","false","null","<div style=""align-items: center; display: flex; color: dodgerblue; font-size: 90px""><b>o</b></div>","null","","","","forget_cue","","","","","","","","","","","","","","","",""
"html-keyboard-response","149","417077","0.0-4.0-1.0-0.10","3xkljm8d5at23j8","prime","5f5634241dd5b50165a94243","5f60e3c0a3b16e07647b2ff9","5f61dbf558002d197f936ecc","false","null","<span style=""color: black; font-size: 48px"">M + N</span>","null","","","","resp_prompt","","","","","","","","","","","","","","","",""
"categorize-image","150","417943","0.0-4.0-1.0-1.10","3xkljm8d5at23j8","prime","5f5634241dd5b50165a94243","5f60e3c0a3b16e07647b2ff9","5f61dbf558002d197f936ecc","true","853.1849999999395","./Stimuli/SelectedImages/LM/LM216.bmp","83","","","","test","true","M + N","83","repetition","LM","LM216.bmp","forget","","59","3","prime1","left","","","",""
"html-keyboard-response","151","419953","0.0-4.0-1.0-3.10","3xkljm8d5at23j8","prime","5f5634241dd5b50165a94243","5f60e3c0a3b16e07647b2ff9","5f61dbf558002d197f936ecc","false","null","<div style=""align-items: center; display: flex; color: darkorange; font-size: 90px""><b>ø</b></div>","null","","","","forget_cue","","","","","","","","","","","","","","","",""
"html-keyboard-response","152","420657","0.0-4.0-1.0-0.11","3xkljm8d5at23j8","prime","5f5634241dd5b50165a94243","5f60e3c0a3b16e07647b2ff9","5f61dbf558002d197f936ecc","false","null","<span style=""color: black; font-size: 48px"">N + M</span>","null","","","","resp_prompt","","","","","","","","","","","","","","","",""
"categorize-image","153","421689","0.0-4.0-1.0-1.11","3xkljm8d5at23j8","prime","5f5634241dd5b50165a94243","5f60e3c0a3b16e07647b2ff9","5f61dbf558002d197f936ecc","true","1022.944999999716","./Stimuli/SelectedImages/LN/LN131.bmp","83","","","","test","true","N + M","83","repetition","LN","LN131.bmp","remember","","60","3","prime1","left","","","",""
"html-keyboard-response","154","423692","0.0-4.0-1.0-3.11","3xkljm8d5at23j8","prime","5f5634241dd5b50165a94243","5f60e3c0a3b16e07647b2ff9","5f61dbf558002d197f936ecc","false","null","<div style=""align-items: center; display: flex; color: dodgerblue; font-size: 90px""><b>o</b></div>","null","","","","forget_cue","","","","","","","","","","","","","","","",""
"html-keyboard-response","155","424401","0.0-4.0-1.0-0.12","3xkljm8d5at23j8","prime","5f5634241dd5b50165a94243","5f60e3c0a3b16e07647b2ff9","5f61dbf558002d197f936ecc","false","null","<span style=""color: black; font-size: 48px"">M + N</span>","null","","","","resp_prompt","","","","","","","","","","","","","","","",""
"categorize-image","156","425463","0.0-4.0-1.0-1.12","3xkljm8d5at23j8","prime","5f5634241dd5b50165a94243","5f60e3c0a3b16e07647b2ff9","5f61dbf558002d197f936ecc","true","1056.02500000078","./Stimuli/SelectedImages/SM/SM17.bmp","76","","","","test","false","M + N","83","repetition","SM","SM17.bmp","forget","","61","3","prime1","right","","","",""
"html-keyboard-response","157","425967","0.0-4.0-1.0-2.12-0.12","3xkljm8d5at23j8","prime","5f5634241dd5b50165a94243","5f60e3c0a3b16e07647b2ff9","5f61dbf558002d197f936ecc","false","null","<span style=""color: red; font-size: 48px"">Error!</span>","null","","","","feedback","","","","","","","","","","","","","","","",""
"html-keyboard-response","158","427973","0.0-4.0-1.0-3.12","3xkljm8d5at23j8","prime","5f5634241dd5b50165a94243","5f60e3c0a3b16e07647b2ff9","5f61dbf558002d197f936ecc","false","null","<div style=""align-items: center; display: flex; color: darkorange; font-size: 90px""><b>ø</b></div>","null","","","","forget_cue","","","","","","","","","","","","","","","",""
"html-keyboard-response","159","428680","0.0-4.0-1.0-0.13","3xkljm8d5at23j8","prime","5f5634241dd5b50165a94243","5f60e3c0a3b16e07647b2ff9","5f61dbf558002d197f936ecc","false","null","<span style=""color: black; font-size: 48px"">M + N</span>","null","","","","resp_prompt","","","","","","","","","","","","","","","",""
"categorize-image","160","429801","0.0-4.0-1.0-1.13","3xkljm8d5at23j8","prime","5f5634241dd5b50165a94243","5f60e3c0a3b16e07647b2ff9","5f61dbf558002d197f936ecc","true","1113.090000000724","./Stimuli/SelectedImages/LM/LM59.bmp","76","","","","test","false","M + N","83","switch","LM","LM59.bmp","forget","","62","3","prime1","right","","","",""
"html-keyboard-response","161","430303","0.0-4.0-1.0-2.13-0.13","3xkljm8d5at23j8","prime","5f5634241dd5b50165a94243","5f60e3c0a3b16e07647b2ff9","5f61dbf558002d197f936ecc","false","null","<span style=""color: red; font-size: 48px"">Error!</span>","null","","","","feedback","","","","","","","","","","","","","","","",""
"html-keyboard-response","162","432305","0.0-4.0-1.0-3.13","3xkljm8d5at23j8","prime","5f5634241dd5b50165a94243","5f60e3c0a3b16e07647b2ff9","5f61dbf558002d197f936ecc","false","null","<div style=""align-items: center; display: flex; color: darkorange; font-size: 90px""><b>ø</b></div>","null","","","","forget_cue","","","","","","","","","","","","","","","",""
"html-keyboard-response","163","433013","0.0-4.0-1.0-0.14","3xkljm8d5at23j8","prime","5f5634241dd5b50165a94243","5f60e3c0a3b16e07647b2ff9","5f61dbf558002d197f936ecc","false","null","<span style=""color: black; font-size: 48px"">M + N</span>","null","","","","resp_prompt","","","","","","","","","","","","","","","",""
"categorize-image","164","433907","0.0-4.0-1.0-1.14","3xkljm8d5at23j8","prime","5f5634241dd5b50165a94243","5f60e3c0a3b16e07647b2ff9","5f61dbf558002d197f936ecc","true","887.829999999667","./Stimuli/SelectedImages/SN/SN155.bmp","76","","","","test","true","M + N","76","switch","SN","SN155.bmp","remember","","63","3","prime1","right","","","",""
"html-keyboard-response","165","435908","0.0-4.0-1.0-3.14","3xkljm8d5at23j8","prime","5f5634241dd5b50165a94243","5f60e3c0a3b16e07647b2ff9","5f61dbf558002d197f936ecc","false","null","<div style=""align-items: center; display: flex; color: dodgerblue; font-size: 90px""><b>o</b></div>","null","","","","forget_cue","","","","","","","","","","","","","","","",""
"html-keyboard-response","166","436615","0.0-4.0-1.0-0.15","3xkljm8d5at23j8","prime","5f5634241dd5b50165a94243","5f60e3c0a3b16e07647b2ff9","5f61dbf558002d197f936ecc","false","null","<span style=""color: black; font-size: 48px"">M + N</span>","null","","","","resp_prompt","","","","","","","","","","","","","","","",""
"categorize-image","167","437624","0.0-4.0-1.0-1.15","3xkljm8d5at23j8","prime","5f5634241dd5b50165a94243","5f60e3c0a3b16e07647b2ff9","5f61dbf558002d197f936ecc","true","999.2399999991758","./Stimuli/SelectedImages/SM/SM24.bmp","83","","","","test","true","M + N","83","switch","SM","SM24.bmp","forget","","64","3","prime1","left","","","",""
"html-keyboard-response","168","439628","0.0-4.0-1.0-3.15","3xkljm8d5at23j8","prime","5f5634241dd5b50165a94243","5f60e3c0a3b16e07647b2ff9","5f61dbf558002d197f936ecc","false","null","<div style=""align-items: center; display: flex; color: darkorange; font-size: 90px""><b>ø</b></div>","null","","","","forget_cue","","","","","","","","","","","","","","","",""
"html-keyboard-response","169","440334","0.0-4.0-1.0-0.16","3xkljm8d5at23j8","prime","5f5634241dd5b50165a94243","5f60e3c0a3b16e07647b2ff9","5f61dbf558002d197f936ecc","false","null","<span style=""color: black; font-size: 48px"">M + N</span>","null","","","","resp_prompt","","","","","","","","","","","","","","","",""
"categorize-image","170","440988","0.0-4.0-1.0-1.16","3xkljm8d5at23j8","prime","5f5634241dd5b50165a94243","5f60e3c0a3b16e07647b2ff9","5f61dbf558002d197f936ecc","true","643.08999999956","./Stimuli/SelectedImages/LN/LN28.bmp","76","","","","test","true","M + N","76","switch","LN","LN28.bmp","forget","","65","3","prime1","right","","","",""
"html-keyboard-response","171","442992","0.0-4.0-1.0-3.16","3xkljm8d5at23j8","prime","5f5634241dd5b50165a94243","5f60e3c0a3b16e07647b2ff9","5f61dbf558002d197f936ecc","false","null","<div style=""align-items: center; display: flex; color: darkorange; font-size: 90px""><b>ø</b></div>","null","","","","forget_cue","","","","","","","","","","","","","","","",""
"html-keyboard-response","172","443700","0.0-4.0-1.0-0.17","3xkljm8d5at23j8","prime","5f5634241dd5b50165a94243","5f60e3c0a3b16e07647b2ff9","5f61dbf558002d197f936ecc","false","null","<span style=""color: black; font-size: 48px"">M + N</span>","null","","","","resp_prompt","","","","","","","","","","","","","","","",""
"categorize-image","173","444597","0.0-4.0-1.0-1.17","3xkljm8d5at23j8","prime","5f5634241dd5b50165a94243","5f60e3c0a3b16e07647b2ff9","5f61dbf558002d197f936ecc","true","889.2349999996368","./Stimuli/SelectedImages/LM/LM157.bmp","76","","","","test","false","M + N","83","repetition","LM","LM157.bmp","remember","","66","3","prime1","right","","","",""
"html-keyboard-response","174","445104","0.0-4.0-1.0-2.17-0.17","3xkljm8d5at23j8","prime","5f5634241dd5b50165a94243","5f60e3c0a3b16e07647b2ff9","5f61dbf558002d197f936ecc","false","null","<span style=""color: red; font-size: 48px"">Error!</span>","null","","","","feedback","","","","","","","","","","","","","","","",""
"html-keyboard-response","175","447112","0.0-4.0-1.0-3.17","3xkljm8d5at23j8","prime","5f5634241dd5b50165a94243","5f60e3c0a3b16e07647b2ff9","5f61dbf558002d197f936ecc","false","null","<div style=""align-items: center; display: flex; color: dodgerblue; font-size: 90px""><b>o</b></div>","null","","","","forget_cue","","","","","","","","","","","","","","","",""
"html-keyboard-response","176","447825","0.0-4.0-1.0-0.18","3xkljm8d5at23j8","prime","5f5634241dd5b50165a94243","5f60e3c0a3b16e07647b2ff9","5f61dbf558002d197f936ecc","false","null","<span style=""color: black; font-size: 48px"">N + M</span>","null","","","","resp_prompt","","","","","","","","","","","","","","","",""
"categorize-image","177","448597","0.0-4.0-1.0-1.18","3xkljm8d5at23j8","prime","5f5634241dd5b50165a94243","5f60e3c0a3b16e07647b2ff9","5f61dbf558002d197f936ecc","true","760.87999999983","./Stimuli/SelectedImages/LN/LN149.bmp","83","","","","test","true","N + M","83","repetition","LN","LN149.bmp","remember","","67","3","prime1","left","","","",""
"html-keyboard-response","178","450603","0.0-4.0-1.0-3.18","3xkljm8d5at23j8","prime","5f5634241dd5b50165a94243","5f60e3c0a3b16e07647b2ff9","5f61dbf558002d197f936ecc","false","null","<div style=""align-items: center; display: flex; color: dodgerblue; font-size: 90px""><b>o</b></div>","null","","","","forget_cue","","","","","","","","","","","","","","","",""
"html-keyboard-response","179","451311","0.0-4.0-1.0-0.19","3xkljm8d5at23j8","prime","5f5634241dd5b50165a94243","5f60e3c0a3b16e07647b2ff9","5f61dbf558002d197f936ecc","false","null","<span style=""color: black; font-size: 48px"">N + M</span>","null","","","","resp_prompt","","","","","","","","","","","","","","","",""
"categorize-image","180","452053","0.0-4.0-1.0-1.19","3xkljm8d5at23j8","prime","5f5634241dd5b50165a94243","5f60e3c0a3b16e07647b2ff9","5f61dbf558002d197f936ecc","true","732.2000000004191","./Stimuli/SelectedImages/LN/LN42.bmp","83","","","","test","true","N + M","83","repetition","LN","LN42.bmp","forget","","68","3","prime1","left","","","",""
"html-keyboard-response","181","454063","0.0-4.0-1.0-3.19","3xkljm8d5at23j8","prime","5f5634241dd5b50165a94243","5f60e3c0a3b16e07647b2ff9","5f61dbf558002d197f936ecc","false","null","<div style=""align-items: center; display: flex; color: darkorange; font-size: 90px""><b>ø</b></div>","null","","","","forget_cue","","","","","","","","","","","","","","","",""
"html-keyboard-response","182","454766","0.0-4.0-1.0-0.20","3xkljm8d5at23j8","prime","5f5634241dd5b50165a94243","5f60e3c0a3b16e07647b2ff9","5f61dbf558002d197f936ecc","false","null","<span style=""color: black; font-size: 48px"">M + N</span>","null","","","","resp_prompt","","","","","","","","","","","","","","","",""
"categorize-image","183","455855","0.0-4.0-1.0-1.20","3xkljm8d5at23j8","prime","5f5634241dd5b50165a94243","5f60e3c0a3b16e07647b2ff9","5f61dbf558002d197f936ecc","true","1078.8950000005425","./Stimuli/SelectedImages/LM/LM129.bmp","83","","","","test","true","M + N","83","repetition","LM","LM129.bmp","forget","","69","3","prime1","left","","","",""
"html-keyboard-response","184","457863","0.0-4.0-1.0-3.20","3xkljm8d5at23j8","prime","5f5634241dd5b50165a94243","5f60e3c0a3b16e07647b2ff9","5f61dbf558002d197f936ecc","false","null","<div style=""align-items: center; display: flex; color: darkorange; font-size: 90px""><b>ø</b></div>","null","","","","forget_cue","","","","","","","","","","","","","","","",""
"html-keyboard-response","185","458571","0.0-4.0-1.0-0.21","3xkljm8d5at23j8","prime","5f5634241dd5b50165a94243","5f60e3c0a3b16e07647b2ff9","5f61dbf558002d197f936ecc","false","null","<span style=""color: black; font-size: 48px"">N + M</span>","null","","","","resp_prompt","","","","","","","","","","","","","","","",""
"categorize-image","186","459698","0.0-4.0-1.0-1.21","3xkljm8d5at23j8","prime","5f5634241dd5b50165a94243","5f60e3c0a3b16e07647b2ff9","5f61dbf558002d197f936ecc","true","1120.0600000001723","./Stimuli/SelectedImages/LM/LM57.bmp","76","","","","test","true","N + M","76","switch","LM","LM57.bmp","forget","","70","3","prime1","right","","","",""
"html-keyboard-response","187","461703","0.0-4.0-1.0-3.21","3xkljm8d5at23j8","prime","5f5634241dd5b50165a94243","5f60e3c0a3b16e07647b2ff9","5f61dbf558002d197f936ecc","false","null","<div style=""align-items: center; display: flex; color: darkorange; font-size: 90px""><b>ø</b></div>","null","","","","forget_cue","","","","","","","","","","","","","","","",""
"html-keyboard-response","188","462405","0.0-4.0-1.0-0.22","3xkljm8d5at23j8","prime","5f5634241dd5b50165a94243","5f60e3c0a3b16e07647b2ff9","5f61dbf558002d197f936ecc","false","null","<span style=""color: black; font-size: 48px"">M + N</span>","null","","","","resp_prompt","","","","","","","","","","","","","","","",""
"categorize-image","189","463186","0.0-4.0-1.0-1.22","3xkljm8d5at23j8","prime","5f5634241dd5b50165a94243","5f60e3c0a3b16e07647b2ff9","5f61dbf558002d197f936ecc","true","766.9449999993667","./Stimuli/SelectedImages/LN/LN92.bmp","76","","","","test","true","M + N","76","repetition","LN","LN92.bmp","forget","","71","3","prime1","right","","","",""
"html-keyboard-response","190","465190","0.0-4.0-1.0-3.22","3xkljm8d5at23j8","prime","5f5634241dd5b50165a94243","5f60e3c0a3b16e07647b2ff9","5f61dbf558002d197f936ecc","false","null","<div style=""align-items: center; display: flex; color: darkorange; font-size: 90px""><b>ø</b></div>","null","","","","forget_cue","","","","","","","","","","","","","","","",""
"html-keyboard-response","191","465894","0.0-4.0-1.0-0.23","3xkljm8d5at23j8","prime","5f5634241dd5b50165a94243","5f60e3c0a3b16e07647b2ff9","5f61dbf558002d197f936ecc","false","null","<span style=""color: black; font-size: 48px"">M + N</span>","null","","","","resp_prompt","","","","","","","","","","","","","","","",""
"categorize-image","192","466588","0.0-4.0-1.0-1.23","3xkljm8d5at23j8","prime","5f5634241dd5b50165a94243","5f60e3c0a3b16e07647b2ff9","5f61dbf558002d197f936ecc","true","683.6200000006938","./Stimuli/SelectedImages/SN/SN182.bmp","76","","","","test","true","M + N","76","repetition","SN","SN182.bmp","remember","","72","3","prime1","right","","","",""
"html-keyboard-response","193","468595","0.0-4.0-1.0-3.23","3xkljm8d5at23j8","prime","5f5634241dd5b50165a94243","5f60e3c0a3b16e07647b2ff9","5f61dbf558002d197f936ecc","false","null","<div style=""align-items: center; display: flex; color: dodgerblue; font-size: 90px""><b>o</b></div>","null","","","","forget_cue","","","","","","","","","","","","","","","",""
"html-keyboard-response","194","469304","0.0-4.0-1.0-0.24","3xkljm8d5at23j8","prime","5f5634241dd5b50165a94243","5f60e3c0a3b16e07647b2ff9","5f61dbf558002d197f936ecc","false","null","<span style=""color: black; font-size: 48px"">N + M</span>","null","","","","resp_prompt","","","","","","","","","","","","","","","",""
"categorize-image","195","470364","0.0-4.0-1.0-1.24","3xkljm8d5at23j8","prime","5f5634241dd5b50165a94243","5f60e3c0a3b16e07647b2ff9","5f61dbf558002d197f936ecc","true","1053.9599999992643","./Stimuli/SelectedImages/SM/SM74.bmp","76","","","","test","true","N + M","76","switch","SM","SM74.bmp","forget","","73","3","prime1","right","","","",""
"html-keyboard-response","196","472371","0.0-4.0-1.0-3.24","3xkljm8d5at23j8","prime","5f5634241dd5b50165a94243","5f60e3c0a3b16e07647b2ff9","5f61dbf558002d197f936ecc","false","null","<div style=""align-items: center; display: flex; color: darkorange; font-size: 90px""><b>ø</b></div>","null","","","","forget_cue","","","","","","","","","","","","","","","",""
"html-keyboard-response","197","473080","0.0-4.0-1.0-0.25","3xkljm8d5at23j8","prime","5f5634241dd5b50165a94243","5f60e3c0a3b16e07647b2ff9","5f61dbf558002d197f936ecc","false","null","<span style=""color: black; font-size: 48px"">N + M</span>","null","","","","resp_prompt","","","","","","","","","","","","","","","",""
"categorize-image","198","474052","0.0-4.0-1.0-1.25","3xkljm8d5at23j8","prime","5f5634241dd5b50165a94243","5f60e3c0a3b16e07647b2ff9","5f61dbf558002d197f936ecc","true","964.5250000003143","./Stimuli/SelectedImages/SN/SN64.bmp","83","","","","test","true","N + M","83","switch","SN","SN64.bmp","remember","","74","3","prime1","left","","","",""
"html-keyboard-response","199","476060","0.0-4.0-1.0-3.25","3xkljm8d5at23j8","prime","5f5634241dd5b50165a94243","5f60e3c0a3b16e07647b2ff9","5f61dbf558002d197f936ecc","false","null","<div style=""align-items: center; display: flex; color: dodgerblue; font-size: 90px""><b>o</b></div>","null","","","","forget_cue","","","","","","","","","","","","","","","",""
"html-keyboard-response","200","476767","0.0-4.0-1.0-0.26","3xkljm8d5at23j8","prime","5f5634241dd5b50165a94243","5f60e3c0a3b16e07647b2ff9","5f61dbf558002d197f936ecc","false","null","<span style=""color: black; font-size: 48px"">N + M</span>","null","","","","resp_prompt","","","","","","","","","","","","","","","",""
"categorize-image","201","477512","0.0-4.0-1.0-1.26","3xkljm8d5at23j8","prime","5f5634241dd5b50165a94243","5f60e3c0a3b16e07647b2ff9","5f61dbf558002d197f936ecc","true","735.0299999998533","./Stimuli/SelectedImages/SN/SN111.bmp","83","","","","test","true","N + M","83","switch","SN","SN111.bmp","forget","","75","3","prime1","left","","","",""
"html-keyboard-response","202","479516","0.0-4.0-1.0-3.26","3xkljm8d5at23j8","prime","5f5634241dd5b50165a94243","5f60e3c0a3b16e07647b2ff9","5f61dbf558002d197f936ecc","false","null","<div style=""align-items: center; display: flex; color: darkorange; font-size: 90px""><b>ø</b></div>","null","","","","forget_cue","","","","","","","","","","","","","","","",""
"html-keyboard-response","203","480226","0.0-4.0-1.0-0.27","3xkljm8d5at23j8","prime","5f5634241dd5b50165a94243","5f60e3c0a3b16e07647b2ff9","5f61dbf558002d197f936ecc","false","null","<span style=""color: black; font-size: 48px"">N + M</span>","null","","","","resp_prompt","","","","","","","","","","","","","","","",""
"categorize-image","204","481094","0.0-4.0-1.0-1.27","3xkljm8d5at23j8","prime","5f5634241dd5b50165a94243","5f60e3c0a3b16e07647b2ff9","5f61dbf558002d197f936ecc","true","857.2850000000326","./Stimuli/SelectedImages/LN/LN128.bmp","83","","","","test","true","N + M","83","switch","LN","LN128.bmp","forget","","76","3","prime1","left","","","",""
"html-keyboard-response","205","483105","0.0-4.0-1.0-3.27","3xkljm8d5at23j8","prime","5f5634241dd5b50165a94243","5f60e3c0a3b16e07647b2ff9","5f61dbf558002d197f936ecc","false","null","<div style=""align-items: center; display: flex; color: darkorange; font-size: 90px""><b>ø</b></div>","null","","","","forget_cue","","","","","","","","","","","","","","","",""
"html-keyboard-response","206","483812","0.0-4.0-1.0-0.28","3xkljm8d5at23j8","prime","5f5634241dd5b50165a94243","5f60e3c0a3b16e07647b2ff9","5f61dbf558002d197f936ecc","false","null","<span style=""color: black; font-size: 48px"">M + N</span>","null","","","","resp_prompt","","","","","","","","","","","","","","","",""
"categorize-image","207","484857","0.0-4.0-1.0-1.28","3xkljm8d5at23j8","prime","5f5634241dd5b50165a94243","5f60e3c0a3b16e07647b2ff9","5f61dbf558002d197f936ecc","true","1041.5199999997858","./Stimuli/SelectedImages/SM/SM73.bmp","83","","","","test","true","M + N","83","repetition","SM","SM73.bmp","remember","","77","3","prime1","left","","","",""
"html-keyboard-response","208","486867","0.0-4.0-1.0-3.28","3xkljm8d5at23j8","prime","5f5634241dd5b50165a94243","5f60e3c0a3b16e07647b2ff9","5f61dbf558002d197f936ecc","false","null","<div style=""align-items: center; display: flex; color: dodgerblue; font-size: 90px""><b>o</b></div>","null","","","","forget_cue","","","","","","","","","","","","","","","",""
"html-keyboard-response","209","487574","0.0-4.0-1.0-0.29","3xkljm8d5at23j8","prime","5f5634241dd5b50165a94243","5f60e3c0a3b16e07647b2ff9","5f61dbf558002d197f936ecc","false","null","<span style=""color: black; font-size: 48px"">N + M</span>","null","","","","resp_prompt","","","","","","","","","","","","","","","",""
"categorize-image","210","488391","0.0-4.0-1.0-1.29","3xkljm8d5at23j8","prime","5f5634241dd5b50165a94243","5f60e3c0a3b16e07647b2ff9","5f61dbf558002d197f936ecc","true","812.925000000163","./Stimuli/SelectedImages/LN/LN111.bmp","83","","","","test","true","N + M","83","switch","LN","LN111.bmp","remember","","78","3","prime1","left","","","",""
"html-keyboard-response","211","490396","0.0-4.0-1.0-3.29","3xkljm8d5at23j8","prime","5f5634241dd5b50165a94243","5f60e3c0a3b16e07647b2ff9","5f61dbf558002d197f936ecc","false","null","<div style=""align-items: center; display: flex; color: dodgerblue; font-size: 90px""><b>o</b></div>","null","","","","forget_cue","","","","","","","","","","","","","","","",""
"html-keyboard-response","212","491102","0.0-4.0-1.0-0.30","3xkljm8d5at23j8","prime","5f5634241dd5b50165a94243","5f60e3c0a3b16e07647b2ff9","5f61dbf558002d197f936ecc","false","null","<span style=""color: black; font-size: 48px"">N + M</span>","null","","","","resp_prompt","","","","","","","","","","","","","","","",""
"categorize-image","213","492022","0.0-4.0-1.0-1.30","3xkljm8d5at23j8","prime","5f5634241dd5b50165a94243","5f60e3c0a3b16e07647b2ff9","5f61dbf558002d197f936ecc","true","907.6000000005006","./Stimuli/SelectedImages/SN/SN52.bmp","83","","","","test","true","N + M","83","repetition","SN","SN52.bmp","forget","","79","3","prime1","left","","","",""
"html-keyboard-response","214","494031","0.0-4.0-1.0-3.30","3xkljm8d5at23j8","prime","5f5634241dd5b50165a94243","5f60e3c0a3b16e07647b2ff9","5f61dbf558002d197f936ecc","false","null","<div style=""align-items: center; display: flex; color: darkorange; font-size: 90px""><b>ø</b></div>","null","","","","forget_cue","","","","","","","","","","","","","","","",""
"html-keyboard-response","215","494733","0.0-4.0-1.0-0.31","3xkljm8d5at23j8","prime","5f5634241dd5b50165a94243","5f60e3c0a3b16e07647b2ff9","5f61dbf558002d197f936ecc","false","null","<span style=""color: black; font-size: 48px"">M + N</span>","null","","","","resp_prompt","","","","","","","","","","","","","","","",""
"categorize-image","216","495545","0.0-4.0-1.0-1.31","3xkljm8d5at23j8","prime","5f5634241dd5b50165a94243","5f60e3c0a3b16e07647b2ff9","5f61dbf558002d197f936ecc","true","804.1249999996508","./Stimuli/SelectedImages/SN/SN181.bmp","76","","","","test","true","M + N","76","repetition","SN","SN181.bmp","remember","","80","3","prime1","right","","","",""
"html-keyboard-response","217","497564","0.0-4.0-1.0-3.31","3xkljm8d5at23j8","prime","5f5634241dd5b50165a94243","5f60e3c0a3b16e07647b2ff9","5f61dbf558002d197f936ecc","false","null","<div style=""align-items: center; display: flex; color: dodgerblue; font-size: 90px""><b>o</b></div>","null","","","","forget_cue","","","","","","","","","","","","","","","",""
"html-keyboard-response","218","498273","0.0-4.0-1.0-0.32","3xkljm8d5at23j8","prime","5f5634241dd5b50165a94243","5f60e3c0a3b16e07647b2ff9","5f61dbf558002d197f936ecc","false","null","<span style=""color: black; font-size: 48px"">M + N</span>","null","","","","resp_prompt","","","","","","","","","","","","","","","",""
"categorize-image","219","499598","0.0-4.0-1.0-1.32","3xkljm8d5at23j8","prime","5f5634241dd5b50165a94243","5f60e3c0a3b16e07647b2ff9","5f61dbf558002d197f936ecc","true","1318.4049999999697","./Stimuli/SelectedImages/SM/SM108.bmp","83","","","","test","true","M + N","83","repetition","SM","SM108.bmp","forget","","81","3","prime1","left","","","",""
"html-keyboard-response","220","501603","0.0-4.0-1.0-3.32","3xkljm8d5at23j8","prime","5f5634241dd5b50165a94243","5f60e3c0a3b16e07647b2ff9","5f61dbf558002d197f936ecc","false","null","<div style=""align-items: center; display: flex; color: darkorange; font-size: 90px""><b>ø</b></div>","null","","","","forget_cue","","","","","","","","","","","","","","","",""
"html-keyboard-response","221","502309","0.0-4.0-1.0-0.33","3xkljm8d5at23j8","prime","5f5634241dd5b50165a94243","5f60e3c0a3b16e07647b2ff9","5f61dbf558002d197f936ecc","false","null","<span style=""color: black; font-size: 48px"">N + M</span>","null","","","","resp_prompt","","","","","","","","","","","","","","","",""
"categorize-image","222","503533","0.0-4.0-1.0-1.33","3xkljm8d5at23j8","prime","5f5634241dd5b50165a94243","5f60e3c0a3b16e07647b2ff9","5f61dbf558002d197f936ecc","true","1214.9300000001094","./Stimuli/SelectedImages/SM/SM76.bmp","76","","","","test","true","N + M","76","switch","SM","SM76.bmp","remember","","82","3","prime1","right","","","",""
"html-keyboard-response","223","505548","0.0-4.0-1.0-3.33","3xkljm8d5at23j8","prime","5f5634241dd5b50165a94243","5f60e3c0a3b16e07647b2ff9","5f61dbf558002d197f936ecc","false","null","<div style=""align-items: center; display: flex; color: dodgerblue; font-size: 90px""><b>o</b></div>","null","","","","forget_cue","","","","","","","","","","","","","","","",""
"html-keyboard-response","224","506258","0.0-4.0-1.0-0.34","3xkljm8d5at23j8","prime","5f5634241dd5b50165a94243","5f60e3c0a3b16e07647b2ff9","5f61dbf558002d197f936ecc","false","null","<span style=""color: black; font-size: 48px"">N + M</span>","null","","","","resp_prompt","","","","","","","","","","","","","","","",""
"categorize-image","225","507554","0.0-4.0-1.0-1.34","3xkljm8d5at23j8","prime","5f5634241dd5b50165a94243","5f60e3c0a3b16e07647b2ff9","5f61dbf558002d197f936ecc","true","1282.4700000000885","./Stimuli/SelectedImages/LM/LM167.bmp","76","","","","test","true","N + M","76","repetition","LM","LM167.bmp","forget","","83","3","prime1","right","","","",""
"html-keyboard-response","226","509559","0.0-4.0-1.0-3.34","3xkljm8d5at23j8","prime","5f5634241dd5b50165a94243","5f60e3c0a3b16e07647b2ff9","5f61dbf558002d197f936ecc","false","null","<div style=""align-items: center; display: flex; color: darkorange; font-size: 90px""><b>ø</b></div>","null","","","","forget_cue","","","","","","","","","","","","","","","",""
"html-keyboard-response","227","510264","0.0-4.0-1.0-0.35","3xkljm8d5at23j8","prime","5f5634241dd5b50165a94243","5f60e3c0a3b16e07647b2ff9","5f61dbf558002d197f936ecc","false","null","<span style=""color: black; font-size: 48px"">N + M</span>","null","","","","resp_prompt","","","","","","","","","","","","","","","",""
"categorize-image","228","511252","0.0-4.0-1.0-1.35","3xkljm8d5at23j8","prime","5f5634241dd5b50165a94243","5f60e3c0a3b16e07647b2ff9","5f61dbf558002d197f936ecc","true","974.4049999999115","./Stimuli/SelectedImages/SM/SM200.bmp","76","","","","test","true","N + M","76","switch","SM","SM200.bmp","remember","","84","3","prime1","right","","","",""
"html-keyboard-response","229","513256","0.0-4.0-1.0-3.35","3xkljm8d5at23j8","prime","5f5634241dd5b50165a94243","5f60e3c0a3b16e07647b2ff9","5f61dbf558002d197f936ecc","false","null","<div style=""align-items: center; display: flex; color: dodgerblue; font-size: 90px""><b>o</b></div>","null","","","","forget_cue","","","","","","","","","","","","","","","",""
"html-keyboard-response","230","513960","0.0-4.0-1.0-0.36","3xkljm8d5at23j8","prime","5f5634241dd5b50165a94243","5f60e3c0a3b16e07647b2ff9","5f61dbf558002d197f936ecc","false","null","<span style=""color: black; font-size: 48px"">N + M</span>","null","","","","resp_prompt","","","","","","","","","","","","","","","",""
"categorize-image","231","514973","0.0-4.0-1.0-1.36","3xkljm8d5at23j8","prime","5f5634241dd5b50165a94243","5f60e3c0a3b16e07647b2ff9","5f61dbf558002d197f936ecc","true","999.820000000007","./Stimuli/SelectedImages/SM/SM148.bmp","76","","","","test","true","N + M","76","switch","SM","SM148.bmp","forget","","85","3","prime1","right","","","",""
"html-keyboard-response","232","516981","0.0-4.0-1.0-3.36","3xkljm8d5at23j8","prime","5f5634241dd5b50165a94243","5f60e3c0a3b16e07647b2ff9","5f61dbf558002d197f936ecc","false","null","<div style=""align-items: center; display: flex; color: darkorange; font-size: 90px""><b>ø</b></div>","null","","","","forget_cue","","","","","","","","","","","","","","","",""
"html-keyboard-response","233","517688","0.0-4.0-1.0-0.37","3xkljm8d5at23j8","prime","5f5634241dd5b50165a94243","5f60e3c0a3b16e07647b2ff9","5f61dbf558002d197f936ecc","false","null","<span style=""color: black; font-size: 48px"">M + N</span>","null","","","","resp_prompt","","","","","","","","","","","","","","","",""
"categorize-image","234","518463","0.0-4.0-1.0-1.37","3xkljm8d5at23j8","prime","5f5634241dd5b50165a94243","5f60e3c0a3b16e07647b2ff9","5f61dbf558002d197f936ecc","true","768.7200000000885","./Stimuli/SelectedImages/SM/SM207.bmp","76","","","","test","false","M + N","83","switch","SM","SM207.bmp","forget","","86","3","prime1","right","","","",""
"html-keyboard-response","235","518967","0.0-4.0-1.0-2.37-0.37","3xkljm8d5at23j8","prime","5f5634241dd5b50165a94243","5f60e3c0a3b16e07647b2ff9","5f61dbf558002d197f936ecc","false","null","<span style=""color: red; font-size: 48px"">Error!</span>","null","","","","feedback","","","","","","","","","","","","","","","",""
"html-keyboard-response","236","520974","0.0-4.0-1.0-3.37","3xkljm8d5at23j8","prime","5f5634241dd5b50165a94243","5f60e3c0a3b16e07647b2ff9","5f61dbf558002d197f936ecc","false","null","<div style=""align-items: center; display: flex; color: darkorange; font-size: 90px""><b>ø</b></div>","null","","","","forget_cue","","","","","","","","","","","","","","","",""
"html-keyboard-response","237","521686","0.0-4.0-1.0-0.38","3xkljm8d5at23j8","prime","5f5634241dd5b50165a94243","5f60e3c0a3b16e07647b2ff9","5f61dbf558002d197f936ecc","false","null","<span style=""color: black; font-size: 48px"">M + N</span>","null","","","","resp_prompt","","","","","","","","","","","","","","","",""
"categorize-image","238","522430","0.0-4.0-1.0-1.38","3xkljm8d5at23j8","prime","5f5634241dd5b50165a94243","5f60e3c0a3b16e07647b2ff9","5f61dbf558002d197f936ecc","true","728.0250000003725","./Stimuli/SelectedImages/LM/LM235.bmp","83","","","","test","true","M + N","83","switch","LM","LM235.bmp","remember","","87","3","prime1","left","","","",""
"html-keyboard-response","239","524436","0.0-4.0-1.0-3.38","3xkljm8d5at23j8","prime","5f5634241dd5b50165a94243","5f60e3c0a3b16e07647b2ff9","5f61dbf558002d197f936ecc","false","null","<div style=""align-items: center; display: flex; color: dodgerblue; font-size: 90px""><b>o</b></div>","null","","","","forget_cue","","","","","","","","","","","","","","","",""
"html-keyboard-response","240","525145","0.0-4.0-1.0-0.39","3xkljm8d5at23j8","prime","5f5634241dd5b50165a94243","5f60e3c0a3b16e07647b2ff9","5f61dbf558002d197f936ecc","false","null","<span style=""color: black; font-size: 48px"">M + N</span>","null","","","","resp_prompt","","","","","","","","","","","","","","","",""
"categorize-image","241","526092","0.0-4.0-1.0-1.39","3xkljm8d5at23j8","prime","5f5634241dd5b50165a94243","5f60e3c0a3b16e07647b2ff9","5f61dbf558002d197f936ecc","true","933.0199999994365","./Stimuli/SelectedImages/SN/SN187.bmp","76","","","","test","true","M + N","76","switch","SN","SN187.bmp","remember","","88","3","prime1","right","","","",""
"html-keyboard-response","242","528101","0.0-4.0-1.0-3.39","3xkljm8d5at23j8","prime","5f5634241dd5b50165a94243","5f60e3c0a3b16e07647b2ff9","5f61dbf558002d197f936ecc","false","null","<div style=""align-items: center; display: flex; color: dodgerblue; font-size: 90px""><b>o</b></div>","null","","","","forget_cue","","","","","","","","","","","","","","","",""
"html-keyboard-response","243","528808","0.0-4.0-1.0-0.40","3xkljm8d5at23j8","prime","5f5634241dd5b50165a94243","5f60e3c0a3b16e07647b2ff9","5f61dbf558002d197f936ecc","false","null","<span style=""color: black; font-size: 48px"">M + N</span>","null","","","","resp_prompt","","","","","","","","","","","","","","","",""
"categorize-image","244","529999","0.0-4.0-1.0-1.40","3xkljm8d5at23j8","prime","5f5634241dd5b50165a94243","5f60e3c0a3b16e07647b2ff9","5f61dbf558002d197f936ecc","true","1182.8000000005122","./Stimuli/SelectedImages/SM/SM184.bmp","83","","","","test","true","M + N","83","switch","SM","SM184.bmp","remember","","89","3","prime1","left","","","",""
"html-keyboard-response","245","532006","0.0-4.0-1.0-3.40","3xkljm8d5at23j8","prime","5f5634241dd5b50165a94243","5f60e3c0a3b16e07647b2ff9","5f61dbf558002d197f936ecc","false","null","<div style=""align-items: center; display: flex; color: dodgerblue; font-size: 90px""><b>o</b></div>","null","","","","forget_cue","","","","","","","","","","","","","","","",""
"html-keyboard-response","246","532712","0.0-4.0-1.0-0.41","3xkljm8d5at23j8","prime","5f5634241dd5b50165a94243","5f60e3c0a3b16e07647b2ff9","5f61dbf558002d197f936ecc","false","null","<span style=""color: black; font-size: 48px"">N + M</span>","null","","","","resp_prompt","","","","","","","","","","","","","","","",""
"categorize-image","247","533861","0.0-4.0-1.0-1.41","3xkljm8d5at23j8","prime","5f5634241dd5b50165a94243","5f60e3c0a3b16e07647b2ff9","5f61dbf558002d197f936ecc","true","1138.0049999997718","./Stimuli/SelectedImages/LM/LM209.bmp","83","","","","test","false","N + M","76","repetition","LM","LM209.bmp","forget","","90","3","prime1","left","","","",""
"html-keyboard-response","248","534371","0.0-4.0-1.0-2.41-0.41","3xkljm8d5at23j8","prime","5f5634241dd5b50165a94243","5f60e3c0a3b16e07647b2ff9","5f61dbf558002d197f936ecc","false","null","<span style=""color: red; font-size: 48px"">Error!</span>","null","","","","feedback","","","","","","","","","","","","","","","",""
"html-keyboard-response","249","536377","0.0-4.0-1.0-3.41","3xkljm8d5at23j8","prime","5f5634241dd5b50165a94243","5f60e3c0a3b16e07647b2ff9","5f61dbf558002d197f936ecc","false","null","<div style=""align-items: center; display: flex; color: darkorange; font-size: 90px""><b>ø</b></div>","null","","","","forget_cue","","","","","","","","","","","","","","","",""
"html-keyboard-response","250","537084","0.0-4.0-1.0-0.42","3xkljm8d5at23j8","prime","5f5634241dd5b50165a94243","5f60e3c0a3b16e07647b2ff9","5f61dbf558002d197f936ecc","false","null","<span style=""color: black; font-size: 48px"">M + N</span>","null","","","","resp_prompt","","","","","","","","","","","","","","","",""
"categorize-image","251","537802","0.0-4.0-1.0-1.42","3xkljm8d5at23j8","prime","5f5634241dd5b50165a94243","5f60e3c0a3b16e07647b2ff9","5f61dbf558002d197f936ecc","true","711.3749999998836","./Stimuli/SelectedImages/SN/SN240.bmp","76","","","","test","true","M + N","76","switch","SN","SN240.bmp","forget","","91","3","prime1","right","","","",""
"html-keyboard-response","252","539811","0.0-4.0-1.0-3.42","3xkljm8d5at23j8","prime","5f5634241dd5b50165a94243","5f60e3c0a3b16e07647b2ff9","5f61dbf558002d197f936ecc","false","null","<div style=""align-items: center; display: flex; color: darkorange; font-size: 90px""><b>ø</b></div>","null","","","","forget_cue","","","","","","","","","","","","","","","",""
"html-keyboard-response","253","540516","0.0-4.0-1.0-0.43","3xkljm8d5at23j8","prime","5f5634241dd5b50165a94243","5f60e3c0a3b16e07647b2ff9","5f61dbf558002d197f936ecc","false","null","<span style=""color: black; font-size: 48px"">N + M</span>","null","","","","resp_prompt","","","","","","","","","","","","","","","",""
