"trial_type","trial_index","time_elapsed","internal_node_id","subject","exp_part","prolific_PID","study_ID","session_ID","use","rt","stimulus","key_press","button_pressed","responses","question_order","trial_part","correct","resp_map","correct_resp","probe_condition","category","image","forget_condition","list","trial_num","block_num","block","response","test_part","n_span","sequence","num_spaces"
"pavlovia","0","9","0.0-0.0","c4cnrgnv81h5jdr","","5f2a7f698ce86328a49cfc97","5f60e3c0a3b16e07647b2ff9","5f60f02eade02d000bc39927","false","","","","","","","","","","","","","","","","","","","","","","",""
"html-keyboard-response","1","2804","0.0-1.0-0.0-0.0","c4cnrgnv81h5jdr","welcome","5f2a7f698ce86328a49cfc97","5f60e3c0a3b16e07647b2ff9","5f60f02eade02d000bc39927","false","2789.905000012368","<div align=left>Dear participant, <br> thank you for participating in an online study of the Cognition, Action, and Sustainability Unit of the University of Freiburg! <br> <br>The aim of this study is to examine our ability to remember previously learned information. <br>Our goal is to find out, whether our memory improves, when we only remember information that is relevant to us. <br>The experiment will take about 35 minutes to complete. <br> <br>Please, note that you can only participate in this study if you are using a device with a keyboard (PC, Laptop etc.) <br>and not if you are using a mobile device such as a tablet or smartphone.<br> <br>Press 'SPACE' to proceed to the experiment. </div>","32","","","","","","","","","","","","","","","","","","","",""
"html-keyboard-response","2","7881","0.0-1.0-0.0-1.0","c4cnrgnv81h5jdr","welcome","5f2a7f698ce86328a49cfc97","5f60e3c0a3b16e07647b2ff9","5f60f02eade02d000bc39927","false","5073.005000012927","<div align=left><strong> Time Course of this experiment: </strong> <br><br> <strong> 1.</strong>  First, please fill in some information regarding your demographic data. <br><br> <strong> 2.</strong>  Next, your task will be to classify everyday objects. <br>In addition, you will be asked to remember certain objects and recall them later. <br>Working on these tasks requires your undivided attention and concentration.<br>It is therefore essential that you eliminate any sources of distraction in your  <br>environment and ensure that you will not be disturbed. <br><br><strong> 3.</strong>  At the end of the experiment, you will be asked to answer a few additional questions. <br> <br><strong> Important:</strong> After finishing the experiment, only close the browser window <br> by clicking on the 'end the experiment'-button when you are asked to do so. <br>Closing the browser window prematurely will make the allocation of your participation credit impossible. <br><br> Press 'SPACE' to start the experiment. </div>","32","","","","","","","","","","","","","","","","","","","",""
"html-button-response","3","11115","0.0-1.0-0.0-2.0","c4cnrgnv81h5jdr","welcome","5f2a7f698ce86328a49cfc97","5f60e3c0a3b16e07647b2ff9","5f60f02eade02d000bc39927","true","3228.14500000095","<div align=left><strong> Informed consent </strong>  <br>The aim of our research is to better understand human behavior and mental processes. <br>In the following study your behavior (e.g. choices, reaction times) will be studied. <br> <br><strong> Voluntariness and Anonymity </strong> <br>Your participation in this study is  <strong> voluntary</strong>.<br>You may withdraw your consent to participate at any time without providing a reason for doing so and without fear of prejudice. <br><br>As no personal data will be collected, <strong>your data and your person cannot be connected after data collection</strong> – the data-set is anonymous. <br>Respectively, deletion of your data will not be possible after data collection has been completed, as we cannot retrace your data-set.<br>The results and anonymized data collected in this study will be published as a scientific publication. <br>This will happen in an <strong>anonymized format</strong>, so that no data can be traced back to a specific person. <br> <br>The anonymized data of this study will be made available to other researchers and/or in a data archive on the Internet as a means of transparency and to enable subsequent re-use. By doing so, this study follows the recommendations of the Deutsche Forschungsgemeinschaft (DFG, German Research Foundation) and Deutsche Gesellschaft für Psychologie (DGPS, German Psychological Society) regarding quality assurance in research.<br>If you have any questions now or after the experiment, please contact our team (experiments@cs.uni-freiburg.de).<br><br><br>I hereby declare, that I understand the above described conditions of participation and I agree to participate under these conditions. <br><br> </div>","","0","","","","","","","","","","","","","","","","","","",""
"html-keyboard-response","4","13390","0.0-1.0-0.0-3.0","c4cnrgnv81h5jdr","welcome","5f2a7f698ce86328a49cfc97","5f60e3c0a3b16e07647b2ff9","5f60f02eade02d000bc39927","false","2269.6100000175647","<div align=left><strong> General information concerning the experiment </strong>  <br> <br>Please follow the instructions:<ol> <li><strong> Do not leave this tab (your browser window) during the experiment and do not reload this tab! </strong>  <br>If you do switch tabs/windows during the experiment (to check your mail or visit another website, for example), <br>the experiment will end automatically and you will <strong>not receive credit</strong> for your participation. <br>Repeated participation or resumption of the experiment is impossible.</li> <br><li>Please close all other programs for the duration of your participation. </li> <br><li>Please mute or turn off your phone and put it out of your reach. </li> <br><li>Please also take off any disturbing accessories (such as wristwatches, bracelets, etc.). </li> <br><li>If you have music playing in the background, please turn it off now. </li> <br></ol>Thank you! <br>Press 'SPACE' to continue. </div>","32","","","","","","","","","","","","","","","","","","","",""
"survey-text","5","15994","0.0-1.0-1.0-0.0","c4cnrgnv81h5jdr","demographics","5f2a7f698ce86328a49cfc97","5f60e3c0a3b16e07647b2ff9","5f60f02eade02d000bc39927","true","2586.4050000091083","","","","{""age"":""28""}","","","","","","","","","","","","","","","","","",""
"survey-multi-choice","6","36191","0.0-1.0-1.0-1.0","c4cnrgnv81h5jdr","demographics","5f2a7f698ce86328a49cfc97","5f60e3c0a3b16e07647b2ff9","5f60f02eade02d000bc39927","true","20184.26500001806","","","","{""gender"":""male"",""school"":""others"",""education"":""Completed university degree or equivalent""}","[0,1,2]","","","","","","","","","","","","","","","","",""
"html-keyboard-response","7","55394","0.0-1.0-2.0","c4cnrgnv81h5jdr","instructions","5f2a7f698ce86328a49cfc97","5f60e3c0a3b16e07647b2ff9","5f60f02eade02d000bc39927","false","19175.745000015013","<div align=left> The experiment is now about to start: <br> <br>In the following part, you will be presented pictures of everyday objects. <br>Your first task is to <strong>classify these objects. </strong> <br> <br> You will classify them either as mechanical or non-mechanical objects. <br> <br>Objects that include any kind of technical mechanism (for example, wheels, switches, levers, <br> electronic components) fall under the category of <strong>mechanical</strong> objects. <br>Only objects without any kind of technical mechanism should be classified as <strong>non-mechanical</strong>. <br><br>Press 'SPACE' to continue. </div>","32","","","","","","","","","","","","","","","","","","","",""
"html-keyboard-response","8","105943","0.0-2.0-0.0","c4cnrgnv81h5jdr","instructions","5f2a7f698ce86328a49cfc97","5f60e3c0a3b16e07647b2ff9","5f60f02eade02d000bc39927","false","50545.684999990044","<div align=justify>You will classify the objects using the <strong>'S'</strong> and the <strong>'L'</strong> keys on your keyboard.<br>For doing so, please place your <strong>left index finger</strong> on the <strong>'S'</strong> key and place your <strong>right index finger</strong> on the <strong>'L'</strong> key. <br><br> Each trial starts with an instruction, indicating which key ('S'/'L') you need to press to classify <br>the object as mechanical (letter M) or non-mechanical (letter N).<br>The instruction <strong>M + N</strong> indicates that, in the current trial, by pressing the left key ('S') you classify the displayed object as mechanical (M) <br> and by pressing the right key ('L') you classify the object as non-mechanical (N). <br>The instruction <strong>N + M</strong> on the other hand indicates that by pressing the left key ('S') you classify the displayed object as non-mechanical (N) <br> and by pressing the right key ('L') you classify the object as mechanical (M). <br><br>Please press the key corresponding to the correct classification as fast as possible as soon as the object is displayed and try to avoid making mistakes.<br>If you do not respond within a 2 second window, a corresponding feedback will be displayed and the next trial will start.<br> The experiment is divided into multiple blocks to give you the opportunity to take a break after each block. <br>First, you can now practice this task. <br><br>Please place your <strong>LEFT INDEX FINGER</strong> on the 'S' key and your <strong>RIGHT INDEX FINGER</strong> on the 'L' key now. <br><br>Press SPACE to continue.</div>","32","","","","","","","","","","","","","","","","","","","",""
"html-keyboard-response","9","120654","0.0-2.0-1.0","c4cnrgnv81h5jdr","instructions","5f2a7f698ce86328a49cfc97","5f60e3c0a3b16e07647b2ff9","5f60f02eade02d000bc39927","false","14709.430000017164","<div align=left> You will now have time to practice this task.<br><br>Remember: <br> <br><li>Please place your index fingers on the <strong>'S'</strong> and <strong>'L'</strong> keys <br>to respond as fast and accurately as possible.</li><li>Every picture can be classified as either mechanical or non-mechanical.</li><li>If you do not respond in time or commit an error, you will receive a corresponding feedback. </li><li> Please try to respond as <strong> fast </strong> and as <strong> accurately as possible </strong> .<br><li>To ensure optimal results, please minimize distractions and stay focused. </li><br><br>Press SPACE to continue.</div>","32","","","","","","","","","","","","","","","","","","","",""
"html-keyboard-response","10","121361","0.0-2.0-2.0-0.0","c4cnrgnv81h5jdr","practice_no_cue","5f2a7f698ce86328a49cfc97","5f60e3c0a3b16e07647b2ff9","5f60f02eade02d000bc39927","false","null","<span style=""color: black; font-size: 48px"">N + M</span>","null","","","","resp_prompt","","","","","","","","","","","","","","","",""
"categorize-image","11","122952","0.0-2.0-2.0-1.0","c4cnrgnv81h5jdr","practice_no_cue","5f2a7f698ce86328a49cfc97","5f60e3c0a3b16e07647b2ff9","5f60f02eade02d000bc39927","true","1085.3000000061002","./Stimuli/ImagesPractice/LN72.jpg","83","","","","test","true","N + M","83","","LN","LN72.jpg","remember","old","1","1","start","left","","","",""
"html-keyboard-response","12","123656","0.0-2.0-2.0-0.1","c4cnrgnv81h5jdr","practice_no_cue","5f2a7f698ce86328a49cfc97","5f60e3c0a3b16e07647b2ff9","5f60f02eade02d000bc39927","false","null","<span style=""color: black; font-size: 48px"">N + M</span>","null","","","","resp_prompt","","","","","","","","","","","","","","","",""
"categorize-image","13","125175","0.0-2.0-2.0-1.1","c4cnrgnv81h5jdr","practice_no_cue","5f2a7f698ce86328a49cfc97","5f60e3c0a3b16e07647b2ff9","5f60f02eade02d000bc39927","true","1008.1150000041816","./Stimuli/ImagesPractice/SN221.jpg","83","","","","test","true","N + M","83","","SN","SN221.jpg","remember","old","2","1","start","left","","","",""
"html-keyboard-response","14","125881","0.0-2.0-2.0-0.2","c4cnrgnv81h5jdr","practice_no_cue","5f2a7f698ce86328a49cfc97","5f60e3c0a3b16e07647b2ff9","5f60f02eade02d000bc39927","false","null","<span style=""color: black; font-size: 48px"">N + M</span>","null","","","","resp_prompt","","","","","","","","","","","","","","","",""
"categorize-image","15","127109","0.0-2.0-2.0-1.2","c4cnrgnv81h5jdr","practice_no_cue","5f2a7f698ce86328a49cfc97","5f60e3c0a3b16e07647b2ff9","5f60f02eade02d000bc39927","true","717.930000013439","./Stimuli/ImagesPractice/LM239.jpg","76","","","","test","true","N + M","76","","LM","LM239.jpg","forget","old","3","1","start","right","","","",""
"html-keyboard-response","16","127814","0.0-2.0-2.0-0.3","c4cnrgnv81h5jdr","practice_no_cue","5f2a7f698ce86328a49cfc97","5f60e3c0a3b16e07647b2ff9","5f60f02eade02d000bc39927","false","null","<span style=""color: black; font-size: 48px"">M + N</span>","null","","","","resp_prompt","","","","","","","","","","","","","","","",""
"categorize-image","17","129263","0.0-2.0-2.0-1.3","c4cnrgnv81h5jdr","practice_no_cue","5f2a7f698ce86328a49cfc97","5f60e3c0a3b16e07647b2ff9","5f60f02eade02d000bc39927","true","942.9200000013225","./Stimuli/ImagesPractice/LM230.jpg","76","","","","test","false","M + N","83","","LM","LM230.jpg","forget","old","4","1","start","right","","","",""
"html-keyboard-response","18","129968","0.0-2.0-2.0-0.4","c4cnrgnv81h5jdr","practice_no_cue","5f2a7f698ce86328a49cfc97","5f60e3c0a3b16e07647b2ff9","5f60f02eade02d000bc39927","false","null","<span style=""color: black; font-size: 48px"">M + N</span>","null","","","","resp_prompt","","","","","","","","","","","","","","","",""
"categorize-image","19","132189","0.0-2.0-2.0-1.4","c4cnrgnv81h5jdr","practice_no_cue","5f2a7f698ce86328a49cfc97","5f60e3c0a3b16e07647b2ff9","5f60f02eade02d000bc39927","true","1716.855000006035","./Stimuli/ImagesPractice/LM224.jpg","83","","","","test","true","M + N","83","","LM","LM224.jpg","remember","old","5","1","start","left","","","",""
"html-keyboard-response","20","132894","0.0-2.0-2.0-0.5","c4cnrgnv81h5jdr","practice_no_cue","5f2a7f698ce86328a49cfc97","5f60e3c0a3b16e07647b2ff9","5f60f02eade02d000bc39927","false","null","<span style=""color: black; font-size: 48px"">N + M</span>","null","","","","resp_prompt","","","","","","","","","","","","","","","",""
"categorize-image","21","134260","0.0-2.0-2.0-1.5","c4cnrgnv81h5jdr","practice_no_cue","5f2a7f698ce86328a49cfc97","5f60e3c0a3b16e07647b2ff9","5f60f02eade02d000bc39927","true","860.5549999920186","./Stimuli/ImagesPractice/SN222.jpg","76","","","","test","false","N + M","83","","SN","SN222.jpg","remember","old","6","1","start","right","","","",""
"html-keyboard-response","22","134965","0.0-2.0-2.0-0.6","c4cnrgnv81h5jdr","practice_no_cue","5f2a7f698ce86328a49cfc97","5f60e3c0a3b16e07647b2ff9","5f60f02eade02d000bc39927","false","null","<span style=""color: black; font-size: 48px"">M + N</span>","null","","","","resp_prompt","","","","","","","","","","","","","","","",""
"categorize-image","23","136044","0.0-2.0-2.0-1.6","c4cnrgnv81h5jdr","practice_no_cue","5f2a7f698ce86328a49cfc97","5f60e3c0a3b16e07647b2ff9","5f60f02eade02d000bc39927","true","571.6550000070129","./Stimuli/ImagesPractice/LN109.jpg","83","","","","test","false","M + N","76","","LN","LN109.jpg","remember","old","7","1","start","left","","","",""
"html-keyboard-response","24","136755","0.0-2.0-2.0-0.7","c4cnrgnv81h5jdr","practice_no_cue","5f2a7f698ce86328a49cfc97","5f60e3c0a3b16e07647b2ff9","5f60f02eade02d000bc39927","false","null","<span style=""color: black; font-size: 48px"">N + M</span>","null","","","","resp_prompt","","","","","","","","","","","","","","","",""
"categorize-image","25","139020","0.0-2.0-2.0-1.7","c4cnrgnv81h5jdr","practice_no_cue","5f2a7f698ce86328a49cfc97","5f60e3c0a3b16e07647b2ff9","5f60f02eade02d000bc39927","true","1760.5549999861978","./Stimuli/ImagesPractice/SM98.jpg","83","","","","test","false","N + M","76","","SM","SM98.jpg","forget","old","8","1","start","left","","","",""
"html-keyboard-response","26","139728","0.0-2.0-2.0-0.8","c4cnrgnv81h5jdr","practice_no_cue","5f2a7f698ce86328a49cfc97","5f60e3c0a3b16e07647b2ff9","5f60f02eade02d000bc39927","false","null","<span style=""color: black; font-size: 48px"">N + M</span>","null","","","","resp_prompt","","","","","","","","","","","","","","","",""
"categorize-image","27","140963","0.0-2.0-2.0-1.8","c4cnrgnv81h5jdr","practice_no_cue","5f2a7f698ce86328a49cfc97","5f60e3c0a3b16e07647b2ff9","5f60f02eade02d000bc39927","true","731.7300000286195","./Stimuli/ImagesPractice/SM97.jpg","76","","","","test","true","N + M","76","","SM","SM97.jpg","forget","old","9","1","start","right","","","",""
"html-keyboard-response","28","141666","0.0-2.0-2.0-0.9","c4cnrgnv81h5jdr","practice_no_cue","5f2a7f698ce86328a49cfc97","5f60e3c0a3b16e07647b2ff9","5f60f02eade02d000bc39927","false","null","<span style=""color: black; font-size: 48px"">M + N</span>","null","","","","resp_prompt","","","","","","","","","","","","","","","",""
"categorize-image","29","143377","0.0-2.0-2.0-1.9","c4cnrgnv81h5jdr","practice_no_cue","5f2a7f698ce86328a49cfc97","5f60e3c0a3b16e07647b2ff9","5f60f02eade02d000bc39927","true","1205.920000007609","./Stimuli/ImagesPractice/SN220.jpg","76","","","","test","true","M + N","76","","SN","SN220.jpg","remember","old","10","1","start","right","","","",""
"html-keyboard-response","30","144080","0.0-2.0-2.0-0.10","c4cnrgnv81h5jdr","practice_no_cue","5f2a7f698ce86328a49cfc97","5f60e3c0a3b16e07647b2ff9","5f60f02eade02d000bc39927","false","null","<span style=""color: black; font-size: 48px"">M + N</span>","null","","","","resp_prompt","","","","","","","","","","","","","","","",""
"categorize-image","31","146007","0.0-2.0-2.0-1.10","c4cnrgnv81h5jdr","practice_no_cue","5f2a7f698ce86328a49cfc97","5f60e3c0a3b16e07647b2ff9","5f60f02eade02d000bc39927","true","1419.9099999968894","./Stimuli/ImagesPractice/LM143.jpg","83","","","","test","true","M + N","83","","LM","LM143.jpg","forget","old","11","1","start","left","","","",""
"html-keyboard-response","32","146709","0.0-2.0-2.0-0.11","c4cnrgnv81h5jdr","practice_no_cue","5f2a7f698ce86328a49cfc97","5f60e3c0a3b16e07647b2ff9","5f60f02eade02d000bc39927","false","null","<span style=""color: black; font-size: 48px"">M + N</span>","null","","","","resp_prompt","","","","","","","","","","","","","","","",""
"categorize-image","33","148450","0.0-2.0-2.0-1.11","c4cnrgnv81h5jdr","practice_no_cue","5f2a7f698ce86328a49cfc97","5f60e3c0a3b16e07647b2ff9","5f60f02eade02d000bc39927","true","1234.3300000065938","./Stimuli/ImagesPractice/SM62.jpg","83","","","","test","true","M + N","83","","SM","SM62.jpg","forget","old","12","1","start","left","","","",""
"html-keyboard-response","34","149155","0.0-2.0-2.0-0.12","c4cnrgnv81h5jdr","practice_no_cue","5f2a7f698ce86328a49cfc97","5f60e3c0a3b16e07647b2ff9","5f60f02eade02d000bc39927","false","null","<span style=""color: black; font-size: 48px"">M + N</span>","null","","","","resp_prompt","","","","","","","","","","","","","","","",""
"categorize-image","35","150931","0.0-2.0-2.0-1.12","c4cnrgnv81h5jdr","practice_no_cue","5f2a7f698ce86328a49cfc97","5f60e3c0a3b16e07647b2ff9","5f60f02eade02d000bc39927","true","1271.1049999925308","./Stimuli/ImagesPractice/SM35.jpg","83","","","","test","true","M + N","83","","SM","SM35.jpg","forget","old","13","1","start","left","","","",""
"html-keyboard-response","36","151637","0.0-2.0-2.0-0.13","c4cnrgnv81h5jdr","practice_no_cue","5f2a7f698ce86328a49cfc97","5f60e3c0a3b16e07647b2ff9","5f60f02eade02d000bc39927","false","null","<span style=""color: black; font-size: 48px"">N + M</span>","null","","","","resp_prompt","","","","","","","","","","","","","","","",""
"categorize-image","37","153028","0.0-2.0-2.0-1.13","c4cnrgnv81h5jdr","practice_no_cue","5f2a7f698ce86328a49cfc97","5f60e3c0a3b16e07647b2ff9","5f60f02eade02d000bc39927","true","885.4400000127498","./Stimuli/ImagesPractice/SN75.jpg","83","","","","test","true","N + M","83","","SN","SN75.jpg","forget","old","14","1","start","left","","","",""
"html-keyboard-response","38","153732","0.0-2.0-2.0-0.14","c4cnrgnv81h5jdr","practice_no_cue","5f2a7f698ce86328a49cfc97","5f60e3c0a3b16e07647b2ff9","5f60f02eade02d000bc39927","false","null","<span style=""color: black; font-size: 48px"">M + N</span>","null","","","","resp_prompt","","","","","","","","","","","","","","","",""
"categorize-image","39","155868","0.0-2.0-2.0-1.14","c4cnrgnv81h5jdr","practice_no_cue","5f2a7f698ce86328a49cfc97","5f60e3c0a3b16e07647b2ff9","5f60f02eade02d000bc39927","true","1630.8699999935925","./Stimuli/ImagesPractice/SM61.jpg","83","","","","test","true","M + N","83","","SM","SM61.jpg","remember","old","15","1","start","left","","","",""
"html-keyboard-response","40","156570","0.0-2.0-2.0-0.15","c4cnrgnv81h5jdr","practice_no_cue","5f2a7f698ce86328a49cfc97","5f60e3c0a3b16e07647b2ff9","5f60f02eade02d000bc39927","false","null","<span style=""color: black; font-size: 48px"">N + M</span>","null","","","","resp_prompt","","","","","","","","","","","","","","","",""
"categorize-image","41","158173","0.0-2.0-2.0-1.15","c4cnrgnv81h5jdr","practice_no_cue","5f2a7f698ce86328a49cfc97","5f60e3c0a3b16e07647b2ff9","5f60f02eade02d000bc39927","true","1098.1700000120327","./Stimuli/ImagesPractice/LN15.jpg","83","","","","test","true","N + M","83","","LN","LN15.jpg","remember","old","16","1","start","left","","","",""
"html-keyboard-response","42","166550","0.0-2.0-3.0","c4cnrgnv81h5jdr","break","5f2a7f698ce86328a49cfc97","5f60e3c0a3b16e07647b2ff9","5f60f02eade02d000bc39927","false","8371.85500000487","<p style='font-size: 32px;'>Break</><br><br><br><br><br><p style='font-size: 24px;'>In the last block, you committed 4 errors and did not respond in time on 0 trials.
</p><p style='font-size: 24px;'>Try to respond as fast and accurately as possible in the next block as well! </p><p style='font-size: 24px;'>Press SPACE to continue.</p>","32","","","","","","","","","","","","","","","","","","","",""
"html-keyboard-response","43","174267","0.0-2.0-4.0","c4cnrgnv81h5jdr","instructions","5f2a7f698ce86328a49cfc97","5f60e3c0a3b16e07647b2ff9","5f60f02eade02d000bc39927","false","7714.065000007395","<div align=left> Great!<br><br>Are you ready to continue?<br><br>If you want to reread the instructions and redo the practice trials, <br>please press „Z“. <br><br>Press SPACE to CONTINUE with the experiment when you are ready. </div>","90","","","","","","","","","","","","","","","","","","","",""
"html-keyboard-response","44","194404","0.0-2.1-0.1","c4cnrgnv81h5jdr","instructions","5f2a7f698ce86328a49cfc97","5f60e3c0a3b16e07647b2ff9","5f60f02eade02d000bc39927","false","20130.415000021458","<div align=justify>You will classify the objects using the <strong>'S'</strong> and the <strong>'L'</strong> keys on your keyboard.<br>For doing so, please place your <strong>left index finger</strong> on the <strong>'S'</strong> key and place your <strong>right index finger</strong> on the <strong>'L'</strong> key. <br><br> Each trial starts with an instruction, indicating which key ('S'/'L') you need to press to classify <br>the object as mechanical (letter M) or non-mechanical (letter N).<br>The instruction <strong>M + N</strong> indicates that, in the current trial, by pressing the left key ('S') you classify the displayed object as mechanical (M) <br> and by pressing the right key ('L') you classify the object as non-mechanical (N). <br>The instruction <strong>N + M</strong> on the other hand indicates that by pressing the left key ('S') you classify the displayed object as non-mechanical (N) <br> and by pressing the right key ('L') you classify the object as mechanical (M). <br><br>Please press the key corresponding to the correct classification as fast as possible as soon as the object is displayed and try to avoid making mistakes.<br>If you do not respond within a 2 second window, a corresponding feedback will be displayed and the next trial will start.<br> The experiment is divided into multiple blocks to give you the opportunity to take a break after each block. <br>First, you can now practice this task. <br><br>Please place your <strong>LEFT INDEX FINGER</strong> on the 'S' key and your <strong>RIGHT INDEX FINGER</strong> on the 'L' key now. <br><br>Press SPACE to continue.</div>","32","","","","","","","","","","","","","","","","","","","",""
"html-keyboard-response","45","195508","0.0-2.1-1.1","c4cnrgnv81h5jdr","instructions","5f2a7f698ce86328a49cfc97","5f60e3c0a3b16e07647b2ff9","5f60f02eade02d000bc39927","false","1100.9849999973085","<div align=left> You will now have time to practice this task.<br><br>Remember: <br> <br><li>Please place your index fingers on the <strong>'S'</strong> and <strong>'L'</strong> keys <br>to respond as fast and accurately as possible.</li><li>Every picture can be classified as either mechanical or non-mechanical.</li><li>If you do not respond in time or commit an error, you will receive a corresponding feedback. </li><li> Please try to respond as <strong> fast </strong> and as <strong> accurately as possible </strong> .<br><li>To ensure optimal results, please minimize distractions and stay focused. </li><br><br>Press SPACE to continue.</div>","32","","","","","","","","","","","","","","","","","","","",""
"html-keyboard-response","46","196214","0.0-2.1-2.1-0.16","c4cnrgnv81h5jdr","practice_no_cue","5f2a7f698ce86328a49cfc97","5f60e3c0a3b16e07647b2ff9","5f60f02eade02d000bc39927","false","null","<span style=""color: black; font-size: 48px"">N + M</span>","null","","","","resp_prompt","","","","","","","","","","","","","","","",""
"categorize-image","47","197717","0.0-2.1-2.1-1.16","c4cnrgnv81h5jdr","practice_no_cue","5f2a7f698ce86328a49cfc97","5f60e3c0a3b16e07647b2ff9","5f60f02eade02d000bc39927","true","993.9200000080746","./Stimuli/ImagesPractice/SM97.jpg","76","","","","test","true","N + M","76","","SM","SM97.jpg","forget","old","17","2","practice_forget","right","","","",""
"html-keyboard-response","48","198420","0.0-2.1-2.1-0.17","c4cnrgnv81h5jdr","practice_no_cue","5f2a7f698ce86328a49cfc97","5f60e3c0a3b16e07647b2ff9","5f60f02eade02d000bc39927","false","null","<span style=""color: black; font-size: 48px"">M + N</span>","null","","","","resp_prompt","","","","","","","","","","","","","","","",""
"categorize-image","49","199749","0.0-2.1-2.1-1.17","c4cnrgnv81h5jdr","practice_no_cue","5f2a7f698ce86328a49cfc97","5f60e3c0a3b16e07647b2ff9","5f60f02eade02d000bc39927","true","824.4349999877159","./Stimuli/ImagesPractice/LM230.jpg","83","","","","test","true","M + N","83","","LM","LM230.jpg","forget","old","18","2","practice_forget","left","","","",""
"html-keyboard-response","50","200454","0.0-2.1-2.1-0.18","c4cnrgnv81h5jdr","practice_no_cue","5f2a7f698ce86328a49cfc97","5f60e3c0a3b16e07647b2ff9","5f60f02eade02d000bc39927","false","null","<span style=""color: black; font-size: 48px"">N + M</span>","null","","","","resp_prompt","","","","","","","","","","","","","","","",""
"categorize-image","51","202337","0.0-2.1-2.1-1.18","c4cnrgnv81h5jdr","practice_no_cue","5f2a7f698ce86328a49cfc97","5f60e3c0a3b16e07647b2ff9","5f60f02eade02d000bc39927","true","1377.680000005057","./Stimuli/ImagesPractice/SN75.jpg","76","","","","test","false","N + M","83","","SN","SN75.jpg","forget","old","19","2","practice_forget","right","","","",""
"html-keyboard-response","52","203042","0.0-2.1-2.1-0.19","c4cnrgnv81h5jdr","practice_no_cue","5f2a7f698ce86328a49cfc97","5f60e3c0a3b16e07647b2ff9","5f60f02eade02d000bc39927","false","null","<span style=""color: black; font-size: 48px"">N + M</span>","null","","","","resp_prompt","","","","","","","","","","","","","","","",""
"categorize-image","53","204809","0.0-2.1-2.1-1.19","c4cnrgnv81h5jdr","practice_no_cue","5f2a7f698ce86328a49cfc97","5f60e3c0a3b16e07647b2ff9","5f60f02eade02d000bc39927","true","1261.6850000049453","./Stimuli/ImagesPractice/LN72.jpg","83","","","","test","true","N + M","83","","LN","LN72.jpg","remember","old","20","2","practice_forget","left","","","",""
"html-keyboard-response","54","205512","0.0-2.1-2.1-0.20","c4cnrgnv81h5jdr","practice_no_cue","5f2a7f698ce86328a49cfc97","5f60e3c0a3b16e07647b2ff9","5f60f02eade02d000bc39927","false","null","<span style=""color: black; font-size: 48px"">N + M</span>","null","","","","resp_prompt","","","","","","","","","","","","","","","",""
"categorize-image","55","207497","0.0-2.1-2.1-1.20","c4cnrgnv81h5jdr","practice_no_cue","5f2a7f698ce86328a49cfc97","5f60e3c0a3b16e07647b2ff9","5f60f02eade02d000bc39927","true","1478.674999991199","./Stimuli/ImagesPractice/SM98.jpg","76","","","","test","true","N + M","76","","SM","SM98.jpg","forget","old","21","2","practice_forget","right","","","",""
"html-keyboard-response","56","208203","0.0-2.1-2.1-0.21","c4cnrgnv81h5jdr","practice_no_cue","5f2a7f698ce86328a49cfc97","5f60e3c0a3b16e07647b2ff9","5f60f02eade02d000bc39927","false","null","<span style=""color: black; font-size: 48px"">M + N</span>","null","","","","resp_prompt","","","","","","","","","","","","","","","",""
"categorize-image","57","209943","0.0-2.1-2.1-1.21","c4cnrgnv81h5jdr","practice_no_cue","5f2a7f698ce86328a49cfc97","5f60e3c0a3b16e07647b2ff9","5f60f02eade02d000bc39927","true","1237.8949999983888","./Stimuli/ImagesPractice/LN109.jpg","76","","","","test","true","M + N","76","","LN","LN109.jpg","remember","old","22","2","practice_forget","right","","","",""
"html-keyboard-response","58","210647","0.0-2.1-2.1-0.22","c4cnrgnv81h5jdr","practice_no_cue","5f2a7f698ce86328a49cfc97","5f60e3c0a3b16e07647b2ff9","5f60f02eade02d000bc39927","false","null","<span style=""color: black; font-size: 48px"">N + M</span>","null","","","","resp_prompt","","","","","","","","","","","","","","","",""
"categorize-image","59","212555","0.0-2.1-2.1-1.22","c4cnrgnv81h5jdr","practice_no_cue","5f2a7f698ce86328a49cfc97","5f60e3c0a3b16e07647b2ff9","5f60f02eade02d000bc39927","true","1400.9899999946356","./Stimuli/ImagesPractice/LM239.jpg","76","","","","test","true","N + M","76","","LM","LM239.jpg","forget","old","23","2","practice_forget","right","","","",""
"html-keyboard-response","60","213258","0.0-2.1-2.1-0.23","c4cnrgnv81h5jdr","practice_no_cue","5f2a7f698ce86328a49cfc97","5f60e3c0a3b16e07647b2ff9","5f60f02eade02d000bc39927","false","null","<span style=""color: black; font-size: 48px"">M + N</span>","null","","","","resp_prompt","","","","","","","","","","","","","","","",""
"categorize-image","61","215514","0.0-2.1-2.1-1.23","c4cnrgnv81h5jdr","practice_no_cue","5f2a7f698ce86328a49cfc97","5f60e3c0a3b16e07647b2ff9","5f60f02eade02d000bc39927","true","1752.5150000001304","./Stimuli/ImagesPractice/SM61.jpg","83","","","","test","true","M + N","83","","SM","SM61.jpg","remember","old","24","2","practice_forget","left","","","",""
"html-keyboard-response","62","216220","0.0-2.1-2.1-0.24","c4cnrgnv81h5jdr","practice_no_cue","5f2a7f698ce86328a49cfc97","5f60e3c0a3b16e07647b2ff9","5f60f02eade02d000bc39927","false","null","<span style=""color: black; font-size: 48px"">M + N</span>","null","","","","resp_prompt","","","","","","","","","","","","","","","",""
"categorize-image","63","217506","0.0-2.1-2.1-1.24","c4cnrgnv81h5jdr","practice_no_cue","5f2a7f698ce86328a49cfc97","5f60e3c0a3b16e07647b2ff9","5f60f02eade02d000bc39927","true","783.995000005234","./Stimuli/ImagesPractice/SN220.jpg","76","","","","test","true","M + N","76","","SN","SN220.jpg","remember","old","25","2","practice_forget","right","","","",""
"html-keyboard-response","64","218210","0.0-2.1-2.1-0.25","c4cnrgnv81h5jdr","practice_no_cue","5f2a7f698ce86328a49cfc97","5f60e3c0a3b16e07647b2ff9","5f60f02eade02d000bc39927","false","null","<span style=""color: black; font-size: 48px"">N + M</span>","null","","","","resp_prompt","","","","","","","","","","","","","","","",""
"categorize-image","65","219563","0.0-2.1-2.1-1.25","c4cnrgnv81h5jdr","practice_no_cue","5f2a7f698ce86328a49cfc97","5f60e3c0a3b16e07647b2ff9","5f60f02eade02d000bc39927","true","849.1550000035204","./Stimuli/ImagesPractice/SN221.jpg","83","","","","test","true","N + M","83","","SN","SN221.jpg","remember","old","26","2","practice_forget","left","","","",""
"html-keyboard-response","66","220266","0.0-2.1-2.1-0.26","c4cnrgnv81h5jdr","practice_no_cue","5f2a7f698ce86328a49cfc97","5f60e3c0a3b16e07647b2ff9","5f60f02eade02d000bc39927","false","null","<span style=""color: black; font-size: 48px"">M + N</span>","null","","","","resp_prompt","","","","","","","","","","","","","","","",""
"categorize-image","67","221588","0.0-2.1-2.1-1.26","c4cnrgnv81h5jdr","practice_no_cue","5f2a7f698ce86328a49cfc97","5f60e3c0a3b16e07647b2ff9","5f60f02eade02d000bc39927","true","818.3600000047591","./Stimuli/ImagesPractice/SM35.jpg","83","","","","test","true","M + N","83","","SM","SM35.jpg","forget","old","27","2","practice_forget","left","","","",""
"html-keyboard-response","68","222294","0.0-2.1-2.1-0.27","c4cnrgnv81h5jdr","practice_no_cue","5f2a7f698ce86328a49cfc97","5f60e3c0a3b16e07647b2ff9","5f60f02eade02d000bc39927","false","null","<span style=""color: black; font-size: 48px"">N + M</span>","null","","","","resp_prompt","","","","","","","","","","","","","","","",""
"categorize-image","69","223580","0.0-2.1-2.1-1.27","c4cnrgnv81h5jdr","practice_no_cue","5f2a7f698ce86328a49cfc97","5f60e3c0a3b16e07647b2ff9","5f60f02eade02d000bc39927","true","781.3400000159163","./Stimuli/ImagesPractice/LN15.jpg","83","","","","test","true","N + M","83","","LN","LN15.jpg","remember","old","28","2","practice_forget","left","","","",""
"html-keyboard-response","70","224284","0.0-2.1-2.1-0.28","c4cnrgnv81h5jdr","practice_no_cue","5f2a7f698ce86328a49cfc97","5f60e3c0a3b16e07647b2ff9","5f60f02eade02d000bc39927","false","null","<span style=""color: black; font-size: 48px"">M + N</span>","null","","","","resp_prompt","","","","","","","","","","","","","","","",""
"categorize-image","71","225760","0.0-2.1-2.1-1.28","c4cnrgnv81h5jdr","practice_no_cue","5f2a7f698ce86328a49cfc97","5f60e3c0a3b16e07647b2ff9","5f60f02eade02d000bc39927","true","970.9549999970477","./Stimuli/ImagesPractice/SM62.jpg","83","","","","test","true","M + N","83","","SM","SM62.jpg","forget","old","29","2","practice_forget","left","","","",""
"html-keyboard-response","72","226465","0.0-2.1-2.1-0.29","c4cnrgnv81h5jdr","practice_no_cue","5f2a7f698ce86328a49cfc97","5f60e3c0a3b16e07647b2ff9","5f60f02eade02d000bc39927","false","null","<span style=""color: black; font-size: 48px"">N + M</span>","null","","","","resp_prompt","","","","","","","","","","","","","","","",""
"categorize-image","73","227596","0.0-2.1-2.1-1.29","c4cnrgnv81h5jdr","practice_no_cue","5f2a7f698ce86328a49cfc97","5f60e3c0a3b16e07647b2ff9","5f60f02eade02d000bc39927","true","628.2149999751709","./Stimuli/ImagesPractice/SN222.jpg","83","","","","test","true","N + M","83","","SN","SN222.jpg","remember","old","30","2","practice_forget","left","","","",""
"html-keyboard-response","74","228300","0.0-2.1-2.1-0.30","c4cnrgnv81h5jdr","practice_no_cue","5f2a7f698ce86328a49cfc97","5f60e3c0a3b16e07647b2ff9","5f60f02eade02d000bc39927","false","null","<span style=""color: black; font-size: 48px"">M + N</span>","null","","","","resp_prompt","","","","","","","","","","","","","","","",""
"categorize-image","75","229536","0.0-2.1-2.1-1.30","c4cnrgnv81h5jdr","practice_no_cue","5f2a7f698ce86328a49cfc97","5f60e3c0a3b16e07647b2ff9","5f60f02eade02d000bc39927","true","733.0500000098255","./Stimuli/ImagesPractice/LM224.jpg","83","","","","test","true","M + N","83","","LM","LM224.jpg","remember","old","31","2","practice_forget","left","","","",""
"html-keyboard-response","76","230242","0.0-2.1-2.1-0.31","c4cnrgnv81h5jdr","practice_no_cue","5f2a7f698ce86328a49cfc97","5f60e3c0a3b16e07647b2ff9","5f60f02eade02d000bc39927","false","null","<span style=""color: black; font-size: 48px"">M + N</span>","null","","","","resp_prompt","","","","","","","","","","","","","","","",""
"categorize-image","77","231473","0.0-2.1-2.1-1.31","c4cnrgnv81h5jdr","practice_no_cue","5f2a7f698ce86328a49cfc97","5f60e3c0a3b16e07647b2ff9","5f60f02eade02d000bc39927","true","724.8250000120606","./Stimuli/ImagesPractice/LM143.jpg","83","","","","test","true","M + N","83","","LM","LM143.jpg","forget","old","32","2","practice_forget","left","","","",""
"html-keyboard-response","78","232661","0.0-2.1-3.1","c4cnrgnv81h5jdr","break","5f2a7f698ce86328a49cfc97","5f60e3c0a3b16e07647b2ff9","5f60f02eade02d000bc39927","false","1180.064999993192","<p style='font-size: 32px;'>Break</><br><br><br><br><br><p style='font-size: 24px;'>In the last block, you committed 1 errors and did not respond in time on 0 trials.
</p><p style='font-size: 24px;'>Try to respond as fast and accurately as possible in the next block as well! </p><p style='font-size: 24px;'>Press SPACE to continue.</p>","32","","","","","","","","","","","","","","","","","","","",""
"html-keyboard-response","79","233804","0.0-2.1-4.1","c4cnrgnv81h5jdr","instructions","5f2a7f698ce86328a49cfc97","5f60e3c0a3b16e07647b2ff9","5f60f02eade02d000bc39927","false","1141.3900000043213","<div align=left> Great!<br><br>Are you ready to continue?<br><br>If you want to reread the instructions and redo the practice trials, <br>please press „Z“. <br><br>Press SPACE to CONTINUE with the experiment when you are ready. </div>","32","","","","","","","","","","","","","","","","","","","",""
"html-keyboard-response","80","273100","0.0-3.0-0.0","c4cnrgnv81h5jdr","instructions","5f2a7f698ce86328a49cfc97","5f60e3c0a3b16e07647b2ff9","5f60f02eade02d000bc39927","false","39297.600000019884","<div align=left>Great!<br> <strong>Attention</strong>! You will now receive a second, additional task! <br><br>To this point it was you <strong>first task</strong> to correctly <strong>classify objects</strong>. <br><br>As mentioned in the beginning, we aim to examine how well humans can remember previously learned information.<br>We would like to find out whether our memory improves if we only remember information that is relevant to us. <br><br>Therefore, your <strong>second task</strong> will be to <strong>remember</strong> the pictures you are to categorize. <br> After the learning phase, there will be a memory test phase, in which you will be asked to indicate whether you have seen a picture before or not. <br>Some, but not all pictures shown in the learning phase will appear in the memory test phase.<br>After classifying a picture, you will be told whether you should remember it for the memory test phase or not. <br>Thus, some pictures can be forgotten, whereas others have to be remembered. <br><br>Note: From now on, feedback will only be displayed if you responded incorrectly or not in time.<br><br>Press SPACE to continue.</div>","32","","","","","","","","","","","","","","","","","","","",""
"html-keyboard-response","81","295539","0.0-3.0-1.0","c4cnrgnv81h5jdr","instructions","5f2a7f698ce86328a49cfc97","5f60e3c0a3b16e07647b2ff9","5f60f02eade02d000bc39927","false","22437.509999988833","<div align=left>In the following part, you will thus have to remember only some pictures. <br>Immediately after seeing and classifying the picture, a symbol will be displayed, indicating whether you should remember or forget the previous picture. <br><br>A <span style='color: dodgerblue; font-size: 28px'>O</span> indicates REMEMBER. That means, you have to remember this picture, because it will be tested later. <br><br>A <span style='color: darkorange; font-size:28px'>Ø</span> indicates FORGET. You do not have to remember this picture. <br><br> As you will have to remember a lot of pictures, it will be hard for you to remember all of them. <br>It will put you at an advantage if you instantly forget the pictures you are not asked to remember. <br> This will make it easier for you to remember the pictures that will be tested afterwards. <br><br>Press SPACE to continue.</div>","32","","","","","","","","","","","","","","","","","","","",""
"html-keyboard-response","82","302785","0.0-3.0-2.0","c4cnrgnv81h5jdr","instructions","5f2a7f698ce86328a49cfc97","5f60e3c0a3b16e07647b2ff9","5f60f02eade02d000bc39927","false","7242.995000007795","<div align=left> Now you have the chance to practice both tasks together.<br><br>Remember: <br> <br><li>Please place your index fingers on the <strong>'S'</strong> and <strong>'L'</strong> keys <br>to respond as fast and accurately as possible.</li><li>Every picture can be classified as either mechanical or non-mechanical.</li><li>If you do not respond in time or commit an error, you will receive a corresponding feedback. <br>Please try to respond as <strong> fast </strong> and as <strong> accurately as possible </strong>.</li><li> Please remember only the to-be-remembered <span style='color: dodgerblue; font-size: 28px'>O</span> pictures. <br></li><li> Please minimize distractions and stay focused. </li><br><br>Press SPACE to START</div>","32","","","","","","","","","","","","","","","","","","","",""
"html-keyboard-response","83","303488","0.0-3.0-3.0-0.0","c4cnrgnv81h5jdr","practice_cue","5f2a7f698ce86328a49cfc97","5f60e3c0a3b16e07647b2ff9","5f60f02eade02d000bc39927","false","null","<span style=""color: black; font-size: 48px"">N + M</span>","null","","","","resp_prompt","","","","","","","","","","","","","","","",""
"categorize-image","84","304168","0.0-3.0-3.0-1.0","c4cnrgnv81h5jdr","practice_cue","5f2a7f698ce86328a49cfc97","5f60e3c0a3b16e07647b2ff9","5f60f02eade02d000bc39927","true","674.025000014808","./Stimuli/ImagesPractice/SN222.jpg","83","","","","test","true","N + M","83","","SN","SN222.jpg","remember","old","33","3","practice_forget","left","","","",""
"html-keyboard-response","85","306171","0.0-3.0-3.0-3.0","c4cnrgnv81h5jdr","practice_cue","5f2a7f698ce86328a49cfc97","5f60e3c0a3b16e07647b2ff9","5f60f02eade02d000bc39927","false","null","<div style=""align-items: center; display: flex; color: dodgerblue; font-size: 90px""><b>o</b></div>","null","","","","forget_cue","","","","","","","","","","","","","","","",""
"html-keyboard-response","86","306875","0.0-3.0-3.0-0.1","c4cnrgnv81h5jdr","practice_cue","5f2a7f698ce86328a49cfc97","5f60e3c0a3b16e07647b2ff9","5f60f02eade02d000bc39927","false","null","<span style=""color: black; font-size: 48px"">M + N</span>","null","","","","resp_prompt","","","","","","","","","","","","","","","",""
"categorize-image","87","307752","0.0-3.0-3.0-1.1","c4cnrgnv81h5jdr","practice_cue","5f2a7f698ce86328a49cfc97","5f60e3c0a3b16e07647b2ff9","5f60f02eade02d000bc39927","true","870.8500000066124","./Stimuli/ImagesPractice/LN109.jpg","76","","","","test","true","M + N","76","","LN","LN109.jpg","remember","old","34","3","practice_forget","right","","","",""
"html-keyboard-response","88","309759","0.0-3.0-3.0-3.1","c4cnrgnv81h5jdr","practice_cue","5f2a7f698ce86328a49cfc97","5f60e3c0a3b16e07647b2ff9","5f60f02eade02d000bc39927","false","null","<div style=""align-items: center; display: flex; color: dodgerblue; font-size: 90px""><b>o</b></div>","null","","","","forget_cue","","","","","","","","","","","","","","","",""
"html-keyboard-response","89","310461","0.0-3.0-3.0-0.2","c4cnrgnv81h5jdr","practice_cue","5f2a7f698ce86328a49cfc97","5f60e3c0a3b16e07647b2ff9","5f60f02eade02d000bc39927","false","null","<span style=""color: black; font-size: 48px"">N + M</span>","null","","","","resp_prompt","","","","","","","","","","","","","","","",""
"categorize-image","90","311253","0.0-3.0-3.0-1.2","c4cnrgnv81h5jdr","practice_cue","5f2a7f698ce86328a49cfc97","5f60e3c0a3b16e07647b2ff9","5f60f02eade02d000bc39927","true","785.425000009127","./Stimuli/ImagesPractice/SN221.jpg","83","","","","test","true","N + M","83","","SN","SN221.jpg","remember","old","35","3","practice_forget","left","","","",""
"html-keyboard-response","91","313258","0.0-3.0-3.0-3.2","c4cnrgnv81h5jdr","practice_cue","5f2a7f698ce86328a49cfc97","5f60e3c0a3b16e07647b2ff9","5f60f02eade02d000bc39927","false","null","<div style=""align-items: center; display: flex; color: dodgerblue; font-size: 90px""><b>o</b></div>","null","","","","forget_cue","","","","","","","","","","","","","","","",""
"html-keyboard-response","92","313960","0.0-3.0-3.0-0.3","c4cnrgnv81h5jdr","practice_cue","5f2a7f698ce86328a49cfc97","5f60e3c0a3b16e07647b2ff9","5f60f02eade02d000bc39927","false","null","<span style=""color: black; font-size: 48px"">N + M</span>","null","","","","resp_prompt","","","","","","","","","","","","","","","",""
"categorize-image","93","315147","0.0-3.0-3.0-1.3","c4cnrgnv81h5jdr","practice_cue","5f2a7f698ce86328a49cfc97","5f60e3c0a3b16e07647b2ff9","5f60f02eade02d000bc39927","true","1181.669999990845","./Stimuli/ImagesPractice/LN72.jpg","83","","","","test","true","N + M","83","","LN","LN72.jpg","remember","old","36","3","practice_forget","left","","","",""
"html-keyboard-response","94","317151","0.0-3.0-3.0-3.3","c4cnrgnv81h5jdr","practice_cue","5f2a7f698ce86328a49cfc97","5f60e3c0a3b16e07647b2ff9","5f60f02eade02d000bc39927","false","null","<div style=""align-items: center; display: flex; color: dodgerblue; font-size: 90px""><b>o</b></div>","null","","","","forget_cue","","","","","","","","","","","","","","","",""
"html-keyboard-response","95","317853","0.0-3.0-3.0-0.4","c4cnrgnv81h5jdr","practice_cue","5f2a7f698ce86328a49cfc97","5f60e3c0a3b16e07647b2ff9","5f60f02eade02d000bc39927","false","null","<span style=""color: black; font-size: 48px"">M + N</span>","null","","","","resp_prompt","","","","","","","","","","","","","","","",""
"categorize-image","96","318863","0.0-3.0-3.0-1.4","c4cnrgnv81h5jdr","practice_cue","5f2a7f698ce86328a49cfc97","5f60e3c0a3b16e07647b2ff9","5f60f02eade02d000bc39927","true","1004.2699999758042","./Stimuli/ImagesPractice/SN220.jpg","76","","","","test","true","M + N","76","","SN","SN220.jpg","remember","old","37","3","practice_forget","right","","","",""
"html-keyboard-response","97","320869","0.0-3.0-3.0-3.4","c4cnrgnv81h5jdr","practice_cue","5f2a7f698ce86328a49cfc97","5f60e3c0a3b16e07647b2ff9","5f60f02eade02d000bc39927","false","null","<div style=""align-items: center; display: flex; color: dodgerblue; font-size: 90px""><b>o</b></div>","null","","","","forget_cue","","","","","","","","","","","","","","","",""
"html-keyboard-response","98","321572","0.0-3.0-3.0-0.5","c4cnrgnv81h5jdr","practice_cue","5f2a7f698ce86328a49cfc97","5f60e3c0a3b16e07647b2ff9","5f60f02eade02d000bc39927","false","null","<span style=""color: black; font-size: 48px"">M + N</span>","null","","","","resp_prompt","","","","","","","","","","","","","","","",""
"categorize-image","99","322612","0.0-3.0-3.0-1.5","c4cnrgnv81h5jdr","practice_cue","5f2a7f698ce86328a49cfc97","5f60e3c0a3b16e07647b2ff9","5f60f02eade02d000bc39927","true","1034.4899999909103","./Stimuli/ImagesPractice/LM224.jpg","83","","","","test","true","M + N","83","","LM","LM224.jpg","remember","old","38","3","practice_forget","left","","","",""
"html-keyboard-response","100","324618","0.0-3.0-3.0-3.5","c4cnrgnv81h5jdr","practice_cue","5f2a7f698ce86328a49cfc97","5f60e3c0a3b16e07647b2ff9","5f60f02eade02d000bc39927","false","null","<div style=""align-items: center; display: flex; color: dodgerblue; font-size: 90px""><b>o</b></div>","null","","","","forget_cue","","","","","","","","","","","","","","","",""
"html-keyboard-response","101","325321","0.0-3.0-3.0-0.6","c4cnrgnv81h5jdr","practice_cue","5f2a7f698ce86328a49cfc97","5f60e3c0a3b16e07647b2ff9","5f60f02eade02d000bc39927","false","null","<span style=""color: black; font-size: 48px"">N + M</span>","null","","","","resp_prompt","","","","","","","","","","","","","","","",""
"categorize-image","102","326095","0.0-3.0-3.0-1.6","c4cnrgnv81h5jdr","practice_cue","5f2a7f698ce86328a49cfc97","5f60e3c0a3b16e07647b2ff9","5f60f02eade02d000bc39927","true","769.7400000179186","./Stimuli/ImagesPractice/SM97.jpg","76","","","","test","true","N + M","76","","SM","SM97.jpg","forget","old","39","3","practice_forget","right","","","",""
"html-keyboard-response","103","328100","0.0-3.0-3.0-3.6","c4cnrgnv81h5jdr","practice_cue","5f2a7f698ce86328a49cfc97","5f60e3c0a3b16e07647b2ff9","5f60f02eade02d000bc39927","false","null","<div style=""align-items: center; display: flex; color: darkorange; font-size: 90px""><b>ø</b></div>","null","","","","forget_cue","","","","","","","","","","","","","","","",""
"html-keyboard-response","104","328802","0.0-3.0-3.0-0.7","c4cnrgnv81h5jdr","practice_cue","5f2a7f698ce86328a49cfc97","5f60e3c0a3b16e07647b2ff9","5f60f02eade02d000bc39927","false","null","<span style=""color: black; font-size: 48px"">N + M</span>","null","","","","resp_prompt","","","","","","","","","","","","","","","",""
"categorize-image","105","329784","0.0-3.0-3.0-1.7","c4cnrgnv81h5jdr","practice_cue","5f2a7f698ce86328a49cfc97","5f60e3c0a3b16e07647b2ff9","5f60f02eade02d000bc39927","true","976.1550000112038","./Stimuli/ImagesPractice/LN15.jpg","83","","","","test","true","N + M","83","","LN","LN15.jpg","remember","old","40","3","practice_forget","left","","","",""
"html-keyboard-response","106","331789","0.0-3.0-3.0-3.7","c4cnrgnv81h5jdr","practice_cue","5f2a7f698ce86328a49cfc97","5f60e3c0a3b16e07647b2ff9","5f60f02eade02d000bc39927","false","null","<div style=""align-items: center; display: flex; color: dodgerblue; font-size: 90px""><b>o</b></div>","null","","","","forget_cue","","","","","","","","","","","","","","","",""
"html-keyboard-response","107","332493","0.0-3.0-3.0-0.8","c4cnrgnv81h5jdr","practice_cue","5f2a7f698ce86328a49cfc97","5f60e3c0a3b16e07647b2ff9","5f60f02eade02d000bc39927","false","null","<span style=""color: black; font-size: 48px"">M + N</span>","null","","","","resp_prompt","","","","","","","","","","","","","","","",""
"categorize-image","108","333355","0.0-3.0-3.0-1.8","c4cnrgnv81h5jdr","practice_cue","5f2a7f698ce86328a49cfc97","5f60e3c0a3b16e07647b2ff9","5f60f02eade02d000bc39927","true","854.4049999909475","./Stimuli/ImagesPractice/SM35.jpg","83","","","","test","true","M + N","83","","SM","SM35.jpg","forget","old","41","3","practice_forget","left","","","",""
"html-keyboard-response","109","335359","0.0-3.0-3.0-3.8","c4cnrgnv81h5jdr","practice_cue","5f2a7f698ce86328a49cfc97","5f60e3c0a3b16e07647b2ff9","5f60f02eade02d000bc39927","false","null","<div style=""align-items: center; display: flex; color: darkorange; font-size: 90px""><b>ø</b></div>","null","","","","forget_cue","","","","","","","","","","","","","","","",""
"html-keyboard-response","110","336061","0.0-3.0-3.0-0.9","c4cnrgnv81h5jdr","practice_cue","5f2a7f698ce86328a49cfc97","5f60e3c0a3b16e07647b2ff9","5f60f02eade02d000bc39927","false","null","<span style=""color: black; font-size: 48px"">N + M</span>","null","","","","resp_prompt","","","","","","","","","","","","","","","",""
"categorize-image","111","336821","0.0-3.0-3.0-1.9","c4cnrgnv81h5jdr","practice_cue","5f2a7f698ce86328a49cfc97","5f60e3c0a3b16e07647b2ff9","5f60f02eade02d000bc39927","true","754.8999999999069","./Stimuli/ImagesPractice/SN75.jpg","83","","","","test","true","N + M","83","","SN","SN75.jpg","forget","old","42","3","practice_forget","left","","","",""
"html-keyboard-response","112","338825","0.0-3.0-3.0-3.9","c4cnrgnv81h5jdr","practice_cue","5f2a7f698ce86328a49cfc97","5f60e3c0a3b16e07647b2ff9","5f60f02eade02d000bc39927","false","null","<div style=""align-items: center; display: flex; color: darkorange; font-size: 90px""><b>ø</b></div>","null","","","","forget_cue","","","","","","","","","","","","","","","",""
"html-keyboard-response","113","339527","0.0-3.0-3.0-0.10","c4cnrgnv81h5jdr","practice_cue","5f2a7f698ce86328a49cfc97","5f60e3c0a3b16e07647b2ff9","5f60f02eade02d000bc39927","false","null","<span style=""color: black; font-size: 48px"">M + N</span>","null","","","","resp_prompt","","","","","","","","","","","","","","","",""
"categorize-image","114","340230","0.0-3.0-3.0-1.10","c4cnrgnv81h5jdr","practice_cue","5f2a7f698ce86328a49cfc97","5f60e3c0a3b16e07647b2ff9","5f60f02eade02d000bc39927","true","698.1450000021141","./Stimuli/ImagesPractice/LM143.jpg","83","","","","test","true","M + N","83","","LM","LM143.jpg","forget","old","43","3","practice_forget","left","","","",""
"html-keyboard-response","115","342236","0.0-3.0-3.0-3.10","c4cnrgnv81h5jdr","practice_cue","5f2a7f698ce86328a49cfc97","5f60e3c0a3b16e07647b2ff9","5f60f02eade02d000bc39927","false","null","<div style=""align-items: center; display: flex; color: darkorange; font-size: 90px""><b>ø</b></div>","null","","","","forget_cue","","","","","","","","","","","","","","","",""
"html-keyboard-response","116","342938","0.0-3.0-3.0-0.11","c4cnrgnv81h5jdr","practice_cue","5f2a7f698ce86328a49cfc97","5f60e3c0a3b16e07647b2ff9","5f60f02eade02d000bc39927","false","null","<span style=""color: black; font-size: 48px"">M + N</span>","null","","","","resp_prompt","","","","","","","","","","","","","","","",""
"categorize-image","117","343572","0.0-3.0-3.0-1.11","c4cnrgnv81h5jdr","practice_cue","5f2a7f698ce86328a49cfc97","5f60e3c0a3b16e07647b2ff9","5f60f02eade02d000bc39927","true","628.740000014659","./Stimuli/ImagesPractice/LM230.jpg","83","","","","test","true","M + N","83","","LM","LM230.jpg","forget","old","44","3","practice_forget","left","","","",""
"html-keyboard-response","118","345577","0.0-3.0-3.0-3.11","c4cnrgnv81h5jdr","practice_cue","5f2a7f698ce86328a49cfc97","5f60e3c0a3b16e07647b2ff9","5f60f02eade02d000bc39927","false","null","<div style=""align-items: center; display: flex; color: darkorange; font-size: 90px""><b>ø</b></div>","null","","","","forget_cue","","","","","","","","","","","","","","","",""
"html-keyboard-response","119","346281","0.0-3.0-3.0-0.12","c4cnrgnv81h5jdr","practice_cue","5f2a7f698ce86328a49cfc97","5f60e3c0a3b16e07647b2ff9","5f60f02eade02d000bc39927","false","null","<span style=""color: black; font-size: 48px"">M + N</span>","null","","","","resp_prompt","","","","","","","","","","","","","","","",""
"categorize-image","120","347320","0.0-3.0-3.0-1.12","c4cnrgnv81h5jdr","practice_cue","5f2a7f698ce86328a49cfc97","5f60e3c0a3b16e07647b2ff9","5f60f02eade02d000bc39927","true","1034.4550000154413","./Stimuli/ImagesPractice/SM61.jpg","83","","","","test","true","M + N","83","","SM","SM61.jpg","remember","old","45","3","practice_forget","left","","","",""
"html-keyboard-response","121","349324","0.0-3.0-3.0-3.12","c4cnrgnv81h5jdr","practice_cue","5f2a7f698ce86328a49cfc97","5f60e3c0a3b16e07647b2ff9","5f60f02eade02d000bc39927","false","null","<div style=""align-items: center; display: flex; color: dodgerblue; font-size: 90px""><b>o</b></div>","null","","","","forget_cue","","","","","","","","","","","","","","","",""
"html-keyboard-response","122","350027","0.0-3.0-3.0-0.13","c4cnrgnv81h5jdr","practice_cue","5f2a7f698ce86328a49cfc97","5f60e3c0a3b16e07647b2ff9","5f60f02eade02d000bc39927","false","null","<span style=""color: black; font-size: 48px"">N + M</span>","null","","","","resp_prompt","","","","","","","","","","","","","","","",""
"categorize-image","123","350893","0.0-3.0-3.0-1.13","c4cnrgnv81h5jdr","practice_cue","5f2a7f698ce86328a49cfc97","5f60e3c0a3b16e07647b2ff9","5f60f02eade02d000bc39927","true","860.3500000026543","./Stimuli/ImagesPractice/LM239.jpg","76","","","","test","true","N + M","76","","LM","LM239.jpg","forget","old","46","3","practice_forget","right","","","",""
"html-keyboard-response","124","352897","0.0-3.0-3.0-3.13","c4cnrgnv81h5jdr","practice_cue","5f2a7f698ce86328a49cfc97","5f60e3c0a3b16e07647b2ff9","5f60f02eade02d000bc39927","false","null","<div style=""align-items: center; display: flex; color: darkorange; font-size: 90px""><b>ø</b></div>","null","","","","forget_cue","","","","","","","","","","","","","","","",""
"html-keyboard-response","125","353600","0.0-3.0-3.0-0.14","c4cnrgnv81h5jdr","practice_cue","5f2a7f698ce86328a49cfc97","5f60e3c0a3b16e07647b2ff9","5f60f02eade02d000bc39927","false","null","<span style=""color: black; font-size: 48px"">N + M</span>","null","","","","resp_prompt","","","","","","","","","","","","","","","",""
"categorize-image","126","354344","0.0-3.0-3.0-1.14","c4cnrgnv81h5jdr","practice_cue","5f2a7f698ce86328a49cfc97","5f60e3c0a3b16e07647b2ff9","5f60f02eade02d000bc39927","true","738.3450000197627","./Stimuli/ImagesPractice/SM98.jpg","76","","","","test","true","N + M","76","","SM","SM98.jpg","forget","old","47","3","practice_forget","right","","","",""
"html-keyboard-response","127","356346","0.0-3.0-3.0-3.14","c4cnrgnv81h5jdr","practice_cue","5f2a7f698ce86328a49cfc97","5f60e3c0a3b16e07647b2ff9","5f60f02eade02d000bc39927","false","null","<div style=""align-items: center; display: flex; color: darkorange; font-size: 90px""><b>ø</b></div>","null","","","","forget_cue","","","","","","","","","","","","","","","",""
"html-keyboard-response","128","357051","0.0-3.0-3.0-0.15","c4cnrgnv81h5jdr","practice_cue","5f2a7f698ce86328a49cfc97","5f60e3c0a3b16e07647b2ff9","5f60f02eade02d000bc39927","false","null","<span style=""color: black; font-size: 48px"">M + N</span>","null","","","","resp_prompt","","","","","","","","","","","","","","","",""
"categorize-image","129","357778","0.0-3.0-3.0-1.15","c4cnrgnv81h5jdr","practice_cue","5f2a7f698ce86328a49cfc97","5f60e3c0a3b16e07647b2ff9","5f60f02eade02d000bc39927","true","722.08999999566","./Stimuli/ImagesPractice/SM62.jpg","83","","","","test","true","M + N","83","","SM","SM62.jpg","forget","old","48","3","practice_forget","left","","","",""
"html-keyboard-response","130","359783","0.0-3.0-3.0-3.15","c4cnrgnv81h5jdr","practice_cue","5f2a7f698ce86328a49cfc97","5f60e3c0a3b16e07647b2ff9","5f60f02eade02d000bc39927","false","null","<div style=""align-items: center; display: flex; color: darkorange; font-size: 90px""><b>ø</b></div>","null","","","","forget_cue","","","","","","","","","","","","","","","",""
"html-keyboard-response","131","362759","0.0-3.0-4.0","c4cnrgnv81h5jdr","break","5f2a7f698ce86328a49cfc97","5f60e3c0a3b16e07647b2ff9","5f60f02eade02d000bc39927","false","2973.245000001043","<p style='font-size: 32px;'>Break</><br><br><br><br><br><p style='font-size: 24px;'>In the last block, you committed 0 errors and did not respond in time on 0 trials.
</p><p style='font-size: 24px;'>Try to respond as fast and accurately as possible in the next block as well! </p><p style='font-size: 24px;'>Press SPACE to continue.</p>","32","","","","","","","","","","","","","","","","","","","",""
"html-keyboard-response","132","419958","0.0-3.0-5.0","c4cnrgnv81h5jdr","instructions","5f2a7f698ce86328a49cfc97","5f60e3c0a3b16e07647b2ff9","5f60f02eade02d000bc39927","false","57197.16000001063","<div align=left> Now, to practice, we kindly ask you to remember as many of the to-be-remembered pictures<br>of the previous learning phase as possible.<br><br>The pictures you were instructed to remember were the pictures followed by a <span style='color: dodgerblue; font-size: 28px'>O</span>.<br><br>In this memory test phase, you will also see some new pictures.<br>It is your task to remember whether you were presented with this specific picture in this study so far or not.<br>If you recognize an object (you have already seen it in this study), it is an OLD object. <br>If you do not recognize an object (you have NOT seen it in this study), it is a NEW object. <br><strong> Attention</strong>: As already mentioned, <span style='color: darkorange; font-size:28px'>Ø</span>-pictures will <strong>never</strong> appear in this memory test (neither as new objects). <br><br>Press SPACE to continue. </div>","32","","","","","","","","","","","","","","","","","","","",""
"html-keyboard-response","133","472264","0.0-3.0-6.0","c4cnrgnv81h5jdr","instructions","5f2a7f698ce86328a49cfc97","5f60e3c0a3b16e07647b2ff9","5f60f02eade02d000bc39927","false","52302.75000000256","<div align=left> M and N no longer will appear on the left/right of the fixation cross. <br>Instead there will be a note at the bottom of the left or right side  <br>indicating which key you should press for an old or new object:  <br> <br>Press the <strong>right</strong> key to classify an object as <strong>old</strong> and press the <strong>left</strong>, to classify an object as <strong>new</strong>.<br>Please classify the objects as new/old by again placing your index finger on the 'S' and 'L' keys <br>and press them accordingly.<br><br><strong>Old:</strong> This object has been presented before. <br><strong>New:</strong> This object has <strong>not</strong> been presented.<br><br>Now please put your right and left index fingers on the 'S' and 'L' keys of your keyboard. <br>Please respond as fast and as accurately as possible!<br><br>Press SPACE to continue. </div>","32","","","","","","","","","","","","","","","","","","","",""
"categorize-image","134","475243","0.0-3.0-7.0-0.0","c4cnrgnv81h5jdr","practice_recog","5f2a7f698ce86328a49cfc97","5f60e3c0a3b16e07647b2ff9","5f60f02eade02d000bc39927","true","2472.3850000009406","./Stimuli/ImagesPractice/SN221.jpg","76","","","","test","true","","76","","SN","SN221.jpg","","old","49","4","practice_recog","right","","","",""
"categorize-image","135","476786","0.0-3.0-7.0-0.1","c4cnrgnv81h5jdr","practice_recog","5f2a7f698ce86328a49cfc97","5f60e3c0a3b16e07647b2ff9","5f60f02eade02d000bc39927","true","1037.8300000156742","./Stimuli/ImagesPractice/SM61.jpg","76","","","","test","true","","76","","SM","SM61.jpg","","old","50","4","practice_recog","right","","","",""
"categorize-image","136","478034","0.0-3.0-7.0-0.2","c4cnrgnv81h5jdr","practice_recog","5f2a7f698ce86328a49cfc97","5f60e3c0a3b16e07647b2ff9","5f60f02eade02d000bc39927","true","741.3149999920279","./Stimuli/ImagesPractice/LN4.jpg","83","","","","test","true","","83","","LN","LN4.jpg","","new","51","4","practice_recog","left","","","",""
"categorize-image","137","479240","0.0-3.0-7.0-0.3","c4cnrgnv81h5jdr","practice_recog","5f2a7f698ce86328a49cfc97","5f60e3c0a3b16e07647b2ff9","5f60f02eade02d000bc39927","true","700.8899999782443","./Stimuli/ImagesPractice/SN205.jpg","83","","","","test","true","","83","","SN","SN205.jpg","","new","52","4","practice_recog","left","","","",""
"categorize-image","138","480572","0.0-3.0-7.0-0.4","c4cnrgnv81h5jdr","practice_recog","5f2a7f698ce86328a49cfc97","5f60e3c0a3b16e07647b2ff9","5f60f02eade02d000bc39927","true","828.1649999844376","./Stimuli/ImagesPractice/SN222.jpg","76","","","","test","true","","76","","SN","SN222.jpg","","old","53","4","practice_recog","right","","","",""
"categorize-image","139","481909","0.0-3.0-7.0-0.5","c4cnrgnv81h5jdr","practice_recog","5f2a7f698ce86328a49cfc97","5f60e3c0a3b16e07647b2ff9","5f60f02eade02d000bc39927","true","829.1999999783002","./Stimuli/ImagesPractice/SM37.jpg","83","","","","test","true","","83","","SM","SM37.jpg","","new","54","4","practice_recog","left","","","",""
"categorize-image","140","483294","0.0-3.0-7.0-0.6","c4cnrgnv81h5jdr","practice_recog","5f2a7f698ce86328a49cfc97","5f60e3c0a3b16e07647b2ff9","5f60f02eade02d000bc39927","true","878.2300000020768","./Stimuli/ImagesPractice/SN220.jpg","76","","","","test","true","","76","","SN","SN220.jpg","","old","55","4","practice_recog","right","","","",""
"categorize-image","141","484882","0.0-3.0-7.0-0.7","c4cnrgnv81h5jdr","practice_recog","5f2a7f698ce86328a49cfc97","5f60e3c0a3b16e07647b2ff9","5f60f02eade02d000bc39927","true","1082.1600000199396","./Stimuli/ImagesPractice/LN72.jpg","76","","","","test","true","","76","","LN","LN72.jpg","","old","56","4","practice_recog","right","","","",""
"categorize-image","142","486073","0.0-3.0-7.0-0.8","c4cnrgnv81h5jdr","practice_recog","5f2a7f698ce86328a49cfc97","5f60e3c0a3b16e07647b2ff9","5f60f02eade02d000bc39927","true","684.0800000063609","./Stimuli/ImagesPractice/SN76.jpg","83","","","","test","true","","83","","SN","SN76.jpg","","new","57","4","practice_recog","left","","","",""
"categorize-image","143","487374","0.0-3.0-7.0-0.9","c4cnrgnv81h5jdr","practice_recog","5f2a7f698ce86328a49cfc97","5f60e3c0a3b16e07647b2ff9","5f60f02eade02d000bc39927","true","792.0299999823328","./Stimuli/ImagesPractice/LN109.jpg","76","","","","test","true","","76","","LN","LN109.jpg","","old","58","4","practice_recog","right","","","",""
"categorize-image","144","489196","0.0-3.0-7.0-0.10","c4cnrgnv81h5jdr","practice_recog","5f2a7f698ce86328a49cfc97","5f60e3c0a3b16e07647b2ff9","5f60f02eade02d000bc39927","true","1315.9649999870453","./Stimuli/ImagesPractice/LM147.jpg","83","","","","test","true","","83","","LM","LM147.jpg","","new","59","4","practice_recog","left","","","",""
"categorize-image","145","490514","0.0-3.0-7.0-0.11","c4cnrgnv81h5jdr","practice_recog","5f2a7f698ce86328a49cfc97","5f60e3c0a3b16e07647b2ff9","5f60f02eade02d000bc39927","true","812.6650000049267","./Stimuli/ImagesPractice/LM224.jpg","76","","","","test","true","","76","","LM","LM224.jpg","","old","60","4","practice_recog","right","","","",""
"categorize-image","146","491827","0.0-3.0-7.0-0.12","c4cnrgnv81h5jdr","practice_recog","5f2a7f698ce86328a49cfc97","5f60e3c0a3b16e07647b2ff9","5f60f02eade02d000bc39927","true","805.49999998766","./Stimuli/ImagesPractice/LN2.jpg","83","","","","test","true","","83","","LN","LN2.jpg","","new","61","4","practice_recog","left","","","",""
"categorize-image","147","493267","0.0-3.0-7.0-0.13","c4cnrgnv81h5jdr","practice_recog","5f2a7f698ce86328a49cfc97","5f60e3c0a3b16e07647b2ff9","5f60f02eade02d000bc39927","true","932.6000000000931","./Stimuli/ImagesPractice/LM55.jpg","83","","","","test","true","","83","","LM","LM55.jpg","","new","62","4","practice_recog","left","","","",""
"categorize-image","148","494562","0.0-3.0-7.0-0.14","c4cnrgnv81h5jdr","practice_recog","5f2a7f698ce86328a49cfc97","5f60e3c0a3b16e07647b2ff9","5f60f02eade02d000bc39927","true","786.2450000247918","./Stimuli/ImagesPractice/LN15.jpg","76","","","","test","true","","76","","LN","LN15.jpg","","old","63","4","practice_recog","right","","","",""
"categorize-image","149","495838","0.0-3.0-7.0-0.15","c4cnrgnv81h5jdr","practice_recog","5f2a7f698ce86328a49cfc97","5f60e3c0a3b16e07647b2ff9","5f60f02eade02d000bc39927","true","767.3450000002049","./Stimuli/ImagesPractice/LN17.jpg","83","","","","test","true","","83","","LN","LN17.jpg","","new","64","4","practice_recog","left","","","",""
"html-keyboard-response","150","498012","0.0-3.0-8.0","c4cnrgnv81h5jdr","instructions","5f2a7f698ce86328a49cfc97","5f60e3c0a3b16e07647b2ff9","5f60f02eade02d000bc39927","false","2171.9299999822397","<div align=left> Great!<br><br>Are you ready to continue?<br>If you want to reread the instructions and redo the practice trials, please <br>press „Z“.<br><br>You can proceed when you are ready.<br><br>After the presentation of each object, you will receive an instruction whether to <br>remember or to forget the object.<br>We will test your memory of the following pictures only at the very end of <br>the experiment after all learning blocks are completed. <br><br>Press SPACE to CONTINUE when you are ready. </div>","32","","","","","","","","","","","","","","","","","","","",""
"html-keyboard-response","151","502522","0.0-4.0-0.0","c4cnrgnv81h5jdr","instructions","5f2a7f698ce86328a49cfc97","5f60e3c0a3b16e07647b2ff9","5f60f02eade02d000bc39927","false","4507.629999978235","<div align=left> The actual experiment is about to start.<br>The practice trials are over!<br><br>Please always respond both fast and accurately!<br><br>Remember: <br> <br><li> Please place your index fingers on the <strong>'S'</strong> and <strong>'L'</strong> keys <br>to respond as fast and accurately as possible.</li><li> Every picture can be classified as either mechanical or non-mechanical.</li><li> If you do not respond in time or commit an error, you will receive a corresponding feedback.<br> Please try to respond as <strong> fast </strong> and as <strong> accurately as possible </strong>.</li><li> Remember the <span style='color: dodgerblue; font-size: 28px'>O</span> pictures. <br></li><li> Please minimize distractions and stay focused. </li><br><br>Press SPACE to START.</div>","32","","","","","","","","","","","","","","","","","","","",""
"html-keyboard-response","152","503228","0.0-4.0-1.0-0.0","c4cnrgnv81h5jdr","prime","5f2a7f698ce86328a49cfc97","5f60e3c0a3b16e07647b2ff9","5f60f02eade02d000bc39927","false","null","<span style=""color: black; font-size: 48px"">M + N</span>","null","","","","resp_prompt","","","","","","","","","","","","","","","",""
"categorize-image","153","504633","0.0-4.0-1.0-1.0","c4cnrgnv81h5jdr","prime","5f2a7f698ce86328a49cfc97","5f60e3c0a3b16e07647b2ff9","5f60f02eade02d000bc39927","true","1400.0249999808148","./Stimuli/SelectedImages/LN/LN166.bmp","76","","","","test","true","M + N","76","repetition","LN","LN166.bmp","forget","","65","4","prime1","right","","","",""
"html-keyboard-response","154","506638","0.0-4.0-1.0-3.0","c4cnrgnv81h5jdr","prime","5f2a7f698ce86328a49cfc97","5f60e3c0a3b16e07647b2ff9","5f60f02eade02d000bc39927","false","null","<div style=""align-items: center; display: flex; color: darkorange; font-size: 90px""><b>ø</b></div>","null","","","","forget_cue","","","","","","","","","","","","","","","",""
"html-keyboard-response","155","507342","0.0-4.0-1.0-0.1","c4cnrgnv81h5jdr","prime","5f2a7f698ce86328a49cfc97","5f60e3c0a3b16e07647b2ff9","5f60f02eade02d000bc39927","false","null","<span style=""color: black; font-size: 48px"">N + M</span>","null","","","","resp_prompt","","","","","","","","","","","","","","","",""
"categorize-image","156","508242","0.0-4.0-1.0-1.1","c4cnrgnv81h5jdr","prime","5f2a7f698ce86328a49cfc97","5f60e3c0a3b16e07647b2ff9","5f60f02eade02d000bc39927","true","893.1999999913387","./Stimuli/SelectedImages/SM/SM148.bmp","76","","","","test","true","N + M","76","switch","SM","SM148.bmp","forget","","66","4","prime1","right","","","",""
"html-keyboard-response","157","510244","0.0-4.0-1.0-3.1","c4cnrgnv81h5jdr","prime","5f2a7f698ce86328a49cfc97","5f60e3c0a3b16e07647b2ff9","5f60f02eade02d000bc39927","false","null","<div style=""align-items: center; display: flex; color: darkorange; font-size: 90px""><b>ø</b></div>","null","","","","forget_cue","","","","","","","","","","","","","","","",""
"html-keyboard-response","158","510950","0.0-4.0-1.0-0.2","c4cnrgnv81h5jdr","prime","5f2a7f698ce86328a49cfc97","5f60e3c0a3b16e07647b2ff9","5f60f02eade02d000bc39927","false","null","<span style=""color: black; font-size: 48px"">M + N</span>","null","","","","resp_prompt","","","","","","","","","","","","","","","",""
"categorize-image","159","511798","0.0-4.0-1.0-1.2","c4cnrgnv81h5jdr","prime","5f2a7f698ce86328a49cfc97","5f60e3c0a3b16e07647b2ff9","5f60f02eade02d000bc39927","true","843.349999981001","./Stimuli/SelectedImages/SN/SN182.bmp","76","","","","test","true","M + N","76","switch","SN","SN182.bmp","forget","","67","4","prime1","right","","","",""
"html-keyboard-response","160","513801","0.0-4.0-1.0-3.2","c4cnrgnv81h5jdr","prime","5f2a7f698ce86328a49cfc97","5f60e3c0a3b16e07647b2ff9","5f60f02eade02d000bc39927","false","null","<div style=""align-items: center; display: flex; color: darkorange; font-size: 90px""><b>ø</b></div>","null","","","","forget_cue","","","","","","","","","","","","","","","",""
"html-keyboard-response","161","514505","0.0-4.0-1.0-0.3","c4cnrgnv81h5jdr","prime","5f2a7f698ce86328a49cfc97","5f60e3c0a3b16e07647b2ff9","5f60f02eade02d000bc39927","false","null","<span style=""color: black; font-size: 48px"">N + M</span>","null","","","","resp_prompt","","","","","","","","","","","","","","","",""
"categorize-image","162","515939","0.0-4.0-1.0-1.3","c4cnrgnv81h5jdr","prime","5f2a7f698ce86328a49cfc97","5f60e3c0a3b16e07647b2ff9","5f60f02eade02d000bc39927","true","1428.0949999811128","./Stimuli/SelectedImages/LM/LM75.bmp","76","","","","test","true","N + M","76","repetition","LM","LM75.bmp","forget","","68","4","prime1","right","","","",""
"html-keyboard-response","163","517944","0.0-4.0-1.0-3.3","c4cnrgnv81h5jdr","prime","5f2a7f698ce86328a49cfc97","5f60e3c0a3b16e07647b2ff9","5f60f02eade02d000bc39927","false","null","<div style=""align-items: center; display: flex; color: darkorange; font-size: 90px""><b>ø</b></div>","null","","","","forget_cue","","","","","","","","","","","","","","","",""
"html-keyboard-response","164","518648","0.0-4.0-1.0-0.4","c4cnrgnv81h5jdr","prime","5f2a7f698ce86328a49cfc97","5f60e3c0a3b16e07647b2ff9","5f60f02eade02d000bc39927","false","null","<span style=""color: black; font-size: 48px"">M + N</span>","null","","","","resp_prompt","","","","","","","","","","","","","","","",""
"categorize-image","165","519588","0.0-4.0-1.0-1.4","c4cnrgnv81h5jdr","prime","5f2a7f698ce86328a49cfc97","5f60e3c0a3b16e07647b2ff9","5f60f02eade02d000bc39927","true","932.8399999940302","./Stimuli/SelectedImages/LN/LN150.bmp","76","","","","test","true","M + N","76","repetition","LN","LN150.bmp","forget","","69","4","prime1","right","","","",""
"html-keyboard-response","166","521593","0.0-4.0-1.0-3.4","c4cnrgnv81h5jdr","prime","5f2a7f698ce86328a49cfc97","5f60e3c0a3b16e07647b2ff9","5f60f02eade02d000bc39927","false","null","<div style=""align-items: center; display: flex; color: darkorange; font-size: 90px""><b>ø</b></div>","null","","","","forget_cue","","","","","","","","","","","","","","","",""
"html-keyboard-response","167","522298","0.0-4.0-1.0-0.5","c4cnrgnv81h5jdr","prime","5f2a7f698ce86328a49cfc97","5f60e3c0a3b16e07647b2ff9","5f60f02eade02d000bc39927","false","null","<span style=""color: black; font-size: 48px"">M + N</span>","null","","","","resp_prompt","","","","","","","","","","","","","","","",""
"categorize-image","168","523393","0.0-4.0-1.0-1.5","c4cnrgnv81h5jdr","prime","5f2a7f698ce86328a49cfc97","5f60e3c0a3b16e07647b2ff9","5f60f02eade02d000bc39927","true","1089.2100000055507","./Stimuli/SelectedImages/SM/SM24.bmp","83","","","","test","true","M + N","83","switch","SM","SM24.bmp","remember","","70","4","prime1","left","","","",""
"html-keyboard-response","169","525397","0.0-4.0-1.0-3.5","c4cnrgnv81h5jdr","prime","5f2a7f698ce86328a49cfc97","5f60e3c0a3b16e07647b2ff9","5f60f02eade02d000bc39927","false","null","<div style=""align-items: center; display: flex; color: dodgerblue; font-size: 90px""><b>o</b></div>","null","","","","forget_cue","","","","","","","","","","","","","","","",""
"html-keyboard-response","170","526102","0.0-4.0-1.0-0.6","c4cnrgnv81h5jdr","prime","5f2a7f698ce86328a49cfc97","5f60e3c0a3b16e07647b2ff9","5f60f02eade02d000bc39927","false","null","<span style=""color: black; font-size: 48px"">M + N</span>","null","","","","resp_prompt","","","","","","","","","","","","","","","",""
"categorize-image","171","527368","0.0-4.0-1.0-1.6","c4cnrgnv81h5jdr","prime","5f2a7f698ce86328a49cfc97","5f60e3c0a3b16e07647b2ff9","5f60f02eade02d000bc39927","true","1259.825000015553","./Stimuli/SelectedImages/SM/SM195.bmp","83","","","","test","true","M + N","83","switch","SM","SM195.bmp","forget","","71","4","prime1","left","","","",""
"html-keyboard-response","172","529373","0.0-4.0-1.0-3.6","c4cnrgnv81h5jdr","prime","5f2a7f698ce86328a49cfc97","5f60e3c0a3b16e07647b2ff9","5f60f02eade02d000bc39927","false","null","<div style=""align-items: center; display: flex; color: darkorange; font-size: 90px""><b>ø</b></div>","null","","","","forget_cue","","","","","","","","","","","","","","","",""
"html-keyboard-response","173","530076","0.0-4.0-1.0-0.7","c4cnrgnv81h5jdr","prime","5f2a7f698ce86328a49cfc97","5f60e3c0a3b16e07647b2ff9","5f60f02eade02d000bc39927","false","null","<span style=""color: black; font-size: 48px"">M + N</span>","null","","","","resp_prompt","","","","","","","","","","","","","","","",""
"categorize-image","174","530821","0.0-4.0-1.0-1.7","c4cnrgnv81h5jdr","prime","5f2a7f698ce86328a49cfc97","5f60e3c0a3b16e07647b2ff9","5f60f02eade02d000bc39927","true","739.3950000114273","./Stimuli/SelectedImages/LN/LN59.bmp","76","","","","test","true","M + N","76","switch","LN","LN59.bmp","forget","","72","4","prime1","right","","","",""
"html-keyboard-response","175","532824","0.0-4.0-1.0-3.7","c4cnrgnv81h5jdr","prime","5f2a7f698ce86328a49cfc97","5f60e3c0a3b16e07647b2ff9","5f60f02eade02d000bc39927","false","null","<div style=""align-items: center; display: flex; color: darkorange; font-size: 90px""><b>ø</b></div>","null","","","","forget_cue","","","","","","","","","","","","","","","",""
"html-keyboard-response","176","533529","0.0-4.0-1.0-0.8","c4cnrgnv81h5jdr","prime","5f2a7f698ce86328a49cfc97","5f60e3c0a3b16e07647b2ff9","5f60f02eade02d000bc39927","false","null","<span style=""color: black; font-size: 48px"">N + M</span>","null","","","","resp_prompt","","","","","","","","","","","","","","","",""
"categorize-image","177","534224","0.0-4.0-1.0-1.8","c4cnrgnv81h5jdr","prime","5f2a7f698ce86328a49cfc97","5f60e3c0a3b16e07647b2ff9","5f60f02eade02d000bc39927","true","689.0799999819137","./Stimuli/SelectedImages/LM/LM235.bmp","76","","","","test","true","N + M","76","repetition","LM","LM235.bmp","remember","","73","4","prime1","right","","","",""
"html-keyboard-response","178","536227","0.0-4.0-1.0-3.8","c4cnrgnv81h5jdr","prime","5f2a7f698ce86328a49cfc97","5f60e3c0a3b16e07647b2ff9","5f60f02eade02d000bc39927","false","null","<div style=""align-items: center; display: flex; color: dodgerblue; font-size: 90px""><b>o</b></div>","null","","","","forget_cue","","","","","","","","","","","","","","","",""
"html-keyboard-response","179","536932","0.0-4.0-1.0-0.9","c4cnrgnv81h5jdr","prime","5f2a7f698ce86328a49cfc97","5f60e3c0a3b16e07647b2ff9","5f60f02eade02d000bc39927","false","null","<span style=""color: black; font-size: 48px"">N + M</span>","null","","","","resp_prompt","","","","","","","","","","","","","","","",""
"categorize-image","180","537906","0.0-4.0-1.0-1.9","c4cnrgnv81h5jdr","prime","5f2a7f698ce86328a49cfc97","5f60e3c0a3b16e07647b2ff9","5f60f02eade02d000bc39927","true","969.1449999809265","./Stimuli/SelectedImages/SN/SN52.bmp","83","","","","test","true","N + M","83","repetition","SN","SN52.bmp","forget","","74","4","prime1","left","","","",""
"html-keyboard-response","181","539910","0.0-4.0-1.0-3.9","c4cnrgnv81h5jdr","prime","5f2a7f698ce86328a49cfc97","5f60e3c0a3b16e07647b2ff9","5f60f02eade02d000bc39927","false","null","<div style=""align-items: center; display: flex; color: darkorange; font-size: 90px""><b>ø</b></div>","null","","","","forget_cue","","","","","","","","","","","","","","","",""
"html-keyboard-response","182","540615","0.0-4.0-1.0-0.10","c4cnrgnv81h5jdr","prime","5f2a7f698ce86328a49cfc97","5f60e3c0a3b16e07647b2ff9","5f60f02eade02d000bc39927","false","null","<span style=""color: black; font-size: 48px"">M + N</span>","null","","","","resp_prompt","","","","","","","","","","","","","","","",""
"categorize-image","183","541596","0.0-4.0-1.0-1.10","c4cnrgnv81h5jdr","prime","5f2a7f698ce86328a49cfc97","5f60e3c0a3b16e07647b2ff9","5f60f02eade02d000bc39927","true","975.6400000187568","./Stimuli/SelectedImages/SN/SN27.bmp","76","","","","test","true","M + N","76","switch","SN","SN27.bmp","remember","","75","4","prime1","right","","","",""
"html-keyboard-response","184","543603","0.0-4.0-1.0-3.10","c4cnrgnv81h5jdr","prime","5f2a7f698ce86328a49cfc97","5f60e3c0a3b16e07647b2ff9","5f60f02eade02d000bc39927","false","null","<div style=""align-items: center; display: flex; color: dodgerblue; font-size: 90px""><b>o</b></div>","null","","","","forget_cue","","","","","","","","","","","","","","","",""
"html-keyboard-response","185","544304","0.0-4.0-1.0-0.11","c4cnrgnv81h5jdr","prime","5f2a7f698ce86328a49cfc97","5f60e3c0a3b16e07647b2ff9","5f60f02eade02d000bc39927","false","null","<span style=""color: black; font-size: 48px"">N + M</span>","null","","","","resp_prompt","","","","","","","","","","","","","","","",""
"categorize-image","186","545059","0.0-4.0-1.0-1.11","c4cnrgnv81h5jdr","prime","5f2a7f698ce86328a49cfc97","5f60e3c0a3b16e07647b2ff9","5f60f02eade02d000bc39927","true","749.3799999938346","./Stimuli/SelectedImages/LN/LN82.bmp","83","","","","test","true","N + M","83","repetition","LN","LN82.bmp","forget","","76","4","prime1","left","","","",""
"html-keyboard-response","187","547062","0.0-4.0-1.0-3.11","c4cnrgnv81h5jdr","prime","5f2a7f698ce86328a49cfc97","5f60e3c0a3b16e07647b2ff9","5f60f02eade02d000bc39927","false","null","<div style=""align-items: center; display: flex; color: darkorange; font-size: 90px""><b>ø</b></div>","null","","","","forget_cue","","","","","","","","","","","","","","","",""
"html-keyboard-response","188","547768","0.0-4.0-1.0-0.12","c4cnrgnv81h5jdr","prime","5f2a7f698ce86328a49cfc97","5f60e3c0a3b16e07647b2ff9","5f60f02eade02d000bc39927","false","null","<span style=""color: black; font-size: 48px"">M + N</span>","null","","","","resp_prompt","","","","","","","","","","","","","","","",""
"categorize-image","189","549035","0.0-4.0-1.0-1.12","c4cnrgnv81h5jdr","prime","5f2a7f698ce86328a49cfc97","5f60e3c0a3b16e07647b2ff9","5f60f02eade02d000bc39927","true","1260.6899999955203","./Stimuli/SelectedImages/LN/LN111.bmp","76","","","","test","true","M + N","76","repetition","LN","LN111.bmp","remember","","77","4","prime1","right","","","",""
"html-keyboard-response","190","551039","0.0-4.0-1.0-3.12","c4cnrgnv81h5jdr","prime","5f2a7f698ce86328a49cfc97","5f60e3c0a3b16e07647b2ff9","5f60f02eade02d000bc39927","false","null","<div style=""align-items: center; display: flex; color: dodgerblue; font-size: 90px""><b>o</b></div>","null","","","","forget_cue","","","","","","","","","","","","","","","",""
"html-keyboard-response","191","551744","0.0-4.0-1.0-0.13","c4cnrgnv81h5jdr","prime","5f2a7f698ce86328a49cfc97","5f60e3c0a3b16e07647b2ff9","5f60f02eade02d000bc39927","false","null","<span style=""color: black; font-size: 48px"">M + N</span>","null","","","","resp_prompt","","","","","","","","","","","","","","","",""
"categorize-image","192","552621","0.0-4.0-1.0-1.13","c4cnrgnv81h5jdr","prime","5f2a7f698ce86328a49cfc97","5f60e3c0a3b16e07647b2ff9","5f60f02eade02d000bc39927","true","872.5299999932759","./Stimuli/SelectedImages/LM/LM103.bmp","83","","","","test","true","M + N","83","repetition","LM","LM103.bmp","remember","","78","4","prime1","left","","","",""
"html-keyboard-response","193","554627","0.0-4.0-1.0-3.13","c4cnrgnv81h5jdr","prime","5f2a7f698ce86328a49cfc97","5f60e3c0a3b16e07647b2ff9","5f60f02eade02d000bc39927","false","null","<div style=""align-items: center; display: flex; color: dodgerblue; font-size: 90px""><b>o</b></div>","null","","","","forget_cue","","","","","","","","","","","","","","","",""
"html-keyboard-response","194","555329","0.0-4.0-1.0-0.14","c4cnrgnv81h5jdr","prime","5f2a7f698ce86328a49cfc97","5f60e3c0a3b16e07647b2ff9","5f60f02eade02d000bc39927","false","null","<span style=""color: black; font-size: 48px"">N + M</span>","null","","","","resp_prompt","","","","","","","","","","","","","","","",""
"categorize-image","195","556870","0.0-4.0-1.0-1.14","c4cnrgnv81h5jdr","prime","5f2a7f698ce86328a49cfc97","5f60e3c0a3b16e07647b2ff9","5f60f02eade02d000bc39927","true","1533.0350000003818","./Stimuli/SelectedImages/LN/LN13.bmp","83","","","","test","true","N + M","83","switch","LN","LN13.bmp","forget","","79","4","prime1","left","","","",""
"html-keyboard-response","196","558874","0.0-4.0-1.0-3.14","c4cnrgnv81h5jdr","prime","5f2a7f698ce86328a49cfc97","5f60e3c0a3b16e07647b2ff9","5f60f02eade02d000bc39927","false","null","<div style=""align-items: center; display: flex; color: darkorange; font-size: 90px""><b>ø</b></div>","null","","","","forget_cue","","","","","","","","","","","","","","","",""
"html-keyboard-response","197","559579","0.0-4.0-1.0-0.15","c4cnrgnv81h5jdr","prime","5f2a7f698ce86328a49cfc97","5f60e3c0a3b16e07647b2ff9","5f60f02eade02d000bc39927","false","null","<span style=""color: black; font-size: 48px"">M + N</span>","null","","","","resp_prompt","","","","","","","","","","","","","","","",""
"categorize-image","198","560610","0.0-4.0-1.0-1.15","c4cnrgnv81h5jdr","prime","5f2a7f698ce86328a49cfc97","5f60e3c0a3b16e07647b2ff9","5f60f02eade02d000bc39927","true","1025.534999993397","./Stimuli/SelectedImages/SM/SM108.bmp","83","","","","test","true","M + N","83","repetition","SM","SM108.bmp","forget","","80","4","prime1","left","","","",""
"html-keyboard-response","199","562614","0.0-4.0-1.0-3.15","c4cnrgnv81h5jdr","prime","5f2a7f698ce86328a49cfc97","5f60e3c0a3b16e07647b2ff9","5f60f02eade02d000bc39927","false","null","<div style=""align-items: center; display: flex; color: darkorange; font-size: 90px""><b>ø</b></div>","null","","","","forget_cue","","","","","","","","","","","","","","","",""
"html-keyboard-response","200","563315","0.0-4.0-1.0-0.16","c4cnrgnv81h5jdr","prime","5f2a7f698ce86328a49cfc97","5f60e3c0a3b16e07647b2ff9","5f60f02eade02d000bc39927","false","null","<span style=""color: black; font-size: 48px"">N + M</span>","null","","","","resp_prompt","","","","","","","","","","","","","","","",""
"categorize-image","201","564025","0.0-4.0-1.0-1.16","c4cnrgnv81h5jdr","prime","5f2a7f698ce86328a49cfc97","5f60e3c0a3b16e07647b2ff9","5f60f02eade02d000bc39927","true","703.204999997979","./Stimuli/SelectedImages/SM/SM74.bmp","76","","","","test","true","N + M","76","switch","SM","SM74.bmp","remember","","81","4","prime1","right","","","",""
"html-keyboard-response","202","566028","0.0-4.0-1.0-3.16","c4cnrgnv81h5jdr","prime","5f2a7f698ce86328a49cfc97","5f60e3c0a3b16e07647b2ff9","5f60f02eade02d000bc39927","false","null","<div style=""align-items: center; display: flex; color: dodgerblue; font-size: 90px""><b>o</b></div>","null","","","","forget_cue","","","","","","","","","","","","","","","",""
"html-keyboard-response","203","566731","0.0-4.0-1.0-0.17","c4cnrgnv81h5jdr","prime","5f2a7f698ce86328a49cfc97","5f60e3c0a3b16e07647b2ff9","5f60f02eade02d000bc39927","false","null","<span style=""color: black; font-size: 48px"">M + N</span>","null","","","","resp_prompt","","","","","","","","","","","","","","","",""
"categorize-image","204","568744","0.0-4.0-1.0-1.17","c4cnrgnv81h5jdr","prime","5f2a7f698ce86328a49cfc97","5f60e3c0a3b16e07647b2ff9","5f60f02eade02d000bc39927","true","null","./Stimuli/SelectedImages/SN/SN60.bmp","null","","","","test","false","M + N","76","repetition","SN","SN60.bmp","forget","","82","4","prime1","too_slow","","","",""
"html-keyboard-response","205","569248","0.0-4.0-1.0-2.17-0.17","c4cnrgnv81h5jdr","prime","5f2a7f698ce86328a49cfc97","5f60e3c0a3b16e07647b2ff9","5f60f02eade02d000bc39927","false","null","<span style=""color: red; font-size: 48px"">Too slow!</span>","null","","","","feedback","","","","","","","","","","","","","","","",""
"html-keyboard-response","206","571251","0.0-4.0-1.0-3.17","c4cnrgnv81h5jdr","prime","5f2a7f698ce86328a49cfc97","5f60e3c0a3b16e07647b2ff9","5f60f02eade02d000bc39927","false","null","<div style=""align-items: center; display: flex; color: darkorange; font-size: 90px""><b>ø</b></div>","null","","","","forget_cue","","","","","","","","","","","","","","","",""
"html-keyboard-response","207","571954","0.0-4.0-1.0-0.18","c4cnrgnv81h5jdr","prime","5f2a7f698ce86328a49cfc97","5f60e3c0a3b16e07647b2ff9","5f60f02eade02d000bc39927","false","null","<span style=""color: black; font-size: 48px"">N + M</span>","null","","","","resp_prompt","","","","","","","","","","","","","","","",""
"categorize-image","208","572670","0.0-4.0-1.0-1.18","c4cnrgnv81h5jdr","prime","5f2a7f698ce86328a49cfc97","5f60e3c0a3b16e07647b2ff9","5f60f02eade02d000bc39927","true","710.4850000177976","./Stimuli/SelectedImages/SM/SM184.bmp","76","","","","test","true","N + M","76","switch","SM","SM184.bmp","forget","","83","4","prime1","right","","","",""
"html-keyboard-response","209","574675","0.0-4.0-1.0-3.18","c4cnrgnv81h5jdr","prime","5f2a7f698ce86328a49cfc97","5f60e3c0a3b16e07647b2ff9","5f60f02eade02d000bc39927","false","null","<div style=""align-items: center; display: flex; color: darkorange; font-size: 90px""><b>ø</b></div>","null","","","","forget_cue","","","","","","","","","","","","","","","",""
"html-keyboard-response","210","575379","0.0-4.0-1.0-0.19","c4cnrgnv81h5jdr","prime","5f2a7f698ce86328a49cfc97","5f60e3c0a3b16e07647b2ff9","5f60f02eade02d000bc39927","false","null","<span style=""color: black; font-size: 48px"">N + M</span>","null","","","","resp_prompt","","","","","","","","","","","","","","","",""
"categorize-image","211","576005","0.0-4.0-1.0-1.19","c4cnrgnv81h5jdr","prime","5f2a7f698ce86328a49cfc97","5f60e3c0a3b16e07647b2ff9","5f60f02eade02d000bc39927","true","620.2000000048429","./Stimuli/SelectedImages/SM/SM207.bmp","76","","","","test","true","N + M","76","repetition","SM","SM207.bmp","forget","","84","4","prime1","right","","","",""
"html-keyboard-response","212","578007","0.0-4.0-1.0-3.19","c4cnrgnv81h5jdr","prime","5f2a7f698ce86328a49cfc97","5f60e3c0a3b16e07647b2ff9","5f60f02eade02d000bc39927","false","null","<div style=""align-items: center; display: flex; color: darkorange; font-size: 90px""><b>ø</b></div>","null","","","","forget_cue","","","","","","","","","","","","","","","",""
"html-keyboard-response","213","578711","0.0-4.0-1.0-0.20","c4cnrgnv81h5jdr","prime","5f2a7f698ce86328a49cfc97","5f60e3c0a3b16e07647b2ff9","5f60f02eade02d000bc39927","false","null","<span style=""color: black; font-size: 48px"">N + M</span>","null","","","","resp_prompt","","","","","","","","","","","","","","","",""
"categorize-image","214","579671","0.0-4.0-1.0-1.20","c4cnrgnv81h5jdr","prime","5f2a7f698ce86328a49cfc97","5f60e3c0a3b16e07647b2ff9","5f60f02eade02d000bc39927","true","955.1199999987148","./Stimuli/SelectedImages/SN/SN140.bmp","83","","","","test","true","N + M","83","repetition","SN","SN140.bmp","forget","","85","4","prime1","left","","","",""
"html-keyboard-response","215","581679","0.0-4.0-1.0-3.20","c4cnrgnv81h5jdr","prime","5f2a7f698ce86328a49cfc97","5f60e3c0a3b16e07647b2ff9","5f60f02eade02d000bc39927","false","null","<div style=""align-items: center; display: flex; color: darkorange; font-size: 90px""><b>ø</b></div>","null","","","","forget_cue","","","","","","","","","","","","","","","",""
"html-keyboard-response","216","582382","0.0-4.0-1.0-0.21","c4cnrgnv81h5jdr","prime","5f2a7f698ce86328a49cfc97","5f60e3c0a3b16e07647b2ff9","5f60f02eade02d000bc39927","false","null","<span style=""color: black; font-size: 48px"">N + M</span>","null","","","","resp_prompt","","","","","","","","","","","","","","","",""
"categorize-image","217","583162","0.0-4.0-1.0-1.21","c4cnrgnv81h5jdr","prime","5f2a7f698ce86328a49cfc97","5f60e3c0a3b16e07647b2ff9","5f60f02eade02d000bc39927","true","774.7500000114087","./Stimuli/SelectedImages/LM/LM100.bmp","76","","","","test","true","N + M","76","switch","LM","LM100.bmp","remember","","86","4","prime1","right","","","",""
"html-keyboard-response","218","585167","0.0-4.0-1.0-3.21","c4cnrgnv81h5jdr","prime","5f2a7f698ce86328a49cfc97","5f60e3c0a3b16e07647b2ff9","5f60f02eade02d000bc39927","false","null","<div style=""align-items: center; display: flex; color: dodgerblue; font-size: 90px""><b>o</b></div>","null","","","","forget_cue","","","","","","","","","","","","","","","",""
"html-keyboard-response","219","585870","0.0-4.0-1.0-0.22","c4cnrgnv81h5jdr","prime","5f2a7f698ce86328a49cfc97","5f60e3c0a3b16e07647b2ff9","5f60f02eade02d000bc39927","false","null","<span style=""color: black; font-size: 48px"">M + N</span>","null","","","","resp_prompt","","","","","","","","","","","","","","","",""
"categorize-image","220","587195","0.0-4.0-1.0-1.22","c4cnrgnv81h5jdr","prime","5f2a7f698ce86328a49cfc97","5f60e3c0a3b16e07647b2ff9","5f60f02eade02d000bc39927","true","1319.1000000224449","./Stimuli/SelectedImages/LM/LM48.bmp","83","","","","test","true","M + N","83","switch","LM","LM48.bmp","remember","","87","4","prime1","left","","","",""
"html-keyboard-response","221","589199","0.0-4.0-1.0-3.22","c4cnrgnv81h5jdr","prime","5f2a7f698ce86328a49cfc97","5f60e3c0a3b16e07647b2ff9","5f60f02eade02d000bc39927","false","null","<div style=""align-items: center; display: flex; color: dodgerblue; font-size: 90px""><b>o</b></div>","null","","","","forget_cue","","","","","","","","","","","","","","","",""
"html-keyboard-response","222","589903","0.0-4.0-1.0-0.23","c4cnrgnv81h5jdr","prime","5f2a7f698ce86328a49cfc97","5f60e3c0a3b16e07647b2ff9","5f60f02eade02d000bc39927","false","null","<span style=""color: black; font-size: 48px"">M + N</span>","null","","","","resp_prompt","","","","","","","","","","","","","","","",""
"categorize-image","223","590692","0.0-4.0-1.0-1.23","c4cnrgnv81h5jdr","prime","5f2a7f698ce86328a49cfc97","5f60e3c0a3b16e07647b2ff9","5f60f02eade02d000bc39927","true","783.9450000028592","./Stimuli/SelectedImages/SM/SM73.bmp","83","","","","test","true","M + N","83","repetition","SM","SM73.bmp","remember","","88","4","prime1","left","","","",""
"html-keyboard-response","224","592696","0.0-4.0-1.0-3.23","c4cnrgnv81h5jdr","prime","5f2a7f698ce86328a49cfc97","5f60e3c0a3b16e07647b2ff9","5f60f02eade02d000bc39927","false","null","<div style=""align-items: center; display: flex; color: dodgerblue; font-size: 90px""><b>o</b></div>","null","","","","forget_cue","","","","","","","","","","","","","","","",""
"html-keyboard-response","225","593400","0.0-4.0-1.0-0.24","c4cnrgnv81h5jdr","prime","5f2a7f698ce86328a49cfc97","5f60e3c0a3b16e07647b2ff9","5f60f02eade02d000bc39927","false","null","<span style=""color: black; font-size: 48px"">N + M</span>","null","","","","resp_prompt","","","","","","","","","","","","","","","",""
"categorize-image","226","594079","0.0-4.0-1.0-1.24","c4cnrgnv81h5jdr","prime","5f2a7f698ce86328a49cfc97","5f60e3c0a3b16e07647b2ff9","5f60f02eade02d000bc39927","true","673.3849999727681","./Stimuli/SelectedImages/SN/SN187.bmp","83","","","","test","true","N + M","83","repetition","SN","SN187.bmp","remember","","89","4","prime1","left","","","",""
"html-keyboard-response","227","596085","0.0-4.0-1.0-3.24","c4cnrgnv81h5jdr","prime","5f2a7f698ce86328a49cfc97","5f60e3c0a3b16e07647b2ff9","5f60f02eade02d000bc39927","false","null","<div style=""align-items: center; display: flex; color: dodgerblue; font-size: 90px""><b>o</b></div>","null","","","","forget_cue","","","","","","","","","","","","","","","",""
"html-keyboard-response","228","596791","0.0-4.0-1.0-0.25","c4cnrgnv81h5jdr","prime","5f2a7f698ce86328a49cfc97","5f60e3c0a3b16e07647b2ff9","5f60f02eade02d000bc39927","false","null","<span style=""color: black; font-size: 48px"">M + N</span>","null","","","","resp_prompt","","","","","","","","","","","","","","","",""
"categorize-image","229","597608","0.0-4.0-1.0-1.25","c4cnrgnv81h5jdr","prime","5f2a7f698ce86328a49cfc97","5f60e3c0a3b16e07647b2ff9","5f60f02eade02d000bc39927","true","811.4300000015646","./Stimuli/SelectedImages/LM/LM59.bmp","83","","","","test","true","M + N","83","switch","LM","LM59.bmp","remember","","90","4","prime1","left","","","",""
"html-keyboard-response","230","599612","0.0-4.0-1.0-3.25","c4cnrgnv81h5jdr","prime","5f2a7f698ce86328a49cfc97","5f60e3c0a3b16e07647b2ff9","5f60f02eade02d000bc39927","false","null","<div style=""align-items: center; display: flex; color: dodgerblue; font-size: 90px""><b>o</b></div>","null","","","","forget_cue","","","","","","","","","","","","","","","",""
"html-keyboard-response","231","600315","0.0-4.0-1.0-0.26","c4cnrgnv81h5jdr","prime","5f2a7f698ce86328a49cfc97","5f60e3c0a3b16e07647b2ff9","5f60f02eade02d000bc39927","false","null","<span style=""color: black; font-size: 48px"">M + N</span>","null","","","","resp_prompt","","","","","","","","","","","","","","","",""
"categorize-image","232","601140","0.0-4.0-1.0-1.26","c4cnrgnv81h5jdr","prime","5f2a7f698ce86328a49cfc97","5f60e3c0a3b16e07647b2ff9","5f60f02eade02d000bc39927","true","820.7450000045355","./Stimuli/SelectedImages/LN/LN12.bmp","76","","","","test","true","M + N","76","switch","LN","LN12.bmp","forget","","91","4","prime1","right","","","",""
"html-keyboard-response","233","603142","0.0-4.0-1.0-3.26","c4cnrgnv81h5jdr","prime","5f2a7f698ce86328a49cfc97","5f60e3c0a3b16e07647b2ff9","5f60f02eade02d000bc39927","false","null","<div style=""align-items: center; display: flex; color: darkorange; font-size: 90px""><b>ø</b></div>","null","","","","forget_cue","","","","","","","","","","","","","","","",""
"html-keyboard-response","234","603844","0.0-4.0-1.0-0.27","c4cnrgnv81h5jdr","prime","5f2a7f698ce86328a49cfc97","5f60e3c0a3b16e07647b2ff9","5f60f02eade02d000bc39927","false","null","<span style=""color: black; font-size: 48px"">M + N</span>","null","","","","resp_prompt","","","","","","","","","","","","","","","",""
"categorize-image","235","604480","0.0-4.0-1.0-1.27","c4cnrgnv81h5jdr","prime","5f2a7f698ce86328a49cfc97","5f60e3c0a3b16e07647b2ff9","5f60f02eade02d000bc39927","true","631.1300000234041","./Stimuli/SelectedImages/LM/LM57.bmp","83","","","","test","true","M + N","83","switch","LM","LM57.bmp","forget","","92","4","prime1","left","","","",""
"html-keyboard-response","236","606486","0.0-4.0-1.0-3.27","c4cnrgnv81h5jdr","prime","5f2a7f698ce86328a49cfc97","5f60e3c0a3b16e07647b2ff9","5f60f02eade02d000bc39927","false","null","<div style=""align-items: center; display: flex; color: darkorange; font-size: 90px""><b>ø</b></div>","null","","","","forget_cue","","","","","","","","","","","","","","","",""
"html-keyboard-response","237","607190","0.0-4.0-1.0-0.28","c4cnrgnv81h5jdr","prime","5f2a7f698ce86328a49cfc97","5f60e3c0a3b16e07647b2ff9","5f60f02eade02d000bc39927","false","null","<span style=""color: black; font-size: 48px"">M + N</span>","null","","","","resp_prompt","","","","","","","","","","","","","","","",""
"categorize-image","238","607882","0.0-4.0-1.0-1.28","c4cnrgnv81h5jdr","prime","5f2a7f698ce86328a49cfc97","5f60e3c0a3b16e07647b2ff9","5f60f02eade02d000bc39927","true","686.3799999991897","./Stimuli/SelectedImages/SM/SM106.bmp","83","","","","test","true","M + N","83","switch","SM","SM106.bmp","forget","","93","4","prime1","left","","","",""
"html-keyboard-response","239","609885","0.0-4.0-1.0-3.28","c4cnrgnv81h5jdr","prime","5f2a7f698ce86328a49cfc97","5f60e3c0a3b16e07647b2ff9","5f60f02eade02d000bc39927","false","null","<div style=""align-items: center; display: flex; color: darkorange; font-size: 90px""><b>ø</b></div>","null","","","","forget_cue","","","","","","","","","","","","","","","",""
"html-keyboard-response","240","610590","0.0-4.0-1.0-0.29","c4cnrgnv81h5jdr","prime","5f2a7f698ce86328a49cfc97","5f60e3c0a3b16e07647b2ff9","5f60f02eade02d000bc39927","false","null","<span style=""color: black; font-size: 48px"">N + M</span>","null","","","","resp_prompt","","","","","","","","","","","","","","","",""
"categorize-image","241","611216","0.0-4.0-1.0-1.29","c4cnrgnv81h5jdr","prime","5f2a7f698ce86328a49cfc97","5f60e3c0a3b16e07647b2ff9","5f60f02eade02d000bc39927","true","620.374999998603","./Stimuli/SelectedImages/SM/SM76.bmp","76","","","","test","true","N + M","76","repetition","SM","SM76.bmp","remember","","94","4","prime1","right","","","",""
"html-keyboard-response","242","613220","0.0-4.0-1.0-3.29","c4cnrgnv81h5jdr","prime","5f2a7f698ce86328a49cfc97","5f60e3c0a3b16e07647b2ff9","5f60f02eade02d000bc39927","false","null","<div style=""align-items: center; display: flex; color: dodgerblue; font-size: 90px""><b>o</b></div>","null","","","","forget_cue","","","","","","","","","","","","","","","",""
"html-keyboard-response","243","613922","0.0-4.0-1.0-0.30","c4cnrgnv81h5jdr","prime","5f2a7f698ce86328a49cfc97","5f60e3c0a3b16e07647b2ff9","5f60f02eade02d000bc39927","false","null","<span style=""color: black; font-size: 48px"">N + M</span>","null","","","","resp_prompt","","","","","","","","","","","","","","","",""
"categorize-image","244","614814","0.0-4.0-1.0-1.30","c4cnrgnv81h5jdr","prime","5f2a7f698ce86328a49cfc97","5f60e3c0a3b16e07647b2ff9","5f60f02eade02d000bc39927","true","885.4900000151247","./Stimuli/SelectedImages/SM/SM128.bmp","76","","","","test","true","N + M","76","repetition","SM","SM128.bmp","forget","","95","4","prime1","right","","","",""
"html-keyboard-response","245","616817","0.0-4.0-1.0-3.30","c4cnrgnv81h5jdr","prime","5f2a7f698ce86328a49cfc97","5f60e3c0a3b16e07647b2ff9","5f60f02eade02d000bc39927","false","null","<div style=""align-items: center; display: flex; color: darkorange; font-size: 90px""><b>ø</b></div>","null","","","","forget_cue","","","","","","","","","","","","","","","",""
