"trial_type","trial_index","time_elapsed","internal_node_id","subject","exp_part","prolific_PID","study_ID","session_ID","use","rt","stimulus","key_press","button_pressed","responses","question_order","trial_part","correct","resp_map","correct_resp","probe_condition","category","image","forget_condition","list","trial_num","block_num","block","response","test_part","n_span","sequence","num_spaces"
"pavlovia","0","4","0.0-0.0","s5qazww1ru11wea","","5cb329855ee1730001ae6683","5f60e3c0a3b16e07647b2ff9","5f675c33dbb05833dfafb8aa","false","","","","","","","","","","","","","","","","","","","","","","",""
"html-keyboard-response","1","9115","0.0-1.0-0.0-0.0","s5qazww1ru11wea","welcome","5cb329855ee1730001ae6683","5f60e3c0a3b16e07647b2ff9","5f675c33dbb05833dfafb8aa","false","9111","<div align=left>Dear participant, <br> thank you for participating in an online study of the Cognition, Action, and Sustainability Unit of the University of Freiburg! <br> <br>The aim of this study is to examine our ability to remember previously learned information. <br>Our goal is to find out, whether our memory improves, when we only remember information that is relevant to us. <br>The experiment will take about 35 minutes to complete. <br> <br>Please, note that you can only participate in this study if you are using a device with a keyboard (PC, Laptop etc.) <br>and not if you are using a mobile device such as a tablet or smartphone.<br> <br>Press 'SPACE' to proceed to the experiment. </div>","32","","","","","","","","","","","","","","","","","","","",""
"html-keyboard-response","2","16543","0.0-1.0-0.0-1.0","s5qazww1ru11wea","welcome","5cb329855ee1730001ae6683","5f60e3c0a3b16e07647b2ff9","5f675c33dbb05833dfafb8aa","false","7425","<div align=left><strong> Time Course of this experiment: </strong> <br><br> <strong> 1.</strong>  First, please fill in some information regarding your demographic data. <br><br> <strong> 2.</strong>  Next, your task will be to classify everyday objects. <br>In addition, you will be asked to remember certain objects and recall them later. <br>Working on these tasks requires your undivided attention and concentration.<br>It is therefore essential that you eliminate any sources of distraction in your  <br>environment and ensure that you will not be disturbed. <br><br><strong> 3.</strong>  At the end of the experiment, you will be asked to answer a few additional questions. <br> <br><strong> Important:</strong> After finishing the experiment, only close the browser window <br> by clicking on the 'end the experiment'-button when you are asked to do so. <br>Closing the browser window prematurely will make the allocation of your participation credit impossible. <br><br> Press 'SPACE' to start the experiment. </div>","32","","","","","","","","","","","","","","","","","","","",""
"html-button-response","3","20546","0.0-1.0-0.0-2.0","s5qazww1ru11wea","welcome","5cb329855ee1730001ae6683","5f60e3c0a3b16e07647b2ff9","5f675c33dbb05833dfafb8aa","true","4001","<div align=left><strong> Informed consent </strong>  <br>The aim of our research is to better understand human behavior and mental processes. <br>In the following study your behavior (e.g. choices, reaction times) will be studied. <br> <br><strong> Voluntariness and Anonymity </strong> <br>Your participation in this study is  <strong> voluntary</strong>.<br>You may withdraw your consent to participate at any time without providing a reason for doing so and without fear of prejudice. <br><br>As no personal data will be collected, <strong>your data and your person cannot be connected after data collection</strong> – the data-set is anonymous. <br>Respectively, deletion of your data will not be possible after data collection has been completed, as we cannot retrace your data-set.<br>The results and anonymized data collected in this study will be published as a scientific publication. <br>This will happen in an <strong>anonymized format</strong>, so that no data can be traced back to a specific person. <br> <br>The anonymized data of this study will be made available to other researchers and/or in a data archive on the Internet as a means of transparency and to enable subsequent re-use. By doing so, this study follows the recommendations of the Deutsche Forschungsgemeinschaft (DFG, German Research Foundation) and Deutsche Gesellschaft für Psychologie (DGPS, German Psychological Society) regarding quality assurance in research.<br>If you have any questions now or after the experiment, please contact our team (experiments@cs.uni-freiburg.de).<br><br><br>I hereby declare, that I understand the above described conditions of participation and I agree to participate under these conditions. <br><br> </div>","","0","","","","","","","","","","","","","","","","","","",""
"html-keyboard-response","4","30324","0.0-1.0-0.0-3.0","s5qazww1ru11wea","welcome","5cb329855ee1730001ae6683","5f60e3c0a3b16e07647b2ff9","5f675c33dbb05833dfafb8aa","false","9777","<div align=left><strong> General information concerning the experiment </strong>  <br> <br>Please follow the instructions:<ol> <li><strong> Do not leave this tab (your browser window) during the experiment and do not reload this tab! </strong>  <br>If you do switch tabs/windows during the experiment (to check your mail or visit another website, for example), <br>the experiment will end automatically and you will <strong>not receive credit</strong> for your participation. <br>Repeated participation or resumption of the experiment is impossible.</li> <br><li>Please close all other programs for the duration of your participation. </li> <br><li>Please mute or turn off your phone and put it out of your reach. </li> <br><li>Please also take off any disturbing accessories (such as wristwatches, bracelets, etc.). </li> <br><li>If you have music playing in the background, please turn it off now. </li> <br></ol>Thank you! <br>Press 'SPACE' to continue. </div>","32","","","","","","","","","","","","","","","","","","","",""
"survey-text","5","34397","0.0-1.0-1.0-0.0","s5qazww1ru11wea","demographics","5cb329855ee1730001ae6683","5f60e3c0a3b16e07647b2ff9","5f675c33dbb05833dfafb8aa","true","4054","","","","{""age"":""24""}","","","","","","","","","","","","","","","","","",""
"survey-multi-choice","6","47126","0.0-1.0-1.0-1.0","s5qazww1ru11wea","demographics","5cb329855ee1730001ae6683","5f60e3c0a3b16e07647b2ff9","5f675c33dbb05833dfafb8aa","true","12726.999999999993","","","","{""gender"":""female"",""school"":""high school"",""education"":""High school graduate, diploma or equivalent""}","[0,1,2]","","","","","","","","","","","","","","","","",""
"html-keyboard-response","7","62110","0.0-1.0-2.0","s5qazww1ru11wea","instructions","5cb329855ee1730001ae6683","5f60e3c0a3b16e07647b2ff9","5f675c33dbb05833dfafb8aa","false","14979","<div align=left> The experiment is now about to start: <br> <br>In the following part, you will be presented pictures of everyday objects. <br>Your first task is to <strong>classify these objects. </strong> <br> <br> You will classify them either as mechanical or non-mechanical objects. <br> <br>Objects that include any kind of technical mechanism (for example, wheels, switches, levers, <br> electronic components) fall under the category of <strong>mechanical</strong> objects. <br>Only objects without any kind of technical mechanism should be classified as <strong>non-mechanical</strong>. <br><br>Press 'SPACE' to continue. </div>","32","","","","","","","","","","","","","","","","","","","",""
"html-keyboard-response","8","110114","0.0-2.0-0.0","s5qazww1ru11wea","instructions","5cb329855ee1730001ae6683","5f60e3c0a3b16e07647b2ff9","5f675c33dbb05833dfafb8aa","false","48003","<div align=justify>You will classify the objects using the <strong>'S'</strong> and the <strong>'L'</strong> keys on your keyboard.<br>For doing so, please place your <strong>left index finger</strong> on the <strong>'S'</strong> key and place your <strong>right index finger</strong> on the <strong>'L'</strong> key. <br><br> Each trial starts with an instruction, indicating which key ('S'/'L') you need to press to classify <br>the object as mechanical (letter M) or non-mechanical (letter N).<br>The instruction <strong>M + N</strong> indicates that, in the current trial, by pressing the left key ('S') you classify the displayed object as mechanical (M) <br> and by pressing the right key ('L') you classify the object as non-mechanical (N). <br>The instruction <strong>N + M</strong> on the other hand indicates that by pressing the left key ('S') you classify the displayed object as non-mechanical (N) <br> and by pressing the right key ('L') you classify the object as mechanical (M). <br><br>Please press the key corresponding to the correct classification as fast as possible as soon as the object is displayed and try to avoid making mistakes.<br>If you do not respond within a 2 second window, a corresponding feedback will be displayed and the next trial will start.<br> The experiment is divided into multiple blocks to give you the opportunity to take a break after each block. <br>First, you can now practice this task. <br><br>Please place your <strong>LEFT INDEX FINGER</strong> on the 'S' key and your <strong>RIGHT INDEX FINGER</strong> on the 'L' key now. <br><br>Press SPACE to continue.</div>","32","","","","","","","","","","","","","","","","","","","",""
"html-keyboard-response","9","114432","0.0-2.0-1.0","s5qazww1ru11wea","instructions","5cb329855ee1730001ae6683","5f60e3c0a3b16e07647b2ff9","5f675c33dbb05833dfafb8aa","false","4317","<div align=left> You will now have time to practice this task.<br><br>Remember: <br> <br><li>Please place your index fingers on the <strong>'S'</strong> and <strong>'L'</strong> keys <br>to respond as fast and accurately as possible.</li><li>Every picture can be classified as either mechanical or non-mechanical.</li><li>If you do not respond in time or commit an error, you will receive a corresponding feedback. </li><li> Please try to respond as <strong> fast </strong> and as <strong> accurately as possible </strong> .<br><li>To ensure optimal results, please minimize distractions and stay focused. </li><br><br>Press SPACE to continue.</div>","32","","","","","","","","","","","","","","","","","","","",""
"html-keyboard-response","10","115135","0.0-2.0-2.0-0.0","s5qazww1ru11wea","practice_no_cue","5cb329855ee1730001ae6683","5f60e3c0a3b16e07647b2ff9","5f675c33dbb05833dfafb8aa","false","null","<span style=""color: black; font-size: 48px"">N + M</span>","null","","","","resp_prompt","","","","","","","","","","","","","","","",""
"categorize-image","11","116887","0.0-2.0-2.0-1.0","s5qazww1ru11wea","practice_no_cue","5cb329855ee1730001ae6683","5f60e3c0a3b16e07647b2ff9","5f675c33dbb05833dfafb8aa","true","1249","./Stimuli/ImagesPractice/LN109.jpg","76","","","","test","false","N + M","83","","LN","LN109.jpg","forget","old","1","1","start","right","","","",""
"html-keyboard-response","12","117590","0.0-2.0-2.0-0.1","s5qazww1ru11wea","practice_no_cue","5cb329855ee1730001ae6683","5f60e3c0a3b16e07647b2ff9","5f675c33dbb05833dfafb8aa","false","null","<span style=""color: black; font-size: 48px"">N + M</span>","null","","","","resp_prompt","","","","","","","","","","","","","","","",""
"categorize-image","13","118791","0.0-2.0-2.0-1.1","s5qazww1ru11wea","practice_no_cue","5cb329855ee1730001ae6683","5f60e3c0a3b16e07647b2ff9","5f675c33dbb05833dfafb8aa","true","699","./Stimuli/ImagesPractice/SM97.jpg","83","","","","test","false","N + M","76","","SM","SM97.jpg","remember","old","2","1","start","left","","","",""
"html-keyboard-response","14","119493","0.0-2.0-2.0-0.2","s5qazww1ru11wea","practice_no_cue","5cb329855ee1730001ae6683","5f60e3c0a3b16e07647b2ff9","5f675c33dbb05833dfafb8aa","false","null","<span style=""color: black; font-size: 48px"">M + N</span>","null","","","","resp_prompt","","","","","","","","","","","","","","","",""
"categorize-image","15","121997","0.0-2.0-2.0-1.2","s5qazww1ru11wea","practice_no_cue","5cb329855ee1730001ae6683","5f60e3c0a3b16e07647b2ff9","5f675c33dbb05833dfafb8aa","true","null","./Stimuli/ImagesPractice/SM61.jpg","null","","","","test","false","M + N","83","","SM","SM61.jpg","forget","old","3","1","start","too_slow","","","",""
"html-keyboard-response","16","122699","0.0-2.0-2.0-0.3","s5qazww1ru11wea","practice_no_cue","5cb329855ee1730001ae6683","5f60e3c0a3b16e07647b2ff9","5f675c33dbb05833dfafb8aa","false","null","<span style=""color: black; font-size: 48px"">M + N</span>","null","","","","resp_prompt","","","","","","","","","","","","","","","",""
"categorize-image","17","123842","0.0-2.0-2.0-1.3","s5qazww1ru11wea","practice_no_cue","5cb329855ee1730001ae6683","5f60e3c0a3b16e07647b2ff9","5f675c33dbb05833dfafb8aa","true","642","./Stimuli/ImagesPractice/LM224.jpg","83","","","","test","true","M + N","83","","LM","LM224.jpg","remember","old","4","1","start","left","","","",""
"html-keyboard-response","18","124544","0.0-2.0-2.0-0.4","s5qazww1ru11wea","practice_no_cue","5cb329855ee1730001ae6683","5f60e3c0a3b16e07647b2ff9","5f675c33dbb05833dfafb8aa","false","null","<span style=""color: black; font-size: 48px"">M + N</span>","null","","","","resp_prompt","","","","","","","","","","","","","","","",""
"categorize-image","19","125731","0.0-2.0-2.0-1.4","s5qazww1ru11wea","practice_no_cue","5cb329855ee1730001ae6683","5f60e3c0a3b16e07647b2ff9","5f675c33dbb05833dfafb8aa","true","684","./Stimuli/ImagesPractice/SN205.jpg","76","","","","test","true","M + N","76","","SN","SN205.jpg","remember","old","5","1","start","right","","","",""
"html-keyboard-response","20","126432","0.0-2.0-2.0-0.5","s5qazww1ru11wea","practice_no_cue","5cb329855ee1730001ae6683","5f60e3c0a3b16e07647b2ff9","5f675c33dbb05833dfafb8aa","false","null","<span style=""color: black; font-size: 48px"">N + M</span>","null","","","","resp_prompt","","","","","","","","","","","","","","","",""
"categorize-image","21","127711","0.0-2.0-2.0-1.5","s5qazww1ru11wea","practice_no_cue","5cb329855ee1730001ae6683","5f60e3c0a3b16e07647b2ff9","5f675c33dbb05833dfafb8aa","true","776","./Stimuli/ImagesPractice/SM37.jpg","83","","","","test","false","N + M","76","","SM","SM37.jpg","remember","old","6","1","start","left","","","",""
"html-keyboard-response","22","128412","0.0-2.0-2.0-0.6","s5qazww1ru11wea","practice_no_cue","5cb329855ee1730001ae6683","5f60e3c0a3b16e07647b2ff9","5f675c33dbb05833dfafb8aa","false","null","<span style=""color: black; font-size: 48px"">N + M</span>","null","","","","resp_prompt","","","","","","","","","","","","","","","",""
"categorize-image","23","129870","0.0-2.0-2.0-1.6","s5qazww1ru11wea","practice_no_cue","5cb329855ee1730001ae6683","5f60e3c0a3b16e07647b2ff9","5f675c33dbb05833dfafb8aa","true","954","./Stimuli/ImagesPractice/LM230.jpg","76","","","","test","true","N + M","76","","LM","LM230.jpg","forget","old","7","1","start","right","","","",""
"html-keyboard-response","24","130572","0.0-2.0-2.0-0.7","s5qazww1ru11wea","practice_no_cue","5cb329855ee1730001ae6683","5f60e3c0a3b16e07647b2ff9","5f675c33dbb05833dfafb8aa","false","null","<span style=""color: black; font-size: 48px"">N + M</span>","null","","","","resp_prompt","","","","","","","","","","","","","","","",""
"categorize-image","25","131969","0.0-2.0-2.0-1.7","s5qazww1ru11wea","practice_no_cue","5cb329855ee1730001ae6683","5f60e3c0a3b16e07647b2ff9","5f675c33dbb05833dfafb8aa","true","895","./Stimuli/ImagesPractice/LM143.jpg","76","","","","test","true","N + M","76","","LM","LM143.jpg","forget","old","8","1","start","right","","","",""
"html-keyboard-response","26","132671","0.0-2.0-2.0-0.8","s5qazww1ru11wea","practice_no_cue","5cb329855ee1730001ae6683","5f60e3c0a3b16e07647b2ff9","5f675c33dbb05833dfafb8aa","false","null","<span style=""color: black; font-size: 48px"">N + M</span>","null","","","","resp_prompt","","","","","","","","","","","","","","","",""
"categorize-image","27","134096","0.0-2.0-2.0-1.8","s5qazww1ru11wea","practice_no_cue","5cb329855ee1730001ae6683","5f60e3c0a3b16e07647b2ff9","5f675c33dbb05833dfafb8aa","true","922","./Stimuli/ImagesPractice/SN221.jpg","83","","","","test","true","N + M","83","","SN","SN221.jpg","forget","old","9","1","start","left","","","",""
"html-keyboard-response","28","134798","0.0-2.0-2.0-0.9","s5qazww1ru11wea","practice_no_cue","5cb329855ee1730001ae6683","5f60e3c0a3b16e07647b2ff9","5f675c33dbb05833dfafb8aa","false","null","<span style=""color: black; font-size: 48px"">N + M</span>","null","","","","resp_prompt","","","","","","","","","","","","","","","",""
"categorize-image","29","136100","0.0-2.0-2.0-1.9","s5qazww1ru11wea","practice_no_cue","5cb329855ee1730001ae6683","5f60e3c0a3b16e07647b2ff9","5f675c33dbb05833dfafb8aa","true","799.9999999999709","./Stimuli/ImagesPractice/SM98.jpg","83","","","","test","false","N + M","76","","SM","SM98.jpg","remember","old","10","1","start","left","","","",""
"html-keyboard-response","30","136802","0.0-2.0-2.0-0.10","s5qazww1ru11wea","practice_no_cue","5cb329855ee1730001ae6683","5f60e3c0a3b16e07647b2ff9","5f675c33dbb05833dfafb8aa","false","null","<span style=""color: black; font-size: 48px"">M + N</span>","null","","","","resp_prompt","","","","","","","","","","","","","","","",""
"categorize-image","31","138121","0.0-2.0-2.0-1.10","s5qazww1ru11wea","practice_no_cue","5cb329855ee1730001ae6683","5f60e3c0a3b16e07647b2ff9","5f675c33dbb05833dfafb8aa","true","817.0000000000291","./Stimuli/ImagesPractice/SN76.jpg","76","","","","test","true","M + N","76","","SN","SN76.jpg","forget","old","11","1","start","right","","","",""
"html-keyboard-response","32","138823","0.0-2.0-2.0-0.11","s5qazww1ru11wea","practice_no_cue","5cb329855ee1730001ae6683","5f60e3c0a3b16e07647b2ff9","5f675c33dbb05833dfafb8aa","false","null","<span style=""color: black; font-size: 48px"">M + N</span>","null","","","","resp_prompt","","","","","","","","","","","","","","","",""
"categorize-image","33","140278","0.0-2.0-2.0-1.11","s5qazww1ru11wea","practice_no_cue","5cb329855ee1730001ae6683","5f60e3c0a3b16e07647b2ff9","5f675c33dbb05833dfafb8aa","true","953","./Stimuli/ImagesPractice/SN220.jpg","76","","","","test","true","M + N","76","","SN","SN220.jpg","remember","old","12","1","start","right","","","",""
"html-keyboard-response","34","140981","0.0-2.0-2.0-0.12","s5qazww1ru11wea","practice_no_cue","5cb329855ee1730001ae6683","5f60e3c0a3b16e07647b2ff9","5f675c33dbb05833dfafb8aa","false","null","<span style=""color: black; font-size: 48px"">M + N</span>","null","","","","resp_prompt","","","","","","","","","","","","","","","",""
"categorize-image","35","142313","0.0-2.0-2.0-1.12","s5qazww1ru11wea","practice_no_cue","5cb329855ee1730001ae6683","5f60e3c0a3b16e07647b2ff9","5f675c33dbb05833dfafb8aa","true","830","./Stimuli/ImagesPractice/LN4.jpg","76","","","","test","true","M + N","76","","LN","LN4.jpg","forget","old","13","1","start","right","","","",""
"html-keyboard-response","36","143015","0.0-2.0-2.0-0.13","s5qazww1ru11wea","practice_no_cue","5cb329855ee1730001ae6683","5f60e3c0a3b16e07647b2ff9","5f675c33dbb05833dfafb8aa","false","null","<span style=""color: black; font-size: 48px"">N + M</span>","null","","","","resp_prompt","","","","","","","","","","","","","","","",""
"categorize-image","37","144588","0.0-2.0-2.0-1.13","s5qazww1ru11wea","practice_no_cue","5cb329855ee1730001ae6683","5f60e3c0a3b16e07647b2ff9","5f675c33dbb05833dfafb8aa","true","1071","./Stimuli/ImagesPractice/SN75.jpg","83","","","","test","true","N + M","83","","SN","SN75.jpg","remember","old","14","1","start","left","","","",""
"html-keyboard-response","38","145290","0.0-2.0-2.0-0.14","s5qazww1ru11wea","practice_no_cue","5cb329855ee1730001ae6683","5f60e3c0a3b16e07647b2ff9","5f675c33dbb05833dfafb8aa","false","null","<span style=""color: black; font-size: 48px"">M + N</span>","null","","","","resp_prompt","","","","","","","","","","","","","","","",""
"categorize-image","39","146815","0.0-2.0-2.0-1.14","s5qazww1ru11wea","practice_no_cue","5cb329855ee1730001ae6683","5f60e3c0a3b16e07647b2ff9","5f675c33dbb05833dfafb8aa","true","1023","./Stimuli/ImagesPractice/SN222.jpg","76","","","","test","true","M + N","76","","SN","SN222.jpg","remember","old","15","1","start","right","","","",""
"html-keyboard-response","40","147517","0.0-2.0-2.0-0.15","s5qazww1ru11wea","practice_no_cue","5cb329855ee1730001ae6683","5f60e3c0a3b16e07647b2ff9","5f675c33dbb05833dfafb8aa","false","null","<span style=""color: black; font-size: 48px"">M + N</span>","null","","","","resp_prompt","","","","","","","","","","","","","","","",""
"categorize-image","41","148927","0.0-2.0-2.0-1.15","s5qazww1ru11wea","practice_no_cue","5cb329855ee1730001ae6683","5f60e3c0a3b16e07647b2ff9","5f675c33dbb05833dfafb8aa","true","906.9999999999709","./Stimuli/ImagesPractice/LN2.jpg","76","","","","test","true","M + N","76","","LN","LN2.jpg","forget","old","16","1","start","right","","","",""
"html-keyboard-response","42","153808","0.0-2.0-3.0","s5qazww1ru11wea","break","5cb329855ee1730001ae6683","5f60e3c0a3b16e07647b2ff9","5f675c33dbb05833dfafb8aa","false","4878","<p style='font-size: 32px;'>Break</><br><br><br><br><br><p style='font-size: 24px;'>In the last block, you committed 4 errors and did not respond in time on 1 trials.
</p><p style='font-size: 24px;'>Try to respond as fast and accurately as possible in the next block as well! </p><p style='font-size: 24px;'>Press SPACE to continue.</p>","32","","","","","","","","","","","","","","","","","","","",""
"html-keyboard-response","43","158199","0.0-2.0-4.0","s5qazww1ru11wea","instructions","5cb329855ee1730001ae6683","5f60e3c0a3b16e07647b2ff9","5f675c33dbb05833dfafb8aa","false","4390","<div align=left> Great!<br><br>Are you ready to continue?<br><br>If you want to reread the instructions and redo the practice trials, <br>please press „Z“. <br><br>Press SPACE to CONTINUE with the experiment when you are ready. </div>","32","","","","","","","","","","","","","","","","","","","",""
"html-keyboard-response","44","184032","0.0-3.0-0.0","s5qazww1ru11wea","instructions","5cb329855ee1730001ae6683","5f60e3c0a3b16e07647b2ff9","5f675c33dbb05833dfafb8aa","false","25830.00000000003","<div align=left>Great!<br> <strong>Attention</strong>! You will now receive a second, additional task! <br><br>To this point it was you <strong>first task</strong> to correctly <strong>classify objects</strong>. <br><br>As mentioned in the beginning, we aim to examine how well humans can remember previously learned information.<br>We would like to find out whether our memory improves if we only remember information that is relevant to us. <br><br>Therefore, your <strong>second task</strong> will be to <strong>remember</strong> the pictures you are to categorize. <br> After the learning phase, there will be a memory test phase, in which you will be asked to indicate whether you have seen a picture before or not. <br>Some, but not all pictures shown in the learning phase will appear in the memory test phase.<br>After classifying a picture, you will be told whether you should remember it for the memory test phase or not. <br>Thus, some pictures can be forgotten, whereas others have to be remembered. <br><br>Note: From now on, feedback will only be displayed if you responded incorrectly or not in time.<br><br>Press SPACE to continue.</div>","32","","","","","","","","","","","","","","","","","","","",""
"html-keyboard-response","45","215135","0.0-3.0-1.0","s5qazww1ru11wea","instructions","5cb329855ee1730001ae6683","5f60e3c0a3b16e07647b2ff9","5f675c33dbb05833dfafb8aa","false","31102","<div align=left>In the following part, you will thus have to remember only some pictures. <br>Immediately after seeing and classifying the picture, a symbol will be displayed, indicating whether you should remember or forget the previous picture. <br><br>A <span style='color: dodgerblue; font-size: 28px'>O</span> indicates REMEMBER. That means, you have to remember this picture, because it will be tested later. <br><br>A <span style='color: darkorange; font-size:28px'>Ø</span> indicates FORGET. You do not have to remember this picture. <br><br> As you will have to remember a lot of pictures, it will be hard for you to remember all of them. <br>It will put you at an advantage if you instantly forget the pictures you are not asked to remember. <br> This will make it easier for you to remember the pictures that will be tested afterwards. <br><br>Press SPACE to continue.</div>","32","","","","","","","","","","","","","","","","","","","",""
"html-keyboard-response","46","219648","0.0-3.0-2.0","s5qazww1ru11wea","instructions","5cb329855ee1730001ae6683","5f60e3c0a3b16e07647b2ff9","5f675c33dbb05833dfafb8aa","false","4512","<div align=left> Now you have the chance to practice both tasks together.<br><br>Remember: <br> <br><li>Please place your index fingers on the <strong>'S'</strong> and <strong>'L'</strong> keys <br>to respond as fast and accurately as possible.</li><li>Every picture can be classified as either mechanical or non-mechanical.</li><li>If you do not respond in time or commit an error, you will receive a corresponding feedback. <br>Please try to respond as <strong> fast </strong> and as <strong> accurately as possible </strong>.</li><li> Please remember only the to-be-remembered <span style='color: dodgerblue; font-size: 28px'>O</span> pictures. <br></li><li> Please minimize distractions and stay focused. </li><br><br>Press SPACE to START</div>","32","","","","","","","","","","","","","","","","","","","",""
"html-keyboard-response","47","220351","0.0-3.0-3.0-0.0","s5qazww1ru11wea","practice_cue","5cb329855ee1730001ae6683","5f60e3c0a3b16e07647b2ff9","5f675c33dbb05833dfafb8aa","false","null","<span style=""color: black; font-size: 48px"">M + N</span>","null","","","","resp_prompt","","","","","","","","","","","","","","","",""
"categorize-image","48","221262","0.0-3.0-3.0-1.0","s5qazww1ru11wea","practice_cue","5cb329855ee1730001ae6683","5f60e3c0a3b16e07647b2ff9","5f675c33dbb05833dfafb8aa","true","908","./Stimuli/ImagesPractice/SM61.jpg","83","","","","test","true","M + N","83","","SM","SM61.jpg","forget","old","17","2","practice_forget","left","","","",""
"html-keyboard-response","49","223264","0.0-3.0-3.0-3.0","s5qazww1ru11wea","practice_cue","5cb329855ee1730001ae6683","5f60e3c0a3b16e07647b2ff9","5f675c33dbb05833dfafb8aa","false","null","<div style=""align-items: center; display: flex; color: darkorange; font-size: 90px""><b>ø</b></div>","null","","","","forget_cue","","","","","","","","","","","","","","","",""
"html-keyboard-response","50","223966","0.0-3.0-3.0-0.1","s5qazww1ru11wea","practice_cue","5cb329855ee1730001ae6683","5f60e3c0a3b16e07647b2ff9","5f675c33dbb05833dfafb8aa","false","null","<span style=""color: black; font-size: 48px"">N + M</span>","null","","","","resp_prompt","","","","","","","","","","","","","","","",""
"categorize-image","51","224839","0.0-3.0-3.0-1.1","s5qazww1ru11wea","practice_cue","5cb329855ee1730001ae6683","5f60e3c0a3b16e07647b2ff9","5f675c33dbb05833dfafb8aa","true","870","./Stimuli/ImagesPractice/SM37.jpg","76","","","","test","true","N + M","76","","SM","SM37.jpg","remember","old","18","2","practice_forget","right","","","",""
"html-keyboard-response","52","226840","0.0-3.0-3.0-3.1","s5qazww1ru11wea","practice_cue","5cb329855ee1730001ae6683","5f60e3c0a3b16e07647b2ff9","5f675c33dbb05833dfafb8aa","false","null","<div style=""align-items: center; display: flex; color: dodgerblue; font-size: 90px""><b>o</b></div>","null","","","","forget_cue","","","","","","","","","","","","","","","",""
"html-keyboard-response","53","227542","0.0-3.0-3.0-0.2","s5qazww1ru11wea","practice_cue","5cb329855ee1730001ae6683","5f60e3c0a3b16e07647b2ff9","5f675c33dbb05833dfafb8aa","false","null","<span style=""color: black; font-size: 48px"">N + M</span>","null","","","","resp_prompt","","","","","","","","","","","","","","","",""
"categorize-image","54","228161","0.0-3.0-3.0-1.2","s5qazww1ru11wea","practice_cue","5cb329855ee1730001ae6683","5f60e3c0a3b16e07647b2ff9","5f675c33dbb05833dfafb8aa","true","618","./Stimuli/ImagesPractice/LN109.jpg","83","","","","test","true","N + M","83","","LN","LN109.jpg","forget","old","19","2","practice_forget","left","","","",""
"html-keyboard-response","55","230163","0.0-3.0-3.0-3.2","s5qazww1ru11wea","practice_cue","5cb329855ee1730001ae6683","5f60e3c0a3b16e07647b2ff9","5f675c33dbb05833dfafb8aa","false","null","<div style=""align-items: center; display: flex; color: darkorange; font-size: 90px""><b>ø</b></div>","null","","","","forget_cue","","","","","","","","","","","","","","","",""
"html-keyboard-response","56","230865","0.0-3.0-3.0-0.3","s5qazww1ru11wea","practice_cue","5cb329855ee1730001ae6683","5f60e3c0a3b16e07647b2ff9","5f675c33dbb05833dfafb8aa","false","null","<span style=""color: black; font-size: 48px"">M + N</span>","null","","","","resp_prompt","","","","","","","","","","","","","","","",""
"categorize-image","57","231668","0.0-3.0-3.0-1.3","s5qazww1ru11wea","practice_cue","5cb329855ee1730001ae6683","5f60e3c0a3b16e07647b2ff9","5f675c33dbb05833dfafb8aa","true","800","./Stimuli/ImagesPractice/SN76.jpg","76","","","","test","true","M + N","76","","SN","SN76.jpg","forget","old","20","2","practice_forget","right","","","",""
"html-keyboard-response","58","233670","0.0-3.0-3.0-3.3","s5qazww1ru11wea","practice_cue","5cb329855ee1730001ae6683","5f60e3c0a3b16e07647b2ff9","5f675c33dbb05833dfafb8aa","false","null","<div style=""align-items: center; display: flex; color: darkorange; font-size: 90px""><b>ø</b></div>","null","","","","forget_cue","","","","","","","","","","","","","","","",""
"html-keyboard-response","59","234372","0.0-3.0-3.0-0.4","s5qazww1ru11wea","practice_cue","5cb329855ee1730001ae6683","5f60e3c0a3b16e07647b2ff9","5f675c33dbb05833dfafb8aa","false","null","<span style=""color: black; font-size: 48px"">M + N</span>","null","","","","resp_prompt","","","","","","","","","","","","","","","",""
"categorize-image","60","235092","0.0-3.0-3.0-1.4","s5qazww1ru11wea","practice_cue","5cb329855ee1730001ae6683","5f60e3c0a3b16e07647b2ff9","5f675c33dbb05833dfafb8aa","true","717","./Stimuli/ImagesPractice/LN2.jpg","76","","","","test","true","M + N","76","","LN","LN2.jpg","forget","old","21","2","practice_forget","right","","","",""
"html-keyboard-response","61","237094","0.0-3.0-3.0-3.4","s5qazww1ru11wea","practice_cue","5cb329855ee1730001ae6683","5f60e3c0a3b16e07647b2ff9","5f675c33dbb05833dfafb8aa","false","null","<div style=""align-items: center; display: flex; color: darkorange; font-size: 90px""><b>ø</b></div>","null","","","","forget_cue","","","","","","","","","","","","","","","",""
"html-keyboard-response","62","237796","0.0-3.0-3.0-0.5","s5qazww1ru11wea","practice_cue","5cb329855ee1730001ae6683","5f60e3c0a3b16e07647b2ff9","5f675c33dbb05833dfafb8aa","false","null","<span style=""color: black; font-size: 48px"">M + N</span>","null","","","","resp_prompt","","","","","","","","","","","","","","","",""
"categorize-image","63","238489","0.0-3.0-3.0-1.5","s5qazww1ru11wea","practice_cue","5cb329855ee1730001ae6683","5f60e3c0a3b16e07647b2ff9","5f675c33dbb05833dfafb8aa","true","691","./Stimuli/ImagesPractice/LN4.jpg","76","","","","test","true","M + N","76","","LN","LN4.jpg","forget","old","22","2","practice_forget","right","","","",""
"html-keyboard-response","64","240490","0.0-3.0-3.0-3.5","s5qazww1ru11wea","practice_cue","5cb329855ee1730001ae6683","5f60e3c0a3b16e07647b2ff9","5f675c33dbb05833dfafb8aa","false","null","<div style=""align-items: center; display: flex; color: darkorange; font-size: 90px""><b>ø</b></div>","null","","","","forget_cue","","","","","","","","","","","","","","","",""
"html-keyboard-response","65","241192","0.0-3.0-3.0-0.6","s5qazww1ru11wea","practice_cue","5cb329855ee1730001ae6683","5f60e3c0a3b16e07647b2ff9","5f675c33dbb05833dfafb8aa","false","null","<span style=""color: black; font-size: 48px"">N + M</span>","null","","","","resp_prompt","","","","","","","","","","","","","","","",""
"categorize-image","66","241900","0.0-3.0-3.0-1.6","s5qazww1ru11wea","practice_cue","5cb329855ee1730001ae6683","5f60e3c0a3b16e07647b2ff9","5f675c33dbb05833dfafb8aa","true","705","./Stimuli/ImagesPractice/SM97.jpg","83","","","","test","false","N + M","76","","SM","SM97.jpg","remember","old","23","2","practice_forget","left","","","",""
"html-keyboard-response","67","242402","0.0-3.0-3.0-2.6-0.6","s5qazww1ru11wea","practice_cue","5cb329855ee1730001ae6683","5f60e3c0a3b16e07647b2ff9","5f675c33dbb05833dfafb8aa","false","null","<span style=""color: red; font-size: 48px"">Error!</span>","null","","","","feedback","","","","","","","","","","","","","","","",""
"html-keyboard-response","68","244404","0.0-3.0-3.0-3.6","s5qazww1ru11wea","practice_cue","5cb329855ee1730001ae6683","5f60e3c0a3b16e07647b2ff9","5f675c33dbb05833dfafb8aa","false","null","<div style=""align-items: center; display: flex; color: dodgerblue; font-size: 90px""><b>o</b></div>","null","","","","forget_cue","","","","","","","","","","","","","","","",""
"html-keyboard-response","69","245106","0.0-3.0-3.0-0.7","s5qazww1ru11wea","practice_cue","5cb329855ee1730001ae6683","5f60e3c0a3b16e07647b2ff9","5f675c33dbb05833dfafb8aa","false","null","<span style=""color: black; font-size: 48px"">N + M</span>","null","","","","resp_prompt","","","","","","","","","","","","","","","",""
"categorize-image","70","247112","0.0-3.0-3.0-1.7","s5qazww1ru11wea","practice_cue","5cb329855ee1730001ae6683","5f60e3c0a3b16e07647b2ff9","5f675c33dbb05833dfafb8aa","true","null","./Stimuli/ImagesPractice/LM143.jpg","null","","","","test","false","N + M","76","","LM","LM143.jpg","forget","old","24","2","practice_forget","too_slow","","","",""
"html-keyboard-response","71","247613","0.0-3.0-3.0-2.7-0.7","s5qazww1ru11wea","practice_cue","5cb329855ee1730001ae6683","5f60e3c0a3b16e07647b2ff9","5f675c33dbb05833dfafb8aa","false","null","<span style=""color: red; font-size: 48px"">Too slow!</span>","null","","","","feedback","","","","","","","","","","","","","","","",""
"html-keyboard-response","72","249615","0.0-3.0-3.0-3.7","s5qazww1ru11wea","practice_cue","5cb329855ee1730001ae6683","5f60e3c0a3b16e07647b2ff9","5f675c33dbb05833dfafb8aa","false","null","<div style=""align-items: center; display: flex; color: darkorange; font-size: 90px""><b>ø</b></div>","null","","","","forget_cue","","","","","","","","","","","","","","","",""
"html-keyboard-response","73","250317","0.0-3.0-3.0-0.8","s5qazww1ru11wea","practice_cue","5cb329855ee1730001ae6683","5f60e3c0a3b16e07647b2ff9","5f675c33dbb05833dfafb8aa","false","null","<span style=""color: black; font-size: 48px"">N + M</span>","null","","","","resp_prompt","","","","","","","","","","","","","","","",""
"categorize-image","74","251334","0.0-3.0-3.0-1.8","s5qazww1ru11wea","practice_cue","5cb329855ee1730001ae6683","5f60e3c0a3b16e07647b2ff9","5f675c33dbb05833dfafb8aa","true","1014","./Stimuli/ImagesPractice/LM230.jpg","76","","","","test","true","N + M","76","","LM","LM230.jpg","forget","old","25","2","practice_forget","right","","","",""
"html-keyboard-response","75","253335","0.0-3.0-3.0-3.8","s5qazww1ru11wea","practice_cue","5cb329855ee1730001ae6683","5f60e3c0a3b16e07647b2ff9","5f675c33dbb05833dfafb8aa","false","null","<div style=""align-items: center; display: flex; color: darkorange; font-size: 90px""><b>ø</b></div>","null","","","","forget_cue","","","","","","","","","","","","","","","",""
"html-keyboard-response","76","254037","0.0-3.0-3.0-0.9","s5qazww1ru11wea","practice_cue","5cb329855ee1730001ae6683","5f60e3c0a3b16e07647b2ff9","5f675c33dbb05833dfafb8aa","false","null","<span style=""color: black; font-size: 48px"">N + M</span>","null","","","","resp_prompt","","","","","","","","","","","","","","","",""
"categorize-image","77","254760","0.0-3.0-3.0-1.9","s5qazww1ru11wea","practice_cue","5cb329855ee1730001ae6683","5f60e3c0a3b16e07647b2ff9","5f675c33dbb05833dfafb8aa","true","721","./Stimuli/ImagesPractice/SN75.jpg","83","","","","test","true","N + M","83","","SN","SN75.jpg","remember","old","26","2","practice_forget","left","","","",""
"html-keyboard-response","78","256761","0.0-3.0-3.0-3.9","s5qazww1ru11wea","practice_cue","5cb329855ee1730001ae6683","5f60e3c0a3b16e07647b2ff9","5f675c33dbb05833dfafb8aa","false","null","<div style=""align-items: center; display: flex; color: dodgerblue; font-size: 90px""><b>o</b></div>","null","","","","forget_cue","","","","","","","","","","","","","","","",""
"html-keyboard-response","79","257463","0.0-3.0-3.0-0.10","s5qazww1ru11wea","practice_cue","5cb329855ee1730001ae6683","5f60e3c0a3b16e07647b2ff9","5f675c33dbb05833dfafb8aa","false","null","<span style=""color: black; font-size: 48px"">N + M</span>","null","","","","resp_prompt","","","","","","","","","","","","","","","",""
"categorize-image","80","258739","0.0-3.0-3.0-1.10","s5qazww1ru11wea","practice_cue","5cb329855ee1730001ae6683","5f60e3c0a3b16e07647b2ff9","5f675c33dbb05833dfafb8aa","true","1273.0000000000582","./Stimuli/ImagesPractice/SN221.jpg","83","","","","test","true","N + M","83","","SN","SN221.jpg","forget","old","27","2","practice_forget","left","","","",""
"html-keyboard-response","81","260741","0.0-3.0-3.0-3.10","s5qazww1ru11wea","practice_cue","5cb329855ee1730001ae6683","5f60e3c0a3b16e07647b2ff9","5f675c33dbb05833dfafb8aa","false","null","<div style=""align-items: center; display: flex; color: darkorange; font-size: 90px""><b>ø</b></div>","null","","","","forget_cue","","","","","","","","","","","","","","","",""
"html-keyboard-response","82","261443","0.0-3.0-3.0-0.11","s5qazww1ru11wea","practice_cue","5cb329855ee1730001ae6683","5f60e3c0a3b16e07647b2ff9","5f675c33dbb05833dfafb8aa","false","null","<span style=""color: black; font-size: 48px"">M + N</span>","null","","","","resp_prompt","","","","","","","","","","","","","","","",""
"categorize-image","83","262241","0.0-3.0-3.0-1.11","s5qazww1ru11wea","practice_cue","5cb329855ee1730001ae6683","5f60e3c0a3b16e07647b2ff9","5f675c33dbb05833dfafb8aa","true","797","./Stimuli/ImagesPractice/SN220.jpg","83","","","","test","false","M + N","76","","SN","SN220.jpg","remember","old","28","2","practice_forget","left","","","",""
"html-keyboard-response","84","262743","0.0-3.0-3.0-2.11-0.11","s5qazww1ru11wea","practice_cue","5cb329855ee1730001ae6683","5f60e3c0a3b16e07647b2ff9","5f675c33dbb05833dfafb8aa","false","null","<span style=""color: red; font-size: 48px"">Error!</span>","null","","","","feedback","","","","","","","","","","","","","","","",""
"html-keyboard-response","85","264745","0.0-3.0-3.0-3.11","s5qazww1ru11wea","practice_cue","5cb329855ee1730001ae6683","5f60e3c0a3b16e07647b2ff9","5f675c33dbb05833dfafb8aa","false","null","<div style=""align-items: center; display: flex; color: dodgerblue; font-size: 90px""><b>o</b></div>","null","","","","forget_cue","","","","","","","","","","","","","","","",""
"html-keyboard-response","86","265446","0.0-3.0-3.0-0.12","s5qazww1ru11wea","practice_cue","5cb329855ee1730001ae6683","5f60e3c0a3b16e07647b2ff9","5f675c33dbb05833dfafb8aa","false","null","<span style=""color: black; font-size: 48px"">M + N</span>","null","","","","resp_prompt","","","","","","","","","","","","","","","",""
"categorize-image","87","266233","0.0-3.0-3.0-1.12","s5qazww1ru11wea","practice_cue","5cb329855ee1730001ae6683","5f60e3c0a3b16e07647b2ff9","5f675c33dbb05833dfafb8aa","true","785","./Stimuli/ImagesPractice/LM224.jpg","76","","","","test","false","M + N","83","","LM","LM224.jpg","remember","old","29","2","practice_forget","right","","","",""
"html-keyboard-response","88","266734","0.0-3.0-3.0-2.12-0.12","s5qazww1ru11wea","practice_cue","5cb329855ee1730001ae6683","5f60e3c0a3b16e07647b2ff9","5f675c33dbb05833dfafb8aa","false","null","<span style=""color: red; font-size: 48px"">Error!</span>","null","","","","feedback","","","","","","","","","","","","","","","",""
"html-keyboard-response","89","268736","0.0-3.0-3.0-3.12","s5qazww1ru11wea","practice_cue","5cb329855ee1730001ae6683","5f60e3c0a3b16e07647b2ff9","5f675c33dbb05833dfafb8aa","false","null","<div style=""align-items: center; display: flex; color: dodgerblue; font-size: 90px""><b>o</b></div>","null","","","","forget_cue","","","","","","","","","","","","","","","",""
"html-keyboard-response","90","269438","0.0-3.0-3.0-0.13","s5qazww1ru11wea","practice_cue","5cb329855ee1730001ae6683","5f60e3c0a3b16e07647b2ff9","5f675c33dbb05833dfafb8aa","false","null","<span style=""color: black; font-size: 48px"">M + N</span>","null","","","","resp_prompt","","","","","","","","","","","","","","","",""
"categorize-image","91","270123","0.0-3.0-3.0-1.13","s5qazww1ru11wea","practice_cue","5cb329855ee1730001ae6683","5f60e3c0a3b16e07647b2ff9","5f675c33dbb05833dfafb8aa","true","681.9999999999418","./Stimuli/ImagesPractice/SN205.jpg","76","","","","test","true","M + N","76","","SN","SN205.jpg","remember","old","30","2","practice_forget","right","","","",""
"html-keyboard-response","92","272124","0.0-3.0-3.0-3.13","s5qazww1ru11wea","practice_cue","5cb329855ee1730001ae6683","5f60e3c0a3b16e07647b2ff9","5f675c33dbb05833dfafb8aa","false","null","<div style=""align-items: center; display: flex; color: dodgerblue; font-size: 90px""><b>o</b></div>","null","","","","forget_cue","","","","","","","","","","","","","","","",""
"html-keyboard-response","93","272826","0.0-3.0-3.0-0.14","s5qazww1ru11wea","practice_cue","5cb329855ee1730001ae6683","5f60e3c0a3b16e07647b2ff9","5f675c33dbb05833dfafb8aa","false","null","<span style=""color: black; font-size: 48px"">M + N</span>","null","","","","resp_prompt","","","","","","","","","","","","","","","",""
"categorize-image","94","273585","0.0-3.0-3.0-1.14","s5qazww1ru11wea","practice_cue","5cb329855ee1730001ae6683","5f60e3c0a3b16e07647b2ff9","5f675c33dbb05833dfafb8aa","true","756.9999999999418","./Stimuli/ImagesPractice/SN222.jpg","76","","","","test","true","M + N","76","","SN","SN222.jpg","remember","old","31","2","practice_forget","right","","","",""
"html-keyboard-response","95","275587","0.0-3.0-3.0-3.14","s5qazww1ru11wea","practice_cue","5cb329855ee1730001ae6683","5f60e3c0a3b16e07647b2ff9","5f675c33dbb05833dfafb8aa","false","null","<div style=""align-items: center; display: flex; color: dodgerblue; font-size: 90px""><b>o</b></div>","null","","","","forget_cue","","","","","","","","","","","","","","","",""
"html-keyboard-response","96","276289","0.0-3.0-3.0-0.15","s5qazww1ru11wea","practice_cue","5cb329855ee1730001ae6683","5f60e3c0a3b16e07647b2ff9","5f675c33dbb05833dfafb8aa","false","null","<span style=""color: black; font-size: 48px"">N + M</span>","null","","","","resp_prompt","","","","","","","","","","","","","","","",""
"categorize-image","97","276855","0.0-3.0-3.0-1.15","s5qazww1ru11wea","practice_cue","5cb329855ee1730001ae6683","5f60e3c0a3b16e07647b2ff9","5f675c33dbb05833dfafb8aa","true","565","./Stimuli/ImagesPractice/SM98.jpg","83","","","","test","false","N + M","76","","SM","SM98.jpg","remember","old","32","2","practice_forget","left","","","",""
"html-keyboard-response","98","277357","0.0-3.0-3.0-2.15-0.15","s5qazww1ru11wea","practice_cue","5cb329855ee1730001ae6683","5f60e3c0a3b16e07647b2ff9","5f675c33dbb05833dfafb8aa","false","null","<span style=""color: red; font-size: 48px"">Error!</span>","null","","","","feedback","","","","","","","","","","","","","","","",""
"html-keyboard-response","99","279359","0.0-3.0-3.0-3.15","s5qazww1ru11wea","practice_cue","5cb329855ee1730001ae6683","5f60e3c0a3b16e07647b2ff9","5f675c33dbb05833dfafb8aa","false","null","<div style=""align-items: center; display: flex; color: dodgerblue; font-size: 90px""><b>o</b></div>","null","","","","forget_cue","","","","","","","","","","","","","","","",""
"html-keyboard-response","100","282933","0.0-3.0-4.0","s5qazww1ru11wea","break","5cb329855ee1730001ae6683","5f60e3c0a3b16e07647b2ff9","5f675c33dbb05833dfafb8aa","false","3572","<p style='font-size: 32px;'>Break</><br><br><br><br><br><p style='font-size: 24px;'>In the last block, you committed 4 errors and did not respond in time on 1 trials.
</p><p style='font-size: 24px;'>Try to respond as fast and accurately as possible in the next block as well! </p><p style='font-size: 24px;'>Press SPACE to continue.</p>","32","","","","","","","","","","","","","","","","","","","",""
"html-keyboard-response","101","287597","0.0-3.0-5.0","s5qazww1ru11wea","instructions","5cb329855ee1730001ae6683","5f60e3c0a3b16e07647b2ff9","5f675c33dbb05833dfafb8aa","false","4664","<div align=left> Now, to practice, we kindly ask you to remember as many of the to-be-remembered pictures<br>of the previous learning phase as possible.<br><br>The pictures you were instructed to remember were the pictures followed by a <span style='color: dodgerblue; font-size: 28px'>O</span>.<br><br>In this memory test phase, you will also see some new pictures.<br>It is your task to remember whether you were presented with this specific picture in this study so far or not.<br>If you recognize an object (you have already seen it in this study), it is an OLD object. <br>If you do not recognize an object (you have NOT seen it in this study), it is a NEW object. <br><strong> Attention</strong>: As already mentioned, <span style='color: darkorange; font-size:28px'>Ø</span>-pictures will <strong>never</strong> appear in this memory test (neither as new objects). <br><br>Press SPACE to continue. </div>","32","","","","","","","","","","","","","","","","","","","",""
"html-keyboard-response","102","321687","0.0-3.0-6.0","s5qazww1ru11wea","instructions","5cb329855ee1730001ae6683","5f60e3c0a3b16e07647b2ff9","5f675c33dbb05833dfafb8aa","false","34089","<div align=left> M and N no longer will appear on the left/right of the fixation cross. <br>Instead there will be a note at the bottom of the left or right side  <br>indicating which key you should press for an old or new object:  <br> <br>Press the <strong>right</strong> key to classify an object as <strong>old</strong> and press the <strong>left</strong>, to classify an object as <strong>new</strong>.<br>Please classify the objects as new/old by again placing your index finger on the 'S' and 'L' keys <br>and press them accordingly.<br><br><strong>Old:</strong> This object has been presented before. <br><strong>New:</strong> This object has <strong>not</strong> been presented.<br><br>Now please put your right and left index fingers on the 'S' and 'L' keys of your keyboard. <br>Please respond as fast and as accurately as possible!<br><br>Press SPACE to continue. </div>","32","","","","","","","","","","","","","","","","","","","",""
"categorize-image","103","323745","0.0-3.0-7.0-0.0","s5qazww1ru11wea","practice_recog","5cb329855ee1730001ae6683","5f60e3c0a3b16e07647b2ff9","5f675c33dbb05833dfafb8aa","true","1555","./Stimuli/ImagesPractice/SN75.jpg","76","","","","test","true","","76","","SN","SN75.jpg","","old","33","3","practice_recog","right","","","",""
"categorize-image","104","325935","0.0-3.0-7.0-0.1","s5qazww1ru11wea","practice_recog","5cb329855ee1730001ae6683","5f60e3c0a3b16e07647b2ff9","5f675c33dbb05833dfafb8aa","true","1687","./Stimuli/ImagesPractice/LN15.jpg","83","","","","test","true","","83","","LN","LN15.jpg","","new","34","3","practice_recog","left","","","",""
"categorize-image","105","327655","0.0-3.0-7.0-0.2","s5qazww1ru11wea","practice_recog","5cb329855ee1730001ae6683","5f60e3c0a3b16e07647b2ff9","5f675c33dbb05833dfafb8aa","true","1217.0000000000582","./Stimuli/ImagesPractice/LM239.jpg","83","","","","test","true","","83","","LM","LM239.jpg","","new","35","3","practice_recog","left","","","",""
"categorize-image","106","329027","0.0-3.0-7.0-0.3","s5qazww1ru11wea","practice_recog","5cb329855ee1730001ae6683","5f60e3c0a3b16e07647b2ff9","5f675c33dbb05833dfafb8aa","true","869","./Stimuli/ImagesPractice/SM37.jpg","76","","","","test","true","","76","","SM","SM37.jpg","","old","36","3","practice_recog","right","","","",""
"categorize-image","107","330227","0.0-3.0-7.0-0.4","s5qazww1ru11wea","practice_recog","5cb329855ee1730001ae6683","5f60e3c0a3b16e07647b2ff9","5f675c33dbb05833dfafb8aa","true","699","./Stimuli/ImagesPractice/LM224.jpg","76","","","","test","true","","76","","LM","LM224.jpg","","old","37","3","practice_recog","right","","","",""
"categorize-image","108","331816","0.0-3.0-7.0-0.5","s5qazww1ru11wea","practice_recog","5cb329855ee1730001ae6683","5f60e3c0a3b16e07647b2ff9","5f675c33dbb05833dfafb8aa","true","1088","./Stimuli/ImagesPractice/LM147.jpg","83","","","","test","true","","83","","LM","LM147.jpg","","new","38","3","practice_recog","left","","","",""
"categorize-image","109","333096","0.0-3.0-7.0-0.6","s5qazww1ru11wea","practice_recog","5cb329855ee1730001ae6683","5f60e3c0a3b16e07647b2ff9","5f675c33dbb05833dfafb8aa","true","777","./Stimuli/ImagesPractice/LN72.jpg","76","","","","test","false","","83","","LN","LN72.jpg","","new","39","3","practice_recog","right","","","",""
"categorize-image","110","335682","0.0-3.0-7.0-0.7","s5qazww1ru11wea","practice_recog","5cb329855ee1730001ae6683","5f60e3c0a3b16e07647b2ff9","5f675c33dbb05833dfafb8aa","true","2084","./Stimuli/ImagesPractice/SN220.jpg","76","","","","test","true","","76","","SN","SN220.jpg","","old","40","3","practice_recog","right","","","",""
"categorize-image","111","337657","0.0-3.0-7.0-0.8","s5qazww1ru11wea","practice_recog","5cb329855ee1730001ae6683","5f60e3c0a3b16e07647b2ff9","5f675c33dbb05833dfafb8aa","true","1473","./Stimuli/ImagesPractice/SN222.jpg","76","","","","test","true","","76","","SN","SN222.jpg","","old","41","3","practice_recog","right","","","",""
"categorize-image","112","339150","0.0-3.0-7.0-0.9","s5qazww1ru11wea","practice_recog","5cb329855ee1730001ae6683","5f60e3c0a3b16e07647b2ff9","5f675c33dbb05833dfafb8aa","true","990.0000000000582","./Stimuli/ImagesPractice/SM98.jpg","83","","","","test","false","","76","","SM","SM98.jpg","","old","42","3","practice_recog","left","","","",""
"categorize-image","113","340737","0.0-3.0-7.0-0.10","s5qazww1ru11wea","practice_recog","5cb329855ee1730001ae6683","5f60e3c0a3b16e07647b2ff9","5f675c33dbb05833dfafb8aa","true","1084","./Stimuli/ImagesPractice/SM97.jpg","76","","","","test","true","","76","","SM","SM97.jpg","","old","43","3","practice_recog","right","","","",""
"categorize-image","114","342403","0.0-3.0-7.0-0.11","s5qazww1ru11wea","practice_recog","5cb329855ee1730001ae6683","5f60e3c0a3b16e07647b2ff9","5f675c33dbb05833dfafb8aa","true","1163","./Stimuli/ImagesPractice/LN17.jpg","83","","","","test","true","","83","","LN","LN17.jpg","","new","44","3","practice_recog","left","","","",""
"categorize-image","115","343799","0.0-3.0-7.0-0.12","s5qazww1ru11wea","practice_recog","5cb329855ee1730001ae6683","5f60e3c0a3b16e07647b2ff9","5f675c33dbb05833dfafb8aa","true","893.9999999999418","./Stimuli/ImagesPractice/LM55.jpg","76","","","","test","false","","83","","LM","LM55.jpg","","new","45","3","practice_recog","right","","","",""
"categorize-image","116","345434","0.0-3.0-7.0-0.13","s5qazww1ru11wea","practice_recog","5cb329855ee1730001ae6683","5f60e3c0a3b16e07647b2ff9","5f675c33dbb05833dfafb8aa","true","1132","./Stimuli/ImagesPractice/SM62.jpg","83","","","","test","true","","83","","SM","SM62.jpg","","new","46","3","practice_recog","left","","","",""
"categorize-image","117","346967","0.0-3.0-7.0-0.14","s5qazww1ru11wea","practice_recog","5cb329855ee1730001ae6683","5f60e3c0a3b16e07647b2ff9","5f675c33dbb05833dfafb8aa","true","1031","./Stimuli/ImagesPractice/SM35.jpg","83","","","","test","true","","83","","SM","SM35.jpg","","new","47","3","practice_recog","left","","","",""
"categorize-image","118","348202","0.0-3.0-7.0-0.15","s5qazww1ru11wea","practice_recog","5cb329855ee1730001ae6683","5f60e3c0a3b16e07647b2ff9","5f675c33dbb05833dfafb8aa","true","732","./Stimuli/ImagesPractice/SN205.jpg","76","","","","test","true","","76","","SN","SN205.jpg","","old","48","3","practice_recog","right","","","",""
"html-keyboard-response","119","359278","0.0-3.0-8.0","s5qazww1ru11wea","instructions","5cb329855ee1730001ae6683","5f60e3c0a3b16e07647b2ff9","5f675c33dbb05833dfafb8aa","false","11075","<div align=left> Great!<br><br>Are you ready to continue?<br>If you want to reread the instructions and redo the practice trials, please <br>press „Z“.<br><br>You can proceed when you are ready.<br><br>After the presentation of each object, you will receive an instruction whether to <br>remember or to forget the object.<br>We will test your memory of the following pictures only at the very end of <br>the experiment after all learning blocks are completed. <br><br>Press SPACE to CONTINUE when you are ready. </div>","32","","","","","","","","","","","","","","","","","","","",""
"html-keyboard-response","120","362723","0.0-4.0-0.0","s5qazww1ru11wea","instructions","5cb329855ee1730001ae6683","5f60e3c0a3b16e07647b2ff9","5f675c33dbb05833dfafb8aa","false","3443.999999999942","<div align=left> The actual experiment is about to start.<br>The practice trials are over!<br><br>Please always respond both fast and accurately!<br><br>Remember: <br> <br><li> Please place your index fingers on the <strong>'S'</strong> and <strong>'L'</strong> keys <br>to respond as fast and accurately as possible.</li><li> Every picture can be classified as either mechanical or non-mechanical.</li><li> If you do not respond in time or commit an error, you will receive a corresponding feedback.<br> Please try to respond as <strong> fast </strong> and as <strong> accurately as possible </strong>.</li><li> Remember the <span style='color: dodgerblue; font-size: 28px'>O</span> pictures. <br></li><li> Please minimize distractions and stay focused. </li><br><br>Press SPACE to START.</div>","32","","","","","","","","","","","","","","","","","","","",""
"html-keyboard-response","121","363425","0.0-4.0-1.0-0.0","s5qazww1ru11wea","prime","5cb329855ee1730001ae6683","5f60e3c0a3b16e07647b2ff9","5f675c33dbb05833dfafb8aa","false","null","<span style=""color: black; font-size: 48px"">M + N</span>","null","","","","resp_prompt","","","","","","","","","","","","","","","",""
"categorize-image","122","365059","0.0-4.0-1.0-1.0","s5qazww1ru11wea","prime","5cb329855ee1730001ae6683","5f60e3c0a3b16e07647b2ff9","5f675c33dbb05833dfafb8aa","true","1631","./Stimuli/SelectedImages/LN/LN111.bmp","83","","","","test","false","M + N","76","repetition","LN","LN111.bmp","remember","","49","3","prime1","left","","","",""
"html-keyboard-response","123","365561","0.0-4.0-1.0-2.0-0.0","s5qazww1ru11wea","prime","5cb329855ee1730001ae6683","5f60e3c0a3b16e07647b2ff9","5f675c33dbb05833dfafb8aa","false","null","<span style=""color: red; font-size: 48px"">Error!</span>","null","","","","feedback","","","","","","","","","","","","","","","",""
"html-keyboard-response","124","367563","0.0-4.0-1.0-3.0","s5qazww1ru11wea","prime","5cb329855ee1730001ae6683","5f60e3c0a3b16e07647b2ff9","5f675c33dbb05833dfafb8aa","false","null","<div style=""align-items: center; display: flex; color: dodgerblue; font-size: 90px""><b>o</b></div>","null","","","","forget_cue","","","","","","","","","","","","","","","",""
"html-keyboard-response","125","368265","0.0-4.0-1.0-0.1","s5qazww1ru11wea","prime","5cb329855ee1730001ae6683","5f60e3c0a3b16e07647b2ff9","5f675c33dbb05833dfafb8aa","false","null","<span style=""color: black; font-size: 48px"">N + M</span>","null","","","","resp_prompt","","","","","","","","","","","","","","","",""
"categorize-image","126","369184","0.0-4.0-1.0-1.1","s5qazww1ru11wea","prime","5cb329855ee1730001ae6683","5f60e3c0a3b16e07647b2ff9","5f675c33dbb05833dfafb8aa","true","917","./Stimuli/SelectedImages/SM/SM74.bmp","76","","","","test","true","N + M","76","switch","SM","SM74.bmp","forget","","50","3","prime1","right","","","",""
"html-keyboard-response","127","371186","0.0-4.0-1.0-3.1","s5qazww1ru11wea","prime","5cb329855ee1730001ae6683","5f60e3c0a3b16e07647b2ff9","5f675c33dbb05833dfafb8aa","false","null","<div style=""align-items: center; display: flex; color: darkorange; font-size: 90px""><b>ø</b></div>","null","","","","forget_cue","","","","","","","","","","","","","","","",""
"html-keyboard-response","128","371888","0.0-4.0-1.0-0.2","s5qazww1ru11wea","prime","5cb329855ee1730001ae6683","5f60e3c0a3b16e07647b2ff9","5f675c33dbb05833dfafb8aa","false","null","<span style=""color: black; font-size: 48px"">M + N</span>","null","","","","resp_prompt","","","","","","","","","","","","","","","",""
"categorize-image","129","372798","0.0-4.0-1.0-1.2","s5qazww1ru11wea","prime","5cb329855ee1730001ae6683","5f60e3c0a3b16e07647b2ff9","5f675c33dbb05833dfafb8aa","true","908","./Stimuli/SelectedImages/SM/SM148.bmp","83","","","","test","true","M + N","83","switch","SM","SM148.bmp","remember","","51","3","prime1","left","","","",""
"html-keyboard-response","130","374800","0.0-4.0-1.0-3.2","s5qazww1ru11wea","prime","5cb329855ee1730001ae6683","5f60e3c0a3b16e07647b2ff9","5f675c33dbb05833dfafb8aa","false","null","<div style=""align-items: center; display: flex; color: dodgerblue; font-size: 90px""><b>o</b></div>","null","","","","forget_cue","","","","","","","","","","","","","","","",""
"html-keyboard-response","131","375502","0.0-4.0-1.0-0.3","s5qazww1ru11wea","prime","5cb329855ee1730001ae6683","5f60e3c0a3b16e07647b2ff9","5f675c33dbb05833dfafb8aa","false","null","<span style=""color: black; font-size: 48px"">M + N</span>","null","","","","resp_prompt","","","","","","","","","","","","","","","",""
"categorize-image","132","376140","0.0-4.0-1.0-1.3","s5qazww1ru11wea","prime","5cb329855ee1730001ae6683","5f60e3c0a3b16e07647b2ff9","5f675c33dbb05833dfafb8aa","true","636","./Stimuli/SelectedImages/LN/LN59.bmp","76","","","","test","true","M + N","76","switch","LN","LN59.bmp","forget","","52","3","prime1","right","","","",""
"html-keyboard-response","133","378141","0.0-4.0-1.0-3.3","s5qazww1ru11wea","prime","5cb329855ee1730001ae6683","5f60e3c0a3b16e07647b2ff9","5f675c33dbb05833dfafb8aa","false","null","<div style=""align-items: center; display: flex; color: darkorange; font-size: 90px""><b>ø</b></div>","null","","","","forget_cue","","","","","","","","","","","","","","","",""
"html-keyboard-response","134","378843","0.0-4.0-1.0-0.4","s5qazww1ru11wea","prime","5cb329855ee1730001ae6683","5f60e3c0a3b16e07647b2ff9","5f675c33dbb05833dfafb8aa","false","null","<span style=""color: black; font-size: 48px"">N + M</span>","null","","","","resp_prompt","","","","","","","","","","","","","","","",""
"categorize-image","135","379727","0.0-4.0-1.0-1.4","s5qazww1ru11wea","prime","5cb329855ee1730001ae6683","5f60e3c0a3b16e07647b2ff9","5f675c33dbb05833dfafb8aa","true","881","./Stimuli/SelectedImages/LM/LM51.bmp","76","","","","test","true","N + M","76","switch","LM","LM51.bmp","remember","","53","3","prime1","right","","","",""
"html-keyboard-response","136","381728","0.0-4.0-1.0-3.4","s5qazww1ru11wea","prime","5cb329855ee1730001ae6683","5f60e3c0a3b16e07647b2ff9","5f675c33dbb05833dfafb8aa","false","null","<div style=""align-items: center; display: flex; color: dodgerblue; font-size: 90px""><b>o</b></div>","null","","","","forget_cue","","","","","","","","","","","","","","","",""
"html-keyboard-response","137","382430","0.0-4.0-1.0-0.5","s5qazww1ru11wea","prime","5cb329855ee1730001ae6683","5f60e3c0a3b16e07647b2ff9","5f675c33dbb05833dfafb8aa","false","null","<span style=""color: black; font-size: 48px"">M + N</span>","null","","","","resp_prompt","","","","","","","","","","","","","","","",""
"categorize-image","138","383763","0.0-4.0-1.0-1.5","s5qazww1ru11wea","prime","5cb329855ee1730001ae6683","5f60e3c0a3b16e07647b2ff9","5f675c33dbb05833dfafb8aa","true","1330","./Stimuli/SelectedImages/LN/LN166.bmp","76","","","","test","true","M + N","76","switch","LN","LN166.bmp","forget","","54","3","prime1","right","","","",""
"html-keyboard-response","139","385763","0.0-4.0-1.0-3.5","s5qazww1ru11wea","prime","5cb329855ee1730001ae6683","5f60e3c0a3b16e07647b2ff9","5f675c33dbb05833dfafb8aa","false","null","<div style=""align-items: center; display: flex; color: darkorange; font-size: 90px""><b>ø</b></div>","null","","","","forget_cue","","","","","","","","","","","","","","","",""
"html-keyboard-response","140","386465","0.0-4.0-1.0-0.6","s5qazww1ru11wea","prime","5cb329855ee1730001ae6683","5f60e3c0a3b16e07647b2ff9","5f675c33dbb05833dfafb8aa","false","null","<span style=""color: black; font-size: 48px"">M + N</span>","null","","","","resp_prompt","","","","","","","","","","","","","","","",""
"categorize-image","141","387257","0.0-4.0-1.0-1.6","s5qazww1ru11wea","prime","5cb329855ee1730001ae6683","5f60e3c0a3b16e07647b2ff9","5f675c33dbb05833dfafb8aa","true","789.0000000000582","./Stimuli/SelectedImages/LN/LN177.bmp","76","","","","test","true","M + N","76","switch","LN","LN177.bmp","remember","","55","3","prime1","right","","","",""
"html-keyboard-response","142","389258","0.0-4.0-1.0-3.6","s5qazww1ru11wea","prime","5cb329855ee1730001ae6683","5f60e3c0a3b16e07647b2ff9","5f675c33dbb05833dfafb8aa","false","null","<div style=""align-items: center; display: flex; color: dodgerblue; font-size: 90px""><b>o</b></div>","null","","","","forget_cue","","","","","","","","","","","","","","","",""
"html-keyboard-response","143","389960","0.0-4.0-1.0-0.7","s5qazww1ru11wea","prime","5cb329855ee1730001ae6683","5f60e3c0a3b16e07647b2ff9","5f675c33dbb05833dfafb8aa","false","null","<span style=""color: black; font-size: 48px"">M + N</span>","null","","","","resp_prompt","","","","","","","","","","","","","","","",""
"categorize-image","144","391108","0.0-4.0-1.0-1.7","s5qazww1ru11wea","prime","5cb329855ee1730001ae6683","5f60e3c0a3b16e07647b2ff9","5f675c33dbb05833dfafb8aa","true","1145","./Stimuli/SelectedImages/SM/SM184.bmp","83","","","","test","true","M + N","83","switch","SM","SM184.bmp","remember","","56","3","prime1","left","","","",""
"html-keyboard-response","145","393109","0.0-4.0-1.0-3.7","s5qazww1ru11wea","prime","5cb329855ee1730001ae6683","5f60e3c0a3b16e07647b2ff9","5f675c33dbb05833dfafb8aa","false","null","<div style=""align-items: center; display: flex; color: dodgerblue; font-size: 90px""><b>o</b></div>","null","","","","forget_cue","","","","","","","","","","","","","","","",""
"html-keyboard-response","146","393811","0.0-4.0-1.0-0.8","s5qazww1ru11wea","prime","5cb329855ee1730001ae6683","5f60e3c0a3b16e07647b2ff9","5f675c33dbb05833dfafb8aa","false","null","<span style=""color: black; font-size: 48px"">N + M</span>","null","","","","resp_prompt","","","","","","","","","","","","","","","",""
"categorize-image","147","394446","0.0-4.0-1.0-1.8","s5qazww1ru11wea","prime","5cb329855ee1730001ae6683","5f60e3c0a3b16e07647b2ff9","5f675c33dbb05833dfafb8aa","true","631","./Stimuli/SelectedImages/LN/LN28.bmp","83","","","","test","true","N + M","83","switch","LN","LN28.bmp","forget","","57","3","prime1","left","","","",""
"html-keyboard-response","148","396447","0.0-4.0-1.0-3.8","s5qazww1ru11wea","prime","5cb329855ee1730001ae6683","5f60e3c0a3b16e07647b2ff9","5f675c33dbb05833dfafb8aa","false","null","<div style=""align-items: center; display: flex; color: darkorange; font-size: 90px""><b>ø</b></div>","null","","","","forget_cue","","","","","","","","","","","","","","","",""
"html-keyboard-response","149","397148","0.0-4.0-1.0-0.9","s5qazww1ru11wea","prime","5cb329855ee1730001ae6683","5f60e3c0a3b16e07647b2ff9","5f675c33dbb05833dfafb8aa","false","null","<span style=""color: black; font-size: 48px"">N + M</span>","null","","","","resp_prompt","","","","","","","","","","","","","","","",""
"categorize-image","150","397781","0.0-4.0-1.0-1.9","s5qazww1ru11wea","prime","5cb329855ee1730001ae6683","5f60e3c0a3b16e07647b2ff9","5f675c33dbb05833dfafb8aa","true","630","./Stimuli/SelectedImages/SM/SM76.bmp","76","","","","test","true","N + M","76","switch","SM","SM76.bmp","remember","","58","3","prime1","right","","","",""
"html-keyboard-response","151","399782","0.0-4.0-1.0-3.9","s5qazww1ru11wea","prime","5cb329855ee1730001ae6683","5f60e3c0a3b16e07647b2ff9","5f675c33dbb05833dfafb8aa","false","null","<div style=""align-items: center; display: flex; color: dodgerblue; font-size: 90px""><b>o</b></div>","null","","","","forget_cue","","","","","","","","","","","","","","","",""
"html-keyboard-response","152","400483","0.0-4.0-1.0-0.10","s5qazww1ru11wea","prime","5cb329855ee1730001ae6683","5f60e3c0a3b16e07647b2ff9","5f675c33dbb05833dfafb8aa","false","null","<span style=""color: black; font-size: 48px"">M + N</span>","null","","","","resp_prompt","","","","","","","","","","","","","","","",""
"categorize-image","153","401575","0.0-4.0-1.0-1.10","s5qazww1ru11wea","prime","5cb329855ee1730001ae6683","5f60e3c0a3b16e07647b2ff9","5f675c33dbb05833dfafb8aa","true","1089","./Stimuli/SelectedImages/SN/SN64.bmp","76","","","","test","true","M + N","76","repetition","SN","SN64.bmp","remember","","59","3","prime1","right","","","",""
"html-keyboard-response","154","403576","0.0-4.0-1.0-3.10","s5qazww1ru11wea","prime","5cb329855ee1730001ae6683","5f60e3c0a3b16e07647b2ff9","5f675c33dbb05833dfafb8aa","false","null","<div style=""align-items: center; display: flex; color: dodgerblue; font-size: 90px""><b>o</b></div>","null","","","","forget_cue","","","","","","","","","","","","","","","",""
"html-keyboard-response","155","404278","0.0-4.0-1.0-0.11","s5qazww1ru11wea","prime","5cb329855ee1730001ae6683","5f60e3c0a3b16e07647b2ff9","5f675c33dbb05833dfafb8aa","false","null","<span style=""color: black; font-size: 48px"">N + M</span>","null","","","","resp_prompt","","","","","","","","","","","","","","","",""
"categorize-image","156","405034","0.0-4.0-1.0-1.11","s5qazww1ru11wea","prime","5cb329855ee1730001ae6683","5f60e3c0a3b16e07647b2ff9","5f675c33dbb05833dfafb8aa","true","752.9999999999418","./Stimuli/SelectedImages/SN/SN140.bmp","83","","","","test","true","N + M","83","switch","SN","SN140.bmp","remember","","60","3","prime1","left","","","",""
"html-keyboard-response","157","407034","0.0-4.0-1.0-3.11","s5qazww1ru11wea","prime","5cb329855ee1730001ae6683","5f60e3c0a3b16e07647b2ff9","5f675c33dbb05833dfafb8aa","false","null","<div style=""align-items: center; display: flex; color: dodgerblue; font-size: 90px""><b>o</b></div>","null","","","","forget_cue","","","","","","","","","","","","","","","",""
"html-keyboard-response","158","407736","0.0-4.0-1.0-0.12","s5qazww1ru11wea","prime","5cb329855ee1730001ae6683","5f60e3c0a3b16e07647b2ff9","5f675c33dbb05833dfafb8aa","false","null","<span style=""color: black; font-size: 48px"">N + M</span>","null","","","","resp_prompt","","","","","","","","","","","","","","","",""
"categorize-image","159","408530","0.0-4.0-1.0-1.12","s5qazww1ru11wea","prime","5cb329855ee1730001ae6683","5f60e3c0a3b16e07647b2ff9","5f675c33dbb05833dfafb8aa","true","792.0000000000582","./Stimuli/SelectedImages/SM/SM207.bmp","76","","","","test","true","N + M","76","repetition","SM","SM207.bmp","remember","","61","3","prime1","right","","","",""
"html-keyboard-response","160","410532","0.0-4.0-1.0-3.12","s5qazww1ru11wea","prime","5cb329855ee1730001ae6683","5f60e3c0a3b16e07647b2ff9","5f675c33dbb05833dfafb8aa","false","null","<div style=""align-items: center; display: flex; color: dodgerblue; font-size: 90px""><b>o</b></div>","null","","","","forget_cue","","","","","","","","","","","","","","","",""
"html-keyboard-response","161","411234","0.0-4.0-1.0-0.13","s5qazww1ru11wea","prime","5cb329855ee1730001ae6683","5f60e3c0a3b16e07647b2ff9","5f675c33dbb05833dfafb8aa","false","null","<span style=""color: black; font-size: 48px"">M + N</span>","null","","","","resp_prompt","","","","","","","","","","","","","","","",""
"categorize-image","162","412025","0.0-4.0-1.0-1.13","s5qazww1ru11wea","prime","5cb329855ee1730001ae6683","5f60e3c0a3b16e07647b2ff9","5f675c33dbb05833dfafb8aa","true","788","./Stimuli/SelectedImages/LM/LM100.bmp","83","","","","test","true","M + N","83","repetition","LM","LM100.bmp","remember","","62","3","prime1","left","","","",""
"html-keyboard-response","163","414027","0.0-4.0-1.0-3.13","s5qazww1ru11wea","prime","5cb329855ee1730001ae6683","5f60e3c0a3b16e07647b2ff9","5f675c33dbb05833dfafb8aa","false","null","<div style=""align-items: center; display: flex; color: dodgerblue; font-size: 90px""><b>o</b></div>","null","","","","forget_cue","","","","","","","","","","","","","","","",""
"html-keyboard-response","164","414728","0.0-4.0-1.0-0.14","s5qazww1ru11wea","prime","5cb329855ee1730001ae6683","5f60e3c0a3b16e07647b2ff9","5f675c33dbb05833dfafb8aa","false","null","<span style=""color: black; font-size: 48px"">M + N</span>","null","","","","resp_prompt","","","","","","","","","","","","","","","",""
"categorize-image","165","415696","0.0-4.0-1.0-1.14","s5qazww1ru11wea","prime","5cb329855ee1730001ae6683","5f60e3c0a3b16e07647b2ff9","5f675c33dbb05833dfafb8aa","true","965","./Stimuli/SelectedImages/SM/SM108.bmp","83","","","","test","true","M + N","83","repetition","SM","SM108.bmp","remember","","63","3","prime1","left","","","",""
"html-keyboard-response","166","417697","0.0-4.0-1.0-3.14","s5qazww1ru11wea","prime","5cb329855ee1730001ae6683","5f60e3c0a3b16e07647b2ff9","5f675c33dbb05833dfafb8aa","false","null","<div style=""align-items: center; display: flex; color: dodgerblue; font-size: 90px""><b>o</b></div>","null","","","","forget_cue","","","","","","","","","","","","","","","",""
"html-keyboard-response","167","418400","0.0-4.0-1.0-0.15","s5qazww1ru11wea","prime","5cb329855ee1730001ae6683","5f60e3c0a3b16e07647b2ff9","5f675c33dbb05833dfafb8aa","false","null","<span style=""color: black; font-size: 48px"">M + N</span>","null","","","","resp_prompt","","","","","","","","","","","","","","","",""
"categorize-image","168","419364","0.0-4.0-1.0-1.15","s5qazww1ru11wea","prime","5cb329855ee1730001ae6683","5f60e3c0a3b16e07647b2ff9","5f675c33dbb05833dfafb8aa","true","962.0000000000582","./Stimuli/SelectedImages/SM/SM73.bmp","83","","","","test","true","M + N","83","repetition","SM","SM73.bmp","forget","","64","3","prime1","left","","","",""
"html-keyboard-response","169","421366","0.0-4.0-1.0-3.15","s5qazww1ru11wea","prime","5cb329855ee1730001ae6683","5f60e3c0a3b16e07647b2ff9","5f675c33dbb05833dfafb8aa","false","null","<div style=""align-items: center; display: flex; color: darkorange; font-size: 90px""><b>ø</b></div>","null","","","","forget_cue","","","","","","","","","","","","","","","",""
"html-keyboard-response","170","422069","0.0-4.0-1.0-0.16","s5qazww1ru11wea","prime","5cb329855ee1730001ae6683","5f60e3c0a3b16e07647b2ff9","5f675c33dbb05833dfafb8aa","false","null","<span style=""color: black; font-size: 48px"">M + N</span>","null","","","","resp_prompt","","","","","","","","","","","","","","","",""
"categorize-image","171","422890","0.0-4.0-1.0-1.16","s5qazww1ru11wea","prime","5cb329855ee1730001ae6683","5f60e3c0a3b16e07647b2ff9","5f675c33dbb05833dfafb8aa","true","818","./Stimuli/SelectedImages/SM/SM200.bmp","76","","","","test","false","M + N","83","switch","SM","SM200.bmp","forget","","65","3","prime1","right","","","",""
"html-keyboard-response","172","423391","0.0-4.0-1.0-2.16-0.16","s5qazww1ru11wea","prime","5cb329855ee1730001ae6683","5f60e3c0a3b16e07647b2ff9","5f675c33dbb05833dfafb8aa","false","null","<span style=""color: red; font-size: 48px"">Error!</span>","null","","","","feedback","","","","","","","","","","","","","","","",""
"html-keyboard-response","173","425393","0.0-4.0-1.0-3.16","s5qazww1ru11wea","prime","5cb329855ee1730001ae6683","5f60e3c0a3b16e07647b2ff9","5f675c33dbb05833dfafb8aa","false","null","<div style=""align-items: center; display: flex; color: darkorange; font-size: 90px""><b>ø</b></div>","null","","","","forget_cue","","","","","","","","","","","","","","","",""
"html-keyboard-response","174","426095","0.0-4.0-1.0-0.17","s5qazww1ru11wea","prime","5cb329855ee1730001ae6683","5f60e3c0a3b16e07647b2ff9","5f675c33dbb05833dfafb8aa","false","null","<span style=""color: black; font-size: 48px"">M + N</span>","null","","","","resp_prompt","","","","","","","","","","","","","","","",""
"categorize-image","175","427040","0.0-4.0-1.0-1.17","s5qazww1ru11wea","prime","5cb329855ee1730001ae6683","5f60e3c0a3b16e07647b2ff9","5f675c33dbb05833dfafb8aa","true","942","./Stimuli/SelectedImages/SN/SN182.bmp","76","","","","test","true","M + N","76","switch","SN","SN182.bmp","forget","","66","3","prime1","right","","","",""
"html-keyboard-response","176","429042","0.0-4.0-1.0-3.17","s5qazww1ru11wea","prime","5cb329855ee1730001ae6683","5f60e3c0a3b16e07647b2ff9","5f675c33dbb05833dfafb8aa","false","null","<div style=""align-items: center; display: flex; color: darkorange; font-size: 90px""><b>ø</b></div>","null","","","","forget_cue","","","","","","","","","","","","","","","",""
"html-keyboard-response","177","429743","0.0-4.0-1.0-0.18","s5qazww1ru11wea","prime","5cb329855ee1730001ae6683","5f60e3c0a3b16e07647b2ff9","5f675c33dbb05833dfafb8aa","false","null","<span style=""color: black; font-size: 48px"">M + N</span>","null","","","","resp_prompt","","","","","","","","","","","","","","","",""
"categorize-image","178","430349","0.0-4.0-1.0-1.18","s5qazww1ru11wea","prime","5cb329855ee1730001ae6683","5f60e3c0a3b16e07647b2ff9","5f675c33dbb05833dfafb8aa","true","603","./Stimuli/SelectedImages/SN/SN181.bmp","76","","","","test","true","M + N","76","repetition","SN","SN181.bmp","forget","","67","3","prime1","right","","","",""
"html-keyboard-response","179","432350","0.0-4.0-1.0-3.18","s5qazww1ru11wea","prime","5cb329855ee1730001ae6683","5f60e3c0a3b16e07647b2ff9","5f675c33dbb05833dfafb8aa","false","null","<div style=""align-items: center; display: flex; color: darkorange; font-size: 90px""><b>ø</b></div>","null","","","","forget_cue","","","","","","","","","","","","","","","",""
"html-keyboard-response","180","433052","0.0-4.0-1.0-0.19","s5qazww1ru11wea","prime","5cb329855ee1730001ae6683","5f60e3c0a3b16e07647b2ff9","5f675c33dbb05833dfafb8aa","false","null","<span style=""color: black; font-size: 48px"">N + M</span>","null","","","","resp_prompt","","","","","","","","","","","","","","","",""
"categorize-image","181","434280","0.0-4.0-1.0-1.19","s5qazww1ru11wea","prime","5cb329855ee1730001ae6683","5f60e3c0a3b16e07647b2ff9","5f675c33dbb05833dfafb8aa","true","1224.9999999999418","./Stimuli/SelectedImages/LM/LM48.bmp","83","","","","test","false","N + M","76","repetition","LM","LM48.bmp","remember","","68","3","prime1","left","","","",""
"html-keyboard-response","182","434781","0.0-4.0-1.0-2.19-0.19","s5qazww1ru11wea","prime","5cb329855ee1730001ae6683","5f60e3c0a3b16e07647b2ff9","5f675c33dbb05833dfafb8aa","false","null","<span style=""color: red; font-size: 48px"">Error!</span>","null","","","","feedback","","","","","","","","","","","","","","","",""
"html-keyboard-response","183","436783","0.0-4.0-1.0-3.19","s5qazww1ru11wea","prime","5cb329855ee1730001ae6683","5f60e3c0a3b16e07647b2ff9","5f675c33dbb05833dfafb8aa","false","null","<div style=""align-items: center; display: flex; color: dodgerblue; font-size: 90px""><b>o</b></div>","null","","","","forget_cue","","","","","","","","","","","","","","","",""
"html-keyboard-response","184","437485","0.0-4.0-1.0-0.20","s5qazww1ru11wea","prime","5cb329855ee1730001ae6683","5f60e3c0a3b16e07647b2ff9","5f675c33dbb05833dfafb8aa","false","null","<span style=""color: black; font-size: 48px"">M + N</span>","null","","","","resp_prompt","","","","","","","","","","","","","","","",""
"categorize-image","185","438308","0.0-4.0-1.0-1.20","s5qazww1ru11wea","prime","5cb329855ee1730001ae6683","5f60e3c0a3b16e07647b2ff9","5f675c33dbb05833dfafb8aa","true","820","./Stimuli/SelectedImages/LM/LM59.bmp","83","","","","test","true","M + N","83","repetition","LM","LM59.bmp","forget","","69","3","prime1","left","","","",""
"html-keyboard-response","186","440309","0.0-4.0-1.0-3.20","s5qazww1ru11wea","prime","5cb329855ee1730001ae6683","5f60e3c0a3b16e07647b2ff9","5f675c33dbb05833dfafb8aa","false","null","<div style=""align-items: center; display: flex; color: darkorange; font-size: 90px""><b>ø</b></div>","null","","","","forget_cue","","","","","","","","","","","","","","","",""
"html-keyboard-response","187","441011","0.0-4.0-1.0-0.21","s5qazww1ru11wea","prime","5cb329855ee1730001ae6683","5f60e3c0a3b16e07647b2ff9","5f675c33dbb05833dfafb8aa","false","null","<span style=""color: black; font-size: 48px"">M + N</span>","null","","","","resp_prompt","","","","","","","","","","","","","","","",""
"categorize-image","188","441741","0.0-4.0-1.0-1.21","s5qazww1ru11wea","prime","5cb329855ee1730001ae6683","5f60e3c0a3b16e07647b2ff9","5f675c33dbb05833dfafb8aa","true","727.9999999999418","./Stimuli/SelectedImages/SN/SN179.bmp","76","","","","test","true","M + N","76","switch","SN","SN179.bmp","remember","","70","3","prime1","right","","","",""
"html-keyboard-response","189","443743","0.0-4.0-1.0-3.21","s5qazww1ru11wea","prime","5cb329855ee1730001ae6683","5f60e3c0a3b16e07647b2ff9","5f675c33dbb05833dfafb8aa","false","null","<div style=""align-items: center; display: flex; color: dodgerblue; font-size: 90px""><b>o</b></div>","null","","","","forget_cue","","","","","","","","","","","","","","","",""
"html-keyboard-response","190","444445","0.0-4.0-1.0-0.22","s5qazww1ru11wea","prime","5cb329855ee1730001ae6683","5f60e3c0a3b16e07647b2ff9","5f675c33dbb05833dfafb8aa","false","null","<span style=""color: black; font-size: 48px"">N + M</span>","null","","","","resp_prompt","","","","","","","","","","","","","","","",""
"categorize-image","191","445372","0.0-4.0-1.0-1.22","s5qazww1ru11wea","prime","5cb329855ee1730001ae6683","5f60e3c0a3b16e07647b2ff9","5f675c33dbb05833dfafb8aa","true","924","./Stimuli/SelectedImages/SM/SM128.bmp","76","","","","test","true","N + M","76","repetition","SM","SM128.bmp","remember","","71","3","prime1","right","","","",""
"html-keyboard-response","192","447374","0.0-4.0-1.0-3.22","s5qazww1ru11wea","prime","5cb329855ee1730001ae6683","5f60e3c0a3b16e07647b2ff9","5f675c33dbb05833dfafb8aa","false","null","<div style=""align-items: center; display: flex; color: dodgerblue; font-size: 90px""><b>o</b></div>","null","","","","forget_cue","","","","","","","","","","","","","","","",""
"html-keyboard-response","193","448076","0.0-4.0-1.0-0.23","s5qazww1ru11wea","prime","5cb329855ee1730001ae6683","5f60e3c0a3b16e07647b2ff9","5f675c33dbb05833dfafb8aa","false","null","<span style=""color: black; font-size: 48px"">N + M</span>","null","","","","resp_prompt","","","","","","","","","","","","","","","",""
"categorize-image","194","448514","0.0-4.0-1.0-1.23","s5qazww1ru11wea","prime","5cb329855ee1730001ae6683","5f60e3c0a3b16e07647b2ff9","5f675c33dbb05833dfafb8aa","true","434.0000000000582","./Stimuli/SelectedImages/LM/LM179.bmp","76","","","","test","true","N + M","76","switch","LM","LM179.bmp","remember","","72","3","prime1","right","","","",""
"html-keyboard-response","195","450516","0.0-4.0-1.0-3.23","s5qazww1ru11wea","prime","5cb329855ee1730001ae6683","5f60e3c0a3b16e07647b2ff9","5f675c33dbb05833dfafb8aa","false","null","<div style=""align-items: center; display: flex; color: dodgerblue; font-size: 90px""><b>o</b></div>","null","","","","forget_cue","","","","","","","","","","","","","","","",""
"html-keyboard-response","196","451219","0.0-4.0-1.0-0.24","s5qazww1ru11wea","prime","5cb329855ee1730001ae6683","5f60e3c0a3b16e07647b2ff9","5f675c33dbb05833dfafb8aa","false","null","<span style=""color: black; font-size: 48px"">N + M</span>","null","","","","resp_prompt","","","","","","","","","","","","","","","",""
"categorize-image","197","452318","0.0-4.0-1.0-1.24","s5qazww1ru11wea","prime","5cb329855ee1730001ae6683","5f60e3c0a3b16e07647b2ff9","5f675c33dbb05833dfafb8aa","true","1098","./Stimuli/SelectedImages/LM/LM129.bmp","76","","","","test","true","N + M","76","switch","LM","LM129.bmp","forget","","73","3","prime1","right","","","",""
"html-keyboard-response","198","454320","0.0-4.0-1.0-3.24","s5qazww1ru11wea","prime","5cb329855ee1730001ae6683","5f60e3c0a3b16e07647b2ff9","5f675c33dbb05833dfafb8aa","false","null","<div style=""align-items: center; display: flex; color: darkorange; font-size: 90px""><b>ø</b></div>","null","","","","forget_cue","","","","","","","","","","","","","","","",""
"html-keyboard-response","199","455023","0.0-4.0-1.0-0.25","s5qazww1ru11wea","prime","5cb329855ee1730001ae6683","5f60e3c0a3b16e07647b2ff9","5f675c33dbb05833dfafb8aa","false","null","<span style=""color: black; font-size: 48px"">N + M</span>","null","","","","resp_prompt","","","","","","","","","","","","","","","",""
"categorize-image","200","455762","0.0-4.0-1.0-1.25","s5qazww1ru11wea","prime","5cb329855ee1730001ae6683","5f60e3c0a3b16e07647b2ff9","5f675c33dbb05833dfafb8aa","true","736.9999999999418","./Stimuli/SelectedImages/SN/SN60.bmp","83","","","","test","true","N + M","83","repetition","SN","SN60.bmp","forget","","74","3","prime1","left","","","",""
"html-keyboard-response","201","457763","0.0-4.0-1.0-3.25","s5qazww1ru11wea","prime","5cb329855ee1730001ae6683","5f60e3c0a3b16e07647b2ff9","5f675c33dbb05833dfafb8aa","false","null","<div style=""align-items: center; display: flex; color: darkorange; font-size: 90px""><b>ø</b></div>","null","","","","forget_cue","","","","","","","","","","","","","","","",""
"html-keyboard-response","202","458466","0.0-4.0-1.0-0.26","s5qazww1ru11wea","prime","5cb329855ee1730001ae6683","5f60e3c0a3b16e07647b2ff9","5f675c33dbb05833dfafb8aa","false","null","<span style=""color: black; font-size: 48px"">M + N</span>","null","","","","resp_prompt","","","","","","","","","","","","","","","",""
"categorize-image","203","459567","0.0-4.0-1.0-1.26","s5qazww1ru11wea","prime","5cb329855ee1730001ae6683","5f60e3c0a3b16e07647b2ff9","5f675c33dbb05833dfafb8aa","true","1098.0000000000582","./Stimuli/SelectedImages/SM/SM195.bmp","83","","","","test","true","M + N","83","repetition","SM","SM195.bmp","remember","","75","3","prime1","left","","","",""
"html-keyboard-response","204","461571","0.0-4.0-1.0-3.26","s5qazww1ru11wea","prime","5cb329855ee1730001ae6683","5f60e3c0a3b16e07647b2ff9","5f675c33dbb05833dfafb8aa","false","null","<div style=""align-items: center; display: flex; color: dodgerblue; font-size: 90px""><b>o</b></div>","null","","","","forget_cue","","","","","","","","","","","","","","","",""
"html-keyboard-response","205","462273","0.0-4.0-1.0-0.27","s5qazww1ru11wea","prime","5cb329855ee1730001ae6683","5f60e3c0a3b16e07647b2ff9","5f675c33dbb05833dfafb8aa","false","null","<span style=""color: black; font-size: 48px"">M + N</span>","null","","","","resp_prompt","","","","","","","","","","","","","","","",""
"categorize-image","206","462881","0.0-4.0-1.0-1.27","s5qazww1ru11wea","prime","5cb329855ee1730001ae6683","5f60e3c0a3b16e07647b2ff9","5f675c33dbb05833dfafb8aa","true","604","./Stimuli/SelectedImages/LN/LN82.bmp","76","","","","test","true","M + N","76","repetition","LN","LN82.bmp","forget","","76","3","prime1","right","","","",""
"html-keyboard-response","207","464883","0.0-4.0-1.0-3.27","s5qazww1ru11wea","prime","5cb329855ee1730001ae6683","5f60e3c0a3b16e07647b2ff9","5f675c33dbb05833dfafb8aa","false","null","<div style=""align-items: center; display: flex; color: darkorange; font-size: 90px""><b>ø</b></div>","null","","","","forget_cue","","","","","","","","","","","","","","","",""
"html-keyboard-response","208","465585","0.0-4.0-1.0-0.28","s5qazww1ru11wea","prime","5cb329855ee1730001ae6683","5f60e3c0a3b16e07647b2ff9","5f675c33dbb05833dfafb8aa","false","null","<span style=""color: black; font-size: 48px"">M + N</span>","null","","","","resp_prompt","","","","","","","","","","","","","","","",""
"categorize-image","209","466342","0.0-4.0-1.0-1.28","s5qazww1ru11wea","prime","5cb329855ee1730001ae6683","5f60e3c0a3b16e07647b2ff9","5f675c33dbb05833dfafb8aa","true","754","./Stimuli/SelectedImages/LN/LN12.bmp","76","","","","test","true","M + N","76","switch","LN","LN12.bmp","remember","","77","3","prime1","right","","","",""
"html-keyboard-response","210","468344","0.0-4.0-1.0-3.28","s5qazww1ru11wea","prime","5cb329855ee1730001ae6683","5f60e3c0a3b16e07647b2ff9","5f675c33dbb05833dfafb8aa","false","null","<div style=""align-items: center; display: flex; color: dodgerblue; font-size: 90px""><b>o</b></div>","null","","","","forget_cue","","","","","","","","","","","","","","","",""
"html-keyboard-response","211","469046","0.0-4.0-1.0-0.29","s5qazww1ru11wea","prime","5cb329855ee1730001ae6683","5f60e3c0a3b16e07647b2ff9","5f675c33dbb05833dfafb8aa","false","null","<span style=""color: black; font-size: 48px"">M + N</span>","null","","","","resp_prompt","","","","","","","","","","","","","","","",""
"categorize-image","212","469796","0.0-4.0-1.0-1.29","s5qazww1ru11wea","prime","5cb329855ee1730001ae6683","5f60e3c0a3b16e07647b2ff9","5f675c33dbb05833dfafb8aa","true","747","./Stimuli/SelectedImages/LM/LM235.bmp","83","","","","test","true","M + N","83","switch","LM","LM235.bmp","remember","","78","3","prime1","left","","","",""
"html-keyboard-response","213","471797","0.0-4.0-1.0-3.29","s5qazww1ru11wea","prime","5cb329855ee1730001ae6683","5f60e3c0a3b16e07647b2ff9","5f675c33dbb05833dfafb8aa","false","null","<div style=""align-items: center; display: flex; color: dodgerblue; font-size: 90px""><b>o</b></div>","null","","","","forget_cue","","","","","","","","","","","","","","","",""
"html-keyboard-response","214","472499","0.0-4.0-1.0-0.30","s5qazww1ru11wea","prime","5cb329855ee1730001ae6683","5f60e3c0a3b16e07647b2ff9","5f675c33dbb05833dfafb8aa","false","null","<span style=""color: black; font-size: 48px"">N + M</span>","null","","","","resp_prompt","","","","","","","","","","","","","","","",""
"categorize-image","215","473262","0.0-4.0-1.0-1.30","s5qazww1ru11wea","prime","5cb329855ee1730001ae6683","5f60e3c0a3b16e07647b2ff9","5f675c33dbb05833dfafb8aa","true","759.9999999999418","./Stimuli/SelectedImages/LM/LM103.bmp","76","","","","test","true","N + M","76","repetition","LM","LM103.bmp","forget","","79","3","prime1","right","","","",""
"html-keyboard-response","216","475263","0.0-4.0-1.0-3.30","s5qazww1ru11wea","prime","5cb329855ee1730001ae6683","5f60e3c0a3b16e07647b2ff9","5f675c33dbb05833dfafb8aa","false","null","<div style=""align-items: center; display: flex; color: darkorange; font-size: 90px""><b>ø</b></div>","null","","","","forget_cue","","","","","","","","","","","","","","","",""
"html-keyboard-response","217","475965","0.0-4.0-1.0-0.31","s5qazww1ru11wea","prime","5cb329855ee1730001ae6683","5f60e3c0a3b16e07647b2ff9","5f675c33dbb05833dfafb8aa","false","null","<span style=""color: black; font-size: 48px"">N + M</span>","null","","","","resp_prompt","","","","","","","","","","","","","","","",""
"categorize-image","218","477609","0.0-4.0-1.0-1.31","s5qazww1ru11wea","prime","5cb329855ee1730001ae6683","5f60e3c0a3b16e07647b2ff9","5f675c33dbb05833dfafb8aa","true","1639","./Stimuli/SelectedImages/LN/LN101.bmp","83","","","","test","true","N + M","83","switch","LN","LN101.bmp","remember","","80","3","prime1","left","","","",""
"html-keyboard-response","219","479611","0.0-4.0-1.0-3.31","s5qazww1ru11wea","prime","5cb329855ee1730001ae6683","5f60e3c0a3b16e07647b2ff9","5f675c33dbb05833dfafb8aa","false","null","<div style=""align-items: center; display: flex; color: dodgerblue; font-size: 90px""><b>o</b></div>","null","","","","forget_cue","","","","","","","","","","","","","","","",""
"html-keyboard-response","220","480313","0.0-4.0-1.0-0.32","s5qazww1ru11wea","prime","5cb329855ee1730001ae6683","5f60e3c0a3b16e07647b2ff9","5f675c33dbb05833dfafb8aa","false","null","<span style=""color: black; font-size: 48px"">M + N</span>","null","","","","resp_prompt","","","","","","","","","","","","","","","",""
"categorize-image","221","481418","0.0-4.0-1.0-1.32","s5qazww1ru11wea","prime","5cb329855ee1730001ae6683","5f60e3c0a3b16e07647b2ff9","5f675c33dbb05833dfafb8aa","true","1102.0000000000582","./Stimuli/SelectedImages/SN/SN52.bmp","76","","","","test","true","M + N","76","repetition","SN","SN52.bmp","remember","","81","3","prime1","right","","","",""
"html-keyboard-response","222","483420","0.0-4.0-1.0-3.32","s5qazww1ru11wea","prime","5cb329855ee1730001ae6683","5f60e3c0a3b16e07647b2ff9","5f675c33dbb05833dfafb8aa","false","null","<div style=""align-items: center; display: flex; color: dodgerblue; font-size: 90px""><b>o</b></div>","null","","","","forget_cue","","","","","","","","","","","","","","","",""
"html-keyboard-response","223","484122","0.0-4.0-1.0-0.33","s5qazww1ru11wea","prime","5cb329855ee1730001ae6683","5f60e3c0a3b16e07647b2ff9","5f675c33dbb05833dfafb8aa","false","null","<span style=""color: black; font-size: 48px"">N + M</span>","null","","","","resp_prompt","","","","","","","","","","","","","","","",""
"categorize-image","224","485155","0.0-4.0-1.0-1.33","s5qazww1ru11wea","prime","5cb329855ee1730001ae6683","5f60e3c0a3b16e07647b2ff9","5f675c33dbb05833dfafb8aa","true","1030","./Stimuli/SelectedImages/SM/SM106.bmp","76","","","","test","true","N + M","76","repetition","SM","SM106.bmp","forget","","82","3","prime1","right","","","",""
"html-keyboard-response","225","487157","0.0-4.0-1.0-3.33","s5qazww1ru11wea","prime","5cb329855ee1730001ae6683","5f60e3c0a3b16e07647b2ff9","5f675c33dbb05833dfafb8aa","false","null","<div style=""align-items: center; display: flex; color: darkorange; font-size: 90px""><b>ø</b></div>","null","","","","forget_cue","","","","","","","","","","","","","","","",""
"html-keyboard-response","226","487859","0.0-4.0-1.0-0.34","s5qazww1ru11wea","prime","5cb329855ee1730001ae6683","5f60e3c0a3b16e07647b2ff9","5f675c33dbb05833dfafb8aa","false","null","<span style=""color: black; font-size: 48px"">N + M</span>","null","","","","resp_prompt","","","","","","","","","","","","","","","",""
"categorize-image","227","488809","0.0-4.0-1.0-1.34","s5qazww1ru11wea","prime","5cb329855ee1730001ae6683","5f60e3c0a3b16e07647b2ff9","5f675c33dbb05833dfafb8aa","true","947","./Stimuli/SelectedImages/SN/SN27.bmp","83","","","","test","true","N + M","83","switch","SN","SN27.bmp","forget","","83","3","prime1","left","","","",""
"html-keyboard-response","228","490811","0.0-4.0-1.0-3.34","s5qazww1ru11wea","prime","5cb329855ee1730001ae6683","5f60e3c0a3b16e07647b2ff9","5f675c33dbb05833dfafb8aa","false","null","<div style=""align-items: center; display: flex; color: darkorange; font-size: 90px""><b>ø</b></div>","null","","","","forget_cue","","","","","","","","","","","","","","","",""
"html-keyboard-response","229","491512","0.0-4.0-1.0-0.35","s5qazww1ru11wea","prime","5cb329855ee1730001ae6683","5f60e3c0a3b16e07647b2ff9","5f675c33dbb05833dfafb8aa","false","null","<span style=""color: black; font-size: 48px"">N + M</span>","null","","","","resp_prompt","","","","","","","","","","","","","","","",""
"categorize-image","230","492505","0.0-4.0-1.0-1.35","s5qazww1ru11wea","prime","5cb329855ee1730001ae6683","5f60e3c0a3b16e07647b2ff9","5f675c33dbb05833dfafb8aa","true","991","./Stimuli/SelectedImages/LN/LN9.bmp","83","","","","test","true","N + M","83","repetition","LN","LN9.bmp","forget","","84","3","prime1","left","","","",""
"html-keyboard-response","231","494507","0.0-4.0-1.0-3.35","s5qazww1ru11wea","prime","5cb329855ee1730001ae6683","5f60e3c0a3b16e07647b2ff9","5f675c33dbb05833dfafb8aa","false","null","<div style=""align-items: center; display: flex; color: darkorange; font-size: 90px""><b>ø</b></div>","null","","","","forget_cue","","","","","","","","","","","","","","","",""
"html-keyboard-response","232","495209","0.0-4.0-1.0-0.36","s5qazww1ru11wea","prime","5cb329855ee1730001ae6683","5f60e3c0a3b16e07647b2ff9","5f675c33dbb05833dfafb8aa","false","null","<span style=""color: black; font-size: 48px"">M + N</span>","null","","","","resp_prompt","","","","","","","","","","","","","","","",""
"categorize-image","233","496093","0.0-4.0-1.0-1.36","s5qazww1ru11wea","prime","5cb329855ee1730001ae6683","5f60e3c0a3b16e07647b2ff9","5f675c33dbb05833dfafb8aa","true","882","./Stimuli/SelectedImages/LM/LM209.bmp","83","","","","test","true","M + N","83","switch","LM","LM209.bmp","forget","","85","3","prime1","left","","","",""
"html-keyboard-response","234","498095","0.0-4.0-1.0-3.36","s5qazww1ru11wea","prime","5cb329855ee1730001ae6683","5f60e3c0a3b16e07647b2ff9","5f675c33dbb05833dfafb8aa","false","null","<div style=""align-items: center; display: flex; color: darkorange; font-size: 90px""><b>ø</b></div>","null","","","","forget_cue","","","","","","","","","","","","","","","",""
"html-keyboard-response","235","498798","0.0-4.0-1.0-0.37","s5qazww1ru11wea","prime","5cb329855ee1730001ae6683","5f60e3c0a3b16e07647b2ff9","5f675c33dbb05833dfafb8aa","false","null","<span style=""color: black; font-size: 48px"">M + N</span>","null","","","","resp_prompt","","","","","","","","","","","","","","","",""
"categorize-image","236","499484","0.0-4.0-1.0-1.37","s5qazww1ru11wea","prime","5cb329855ee1730001ae6683","5f60e3c0a3b16e07647b2ff9","5f675c33dbb05833dfafb8aa","true","683","./Stimuli/SelectedImages/SM/SM24.bmp","83","","","","test","true","M + N","83","switch","SM","SM24.bmp","forget","","86","3","prime1","left","","","",""
"html-keyboard-response","237","501486","0.0-4.0-1.0-3.37","s5qazww1ru11wea","prime","5cb329855ee1730001ae6683","5f60e3c0a3b16e07647b2ff9","5f675c33dbb05833dfafb8aa","false","null","<div style=""align-items: center; display: flex; color: darkorange; font-size: 90px""><b>ø</b></div>","null","","","","forget_cue","","","","","","","","","","","","","","","",""
"html-keyboard-response","238","502188","0.0-4.0-1.0-0.38","s5qazww1ru11wea","prime","5cb329855ee1730001ae6683","5f60e3c0a3b16e07647b2ff9","5f675c33dbb05833dfafb8aa","false","null","<span style=""color: black; font-size: 48px"">N + M</span>","null","","","","resp_prompt","","","","","","","","","","","","","","","",""
"categorize-image","239","502610","0.0-4.0-1.0-1.38","s5qazww1ru11wea","prime","5cb329855ee1730001ae6683","5f60e3c0a3b16e07647b2ff9","5f675c33dbb05833dfafb8aa","true","420.0000000000582","./Stimuli/SelectedImages/SN/SN155.bmp","76","","","","test","false","N + M","83","repetition","SN","SN155.bmp","remember","","87","3","prime1","right","","","",""
"html-keyboard-response","240","503111","0.0-4.0-1.0-2.38-0.38","s5qazww1ru11wea","prime","5cb329855ee1730001ae6683","5f60e3c0a3b16e07647b2ff9","5f675c33dbb05833dfafb8aa","false","null","<span style=""color: red; font-size: 48px"">Error!</span>","null","","","","feedback","","","","","","","","","","","","","","","",""
"html-keyboard-response","241","505113","0.0-4.0-1.0-3.38","s5qazww1ru11wea","prime","5cb329855ee1730001ae6683","5f60e3c0a3b16e07647b2ff9","5f675c33dbb05833dfafb8aa","false","null","<div style=""align-items: center; display: flex; color: dodgerblue; font-size: 90px""><b>o</b></div>","null","","","","forget_cue","","","","","","","","","","","","","","","",""
"html-keyboard-response","242","505815","0.0-4.0-1.0-0.39","s5qazww1ru11wea","prime","5cb329855ee1730001ae6683","5f60e3c0a3b16e07647b2ff9","5f675c33dbb05833dfafb8aa","false","null","<span style=""color: black; font-size: 48px"">M + N</span>","null","","","","resp_prompt","","","","","","","","","","","","","","","",""
"categorize-image","243","506754","0.0-4.0-1.0-1.39","s5qazww1ru11wea","prime","5cb329855ee1730001ae6683","5f60e3c0a3b16e07647b2ff9","5f675c33dbb05833dfafb8aa","true","936.0000000000582","./Stimuli/SelectedImages/LM/LM58.bmp","83","","","","test","true","M + N","83","switch","LM","LM58.bmp","remember","","88","3","prime1","left","","","",""
"html-keyboard-response","244","508759","0.0-4.0-1.0-3.39","s5qazww1ru11wea","prime","5cb329855ee1730001ae6683","5f60e3c0a3b16e07647b2ff9","5f675c33dbb05833dfafb8aa","false","null","<div style=""align-items: center; display: flex; color: dodgerblue; font-size: 90px""><b>o</b></div>","null","","","","forget_cue","","","","","","","","","","","","","","","",""
"html-keyboard-response","245","509461","0.0-4.0-1.0-0.40","s5qazww1ru11wea","prime","5cb329855ee1730001ae6683","5f60e3c0a3b16e07647b2ff9","5f675c33dbb05833dfafb8aa","false","null","<span style=""color: black; font-size: 48px"">N + M</span>","null","","","","resp_prompt","","","","","","","","","","","","","","","",""
"categorize-image","246","510067","0.0-4.0-1.0-1.40","s5qazww1ru11wea","prime","5cb329855ee1730001ae6683","5f60e3c0a3b16e07647b2ff9","5f675c33dbb05833dfafb8aa","true","603.0000000001164","./Stimuli/SelectedImages/LN/LN92.bmp","76","","","","test","false","N + M","83","repetition","LN","LN92.bmp","remember","","89","3","prime1","right","","","",""
"html-keyboard-response","247","510569","0.0-4.0-1.0-2.40-0.40","s5qazww1ru11wea","prime","5cb329855ee1730001ae6683","5f60e3c0a3b16e07647b2ff9","5f675c33dbb05833dfafb8aa","false","null","<span style=""color: red; font-size: 48px"">Error!</span>","null","","","","feedback","","","","","","","","","","","","","","","",""
"html-keyboard-response","248","512572","0.0-4.0-1.0-3.40","s5qazww1ru11wea","prime","5cb329855ee1730001ae6683","5f60e3c0a3b16e07647b2ff9","5f675c33dbb05833dfafb8aa","false","null","<div style=""align-items: center; display: flex; color: dodgerblue; font-size: 90px""><b>o</b></div>","null","","","","forget_cue","","","","","","","","","","","","","","","",""
"html-keyboard-response","249","513274","0.0-4.0-1.0-0.41","s5qazww1ru11wea","prime","5cb329855ee1730001ae6683","5f60e3c0a3b16e07647b2ff9","5f675c33dbb05833dfafb8aa","false","null","<span style=""color: black; font-size: 48px"">M + N</span>","null","","","","resp_prompt","","","","","","","","","","","","","","","",""
"categorize-image","250","514664","0.0-4.0-1.0-1.41","s5qazww1ru11wea","prime","5cb329855ee1730001ae6683","5f60e3c0a3b16e07647b2ff9","5f675c33dbb05833dfafb8aa","true","1387.0000000000582","./Stimuli/SelectedImages/LN/LN42.bmp","83","","","","test","false","M + N","76","repetition","LN","LN42.bmp","forget","","90","3","prime1","left","","","",""
"html-keyboard-response","251","515166","0.0-4.0-1.0-2.41-0.41","s5qazww1ru11wea","prime","5cb329855ee1730001ae6683","5f60e3c0a3b16e07647b2ff9","5f675c33dbb05833dfafb8aa","false","null","<span style=""color: red; font-size: 48px"">Error!</span>","null","","","","feedback","","","","","","","","","","","","","","","",""
"html-keyboard-response","252","517168","0.0-4.0-1.0-3.41","s5qazww1ru11wea","prime","5cb329855ee1730001ae6683","5f60e3c0a3b16e07647b2ff9","5f675c33dbb05833dfafb8aa","false","null","<div style=""align-items: center; display: flex; color: darkorange; font-size: 90px""><b>ø</b></div>","null","","","","forget_cue","","","","","","","","","","","","","","","",""
"html-keyboard-response","253","517870","0.0-4.0-1.0-0.42","s5qazww1ru11wea","prime","5cb329855ee1730001ae6683","5f60e3c0a3b16e07647b2ff9","5f675c33dbb05833dfafb8aa","false","null","<span style=""color: black; font-size: 48px"">N + M</span>","null","","","","resp_prompt","","","","","","","","","","","","","","","",""
"categorize-image","254","518127","0.0-4.0-1.0-1.42","s5qazww1ru11wea","prime","5cb329855ee1730001ae6683","5f60e3c0a3b16e07647b2ff9","5f675c33dbb05833dfafb8aa","true","254.0000000000582","./Stimuli/SelectedImages/SN/SN240.bmp","83","","","","test","true","N + M","83","switch","SN","SN240.bmp","remember","","91","3","prime1","left","","","",""
"html-keyboard-response","255","520128","0.0-4.0-1.0-3.42","s5qazww1ru11wea","prime","5cb329855ee1730001ae6683","5f60e3c0a3b16e07647b2ff9","5f675c33dbb05833dfafb8aa","false","null","<div style=""align-items: center; display: flex; color: dodgerblue; font-size: 90px""><b>o</b></div>","null","","","","forget_cue","","","","","","","","","","","","","","","",""
"html-keyboard-response","256","520830","0.0-4.0-1.0-0.43","s5qazww1ru11wea","prime","5cb329855ee1730001ae6683","5f60e3c0a3b16e07647b2ff9","5f675c33dbb05833dfafb8aa","false","null","<span style=""color: black; font-size: 48px"">M + N</span>","null","","","","resp_prompt","","","","","","","","","","","","","","","",""
