"trial_type","trial_index","time_elapsed","internal_node_id","subject","exp_part","prolific_PID","study_ID","session_ID","use","rt","stimulus","key_press","button_pressed","responses","question_order","trial_part","correct","resp_map","correct_resp","probe_condition","category","image","forget_condition","list","trial_num","block_num","block","response","test_part","n_span","sequence","num_spaces"
"pavlovia","0","10","0.0-0.0","gmblaeyn52cyf2b","","5f3ac1732efa0a74f975b1a8","5f60e3c0a3b16e07647b2ff9","5f6380293b94e7068fc333dc","false","","","","","","","","","","","","","","","","","","","","","","",""
"html-keyboard-response","1","1170746","0.0-1.0-0.0-0.0","gmblaeyn52cyf2b","welcome","5f3ac1732efa0a74f975b1a8","5f60e3c0a3b16e07647b2ff9","5f6380293b94e7068fc333dc","false","1170729","<div align=left>Dear participant, <br> thank you for participating in an online study of the Cognition, Action, and Sustainability Unit of the University of Freiburg! <br> <br>The aim of this study is to examine our ability to remember previously learned information. <br>Our goal is to find out, whether our memory improves, when we only remember information that is relevant to us. <br>The experiment will take about 35 minutes to complete. <br> <br>Please, note that you can only participate in this study if you are using a device with a keyboard (PC, Laptop etc.) <br>and not if you are using a mobile device such as a tablet or smartphone.<br> <br>Press 'SPACE' to proceed to the experiment. </div>","32","","","","","","","","","","","","","","","","","","","",""
"html-keyboard-response","2","1194481","0.0-1.0-0.0-1.0","gmblaeyn52cyf2b","welcome","5f3ac1732efa0a74f975b1a8","5f60e3c0a3b16e07647b2ff9","5f6380293b94e7068fc333dc","false","23729","<div align=left><strong> Time Course of this experiment: </strong> <br><br> <strong> 1.</strong>  First, please fill in some information regarding your demographic data. <br><br> <strong> 2.</strong>  Next, your task will be to classify everyday objects. <br>In addition, you will be asked to remember certain objects and recall them later. <br>Working on these tasks requires your undivided attention and concentration.<br>It is therefore essential that you eliminate any sources of distraction in your  <br>environment and ensure that you will not be disturbed. <br><br><strong> 3.</strong>  At the end of the experiment, you will be asked to answer a few additional questions. <br> <br><strong> Important:</strong> After finishing the experiment, only close the browser window <br> by clicking on the 'end the experiment'-button when you are asked to do so. <br>Closing the browser window prematurely will make the allocation of your participation credit impossible. <br><br> Press 'SPACE' to start the experiment. </div>","32","","","","","","","","","","","","","","","","","","","",""
"html-button-response","3","1198283","0.0-1.0-0.0-2.0","gmblaeyn52cyf2b","welcome","5f3ac1732efa0a74f975b1a8","5f60e3c0a3b16e07647b2ff9","5f6380293b94e7068fc333dc","true","3797","<div align=left><strong> Informed consent </strong>  <br>The aim of our research is to better understand human behavior and mental processes. <br>In the following study your behavior (e.g. choices, reaction times) will be studied. <br> <br><strong> Voluntariness and Anonymity </strong> <br>Your participation in this study is  <strong> voluntary</strong>.<br>You may withdraw your consent to participate at any time without providing a reason for doing so and without fear of prejudice. <br><br>As no personal data will be collected, <strong>your data and your person cannot be connected after data collection</strong> – the data-set is anonymous. <br>Respectively, deletion of your data will not be possible after data collection has been completed, as we cannot retrace your data-set.<br>The results and anonymized data collected in this study will be published as a scientific publication. <br>This will happen in an <strong>anonymized format</strong>, so that no data can be traced back to a specific person. <br> <br>The anonymized data of this study will be made available to other researchers and/or in a data archive on the Internet as a means of transparency and to enable subsequent re-use. By doing so, this study follows the recommendations of the Deutsche Forschungsgemeinschaft (DFG, German Research Foundation) and Deutsche Gesellschaft für Psychologie (DGPS, German Psychological Society) regarding quality assurance in research.<br>If you have any questions now or after the experiment, please contact our team (experiments@cs.uni-freiburg.de).<br><br><br>I hereby declare, that I understand the above described conditions of participation and I agree to participate under these conditions. <br><br> </div>","","0","","","","","","","","","","","","","","","","","","",""
"html-keyboard-response","4","1213944","0.0-1.0-0.0-3.0","gmblaeyn52cyf2b","welcome","5f3ac1732efa0a74f975b1a8","5f60e3c0a3b16e07647b2ff9","5f6380293b94e7068fc333dc","false","15656","<div align=left><strong> General information concerning the experiment </strong>  <br> <br>Please follow the instructions:<ol> <li><strong> Do not leave this tab (your browser window) during the experiment and do not reload this tab! </strong>  <br>If you do switch tabs/windows during the experiment (to check your mail or visit another website, for example), <br>the experiment will end automatically and you will <strong>not receive credit</strong> for your participation. <br>Repeated participation or resumption of the experiment is impossible.</li> <br><li>Please close all other programs for the duration of your participation. </li> <br><li>Please mute or turn off your phone and put it out of your reach. </li> <br><li>Please also take off any disturbing accessories (such as wristwatches, bracelets, etc.). </li> <br><li>If you have music playing in the background, please turn it off now. </li> <br></ol>Thank you! <br>Press 'SPACE' to continue. </div>","32","","","","","","","","","","","","","","","","","","","",""
"survey-text","5","1217395","0.0-1.0-1.0-0.0","gmblaeyn52cyf2b","demographics","5f3ac1732efa0a74f975b1a8","5f60e3c0a3b16e07647b2ff9","5f6380293b94e7068fc333dc","true","3440","","","","{""age"":""26""}","","","","","","","","","","","","","","","","","",""
"survey-multi-choice","6","1233937","0.0-1.0-1.0-1.0","gmblaeyn52cyf2b","demographics","5f3ac1732efa0a74f975b1a8","5f60e3c0a3b16e07647b2ff9","5f6380293b94e7068fc333dc","true","16533","","","","{""gender"":""female"",""school"":""high school"",""education"":""High school graduate, diploma or equivalent""}","[0,1,2]","","","","","","","","","","","","","","","","",""
"html-keyboard-response","7","1251550","0.0-1.0-2.0","gmblaeyn52cyf2b","instructions","5f3ac1732efa0a74f975b1a8","5f60e3c0a3b16e07647b2ff9","5f6380293b94e7068fc333dc","false","17607","<div align=left> The experiment is now about to start: <br> <br>In the following part, you will be presented pictures of everyday objects. <br>Your first task is to <strong>classify these objects. </strong> <br> <br> You will classify them either as mechanical or non-mechanical objects. <br> <br>Objects that include any kind of technical mechanism (for example, wheels, switches, levers, <br> electronic components) fall under the category of <strong>mechanical</strong> objects. <br>Only objects without any kind of technical mechanism should be classified as <strong>non-mechanical</strong>. <br><br>Press 'SPACE' to continue. </div>","32","","","","","","","","","","","","","","","","","","","",""
"html-keyboard-response","8","1341917","0.0-2.0-0.0","gmblaeyn52cyf2b","instructions","5f3ac1732efa0a74f975b1a8","5f60e3c0a3b16e07647b2ff9","5f6380293b94e7068fc333dc","false","90364","<div align=justify>You will classify the objects using the <strong>'S'</strong> and the <strong>'L'</strong> keys on your keyboard.<br>For doing so, please place your <strong>left index finger</strong> on the <strong>'S'</strong> key and place your <strong>right index finger</strong> on the <strong>'L'</strong> key. <br><br> Each trial starts with an instruction, indicating which key ('S'/'L') you need to press to classify <br>the object as mechanical (letter M) or non-mechanical (letter N).<br>The instruction <strong>M + N</strong> indicates that, in the current trial, by pressing the left key ('S') you classify the displayed object as mechanical (M) <br> and by pressing the right key ('L') you classify the object as non-mechanical (N). <br>The instruction <strong>N + M</strong> on the other hand indicates that by pressing the left key ('S') you classify the displayed object as non-mechanical (N) <br> and by pressing the right key ('L') you classify the object as mechanical (M). <br><br>Please press the key corresponding to the correct classification as fast as possible as soon as the object is displayed and try to avoid making mistakes.<br>If you do not respond within a 2 second window, a corresponding feedback will be displayed and the next trial will start.<br> The experiment is divided into multiple blocks to give you the opportunity to take a break after each block. <br>First, you can now practice this task. <br><br>Please place your <strong>LEFT INDEX FINGER</strong> on the 'S' key and your <strong>RIGHT INDEX FINGER</strong> on the 'L' key now. <br><br>Press SPACE to continue.</div>","32","","","","","","","","","","","","","","","","","","","",""
"html-keyboard-response","9","1350481","0.0-2.0-1.0","gmblaeyn52cyf2b","instructions","5f3ac1732efa0a74f975b1a8","5f60e3c0a3b16e07647b2ff9","5f6380293b94e7068fc333dc","false","8562","<div align=left> You will now have time to practice this task.<br><br>Remember: <br> <br><li>Please place your index fingers on the <strong>'S'</strong> and <strong>'L'</strong> keys <br>to respond as fast and accurately as possible.</li><li>Every picture can be classified as either mechanical or non-mechanical.</li><li>If you do not respond in time or commit an error, you will receive a corresponding feedback. </li><li> Please try to respond as <strong> fast </strong> and as <strong> accurately as possible </strong> .<br><li>To ensure optimal results, please minimize distractions and stay focused. </li><br><br>Press SPACE to continue.</div>","32","","","","","","","","","","","","","","","","","","","",""
"html-keyboard-response","10","1351186","0.0-2.0-2.0-0.0","gmblaeyn52cyf2b","practice_no_cue","5f3ac1732efa0a74f975b1a8","5f60e3c0a3b16e07647b2ff9","5f6380293b94e7068fc333dc","false","null","<span style=""color: black; font-size: 48px"">N + M</span>","null","","","","resp_prompt","","","","","","","","","","","","","","","",""
"categorize-image","11","1353651","0.0-2.0-2.0-1.0","gmblaeyn52cyf2b","practice_no_cue","5f3ac1732efa0a74f975b1a8","5f60e3c0a3b16e07647b2ff9","5f6380293b94e7068fc333dc","true","1958","./Stimuli/ImagesPractice/SN222.jpg","83","","","","test","true","N + M","83","","SN","SN222.jpg","forget","old","1","1","start","left","","","",""
"html-keyboard-response","12","1354367","0.0-2.0-2.0-0.1","gmblaeyn52cyf2b","practice_no_cue","5f3ac1732efa0a74f975b1a8","5f60e3c0a3b16e07647b2ff9","5f6380293b94e7068fc333dc","false","null","<span style=""color: black; font-size: 48px"">M + N</span>","null","","","","resp_prompt","","","","","","","","","","","","","","","",""
"categorize-image","13","1355436","0.0-2.0-2.0-1.1","gmblaeyn52cyf2b","practice_no_cue","5f3ac1732efa0a74f975b1a8","5f60e3c0a3b16e07647b2ff9","5f6380293b94e7068fc333dc","true","567","./Stimuli/ImagesPractice/LN4.jpg","76","","","","test","true","M + N","76","","LN","LN4.jpg","forget","old","2","1","start","right","","","",""
"html-keyboard-response","14","1356140","0.0-2.0-2.0-0.2","gmblaeyn52cyf2b","practice_no_cue","5f3ac1732efa0a74f975b1a8","5f60e3c0a3b16e07647b2ff9","5f6380293b94e7068fc333dc","false","null","<span style=""color: black; font-size: 48px"">N + M</span>","null","","","","resp_prompt","","","","","","","","","","","","","","","",""
"categorize-image","15","1357273","0.0-2.0-2.0-1.2","gmblaeyn52cyf2b","practice_no_cue","5f3ac1732efa0a74f975b1a8","5f60e3c0a3b16e07647b2ff9","5f6380293b94e7068fc333dc","true","630","./Stimuli/ImagesPractice/SN75.jpg","83","","","","test","true","N + M","83","","SN","SN75.jpg","remember","old","3","1","start","left","","","",""
"html-keyboard-response","16","1357976","0.0-2.0-2.0-0.3","gmblaeyn52cyf2b","practice_no_cue","5f3ac1732efa0a74f975b1a8","5f60e3c0a3b16e07647b2ff9","5f6380293b94e7068fc333dc","false","null","<span style=""color: black; font-size: 48px"">N + M</span>","null","","","","resp_prompt","","","","","","","","","","","","","","","",""
"categorize-image","17","1359096","0.0-2.0-2.0-1.3","gmblaeyn52cyf2b","practice_no_cue","5f3ac1732efa0a74f975b1a8","5f60e3c0a3b16e07647b2ff9","5f6380293b94e7068fc333dc","true","602","./Stimuli/ImagesPractice/LN109.jpg","83","","","","test","true","N + M","83","","LN","LN109.jpg","forget","old","4","1","start","left","","","",""
"html-keyboard-response","18","1359799","0.0-2.0-2.0-0.4","gmblaeyn52cyf2b","practice_no_cue","5f3ac1732efa0a74f975b1a8","5f60e3c0a3b16e07647b2ff9","5f6380293b94e7068fc333dc","false","null","<span style=""color: black; font-size: 48px"">M + N</span>","null","","","","resp_prompt","","","","","","","","","","","","","","","",""
"categorize-image","19","1361312","0.0-2.0-2.0-1.4","gmblaeyn52cyf2b","practice_no_cue","5f3ac1732efa0a74f975b1a8","5f60e3c0a3b16e07647b2ff9","5f6380293b94e7068fc333dc","true","1010","./Stimuli/ImagesPractice/SM61.jpg","83","","","","test","true","M + N","83","","SM","SM61.jpg","remember","old","5","1","start","left","","","",""
"html-keyboard-response","20","1362013","0.0-2.0-2.0-0.5","gmblaeyn52cyf2b","practice_no_cue","5f3ac1732efa0a74f975b1a8","5f60e3c0a3b16e07647b2ff9","5f6380293b94e7068fc333dc","false","null","<span style=""color: black; font-size: 48px"">N + M</span>","null","","","","resp_prompt","","","","","","","","","","","","","","","",""
"categorize-image","21","1363137","0.0-2.0-2.0-1.5","gmblaeyn52cyf2b","practice_no_cue","5f3ac1732efa0a74f975b1a8","5f60e3c0a3b16e07647b2ff9","5f6380293b94e7068fc333dc","true","620","./Stimuli/ImagesPractice/LM143.jpg","76","","","","test","true","N + M","76","","LM","LM143.jpg","forget","old","6","1","start","right","","","",""
"html-keyboard-response","22","1363840","0.0-2.0-2.0-0.6","gmblaeyn52cyf2b","practice_no_cue","5f3ac1732efa0a74f975b1a8","5f60e3c0a3b16e07647b2ff9","5f6380293b94e7068fc333dc","false","null","<span style=""color: black; font-size: 48px"">M + N</span>","null","","","","resp_prompt","","","","","","","","","","","","","","","",""
"categorize-image","23","1364996","0.0-2.0-2.0-1.6","gmblaeyn52cyf2b","practice_no_cue","5f3ac1732efa0a74f975b1a8","5f60e3c0a3b16e07647b2ff9","5f6380293b94e7068fc333dc","true","648","./Stimuli/ImagesPractice/SN221.jpg","83","","","","test","false","M + N","76","","SN","SN221.jpg","forget","old","7","1","start","left","","","",""
"html-keyboard-response","24","1365697","0.0-2.0-2.0-0.7","gmblaeyn52cyf2b","practice_no_cue","5f3ac1732efa0a74f975b1a8","5f60e3c0a3b16e07647b2ff9","5f6380293b94e7068fc333dc","false","null","<span style=""color: black; font-size: 48px"">M + N</span>","null","","","","resp_prompt","","","","","","","","","","","","","","","",""
"categorize-image","25","1366966","0.0-2.0-2.0-1.7","gmblaeyn52cyf2b","practice_no_cue","5f3ac1732efa0a74f975b1a8","5f60e3c0a3b16e07647b2ff9","5f6380293b94e7068fc333dc","true","763","./Stimuli/ImagesPractice/SN205.jpg","83","","","","test","false","M + N","76","","SN","SN205.jpg","remember","old","8","1","start","left","","","",""
"html-keyboard-response","26","1367669","0.0-2.0-2.0-0.8","gmblaeyn52cyf2b","practice_no_cue","5f3ac1732efa0a74f975b1a8","5f60e3c0a3b16e07647b2ff9","5f6380293b94e7068fc333dc","false","null","<span style=""color: black; font-size: 48px"">M + N</span>","null","","","","resp_prompt","","","","","","","","","","","","","","","",""
"categorize-image","27","1368996","0.0-2.0-2.0-1.8","gmblaeyn52cyf2b","practice_no_cue","5f3ac1732efa0a74f975b1a8","5f60e3c0a3b16e07647b2ff9","5f6380293b94e7068fc333dc","true","812","./Stimuli/ImagesPractice/LM230.jpg","76","","","","test","false","M + N","83","","LM","LM230.jpg","forget","old","9","1","start","right","","","",""
"html-keyboard-response","28","1369698","0.0-2.0-2.0-0.9","gmblaeyn52cyf2b","practice_no_cue","5f3ac1732efa0a74f975b1a8","5f60e3c0a3b16e07647b2ff9","5f6380293b94e7068fc333dc","false","null","<span style=""color: black; font-size: 48px"">N + M</span>","null","","","","resp_prompt","","","","","","","","","","","","","","","",""
"categorize-image","29","1371087","0.0-2.0-2.0-1.9","gmblaeyn52cyf2b","practice_no_cue","5f3ac1732efa0a74f975b1a8","5f60e3c0a3b16e07647b2ff9","5f6380293b94e7068fc333dc","true","871","./Stimuli/ImagesPractice/LM239.jpg","76","","","","test","true","N + M","76","","LM","LM239.jpg","remember","old","10","1","start","right","","","",""
"html-keyboard-response","30","1371789","0.0-2.0-2.0-0.10","gmblaeyn52cyf2b","practice_no_cue","5f3ac1732efa0a74f975b1a8","5f60e3c0a3b16e07647b2ff9","5f6380293b94e7068fc333dc","false","null","<span style=""color: black; font-size: 48px"">M + N</span>","null","","","","resp_prompt","","","","","","","","","","","","","","","",""
"categorize-image","31","1373459","0.0-2.0-2.0-1.10","gmblaeyn52cyf2b","practice_no_cue","5f3ac1732efa0a74f975b1a8","5f60e3c0a3b16e07647b2ff9","5f6380293b94e7068fc333dc","true","1167","./Stimuli/ImagesPractice/SM62.jpg","76","","","","test","false","M + N","83","","SM","SM62.jpg","remember","old","11","1","start","right","","","",""
"html-keyboard-response","32","1374164","0.0-2.0-2.0-0.11","gmblaeyn52cyf2b","practice_no_cue","5f3ac1732efa0a74f975b1a8","5f60e3c0a3b16e07647b2ff9","5f6380293b94e7068fc333dc","false","null","<span style=""color: black; font-size: 48px"">M + N</span>","null","","","","resp_prompt","","","","","","","","","","","","","","","",""
"categorize-image","33","1375381","0.0-2.0-2.0-1.11","gmblaeyn52cyf2b","practice_no_cue","5f3ac1732efa0a74f975b1a8","5f60e3c0a3b16e07647b2ff9","5f6380293b94e7068fc333dc","true","716","./Stimuli/ImagesPractice/SM37.jpg","83","","","","test","true","M + N","83","","SM","SM37.jpg","remember","old","12","1","start","left","","","",""
"html-keyboard-response","34","1376082","0.0-2.0-2.0-0.12","gmblaeyn52cyf2b","practice_no_cue","5f3ac1732efa0a74f975b1a8","5f60e3c0a3b16e07647b2ff9","5f6380293b94e7068fc333dc","false","null","<span style=""color: black; font-size: 48px"">N + M</span>","null","","","","resp_prompt","","","","","","","","","","","","","","","",""
"categorize-image","35","1377407","0.0-2.0-2.0-1.12","gmblaeyn52cyf2b","practice_no_cue","5f3ac1732efa0a74f975b1a8","5f60e3c0a3b16e07647b2ff9","5f6380293b94e7068fc333dc","true","822","./Stimuli/ImagesPractice/LN17.jpg","76","","","","test","false","N + M","83","","LN","LN17.jpg","remember","old","13","1","start","right","","","",""
"html-keyboard-response","36","1378110","0.0-2.0-2.0-0.13","gmblaeyn52cyf2b","practice_no_cue","5f3ac1732efa0a74f975b1a8","5f60e3c0a3b16e07647b2ff9","5f6380293b94e7068fc333dc","false","null","<span style=""color: black; font-size: 48px"">M + N</span>","null","","","","resp_prompt","","","","","","","","","","","","","","","",""
"categorize-image","37","1380207","0.0-2.0-2.0-1.13","gmblaeyn52cyf2b","practice_no_cue","5f3ac1732efa0a74f975b1a8","5f60e3c0a3b16e07647b2ff9","5f6380293b94e7068fc333dc","true","1596","./Stimuli/ImagesPractice/LN15.jpg","76","","","","test","true","M + N","76","","LN","LN15.jpg","forget","old","14","1","start","right","","","",""
"html-keyboard-response","38","1380909","0.0-2.0-2.0-0.14","gmblaeyn52cyf2b","practice_no_cue","5f3ac1732efa0a74f975b1a8","5f60e3c0a3b16e07647b2ff9","5f6380293b94e7068fc333dc","false","null","<span style=""color: black; font-size: 48px"">N + M</span>","null","","","","resp_prompt","","","","","","","","","","","","","","","",""
"categorize-image","39","1382200","0.0-2.0-2.0-1.14","gmblaeyn52cyf2b","practice_no_cue","5f3ac1732efa0a74f975b1a8","5f60e3c0a3b16e07647b2ff9","5f6380293b94e7068fc333dc","true","788","./Stimuli/ImagesPractice/SN220.jpg","83","","","","test","true","N + M","83","","SN","SN220.jpg","remember","old","15","1","start","left","","","",""
"html-keyboard-response","40","1382902","0.0-2.0-2.0-0.15","gmblaeyn52cyf2b","practice_no_cue","5f3ac1732efa0a74f975b1a8","5f60e3c0a3b16e07647b2ff9","5f6380293b94e7068fc333dc","false","null","<span style=""color: black; font-size: 48px"">N + M</span>","null","","","","resp_prompt","","","","","","","","","","","","","","","",""
"categorize-image","41","1384248","0.0-2.0-2.0-1.15","gmblaeyn52cyf2b","practice_no_cue","5f3ac1732efa0a74f975b1a8","5f60e3c0a3b16e07647b2ff9","5f6380293b94e7068fc333dc","true","846","./Stimuli/ImagesPractice/SM35.jpg","83","","","","test","false","N + M","76","","SM","SM35.jpg","forget","old","16","1","start","left","","","",""
"html-keyboard-response","42","1386269","0.0-2.0-3.0","gmblaeyn52cyf2b","break","5f3ac1732efa0a74f975b1a8","5f60e3c0a3b16e07647b2ff9","5f6380293b94e7068fc333dc","false","2017","<p style='font-size: 32px;'>Break</><br><br><br><br><br><p style='font-size: 24px;'>In the last block, you committed 6 errors and did not respond in time on 0 trials.
</p><p style='font-size: 24px;'>Try to respond as fast and accurately as possible in the next block as well! </p><p style='font-size: 24px;'>Press SPACE to continue.</p>","32","","","","","","","","","","","","","","","","","","","",""
"html-keyboard-response","43","1391853","0.0-2.0-4.0","gmblaeyn52cyf2b","instructions","5f3ac1732efa0a74f975b1a8","5f60e3c0a3b16e07647b2ff9","5f6380293b94e7068fc333dc","false","5582","<div align=left> Great!<br><br>Are you ready to continue?<br><br>If you want to reread the instructions and redo the practice trials, <br>please press „Z“. <br><br>Press SPACE to CONTINUE with the experiment when you are ready. </div>","32","","","","","","","","","","","","","","","","","","","",""
"html-keyboard-response","44","1395957","0.0-3.0-0.0","gmblaeyn52cyf2b","instructions","5f3ac1732efa0a74f975b1a8","5f60e3c0a3b16e07647b2ff9","5f6380293b94e7068fc333dc","false","4103","<div align=left>Great!<br> <strong>Attention</strong>! You will now receive a second, additional task! <br><br>To this point it was you <strong>first task</strong> to correctly <strong>classify objects</strong>. <br><br>As mentioned in the beginning, we aim to examine how well humans can remember previously learned information.<br>We would like to find out whether our memory improves if we only remember information that is relevant to us. <br><br>Therefore, your <strong>second task</strong> will be to <strong>remember</strong> the pictures you are to categorize. <br> After the learning phase, there will be a memory test phase, in which you will be asked to indicate whether you have seen a picture before or not. <br>Some, but not all pictures shown in the learning phase will appear in the memory test phase.<br>After classifying a picture, you will be told whether you should remember it for the memory test phase or not. <br>Thus, some pictures can be forgotten, whereas others have to be remembered. <br><br>Note: From now on, feedback will only be displayed if you responded incorrectly or not in time.<br><br>Press SPACE to continue.</div>","32","","","","","","","","","","","","","","","","","","","",""
"html-keyboard-response","45","1416588","0.0-3.0-1.0","gmblaeyn52cyf2b","instructions","5f3ac1732efa0a74f975b1a8","5f60e3c0a3b16e07647b2ff9","5f6380293b94e7068fc333dc","false","20630","<div align=left>In the following part, you will thus have to remember only some pictures. <br>Immediately after seeing and classifying the picture, a symbol will be displayed, indicating whether you should remember or forget the previous picture. <br><br>A <span style='color: dodgerblue; font-size: 28px'>O</span> indicates REMEMBER. That means, you have to remember this picture, because it will be tested later. <br><br>A <span style='color: darkorange; font-size:28px'>Ø</span> indicates FORGET. You do not have to remember this picture. <br><br> As you will have to remember a lot of pictures, it will be hard for you to remember all of them. <br>It will put you at an advantage if you instantly forget the pictures you are not asked to remember. <br> This will make it easier for you to remember the pictures that will be tested afterwards. <br><br>Press SPACE to continue.</div>","32","","","","","","","","","","","","","","","","","","","",""
"html-keyboard-response","46","1421397","0.0-3.0-2.0","gmblaeyn52cyf2b","instructions","5f3ac1732efa0a74f975b1a8","5f60e3c0a3b16e07647b2ff9","5f6380293b94e7068fc333dc","false","4807","<div align=left> Now you have the chance to practice both tasks together.<br><br>Remember: <br> <br><li>Please place your index fingers on the <strong>'S'</strong> and <strong>'L'</strong> keys <br>to respond as fast and accurately as possible.</li><li>Every picture can be classified as either mechanical or non-mechanical.</li><li>If you do not respond in time or commit an error, you will receive a corresponding feedback. <br>Please try to respond as <strong> fast </strong> and as <strong> accurately as possible </strong>.</li><li> Please remember only the to-be-remembered <span style='color: dodgerblue; font-size: 28px'>O</span> pictures. <br></li><li> Please minimize distractions and stay focused. </li><br><br>Press SPACE to START</div>","32","","","","","","","","","","","","","","","","","","","",""
"html-keyboard-response","47","1422099","0.0-3.0-3.0-0.0","gmblaeyn52cyf2b","practice_cue","5f3ac1732efa0a74f975b1a8","5f60e3c0a3b16e07647b2ff9","5f6380293b94e7068fc333dc","false","null","<span style=""color: black; font-size: 48px"">N + M</span>","null","","","","resp_prompt","","","","","","","","","","","","","","","",""
"categorize-image","48","1423443","0.0-3.0-3.0-1.0","gmblaeyn52cyf2b","practice_cue","5f3ac1732efa0a74f975b1a8","5f60e3c0a3b16e07647b2ff9","5f6380293b94e7068fc333dc","true","1342","./Stimuli/ImagesPractice/SM35.jpg","83","","","","test","false","N + M","76","","SM","SM35.jpg","forget","old","17","2","practice_forget","left","","","",""
"html-keyboard-response","49","1423945","0.0-3.0-3.0-2.0-0.0","gmblaeyn52cyf2b","practice_cue","5f3ac1732efa0a74f975b1a8","5f60e3c0a3b16e07647b2ff9","5f6380293b94e7068fc333dc","false","null","<span style=""color: red; font-size: 48px"">Error!</span>","null","","","","feedback","","","","","","","","","","","","","","","",""
"html-keyboard-response","50","1425947","0.0-3.0-3.0-3.0","gmblaeyn52cyf2b","practice_cue","5f3ac1732efa0a74f975b1a8","5f60e3c0a3b16e07647b2ff9","5f6380293b94e7068fc333dc","false","null","<div style=""align-items: center; display: flex; color: darkorange; font-size: 90px""><b>ø</b></div>","null","","","","forget_cue","","","","","","","","","","","","","","","",""
"html-keyboard-response","51","1426649","0.0-3.0-3.0-0.1","gmblaeyn52cyf2b","practice_cue","5f3ac1732efa0a74f975b1a8","5f60e3c0a3b16e07647b2ff9","5f6380293b94e7068fc333dc","false","null","<span style=""color: black; font-size: 48px"">N + M</span>","null","","","","resp_prompt","","","","","","","","","","","","","","","",""
"categorize-image","52","1427404","0.0-3.0-3.0-1.1","gmblaeyn52cyf2b","practice_cue","5f3ac1732efa0a74f975b1a8","5f60e3c0a3b16e07647b2ff9","5f6380293b94e7068fc333dc","true","754","./Stimuli/ImagesPractice/LN109.jpg","83","","","","test","true","N + M","83","","LN","LN109.jpg","forget","old","18","2","practice_forget","left","","","",""
"html-keyboard-response","53","1429406","0.0-3.0-3.0-3.1","gmblaeyn52cyf2b","practice_cue","5f3ac1732efa0a74f975b1a8","5f60e3c0a3b16e07647b2ff9","5f6380293b94e7068fc333dc","false","null","<div style=""align-items: center; display: flex; color: darkorange; font-size: 90px""><b>ø</b></div>","null","","","","forget_cue","","","","","","","","","","","","","","","",""
"html-keyboard-response","54","1430109","0.0-3.0-3.0-0.2","gmblaeyn52cyf2b","practice_cue","5f3ac1732efa0a74f975b1a8","5f60e3c0a3b16e07647b2ff9","5f6380293b94e7068fc333dc","false","null","<span style=""color: black; font-size: 48px"">N + M</span>","null","","","","resp_prompt","","","","","","","","","","","","","","","",""
"categorize-image","55","1430915","0.0-3.0-3.0-1.2","gmblaeyn52cyf2b","practice_cue","5f3ac1732efa0a74f975b1a8","5f60e3c0a3b16e07647b2ff9","5f6380293b94e7068fc333dc","true","805","./Stimuli/ImagesPractice/LN17.jpg","83","","","","test","true","N + M","83","","LN","LN17.jpg","remember","old","19","2","practice_forget","left","","","",""
"html-keyboard-response","56","1432917","0.0-3.0-3.0-3.2","gmblaeyn52cyf2b","practice_cue","5f3ac1732efa0a74f975b1a8","5f60e3c0a3b16e07647b2ff9","5f6380293b94e7068fc333dc","false","null","<div style=""align-items: center; display: flex; color: dodgerblue; font-size: 90px""><b>o</b></div>","null","","","","forget_cue","","","","","","","","","","","","","","","",""
"html-keyboard-response","57","1433619","0.0-3.0-3.0-0.3","gmblaeyn52cyf2b","practice_cue","5f3ac1732efa0a74f975b1a8","5f60e3c0a3b16e07647b2ff9","5f6380293b94e7068fc333dc","false","null","<span style=""color: black; font-size: 48px"">N + M</span>","null","","","","resp_prompt","","","","","","","","","","","","","","","",""
"categorize-image","58","1435626","0.0-3.0-3.0-1.3","gmblaeyn52cyf2b","practice_cue","5f3ac1732efa0a74f975b1a8","5f60e3c0a3b16e07647b2ff9","5f6380293b94e7068fc333dc","true","null","./Stimuli/ImagesPractice/LM239.jpg","null","","","","test","false","N + M","76","","LM","LM239.jpg","remember","old","20","2","practice_forget","too_slow","","","",""
"html-keyboard-response","59","1436127","0.0-3.0-3.0-2.3-0.3","gmblaeyn52cyf2b","practice_cue","5f3ac1732efa0a74f975b1a8","5f60e3c0a3b16e07647b2ff9","5f6380293b94e7068fc333dc","false","null","<span style=""color: red; font-size: 48px"">Too slow!</span>","null","","","","feedback","","","","","","","","","","","","","","","",""
"html-keyboard-response","60","1438130","0.0-3.0-3.0-3.3","gmblaeyn52cyf2b","practice_cue","5f3ac1732efa0a74f975b1a8","5f60e3c0a3b16e07647b2ff9","5f6380293b94e7068fc333dc","false","null","<div style=""align-items: center; display: flex; color: dodgerblue; font-size: 90px""><b>o</b></div>","null","","","","forget_cue","","","","","","","","","","","","","","","",""
"html-keyboard-response","61","1438831","0.0-3.0-3.0-0.4","gmblaeyn52cyf2b","practice_cue","5f3ac1732efa0a74f975b1a8","5f60e3c0a3b16e07647b2ff9","5f6380293b94e7068fc333dc","false","null","<span style=""color: black; font-size: 48px"">N + M</span>","null","","","","resp_prompt","","","","","","","","","","","","","","","",""
"categorize-image","62","1439509","0.0-3.0-3.0-1.4","gmblaeyn52cyf2b","practice_cue","5f3ac1732efa0a74f975b1a8","5f60e3c0a3b16e07647b2ff9","5f6380293b94e7068fc333dc","true","675","./Stimuli/ImagesPractice/LM143.jpg","76","","","","test","true","N + M","76","","LM","LM143.jpg","forget","old","21","2","practice_forget","right","","","",""
"html-keyboard-response","63","1441511","0.0-3.0-3.0-3.4","gmblaeyn52cyf2b","practice_cue","5f3ac1732efa0a74f975b1a8","5f60e3c0a3b16e07647b2ff9","5f6380293b94e7068fc333dc","false","null","<div style=""align-items: center; display: flex; color: darkorange; font-size: 90px""><b>ø</b></div>","null","","","","forget_cue","","","","","","","","","","","","","","","",""
"html-keyboard-response","64","1442211","0.0-3.0-3.0-0.5","gmblaeyn52cyf2b","practice_cue","5f3ac1732efa0a74f975b1a8","5f60e3c0a3b16e07647b2ff9","5f6380293b94e7068fc333dc","false","null","<span style=""color: black; font-size: 48px"">M + N</span>","null","","","","resp_prompt","","","","","","","","","","","","","","","",""
"categorize-image","65","1442823","0.0-3.0-3.0-1.5","gmblaeyn52cyf2b","practice_cue","5f3ac1732efa0a74f975b1a8","5f60e3c0a3b16e07647b2ff9","5f6380293b94e7068fc333dc","true","609","./Stimuli/ImagesPractice/LM230.jpg","76","","","","test","false","M + N","83","","LM","LM230.jpg","forget","old","22","2","practice_forget","right","","","",""
"html-keyboard-response","66","1443324","0.0-3.0-3.0-2.5-0.5","gmblaeyn52cyf2b","practice_cue","5f3ac1732efa0a74f975b1a8","5f60e3c0a3b16e07647b2ff9","5f6380293b94e7068fc333dc","false","null","<span style=""color: red; font-size: 48px"">Error!</span>","null","","","","feedback","","","","","","","","","","","","","","","",""
"html-keyboard-response","67","1445325","0.0-3.0-3.0-3.5","gmblaeyn52cyf2b","practice_cue","5f3ac1732efa0a74f975b1a8","5f60e3c0a3b16e07647b2ff9","5f6380293b94e7068fc333dc","false","null","<div style=""align-items: center; display: flex; color: darkorange; font-size: 90px""><b>ø</b></div>","null","","","","forget_cue","","","","","","","","","","","","","","","",""
"html-keyboard-response","68","1446026","0.0-3.0-3.0-0.6","gmblaeyn52cyf2b","practice_cue","5f3ac1732efa0a74f975b1a8","5f60e3c0a3b16e07647b2ff9","5f6380293b94e7068fc333dc","false","null","<span style=""color: black; font-size: 48px"">M + N</span>","null","","","","resp_prompt","","","","","","","","","","","","","","","",""
"categorize-image","69","1447221","0.0-3.0-3.0-1.6","gmblaeyn52cyf2b","practice_cue","5f3ac1732efa0a74f975b1a8","5f60e3c0a3b16e07647b2ff9","5f6380293b94e7068fc333dc","true","1193","./Stimuli/ImagesPractice/LN4.jpg","76","","","","test","true","M + N","76","","LN","LN4.jpg","forget","old","23","2","practice_forget","right","","","",""
"html-keyboard-response","70","1449222","0.0-3.0-3.0-3.6","gmblaeyn52cyf2b","practice_cue","5f3ac1732efa0a74f975b1a8","5f60e3c0a3b16e07647b2ff9","5f6380293b94e7068fc333dc","false","null","<div style=""align-items: center; display: flex; color: darkorange; font-size: 90px""><b>ø</b></div>","null","","","","forget_cue","","","","","","","","","","","","","","","",""
"html-keyboard-response","71","1449923","0.0-3.0-3.0-0.7","gmblaeyn52cyf2b","practice_cue","5f3ac1732efa0a74f975b1a8","5f60e3c0a3b16e07647b2ff9","5f6380293b94e7068fc333dc","false","null","<span style=""color: black; font-size: 48px"">M + N</span>","null","","","","resp_prompt","","","","","","","","","","","","","","","",""
"categorize-image","72","1450638","0.0-3.0-3.0-1.7","gmblaeyn52cyf2b","practice_cue","5f3ac1732efa0a74f975b1a8","5f60e3c0a3b16e07647b2ff9","5f6380293b94e7068fc333dc","true","712","./Stimuli/ImagesPractice/LN15.jpg","76","","","","test","true","M + N","76","","LN","LN15.jpg","forget","old","24","2","practice_forget","right","","","",""
"html-keyboard-response","73","1452640","0.0-3.0-3.0-3.7","gmblaeyn52cyf2b","practice_cue","5f3ac1732efa0a74f975b1a8","5f60e3c0a3b16e07647b2ff9","5f6380293b94e7068fc333dc","false","null","<div style=""align-items: center; display: flex; color: darkorange; font-size: 90px""><b>ø</b></div>","null","","","","forget_cue","","","","","","","","","","","","","","","",""
"html-keyboard-response","74","1453357","0.0-3.0-3.0-0.8","gmblaeyn52cyf2b","practice_cue","5f3ac1732efa0a74f975b1a8","5f60e3c0a3b16e07647b2ff9","5f6380293b94e7068fc333dc","false","null","<span style=""color: black; font-size: 48px"">M + N</span>","null","","","","resp_prompt","","","","","","","","","","","","","","","",""
"categorize-image","75","1454124","0.0-3.0-3.0-1.8","gmblaeyn52cyf2b","practice_cue","5f3ac1732efa0a74f975b1a8","5f60e3c0a3b16e07647b2ff9","5f6380293b94e7068fc333dc","true","763","./Stimuli/ImagesPractice/SM62.jpg","83","","","","test","true","M + N","83","","SM","SM62.jpg","remember","old","25","2","practice_forget","left","","","",""
"html-keyboard-response","76","1456126","0.0-3.0-3.0-3.8","gmblaeyn52cyf2b","practice_cue","5f3ac1732efa0a74f975b1a8","5f60e3c0a3b16e07647b2ff9","5f6380293b94e7068fc333dc","false","null","<div style=""align-items: center; display: flex; color: dodgerblue; font-size: 90px""><b>o</b></div>","null","","","","forget_cue","","","","","","","","","","","","","","","",""
"html-keyboard-response","77","1456827","0.0-3.0-3.0-0.9","gmblaeyn52cyf2b","practice_cue","5f3ac1732efa0a74f975b1a8","5f60e3c0a3b16e07647b2ff9","5f6380293b94e7068fc333dc","false","null","<span style=""color: black; font-size: 48px"">M + N</span>","null","","","","resp_prompt","","","","","","","","","","","","","","","",""
"categorize-image","78","1457592","0.0-3.0-3.0-1.9","gmblaeyn52cyf2b","practice_cue","5f3ac1732efa0a74f975b1a8","5f60e3c0a3b16e07647b2ff9","5f6380293b94e7068fc333dc","true","762","./Stimuli/ImagesPractice/SN205.jpg","76","","","","test","true","M + N","76","","SN","SN205.jpg","remember","old","26","2","practice_forget","right","","","",""
"html-keyboard-response","79","1459593","0.0-3.0-3.0-3.9","gmblaeyn52cyf2b","practice_cue","5f3ac1732efa0a74f975b1a8","5f60e3c0a3b16e07647b2ff9","5f6380293b94e7068fc333dc","false","null","<div style=""align-items: center; display: flex; color: dodgerblue; font-size: 90px""><b>o</b></div>","null","","","","forget_cue","","","","","","","","","","","","","","","",""
"html-keyboard-response","80","1460295","0.0-3.0-3.0-0.10","gmblaeyn52cyf2b","practice_cue","5f3ac1732efa0a74f975b1a8","5f60e3c0a3b16e07647b2ff9","5f6380293b94e7068fc333dc","false","null","<span style=""color: black; font-size: 48px"">M + N</span>","null","","","","resp_prompt","","","","","","","","","","","","","","","",""
"categorize-image","81","1461068","0.0-3.0-3.0-1.10","gmblaeyn52cyf2b","practice_cue","5f3ac1732efa0a74f975b1a8","5f60e3c0a3b16e07647b2ff9","5f6380293b94e7068fc333dc","true","771","./Stimuli/ImagesPractice/SM37.jpg","83","","","","test","true","M + N","83","","SM","SM37.jpg","remember","old","27","2","practice_forget","left","","","",""
"html-keyboard-response","82","1463087","0.0-3.0-3.0-3.10","gmblaeyn52cyf2b","practice_cue","5f3ac1732efa0a74f975b1a8","5f60e3c0a3b16e07647b2ff9","5f6380293b94e7068fc333dc","false","null","<div style=""align-items: center; display: flex; color: dodgerblue; font-size: 90px""><b>o</b></div>","null","","","","forget_cue","","","","","","","","","","","","","","","",""
"html-keyboard-response","83","1463788","0.0-3.0-3.0-0.11","gmblaeyn52cyf2b","practice_cue","5f3ac1732efa0a74f975b1a8","5f60e3c0a3b16e07647b2ff9","5f6380293b94e7068fc333dc","false","null","<span style=""color: black; font-size: 48px"">M + N</span>","null","","","","resp_prompt","","","","","","","","","","","","","","","",""
"categorize-image","84","1464453","0.0-3.0-3.0-1.11","gmblaeyn52cyf2b","practice_cue","5f3ac1732efa0a74f975b1a8","5f60e3c0a3b16e07647b2ff9","5f6380293b94e7068fc333dc","true","662","./Stimuli/ImagesPractice/SM61.jpg","83","","","","test","true","M + N","83","","SM","SM61.jpg","remember","old","28","2","practice_forget","left","","","",""
"html-keyboard-response","85","1466467","0.0-3.0-3.0-3.11","gmblaeyn52cyf2b","practice_cue","5f3ac1732efa0a74f975b1a8","5f60e3c0a3b16e07647b2ff9","5f6380293b94e7068fc333dc","false","null","<div style=""align-items: center; display: flex; color: dodgerblue; font-size: 90px""><b>o</b></div>","null","","","","forget_cue","","","","","","","","","","","","","","","",""
"html-keyboard-response","86","1467168","0.0-3.0-3.0-0.12","gmblaeyn52cyf2b","practice_cue","5f3ac1732efa0a74f975b1a8","5f60e3c0a3b16e07647b2ff9","5f6380293b94e7068fc333dc","false","null","<span style=""color: black; font-size: 48px"">M + N</span>","null","","","","resp_prompt","","","","","","","","","","","","","","","",""
"categorize-image","87","1467814","0.0-3.0-3.0-1.12","gmblaeyn52cyf2b","practice_cue","5f3ac1732efa0a74f975b1a8","5f60e3c0a3b16e07647b2ff9","5f6380293b94e7068fc333dc","true","643","./Stimuli/ImagesPractice/SN221.jpg","76","","","","test","true","M + N","76","","SN","SN221.jpg","forget","old","29","2","practice_forget","right","","","",""
"html-keyboard-response","88","1469816","0.0-3.0-3.0-3.12","gmblaeyn52cyf2b","practice_cue","5f3ac1732efa0a74f975b1a8","5f60e3c0a3b16e07647b2ff9","5f6380293b94e7068fc333dc","false","null","<div style=""align-items: center; display: flex; color: darkorange; font-size: 90px""><b>ø</b></div>","null","","","","forget_cue","","","","","","","","","","","","","","","",""
"html-keyboard-response","89","1470517","0.0-3.0-3.0-0.13","gmblaeyn52cyf2b","practice_cue","5f3ac1732efa0a74f975b1a8","5f60e3c0a3b16e07647b2ff9","5f6380293b94e7068fc333dc","false","null","<span style=""color: black; font-size: 48px"">N + M</span>","null","","","","resp_prompt","","","","","","","","","","","","","","","",""
"categorize-image","90","1471182","0.0-3.0-3.0-1.13","gmblaeyn52cyf2b","practice_cue","5f3ac1732efa0a74f975b1a8","5f60e3c0a3b16e07647b2ff9","5f6380293b94e7068fc333dc","true","662","./Stimuli/ImagesPractice/SN75.jpg","83","","","","test","true","N + M","83","","SN","SN75.jpg","remember","old","30","2","practice_forget","left","","","",""
"html-keyboard-response","91","1473183","0.0-3.0-3.0-3.13","gmblaeyn52cyf2b","practice_cue","5f3ac1732efa0a74f975b1a8","5f60e3c0a3b16e07647b2ff9","5f6380293b94e7068fc333dc","false","null","<div style=""align-items: center; display: flex; color: dodgerblue; font-size: 90px""><b>o</b></div>","null","","","","forget_cue","","","","","","","","","","","","","","","",""
"html-keyboard-response","92","1473884","0.0-3.0-3.0-0.14","gmblaeyn52cyf2b","practice_cue","5f3ac1732efa0a74f975b1a8","5f60e3c0a3b16e07647b2ff9","5f6380293b94e7068fc333dc","false","null","<span style=""color: black; font-size: 48px"">N + M</span>","null","","","","resp_prompt","","","","","","","","","","","","","","","",""
"categorize-image","93","1474552","0.0-3.0-3.0-1.14","gmblaeyn52cyf2b","practice_cue","5f3ac1732efa0a74f975b1a8","5f60e3c0a3b16e07647b2ff9","5f6380293b94e7068fc333dc","true","665","./Stimuli/ImagesPractice/SN222.jpg","83","","","","test","true","N + M","83","","SN","SN222.jpg","forget","old","31","2","practice_forget","left","","","",""
"html-keyboard-response","94","1476556","0.0-3.0-3.0-3.14","gmblaeyn52cyf2b","practice_cue","5f3ac1732efa0a74f975b1a8","5f60e3c0a3b16e07647b2ff9","5f6380293b94e7068fc333dc","false","null","<div style=""align-items: center; display: flex; color: darkorange; font-size: 90px""><b>ø</b></div>","null","","","","forget_cue","","","","","","","","","","","","","","","",""
"html-keyboard-response","95","1477258","0.0-3.0-3.0-0.15","gmblaeyn52cyf2b","practice_cue","5f3ac1732efa0a74f975b1a8","5f60e3c0a3b16e07647b2ff9","5f6380293b94e7068fc333dc","false","null","<span style=""color: black; font-size: 48px"">N + M</span>","null","","","","resp_prompt","","","","","","","","","","","","","","","",""
"categorize-image","96","1478184","0.0-3.0-3.0-1.15","gmblaeyn52cyf2b","practice_cue","5f3ac1732efa0a74f975b1a8","5f60e3c0a3b16e07647b2ff9","5f6380293b94e7068fc333dc","true","924","./Stimuli/ImagesPractice/SN220.jpg","83","","","","test","true","N + M","83","","SN","SN220.jpg","remember","old","32","2","practice_forget","left","","","",""
"html-keyboard-response","97","1480185","0.0-3.0-3.0-3.15","gmblaeyn52cyf2b","practice_cue","5f3ac1732efa0a74f975b1a8","5f60e3c0a3b16e07647b2ff9","5f6380293b94e7068fc333dc","false","null","<div style=""align-items: center; display: flex; color: dodgerblue; font-size: 90px""><b>o</b></div>","null","","","","forget_cue","","","","","","","","","","","","","","","",""
"html-keyboard-response","98","1481792","0.0-3.0-4.0","gmblaeyn52cyf2b","break","5f3ac1732efa0a74f975b1a8","5f60e3c0a3b16e07647b2ff9","5f6380293b94e7068fc333dc","false","1604","<p style='font-size: 32px;'>Break</><br><br><br><br><br><p style='font-size: 24px;'>In the last block, you committed 2 errors and did not respond in time on 1 trials.
</p><p style='font-size: 24px;'>Try to respond as fast and accurately as possible in the next block as well! </p><p style='font-size: 24px;'>Press SPACE to continue.</p>","32","","","","","","","","","","","","","","","","","","","",""
"html-keyboard-response","99","1482919","0.0-3.0-5.0","gmblaeyn52cyf2b","instructions","5f3ac1732efa0a74f975b1a8","5f60e3c0a3b16e07647b2ff9","5f6380293b94e7068fc333dc","false","1124","<div align=left> Now, to practice, we kindly ask you to remember as many of the to-be-remembered pictures<br>of the previous learning phase as possible.<br><br>The pictures you were instructed to remember were the pictures followed by a <span style='color: dodgerblue; font-size: 28px'>O</span>.<br><br>In this memory test phase, you will also see some new pictures.<br>It is your task to remember whether you were presented with this specific picture in this study so far or not.<br>If you recognize an object (you have already seen it in this study), it is an OLD object. <br>If you do not recognize an object (you have NOT seen it in this study), it is a NEW object. <br><strong> Attention</strong>: As already mentioned, <span style='color: darkorange; font-size:28px'>Ø</span>-pictures will <strong>never</strong> appear in this memory test (neither as new objects). <br><br>Press SPACE to continue. </div>","32","","","","","","","","","","","","","","","","","","","",""
"html-keyboard-response","100","1483802","0.0-3.0-6.0","gmblaeyn52cyf2b","instructions","5f3ac1732efa0a74f975b1a8","5f60e3c0a3b16e07647b2ff9","5f6380293b94e7068fc333dc","false","882","<div align=left> M and N no longer will appear on the left/right of the fixation cross. <br>Instead there will be a note at the bottom of the left or right side  <br>indicating which key you should press for an old or new object:  <br> <br>Press the <strong>right</strong> key to classify an object as <strong>old</strong> and press the <strong>left</strong>, to classify an object as <strong>new</strong>.<br>Please classify the objects as new/old by again placing your index finger on the 'S' and 'L' keys <br>and press them accordingly.<br><br><strong>Old:</strong> This object has been presented before. <br><strong>New:</strong> This object has <strong>not</strong> been presented.<br><br>Now please put your right and left index fingers on the 'S' and 'L' keys of your keyboard. <br>Please respond as fast and as accurately as possible!<br><br>Press SPACE to continue. </div>","32","","","","","","","","","","","","","","","","","","","",""
"categorize-image","101","1487599","0.0-3.0-7.0-0.0","gmblaeyn52cyf2b","practice_recog","5f3ac1732efa0a74f975b1a8","5f60e3c0a3b16e07647b2ff9","5f6380293b94e7068fc333dc","true","3294","./Stimuli/ImagesPractice/LM224.jpg","76","","","","test","true","","76","","LM","LM224.jpg","","new","33","3","practice_recog","right","","","",""
"categorize-image","102","1488902","0.0-3.0-7.0-0.1","gmblaeyn52cyf2b","practice_recog","5f3ac1732efa0a74f975b1a8","5f60e3c0a3b16e07647b2ff9","5f6380293b94e7068fc333dc","true","799","./Stimuli/ImagesPractice/LN17.jpg","83","","","","test","true","","83","","LN","LN17.jpg","","old","34","3","practice_recog","left","","","",""
"categorize-image","103","1490266","0.0-3.0-7.0-0.2","gmblaeyn52cyf2b","practice_recog","5f3ac1732efa0a74f975b1a8","5f60e3c0a3b16e07647b2ff9","5f6380293b94e7068fc333dc","true","862","./Stimuli/ImagesPractice/SN76.jpg","76","","","","test","true","","76","","SN","SN76.jpg","","new","35","3","practice_recog","right","","","",""
"categorize-image","104","1491433","0.0-3.0-7.0-0.3","gmblaeyn52cyf2b","practice_recog","5f3ac1732efa0a74f975b1a8","5f60e3c0a3b16e07647b2ff9","5f6380293b94e7068fc333dc","true","665","./Stimuli/ImagesPractice/LM239.jpg","83","","","","test","true","","83","","LM","LM239.jpg","","old","36","3","practice_recog","left","","","",""
"categorize-image","105","1492711","0.0-3.0-7.0-0.4","gmblaeyn52cyf2b","practice_recog","5f3ac1732efa0a74f975b1a8","5f60e3c0a3b16e07647b2ff9","5f6380293b94e7068fc333dc","true","777","./Stimuli/ImagesPractice/LN2.jpg","76","","","","test","true","","76","","LN","LN2.jpg","","new","37","3","practice_recog","right","","","",""
"categorize-image","106","1493831","0.0-3.0-7.0-0.5","gmblaeyn52cyf2b","practice_recog","5f3ac1732efa0a74f975b1a8","5f60e3c0a3b16e07647b2ff9","5f6380293b94e7068fc333dc","true","617","./Stimuli/ImagesPractice/SN205.jpg","83","","","","test","true","","83","","SN","SN205.jpg","","old","38","3","practice_recog","left","","","",""
"categorize-image","107","1495322","0.0-3.0-7.0-0.6","gmblaeyn52cyf2b","practice_recog","5f3ac1732efa0a74f975b1a8","5f60e3c0a3b16e07647b2ff9","5f6380293b94e7068fc333dc","true","988","./Stimuli/ImagesPractice/SM98.jpg","76","","","","test","true","","76","","SM","SM98.jpg","","new","39","3","practice_recog","right","","","",""
"categorize-image","108","1496415","0.0-3.0-7.0-0.7","gmblaeyn52cyf2b","practice_recog","5f3ac1732efa0a74f975b1a8","5f60e3c0a3b16e07647b2ff9","5f6380293b94e7068fc333dc","true","590","./Stimuli/ImagesPractice/SM61.jpg","83","","","","test","true","","83","","SM","SM61.jpg","","old","40","3","practice_recog","left","","","",""
"categorize-image","109","1497488","0.0-3.0-7.0-0.8","gmblaeyn52cyf2b","practice_recog","5f3ac1732efa0a74f975b1a8","5f60e3c0a3b16e07647b2ff9","5f6380293b94e7068fc333dc","true","570","./Stimuli/ImagesPractice/SM37.jpg","83","","","","test","true","","83","","SM","SM37.jpg","","old","41","3","practice_recog","left","","","",""
"categorize-image","110","1498738","0.0-3.0-7.0-0.9","gmblaeyn52cyf2b","practice_recog","5f3ac1732efa0a74f975b1a8","5f60e3c0a3b16e07647b2ff9","5f6380293b94e7068fc333dc","true","746","./Stimuli/ImagesPractice/LM147.jpg","76","","","","test","true","","76","","LM","LM147.jpg","","new","42","3","practice_recog","right","","","",""
"categorize-image","111","1500146","0.0-3.0-7.0-0.10","gmblaeyn52cyf2b","practice_recog","5f3ac1732efa0a74f975b1a8","5f60e3c0a3b16e07647b2ff9","5f6380293b94e7068fc333dc","true","907","./Stimuli/ImagesPractice/SM97.jpg","76","","","","test","true","","76","","SM","SM97.jpg","","new","43","3","practice_recog","right","","","",""
"categorize-image","112","1501318","0.0-3.0-7.0-0.11","gmblaeyn52cyf2b","practice_recog","5f3ac1732efa0a74f975b1a8","5f60e3c0a3b16e07647b2ff9","5f6380293b94e7068fc333dc","true","670","./Stimuli/ImagesPractice/LM55.jpg","76","","","","test","true","","76","","LM","LM55.jpg","","new","44","3","practice_recog","right","","","",""
"categorize-image","113","1502517","0.0-3.0-7.0-0.12","gmblaeyn52cyf2b","practice_recog","5f3ac1732efa0a74f975b1a8","5f60e3c0a3b16e07647b2ff9","5f6380293b94e7068fc333dc","true","681","./Stimuli/ImagesPractice/SM62.jpg","83","","","","test","true","","83","","SM","SM62.jpg","","old","45","3","practice_recog","left","","","",""
"categorize-image","114","1503684","0.0-3.0-7.0-0.13","gmblaeyn52cyf2b","practice_recog","5f3ac1732efa0a74f975b1a8","5f60e3c0a3b16e07647b2ff9","5f6380293b94e7068fc333dc","true","666","./Stimuli/ImagesPractice/LN72.jpg","76","","","","test","true","","76","","LN","LN72.jpg","","new","46","3","practice_recog","right","","","",""
"categorize-image","115","1504757","0.0-3.0-7.0-0.14","gmblaeyn52cyf2b","practice_recog","5f3ac1732efa0a74f975b1a8","5f60e3c0a3b16e07647b2ff9","5f6380293b94e7068fc333dc","true","569","./Stimuli/ImagesPractice/SN220.jpg","83","","","","test","true","","83","","SN","SN220.jpg","","old","47","3","practice_recog","left","","","",""
"categorize-image","116","1505839","0.0-3.0-7.0-0.15","gmblaeyn52cyf2b","practice_recog","5f3ac1732efa0a74f975b1a8","5f60e3c0a3b16e07647b2ff9","5f6380293b94e7068fc333dc","true","580","./Stimuli/ImagesPractice/SN75.jpg","83","","","","test","true","","83","","SN","SN75.jpg","","old","48","3","practice_recog","left","","","",""
"html-keyboard-response","117","1507202","0.0-3.0-8.0","gmblaeyn52cyf2b","instructions","5f3ac1732efa0a74f975b1a8","5f60e3c0a3b16e07647b2ff9","5f6380293b94e7068fc333dc","false","1361","<div align=left> Great!<br><br>Are you ready to continue?<br>If you want to reread the instructions and redo the practice trials, please <br>press „Z“.<br><br>You can proceed when you are ready.<br><br>After the presentation of each object, you will receive an instruction whether to <br>remember or to forget the object.<br>We will test your memory of the following pictures only at the very end of <br>the experiment after all learning blocks are completed. <br><br>Press SPACE to CONTINUE when you are ready. </div>","32","","","","","","","","","","","","","","","","","","","",""
"html-keyboard-response","118","1507926","0.0-4.0-0.0","gmblaeyn52cyf2b","instructions","5f3ac1732efa0a74f975b1a8","5f60e3c0a3b16e07647b2ff9","5f6380293b94e7068fc333dc","false","723","<div align=left> The actual experiment is about to start.<br>The practice trials are over!<br><br>Please always respond both fast and accurately!<br><br>Remember: <br> <br><li> Please place your index fingers on the <strong>'S'</strong> and <strong>'L'</strong> keys <br>to respond as fast and accurately as possible.</li><li> Every picture can be classified as either mechanical or non-mechanical.</li><li> If you do not respond in time or commit an error, you will receive a corresponding feedback.<br> Please try to respond as <strong> fast </strong> and as <strong> accurately as possible </strong>.</li><li> Remember the <span style='color: dodgerblue; font-size: 28px'>O</span> pictures. <br></li><li> Please minimize distractions and stay focused. </li><br><br>Press SPACE to START.</div>","32","","","","","","","","","","","","","","","","","","","",""
"html-keyboard-response","119","1508628","0.0-4.0-1.0-0.0","gmblaeyn52cyf2b","prime","5f3ac1732efa0a74f975b1a8","5f60e3c0a3b16e07647b2ff9","5f6380293b94e7068fc333dc","false","null","<span style=""color: black; font-size: 48px"">N + M</span>","null","","","","resp_prompt","","","","","","","","","","","","","","","",""
"categorize-image","120","1509898","0.0-4.0-1.0-1.0","gmblaeyn52cyf2b","prime","5f3ac1732efa0a74f975b1a8","5f60e3c0a3b16e07647b2ff9","5f6380293b94e7068fc333dc","true","1269","./Stimuli/SelectedImages/LN/LN150.bmp","76","","","","test","false","N + M","83","switch","LN","LN150.bmp","remember","","49","3","prime1","right","","","",""
"html-keyboard-response","121","1510400","0.0-4.0-1.0-2.0-0.0","gmblaeyn52cyf2b","prime","5f3ac1732efa0a74f975b1a8","5f60e3c0a3b16e07647b2ff9","5f6380293b94e7068fc333dc","false","null","<span style=""color: red; font-size: 48px"">Error!</span>","null","","","","feedback","","","","","","","","","","","","","","","",""
"html-keyboard-response","122","1512402","0.0-4.0-1.0-3.0","gmblaeyn52cyf2b","prime","5f3ac1732efa0a74f975b1a8","5f60e3c0a3b16e07647b2ff9","5f6380293b94e7068fc333dc","false","null","<div style=""align-items: center; display: flex; color: dodgerblue; font-size: 90px""><b>o</b></div>","null","","","","forget_cue","","","","","","","","","","","","","","","",""
"html-keyboard-response","123","1513103","0.0-4.0-1.0-0.1","gmblaeyn52cyf2b","prime","5f3ac1732efa0a74f975b1a8","5f60e3c0a3b16e07647b2ff9","5f6380293b94e7068fc333dc","false","null","<span style=""color: black; font-size: 48px"">N + M</span>","null","","","","resp_prompt","","","","","","","","","","","","","","","",""
"categorize-image","124","1514099","0.0-4.0-1.0-1.1","gmblaeyn52cyf2b","prime","5f3ac1732efa0a74f975b1a8","5f60e3c0a3b16e07647b2ff9","5f6380293b94e7068fc333dc","true","993","./Stimuli/SelectedImages/LN/LN111.bmp","83","","","","test","true","N + M","83","repetition","LN","LN111.bmp","forget","","50","3","prime1","left","","","",""
"html-keyboard-response","125","1516117","0.0-4.0-1.0-3.1","gmblaeyn52cyf2b","prime","5f3ac1732efa0a74f975b1a8","5f60e3c0a3b16e07647b2ff9","5f6380293b94e7068fc333dc","false","null","<div style=""align-items: center; display: flex; color: darkorange; font-size: 90px""><b>ø</b></div>","null","","","","forget_cue","","","","","","","","","","","","","","","",""
"html-keyboard-response","126","1516820","0.0-4.0-1.0-0.2","gmblaeyn52cyf2b","prime","5f3ac1732efa0a74f975b1a8","5f60e3c0a3b16e07647b2ff9","5f6380293b94e7068fc333dc","false","null","<span style=""color: black; font-size: 48px"">M + N</span>","null","","","","resp_prompt","","","","","","","","","","","","","","","",""
"categorize-image","127","1517610","0.0-4.0-1.0-1.2","gmblaeyn52cyf2b","prime","5f3ac1732efa0a74f975b1a8","5f60e3c0a3b16e07647b2ff9","5f6380293b94e7068fc333dc","true","790","./Stimuli/SelectedImages/SN/SN93.bmp","83","","","","test","false","M + N","76","switch","SN","SN93.bmp","remember","","51","3","prime1","left","","","",""
"html-keyboard-response","128","1518116","0.0-4.0-1.0-2.2-0.2","gmblaeyn52cyf2b","prime","5f3ac1732efa0a74f975b1a8","5f60e3c0a3b16e07647b2ff9","5f6380293b94e7068fc333dc","false","null","<span style=""color: red; font-size: 48px"">Error!</span>","null","","","","feedback","","","","","","","","","","","","","","","",""
"html-keyboard-response","129","1520127","0.0-4.0-1.0-3.2","gmblaeyn52cyf2b","prime","5f3ac1732efa0a74f975b1a8","5f60e3c0a3b16e07647b2ff9","5f6380293b94e7068fc333dc","false","null","<div style=""align-items: center; display: flex; color: dodgerblue; font-size: 90px""><b>o</b></div>","null","","","","forget_cue","","","","","","","","","","","","","","","",""
"html-keyboard-response","130","1520828","0.0-4.0-1.0-0.3","gmblaeyn52cyf2b","prime","5f3ac1732efa0a74f975b1a8","5f60e3c0a3b16e07647b2ff9","5f6380293b94e7068fc333dc","false","null","<span style=""color: black; font-size: 48px"">N + M</span>","null","","","","resp_prompt","","","","","","","","","","","","","","","",""
"categorize-image","131","1521764","0.0-4.0-1.0-1.3","gmblaeyn52cyf2b","prime","5f3ac1732efa0a74f975b1a8","5f60e3c0a3b16e07647b2ff9","5f6380293b94e7068fc333dc","true","935","./Stimuli/SelectedImages/LM/LM75.bmp","76","","","","test","true","N + M","76","switch","LM","LM75.bmp","remember","","52","3","prime1","right","","","",""
"html-keyboard-response","132","1523765","0.0-4.0-1.0-3.3","gmblaeyn52cyf2b","prime","5f3ac1732efa0a74f975b1a8","5f60e3c0a3b16e07647b2ff9","5f6380293b94e7068fc333dc","false","null","<div style=""align-items: center; display: flex; color: dodgerblue; font-size: 90px""><b>o</b></div>","null","","","","forget_cue","","","","","","","","","","","","","","","",""
"html-keyboard-response","133","1524467","0.0-4.0-1.0-0.4","gmblaeyn52cyf2b","prime","5f3ac1732efa0a74f975b1a8","5f60e3c0a3b16e07647b2ff9","5f6380293b94e7068fc333dc","false","null","<span style=""color: black; font-size: 48px"">M + N</span>","null","","","","resp_prompt","","","","","","","","","","","","","","","",""
"categorize-image","134","1525219","0.0-4.0-1.0-1.4","gmblaeyn52cyf2b","prime","5f3ac1732efa0a74f975b1a8","5f60e3c0a3b16e07647b2ff9","5f6380293b94e7068fc333dc","true","751","./Stimuli/SelectedImages/SN/SN64.bmp","76","","","","test","true","M + N","76","repetition","SN","SN64.bmp","forget","","53","3","prime1","right","","","",""
"html-keyboard-response","135","1527221","0.0-4.0-1.0-3.4","gmblaeyn52cyf2b","prime","5f3ac1732efa0a74f975b1a8","5f60e3c0a3b16e07647b2ff9","5f6380293b94e7068fc333dc","false","null","<div style=""align-items: center; display: flex; color: darkorange; font-size: 90px""><b>ø</b></div>","null","","","","forget_cue","","","","","","","","","","","","","","","",""
"html-keyboard-response","136","1527923","0.0-4.0-1.0-0.5","gmblaeyn52cyf2b","prime","5f3ac1732efa0a74f975b1a8","5f60e3c0a3b16e07647b2ff9","5f6380293b94e7068fc333dc","false","null","<span style=""color: black; font-size: 48px"">M + N</span>","null","","","","resp_prompt","","","","","","","","","","","","","","","",""
"categorize-image","137","1528855","0.0-4.0-1.0-1.5","gmblaeyn52cyf2b","prime","5f3ac1732efa0a74f975b1a8","5f60e3c0a3b16e07647b2ff9","5f6380293b94e7068fc333dc","true","929","./Stimuli/SelectedImages/SM/SM76.bmp","83","","","","test","true","M + N","83","switch","SM","SM76.bmp","forget","","54","3","prime1","left","","","",""
"html-keyboard-response","138","1530857","0.0-4.0-1.0-3.5","gmblaeyn52cyf2b","prime","5f3ac1732efa0a74f975b1a8","5f60e3c0a3b16e07647b2ff9","5f6380293b94e7068fc333dc","false","null","<div style=""align-items: center; display: flex; color: darkorange; font-size: 90px""><b>ø</b></div>","null","","","","forget_cue","","","","","","","","","","","","","","","",""
"html-keyboard-response","139","1531558","0.0-4.0-1.0-0.6","gmblaeyn52cyf2b","prime","5f3ac1732efa0a74f975b1a8","5f60e3c0a3b16e07647b2ff9","5f6380293b94e7068fc333dc","false","null","<span style=""color: black; font-size: 48px"">M + N</span>","null","","","","resp_prompt","","","","","","","","","","","","","","","",""
"categorize-image","140","1532559","0.0-4.0-1.0-1.6","gmblaeyn52cyf2b","prime","5f3ac1732efa0a74f975b1a8","5f60e3c0a3b16e07647b2ff9","5f6380293b94e7068fc333dc","true","999","./Stimuli/SelectedImages/LM/LM59.bmp","83","","","","test","true","M + N","83","switch","LM","LM59.bmp","remember","","55","3","prime1","left","","","",""
"html-keyboard-response","141","1534576","0.0-4.0-1.0-3.6","gmblaeyn52cyf2b","prime","5f3ac1732efa0a74f975b1a8","5f60e3c0a3b16e07647b2ff9","5f6380293b94e7068fc333dc","false","null","<div style=""align-items: center; display: flex; color: dodgerblue; font-size: 90px""><b>o</b></div>","null","","","","forget_cue","","","","","","","","","","","","","","","",""
"html-keyboard-response","142","1535277","0.0-4.0-1.0-0.7","gmblaeyn52cyf2b","prime","5f3ac1732efa0a74f975b1a8","5f60e3c0a3b16e07647b2ff9","5f6380293b94e7068fc333dc","false","null","<span style=""color: black; font-size: 48px"">M + N</span>","null","","","","resp_prompt","","","","","","","","","","","","","","","",""
"categorize-image","143","1536017","0.0-4.0-1.0-1.7","gmblaeyn52cyf2b","prime","5f3ac1732efa0a74f975b1a8","5f60e3c0a3b16e07647b2ff9","5f6380293b94e7068fc333dc","true","737","./Stimuli/SelectedImages/SM/SM78.bmp","83","","","","test","true","M + N","83","switch","SM","SM78.bmp","forget","","56","3","prime1","left","","","",""
"html-keyboard-response","144","1538018","0.0-4.0-1.0-3.7","gmblaeyn52cyf2b","prime","5f3ac1732efa0a74f975b1a8","5f60e3c0a3b16e07647b2ff9","5f6380293b94e7068fc333dc","false","null","<div style=""align-items: center; display: flex; color: darkorange; font-size: 90px""><b>ø</b></div>","null","","","","forget_cue","","","","","","","","","","","","","","","",""
"html-keyboard-response","145","1538736","0.0-4.0-1.0-0.8","gmblaeyn52cyf2b","prime","5f3ac1732efa0a74f975b1a8","5f60e3c0a3b16e07647b2ff9","5f6380293b94e7068fc333dc","false","null","<span style=""color: black; font-size: 48px"">N + M</span>","null","","","","resp_prompt","","","","","","","","","","","","","","","",""
"categorize-image","146","1540573","0.0-4.0-1.0-1.8","gmblaeyn52cyf2b","prime","5f3ac1732efa0a74f975b1a8","5f60e3c0a3b16e07647b2ff9","5f6380293b94e7068fc333dc","true","1836","./Stimuli/SelectedImages/LN/LN128.bmp","83","","","","test","true","N + M","83","switch","LN","LN128.bmp","remember","","57","3","prime1","left","","","",""
"html-keyboard-response","147","1542577","0.0-4.0-1.0-3.8","gmblaeyn52cyf2b","prime","5f3ac1732efa0a74f975b1a8","5f60e3c0a3b16e07647b2ff9","5f6380293b94e7068fc333dc","false","null","<div style=""align-items: center; display: flex; color: dodgerblue; font-size: 90px""><b>o</b></div>","null","","","","forget_cue","","","","","","","","","","","","","","","",""
"html-keyboard-response","148","1543278","0.0-4.0-1.0-0.9","gmblaeyn52cyf2b","prime","5f3ac1732efa0a74f975b1a8","5f60e3c0a3b16e07647b2ff9","5f6380293b94e7068fc333dc","false","null","<span style=""color: black; font-size: 48px"">M + N</span>","null","","","","resp_prompt","","","","","","","","","","","","","","","",""
"categorize-image","149","1544354","0.0-4.0-1.0-1.9","gmblaeyn52cyf2b","prime","5f3ac1732efa0a74f975b1a8","5f60e3c0a3b16e07647b2ff9","5f6380293b94e7068fc333dc","true","1075","./Stimuli/SelectedImages/SM/SM128.bmp","83","","","","test","true","M + N","83","repetition","SM","SM128.bmp","forget","","58","3","prime1","left","","","",""
"html-keyboard-response","150","1546357","0.0-4.0-1.0-3.9","gmblaeyn52cyf2b","prime","5f3ac1732efa0a74f975b1a8","5f60e3c0a3b16e07647b2ff9","5f6380293b94e7068fc333dc","false","null","<div style=""align-items: center; display: flex; color: darkorange; font-size: 90px""><b>ø</b></div>","null","","","","forget_cue","","","","","","","","","","","","","","","",""
"html-keyboard-response","151","1547077","0.0-4.0-1.0-0.10","gmblaeyn52cyf2b","prime","5f3ac1732efa0a74f975b1a8","5f60e3c0a3b16e07647b2ff9","5f6380293b94e7068fc333dc","false","null","<span style=""color: black; font-size: 48px"">N + M</span>","null","","","","resp_prompt","","","","","","","","","","","","","","","",""
"categorize-image","152","1547902","0.0-4.0-1.0-1.10","gmblaeyn52cyf2b","prime","5f3ac1732efa0a74f975b1a8","5f60e3c0a3b16e07647b2ff9","5f6380293b94e7068fc333dc","true","824","./Stimuli/SelectedImages/LM/LM48.bmp","76","","","","test","true","N + M","76","switch","LM","LM48.bmp","forget","","59","3","prime1","right","","","",""
"html-keyboard-response","153","1549903","0.0-4.0-1.0-3.10","gmblaeyn52cyf2b","prime","5f3ac1732efa0a74f975b1a8","5f60e3c0a3b16e07647b2ff9","5f6380293b94e7068fc333dc","false","null","<div style=""align-items: center; display: flex; color: darkorange; font-size: 90px""><b>ø</b></div>","null","","","","forget_cue","","","","","","","","","","","","","","","",""
"html-keyboard-response","154","1550616","0.0-4.0-1.0-0.11","gmblaeyn52cyf2b","prime","5f3ac1732efa0a74f975b1a8","5f60e3c0a3b16e07647b2ff9","5f6380293b94e7068fc333dc","false","null","<span style=""color: black; font-size: 48px"">M + N</span>","null","","","","resp_prompt","","","","","","","","","","","","","","","",""
"categorize-image","155","1551610","0.0-4.0-1.0-1.11","gmblaeyn52cyf2b","prime","5f3ac1732efa0a74f975b1a8","5f60e3c0a3b16e07647b2ff9","5f6380293b94e7068fc333dc","true","992","./Stimuli/SelectedImages/LN/LN82.bmp","76","","","","test","true","M + N","76","repetition","LN","LN82.bmp","forget","","60","3","prime1","right","","","",""
"html-keyboard-response","156","1553611","0.0-4.0-1.0-3.11","gmblaeyn52cyf2b","prime","5f3ac1732efa0a74f975b1a8","5f60e3c0a3b16e07647b2ff9","5f6380293b94e7068fc333dc","false","null","<div style=""align-items: center; display: flex; color: darkorange; font-size: 90px""><b>ø</b></div>","null","","","","forget_cue","","","","","","","","","","","","","","","",""
"html-keyboard-response","157","1554316","0.0-4.0-1.0-0.12","gmblaeyn52cyf2b","prime","5f3ac1732efa0a74f975b1a8","5f60e3c0a3b16e07647b2ff9","5f6380293b94e7068fc333dc","false","null","<span style=""color: black; font-size: 48px"">N + M</span>","null","","","","resp_prompt","","","","","","","","","","","","","","","",""
"categorize-image","158","1555209","0.0-4.0-1.0-1.12","gmblaeyn52cyf2b","prime","5f3ac1732efa0a74f975b1a8","5f60e3c0a3b16e07647b2ff9","5f6380293b94e7068fc333dc","true","889","./Stimuli/SelectedImages/SM/SM106.bmp","76","","","","test","true","N + M","76","switch","SM","SM106.bmp","forget","","61","3","prime1","right","","","",""
"html-keyboard-response","159","1557212","0.0-4.0-1.0-3.12","gmblaeyn52cyf2b","prime","5f3ac1732efa0a74f975b1a8","5f60e3c0a3b16e07647b2ff9","5f6380293b94e7068fc333dc","false","null","<div style=""align-items: center; display: flex; color: darkorange; font-size: 90px""><b>ø</b></div>","null","","","","forget_cue","","","","","","","","","","","","","","","",""
"html-keyboard-response","160","1557914","0.0-4.0-1.0-0.13","gmblaeyn52cyf2b","prime","5f3ac1732efa0a74f975b1a8","5f60e3c0a3b16e07647b2ff9","5f6380293b94e7068fc333dc","false","null","<span style=""color: black; font-size: 48px"">M + N</span>","null","","","","resp_prompt","","","","","","","","","","","","","","","",""
"categorize-image","161","1558709","0.0-4.0-1.0-1.13","gmblaeyn52cyf2b","prime","5f3ac1732efa0a74f975b1a8","5f60e3c0a3b16e07647b2ff9","5f6380293b94e7068fc333dc","true","793","./Stimuli/SelectedImages/LN/LN101.bmp","76","","","","test","true","M + N","76","switch","LN","LN101.bmp","forget","","62","3","prime1","right","","","",""
"html-keyboard-response","162","1560726","0.0-4.0-1.0-3.13","gmblaeyn52cyf2b","prime","5f3ac1732efa0a74f975b1a8","5f60e3c0a3b16e07647b2ff9","5f6380293b94e7068fc333dc","false","null","<div style=""align-items: center; display: flex; color: darkorange; font-size: 90px""><b>ø</b></div>","null","","","","forget_cue","","","","","","","","","","","","","","","",""
"html-keyboard-response","163","1561428","0.0-4.0-1.0-0.14","gmblaeyn52cyf2b","prime","5f3ac1732efa0a74f975b1a8","5f60e3c0a3b16e07647b2ff9","5f6380293b94e7068fc333dc","false","null","<span style=""color: black; font-size: 48px"">M + N</span>","null","","","","resp_prompt","","","","","","","","","","","","","","","",""
"categorize-image","164","1562259","0.0-4.0-1.0-1.14","gmblaeyn52cyf2b","prime","5f3ac1732efa0a74f975b1a8","5f60e3c0a3b16e07647b2ff9","5f6380293b94e7068fc333dc","true","827","./Stimuli/SelectedImages/LM/LM157.bmp","83","","","","test","true","M + N","83","repetition","LM","LM157.bmp","forget","","63","3","prime1","left","","","",""
"html-keyboard-response","165","1564277","0.0-4.0-1.0-3.14","gmblaeyn52cyf2b","prime","5f3ac1732efa0a74f975b1a8","5f60e3c0a3b16e07647b2ff9","5f6380293b94e7068fc333dc","false","null","<div style=""align-items: center; display: flex; color: darkorange; font-size: 90px""><b>ø</b></div>","null","","","","forget_cue","","","","","","","","","","","","","","","",""
"html-keyboard-response","166","1564997","0.0-4.0-1.0-0.15","gmblaeyn52cyf2b","prime","5f3ac1732efa0a74f975b1a8","5f60e3c0a3b16e07647b2ff9","5f6380293b94e7068fc333dc","false","null","<span style=""color: black; font-size: 48px"">M + N</span>","null","","","","resp_prompt","","","","","","","","","","","","","","","",""
"categorize-image","167","1565753","0.0-4.0-1.0-1.15","gmblaeyn52cyf2b","prime","5f3ac1732efa0a74f975b1a8","5f60e3c0a3b16e07647b2ff9","5f6380293b94e7068fc333dc","true","754","./Stimuli/SelectedImages/SN/SN155.bmp","76","","","","test","true","M + N","76","repetition","SN","SN155.bmp","forget","","64","3","prime1","right","","","",""
"html-keyboard-response","168","1567755","0.0-4.0-1.0-3.15","gmblaeyn52cyf2b","prime","5f3ac1732efa0a74f975b1a8","5f60e3c0a3b16e07647b2ff9","5f6380293b94e7068fc333dc","false","null","<div style=""align-items: center; display: flex; color: darkorange; font-size: 90px""><b>ø</b></div>","null","","","","forget_cue","","","","","","","","","","","","","","","",""
"html-keyboard-response","169","1568456","0.0-4.0-1.0-0.16","gmblaeyn52cyf2b","prime","5f3ac1732efa0a74f975b1a8","5f60e3c0a3b16e07647b2ff9","5f6380293b94e7068fc333dc","false","null","<span style=""color: black; font-size: 48px"">N + M</span>","null","","","","resp_prompt","","","","","","","","","","","","","","","",""
"categorize-image","170","1569243","0.0-4.0-1.0-1.16","gmblaeyn52cyf2b","prime","5f3ac1732efa0a74f975b1a8","5f60e3c0a3b16e07647b2ff9","5f6380293b94e7068fc333dc","true","785","./Stimuli/SelectedImages/LM/LM209.bmp","76","","","","test","true","N + M","76","repetition","LM","LM209.bmp","forget","","65","3","prime1","right","","","",""
"html-keyboard-response","171","1571243","0.0-4.0-1.0-3.16","gmblaeyn52cyf2b","prime","5f3ac1732efa0a74f975b1a8","5f60e3c0a3b16e07647b2ff9","5f6380293b94e7068fc333dc","false","null","<div style=""align-items: center; display: flex; color: darkorange; font-size: 90px""><b>ø</b></div>","null","","","","forget_cue","","","","","","","","","","","","","","","",""
"html-keyboard-response","172","1571944","0.0-4.0-1.0-0.17","gmblaeyn52cyf2b","prime","5f3ac1732efa0a74f975b1a8","5f60e3c0a3b16e07647b2ff9","5f6380293b94e7068fc333dc","false","null","<span style=""color: black; font-size: 48px"">N + M</span>","null","","","","resp_prompt","","","","","","","","","","","","","","","",""
"categorize-image","173","1573165","0.0-4.0-1.0-1.17","gmblaeyn52cyf2b","prime","5f3ac1732efa0a74f975b1a8","5f60e3c0a3b16e07647b2ff9","5f6380293b94e7068fc333dc","true","1219","./Stimuli/SelectedImages/LN/LN149.bmp","83","","","","test","true","N + M","83","repetition","LN","LN149.bmp","remember","","66","3","prime1","left","","","",""
"html-keyboard-response","174","1575177","0.0-4.0-1.0-3.17","gmblaeyn52cyf2b","prime","5f3ac1732efa0a74f975b1a8","5f60e3c0a3b16e07647b2ff9","5f6380293b94e7068fc333dc","false","null","<div style=""align-items: center; display: flex; color: dodgerblue; font-size: 90px""><b>o</b></div>","null","","","","forget_cue","","","","","","","","","","","","","","","",""
"html-keyboard-response","175","1575879","0.0-4.0-1.0-0.18","gmblaeyn52cyf2b","prime","5f3ac1732efa0a74f975b1a8","5f60e3c0a3b16e07647b2ff9","5f6380293b94e7068fc333dc","false","null","<span style=""color: black; font-size: 48px"">M + N</span>","null","","","","resp_prompt","","","","","","","","","","","","","","","",""
"categorize-image","176","1576463","0.0-4.0-1.0-1.18","gmblaeyn52cyf2b","prime","5f3ac1732efa0a74f975b1a8","5f60e3c0a3b16e07647b2ff9","5f6380293b94e7068fc333dc","true","583","./Stimuli/SelectedImages/SM/SM108.bmp","83","","","","test","true","M + N","83","switch","SM","SM108.bmp","remember","","67","3","prime1","left","","","",""
"html-keyboard-response","177","1578464","0.0-4.0-1.0-3.18","gmblaeyn52cyf2b","prime","5f3ac1732efa0a74f975b1a8","5f60e3c0a3b16e07647b2ff9","5f6380293b94e7068fc333dc","false","null","<div style=""align-items: center; display: flex; color: dodgerblue; font-size: 90px""><b>o</b></div>","null","","","","forget_cue","","","","","","","","","","","","","","","",""
"html-keyboard-response","178","1579176","0.0-4.0-1.0-0.19","gmblaeyn52cyf2b","prime","5f3ac1732efa0a74f975b1a8","5f60e3c0a3b16e07647b2ff9","5f6380293b94e7068fc333dc","false","null","<span style=""color: black; font-size: 48px"">N + M</span>","null","","","","resp_prompt","","","","","","","","","","","","","","","",""
"categorize-image","179","1580152","0.0-4.0-1.0-1.19","gmblaeyn52cyf2b","prime","5f3ac1732efa0a74f975b1a8","5f60e3c0a3b16e07647b2ff9","5f6380293b94e7068fc333dc","true","973","./Stimuli/SelectedImages/SN/SN60.bmp","83","","","","test","true","N + M","83","repetition","SN","SN60.bmp","remember","","68","3","prime1","left","","","",""
"html-keyboard-response","180","1582155","0.0-4.0-1.0-3.19","gmblaeyn52cyf2b","prime","5f3ac1732efa0a74f975b1a8","5f60e3c0a3b16e07647b2ff9","5f6380293b94e7068fc333dc","false","null","<div style=""align-items: center; display: flex; color: dodgerblue; font-size: 90px""><b>o</b></div>","null","","","","forget_cue","","","","","","","","","","","","","","","",""
"html-keyboard-response","181","1582876","0.0-4.0-1.0-0.20","gmblaeyn52cyf2b","prime","5f3ac1732efa0a74f975b1a8","5f60e3c0a3b16e07647b2ff9","5f6380293b94e7068fc333dc","false","null","<span style=""color: black; font-size: 48px"">N + M</span>","null","","","","resp_prompt","","","","","","","","","","","","","","","",""
"categorize-image","182","1583952","0.0-4.0-1.0-1.20","gmblaeyn52cyf2b","prime","5f3ac1732efa0a74f975b1a8","5f60e3c0a3b16e07647b2ff9","5f6380293b94e7068fc333dc","true","1066","./Stimuli/SelectedImages/LN/LN59.bmp","83","","","","test","true","N + M","83","repetition","LN","LN59.bmp","remember","","69","3","prime1","left","","","",""
"html-keyboard-response","183","1585954","0.0-4.0-1.0-3.20","gmblaeyn52cyf2b","prime","5f3ac1732efa0a74f975b1a8","5f60e3c0a3b16e07647b2ff9","5f6380293b94e7068fc333dc","false","null","<div style=""align-items: center; display: flex; color: dodgerblue; font-size: 90px""><b>o</b></div>","null","","","","forget_cue","","","","","","","","","","","","","","","",""
"html-keyboard-response","184","1586657","0.0-4.0-1.0-0.21","gmblaeyn52cyf2b","prime","5f3ac1732efa0a74f975b1a8","5f60e3c0a3b16e07647b2ff9","5f6380293b94e7068fc333dc","false","null","<span style=""color: black; font-size: 48px"">N + M</span>","null","","","","resp_prompt","","","","","","","","","","","","","","","",""
"categorize-image","185","1587592","0.0-4.0-1.0-1.21","gmblaeyn52cyf2b","prime","5f3ac1732efa0a74f975b1a8","5f60e3c0a3b16e07647b2ff9","5f6380293b94e7068fc333dc","true","933","./Stimuli/SelectedImages/SN/SN128.bmp","83","","","","test","true","N + M","83","switch","SN","SN128.bmp","forget","","70","3","prime1","left","","","",""
"html-keyboard-response","186","1589593","0.0-4.0-1.0-3.21","gmblaeyn52cyf2b","prime","5f3ac1732efa0a74f975b1a8","5f60e3c0a3b16e07647b2ff9","5f6380293b94e7068fc333dc","false","null","<div style=""align-items: center; display: flex; color: darkorange; font-size: 90px""><b>ø</b></div>","null","","","","forget_cue","","","","","","","","","","","","","","","",""
"html-keyboard-response","187","1590307","0.0-4.0-1.0-0.22","gmblaeyn52cyf2b","prime","5f3ac1732efa0a74f975b1a8","5f60e3c0a3b16e07647b2ff9","5f6380293b94e7068fc333dc","false","null","<span style=""color: black; font-size: 48px"">N + M</span>","null","","","","resp_prompt","","","","","","","","","","","","","","","",""
"categorize-image","188","1591289","0.0-4.0-1.0-1.22","gmblaeyn52cyf2b","prime","5f3ac1732efa0a74f975b1a8","5f60e3c0a3b16e07647b2ff9","5f6380293b94e7068fc333dc","true","979","./Stimuli/SelectedImages/SN/SN49.bmp","83","","","","test","true","N + M","83","repetition","SN","SN49.bmp","forget","","71","3","prime1","left","","","",""
"html-keyboard-response","189","1593291","0.0-4.0-1.0-3.22","gmblaeyn52cyf2b","prime","5f3ac1732efa0a74f975b1a8","5f60e3c0a3b16e07647b2ff9","5f6380293b94e7068fc333dc","false","null","<div style=""align-items: center; display: flex; color: darkorange; font-size: 90px""><b>ø</b></div>","null","","","","forget_cue","","","","","","","","","","","","","","","",""
"html-keyboard-response","190","1593992","0.0-4.0-1.0-0.23","gmblaeyn52cyf2b","prime","5f3ac1732efa0a74f975b1a8","5f60e3c0a3b16e07647b2ff9","5f6380293b94e7068fc333dc","false","null","<span style=""color: black; font-size: 48px"">M + N</span>","null","","","","resp_prompt","","","","","","","","","","","","","","","",""
"categorize-image","191","1594584","0.0-4.0-1.0-1.23","gmblaeyn52cyf2b","prime","5f3ac1732efa0a74f975b1a8","5f60e3c0a3b16e07647b2ff9","5f6380293b94e7068fc333dc","true","590","./Stimuli/SelectedImages/LN/LN12.bmp","76","","","","test","true","M + N","76","repetition","LN","LN12.bmp","forget","","72","3","prime1","right","","","",""
"html-keyboard-response","192","1596597","0.0-4.0-1.0-3.23","gmblaeyn52cyf2b","prime","5f3ac1732efa0a74f975b1a8","5f60e3c0a3b16e07647b2ff9","5f6380293b94e7068fc333dc","false","null","<div style=""align-items: center; display: flex; color: darkorange; font-size: 90px""><b>ø</b></div>","null","","","","forget_cue","","","","","","","","","","","","","","","",""
"html-keyboard-response","193","1597299","0.0-4.0-1.0-0.24","gmblaeyn52cyf2b","prime","5f3ac1732efa0a74f975b1a8","5f60e3c0a3b16e07647b2ff9","5f6380293b94e7068fc333dc","false","null","<span style=""color: black; font-size: 48px"">N + M</span>","null","","","","resp_prompt","","","","","","","","","","","","","","","",""
"categorize-image","194","1597953","0.0-4.0-1.0-1.24","gmblaeyn52cyf2b","prime","5f3ac1732efa0a74f975b1a8","5f60e3c0a3b16e07647b2ff9","5f6380293b94e7068fc333dc","true","653","./Stimuli/SelectedImages/SM/SM74.bmp","76","","","","test","true","N + M","76","repetition","SM","SM74.bmp","remember","","73","3","prime1","right","","","",""
"html-keyboard-response","195","1599955","0.0-4.0-1.0-3.24","gmblaeyn52cyf2b","prime","5f3ac1732efa0a74f975b1a8","5f60e3c0a3b16e07647b2ff9","5f6380293b94e7068fc333dc","false","null","<div style=""align-items: center; display: flex; color: dodgerblue; font-size: 90px""><b>o</b></div>","null","","","","forget_cue","","","","","","","","","","","","","","","",""
"html-keyboard-response","196","1600657","0.0-4.0-1.0-0.25","gmblaeyn52cyf2b","prime","5f3ac1732efa0a74f975b1a8","5f60e3c0a3b16e07647b2ff9","5f6380293b94e7068fc333dc","false","null","<span style=""color: black; font-size: 48px"">N + M</span>","null","","","","resp_prompt","","","","","","","","","","","","","","","",""
"categorize-image","197","1601492","0.0-4.0-1.0-1.25","gmblaeyn52cyf2b","prime","5f3ac1732efa0a74f975b1a8","5f60e3c0a3b16e07647b2ff9","5f6380293b94e7068fc333dc","true","833","./Stimuli/SelectedImages/SM/SM17.bmp","76","","","","test","true","N + M","76","switch","SM","SM17.bmp","remember","","74","3","prime1","right","","","",""
"html-keyboard-response","198","1603493","0.0-4.0-1.0-3.25","gmblaeyn52cyf2b","prime","5f3ac1732efa0a74f975b1a8","5f60e3c0a3b16e07647b2ff9","5f6380293b94e7068fc333dc","false","null","<div style=""align-items: center; display: flex; color: dodgerblue; font-size: 90px""><b>o</b></div>","null","","","","forget_cue","","","","","","","","","","","","","","","",""
"html-keyboard-response","199","1604195","0.0-4.0-1.0-0.26","gmblaeyn52cyf2b","prime","5f3ac1732efa0a74f975b1a8","5f60e3c0a3b16e07647b2ff9","5f6380293b94e7068fc333dc","false","null","<span style=""color: black; font-size: 48px"">N + M</span>","null","","","","resp_prompt","","","","","","","","","","","","","","","",""
"categorize-image","200","1604940","0.0-4.0-1.0-1.26","gmblaeyn52cyf2b","prime","5f3ac1732efa0a74f975b1a8","5f60e3c0a3b16e07647b2ff9","5f6380293b94e7068fc333dc","true","744","./Stimuli/SelectedImages/LM/LM179.bmp","76","","","","test","true","N + M","76","repetition","LM","LM179.bmp","forget","","75","3","prime1","right","","","",""
"html-keyboard-response","201","1606941","0.0-4.0-1.0-3.26","gmblaeyn52cyf2b","prime","5f3ac1732efa0a74f975b1a8","5f60e3c0a3b16e07647b2ff9","5f6380293b94e7068fc333dc","false","null","<div style=""align-items: center; display: flex; color: darkorange; font-size: 90px""><b>ø</b></div>","null","","","","forget_cue","","","","","","","","","","","","","","","",""
"html-keyboard-response","202","1607644","0.0-4.0-1.0-0.27","gmblaeyn52cyf2b","prime","5f3ac1732efa0a74f975b1a8","5f60e3c0a3b16e07647b2ff9","5f6380293b94e7068fc333dc","false","null","<span style=""color: black; font-size: 48px"">M + N</span>","null","","","","resp_prompt","","","","","","","","","","","","","","","",""
"categorize-image","203","1608597","0.0-4.0-1.0-1.27","gmblaeyn52cyf2b","prime","5f3ac1732efa0a74f975b1a8","5f60e3c0a3b16e07647b2ff9","5f6380293b94e7068fc333dc","true","951","./Stimuli/SelectedImages/SM/SM213.bmp","83","","","","test","true","M + N","83","repetition","SM","SM213.bmp","remember","","76","3","prime1","left","","","",""
"html-keyboard-response","204","1610599","0.0-4.0-1.0-3.27","gmblaeyn52cyf2b","prime","5f3ac1732efa0a74f975b1a8","5f60e3c0a3b16e07647b2ff9","5f6380293b94e7068fc333dc","false","null","<div style=""align-items: center; display: flex; color: dodgerblue; font-size: 90px""><b>o</b></div>","null","","","","forget_cue","","","","","","","","","","","","","","","",""
"html-keyboard-response","205","1611301","0.0-4.0-1.0-0.28","gmblaeyn52cyf2b","prime","5f3ac1732efa0a74f975b1a8","5f60e3c0a3b16e07647b2ff9","5f6380293b94e7068fc333dc","false","null","<span style=""color: black; font-size: 48px"">M + N</span>","null","","","","resp_prompt","","","","","","","","","","","","","","","",""
"categorize-image","206","1612365","0.0-4.0-1.0-1.28","gmblaeyn52cyf2b","prime","5f3ac1732efa0a74f975b1a8","5f60e3c0a3b16e07647b2ff9","5f6380293b94e7068fc333dc","true","1062","./Stimuli/SelectedImages/LM/LM58.bmp","83","","","","test","true","M + N","83","switch","LM","LM58.bmp","forget","","77","3","prime1","left","","","",""
"html-keyboard-response","207","1614366","0.0-4.0-1.0-3.28","gmblaeyn52cyf2b","prime","5f3ac1732efa0a74f975b1a8","5f60e3c0a3b16e07647b2ff9","5f6380293b94e7068fc333dc","false","null","<div style=""align-items: center; display: flex; color: darkorange; font-size: 90px""><b>ø</b></div>","null","","","","forget_cue","","","","","","","","","","","","","","","",""
"html-keyboard-response","208","1615067","0.0-4.0-1.0-0.29","gmblaeyn52cyf2b","prime","5f3ac1732efa0a74f975b1a8","5f60e3c0a3b16e07647b2ff9","5f6380293b94e7068fc333dc","false","null","<span style=""color: black; font-size: 48px"">M + N</span>","null","","","","resp_prompt","","","","","","","","","","","","","","","",""
"categorize-image","209","1615876","0.0-4.0-1.0-1.29","gmblaeyn52cyf2b","prime","5f3ac1732efa0a74f975b1a8","5f60e3c0a3b16e07647b2ff9","5f6380293b94e7068fc333dc","true","806","./Stimuli/SelectedImages/LN/LN28.bmp","76","","","","test","true","M + N","76","switch","LN","LN28.bmp","remember","","78","3","prime1","right","","","",""
"html-keyboard-response","210","1617877","0.0-4.0-1.0-3.29","gmblaeyn52cyf2b","prime","5f3ac1732efa0a74f975b1a8","5f60e3c0a3b16e07647b2ff9","5f6380293b94e7068fc333dc","false","null","<div style=""align-items: center; display: flex; color: dodgerblue; font-size: 90px""><b>o</b></div>","null","","","","forget_cue","","","","","","","","","","","","","","","",""
"html-keyboard-response","211","1618596","0.0-4.0-1.0-0.30","gmblaeyn52cyf2b","prime","5f3ac1732efa0a74f975b1a8","5f60e3c0a3b16e07647b2ff9","5f6380293b94e7068fc333dc","false","null","<span style=""color: black; font-size: 48px"">N + M</span>","null","","","","resp_prompt","","","","","","","","","","","","","","","",""
"categorize-image","212","1619319","0.0-4.0-1.0-1.30","gmblaeyn52cyf2b","prime","5f3ac1732efa0a74f975b1a8","5f60e3c0a3b16e07647b2ff9","5f6380293b94e7068fc333dc","true","719","./Stimuli/SelectedImages/SM/SM200.bmp","76","","","","test","true","N + M","76","repetition","SM","SM200.bmp","remember","","79","3","prime1","right","","","",""
"html-keyboard-response","213","1621320","0.0-4.0-1.0-3.30","gmblaeyn52cyf2b","prime","5f3ac1732efa0a74f975b1a8","5f60e3c0a3b16e07647b2ff9","5f6380293b94e7068fc333dc","false","null","<div style=""align-items: center; display: flex; color: dodgerblue; font-size: 90px""><b>o</b></div>","null","","","","forget_cue","","","","","","","","","","","","","","","",""
"html-keyboard-response","214","1622021","0.0-4.0-1.0-0.31","gmblaeyn52cyf2b","prime","5f3ac1732efa0a74f975b1a8","5f60e3c0a3b16e07647b2ff9","5f6380293b94e7068fc333dc","false","null","<span style=""color: black; font-size: 48px"">N + M</span>","null","","","","resp_prompt","","","","","","","","","","","","","","","",""
"categorize-image","215","1622669","0.0-4.0-1.0-1.31","gmblaeyn52cyf2b","prime","5f3ac1732efa0a74f975b1a8","5f60e3c0a3b16e07647b2ff9","5f6380293b94e7068fc333dc","true","646","./Stimuli/SelectedImages/SN/SN187.bmp","83","","","","test","true","N + M","83","switch","SN","SN187.bmp","forget","","80","3","prime1","left","","","",""
"html-keyboard-response","216","1624671","0.0-4.0-1.0-3.31","gmblaeyn52cyf2b","prime","5f3ac1732efa0a74f975b1a8","5f60e3c0a3b16e07647b2ff9","5f6380293b94e7068fc333dc","false","null","<div style=""align-items: center; display: flex; color: darkorange; font-size: 90px""><b>ø</b></div>","null","","","","forget_cue","","","","","","","","","","","","","","","",""
"html-keyboard-response","217","1625373","0.0-4.0-1.0-0.32","gmblaeyn52cyf2b","prime","5f3ac1732efa0a74f975b1a8","5f60e3c0a3b16e07647b2ff9","5f6380293b94e7068fc333dc","false","null","<span style=""color: black; font-size: 48px"">M + N</span>","null","","","","resp_prompt","","","","","","","","","","","","","","","",""
"categorize-image","218","1626012","0.0-4.0-1.0-1.32","gmblaeyn52cyf2b","prime","5f3ac1732efa0a74f975b1a8","5f60e3c0a3b16e07647b2ff9","5f6380293b94e7068fc333dc","true","637","./Stimuli/SelectedImages/SM/SM73.bmp","83","","","","test","true","M + N","83","switch","SM","SM73.bmp","remember","","81","3","prime1","left","","","",""
"html-keyboard-response","219","1628013","0.0-4.0-1.0-3.32","gmblaeyn52cyf2b","prime","5f3ac1732efa0a74f975b1a8","5f60e3c0a3b16e07647b2ff9","5f6380293b94e7068fc333dc","false","null","<div style=""align-items: center; display: flex; color: dodgerblue; font-size: 90px""><b>o</b></div>","null","","","","forget_cue","","","","","","","","","","","","","","","",""
"html-keyboard-response","220","1628715","0.0-4.0-1.0-0.33","gmblaeyn52cyf2b","prime","5f3ac1732efa0a74f975b1a8","5f60e3c0a3b16e07647b2ff9","5f6380293b94e7068fc333dc","false","null","<span style=""color: black; font-size: 48px"">N + M</span>","null","","","","resp_prompt","","","","","","","","","","","","","","","",""
"categorize-image","221","1629333","0.0-4.0-1.0-1.33","gmblaeyn52cyf2b","prime","5f3ac1732efa0a74f975b1a8","5f60e3c0a3b16e07647b2ff9","5f6380293b94e7068fc333dc","true","617","./Stimuli/SelectedImages/SM/SM195.bmp","76","","","","test","true","N + M","76","repetition","SM","SM195.bmp","forget","","82","3","prime1","right","","","",""
"html-keyboard-response","222","1631335","0.0-4.0-1.0-3.33","gmblaeyn52cyf2b","prime","5f3ac1732efa0a74f975b1a8","5f60e3c0a3b16e07647b2ff9","5f6380293b94e7068fc333dc","false","null","<div style=""align-items: center; display: flex; color: darkorange; font-size: 90px""><b>ø</b></div>","null","","","","forget_cue","","","","","","","","","","","","","","","",""
"html-keyboard-response","223","1632036","0.0-4.0-1.0-0.34","gmblaeyn52cyf2b","prime","5f3ac1732efa0a74f975b1a8","5f60e3c0a3b16e07647b2ff9","5f6380293b94e7068fc333dc","false","null","<span style=""color: black; font-size: 48px"">N + M</span>","null","","","","resp_prompt","","","","","","","","","","","","","","","",""
"categorize-image","224","1632773","0.0-4.0-1.0-1.34","gmblaeyn52cyf2b","prime","5f3ac1732efa0a74f975b1a8","5f60e3c0a3b16e07647b2ff9","5f6380293b94e7068fc333dc","true","733","./Stimuli/SelectedImages/SN/SN240.bmp","83","","","","test","true","N + M","83","repetition","SN","SN240.bmp","forget","","83","3","prime1","left","","","",""
"html-keyboard-response","225","1634776","0.0-4.0-1.0-3.34","gmblaeyn52cyf2b","prime","5f3ac1732efa0a74f975b1a8","5f60e3c0a3b16e07647b2ff9","5f6380293b94e7068fc333dc","false","null","<div style=""align-items: center; display: flex; color: darkorange; font-size: 90px""><b>ø</b></div>","null","","","","forget_cue","","","","","","","","","","","","","","","",""
"html-keyboard-response","226","1635479","0.0-4.0-1.0-0.35","gmblaeyn52cyf2b","prime","5f3ac1732efa0a74f975b1a8","5f60e3c0a3b16e07647b2ff9","5f6380293b94e7068fc333dc","false","null","<span style=""color: black; font-size: 48px"">M + N</span>","null","","","","resp_prompt","","","","","","","","","","","","","","","",""
"categorize-image","227","1636243","0.0-4.0-1.0-1.35","gmblaeyn52cyf2b","prime","5f3ac1732efa0a74f975b1a8","5f60e3c0a3b16e07647b2ff9","5f6380293b94e7068fc333dc","true","762","./Stimuli/SelectedImages/SN/SN111.bmp","76","","","","test","true","M + N","76","switch","SN","SN111.bmp","forget","","84","3","prime1","right","","","",""
"html-keyboard-response","228","1638245","0.0-4.0-1.0-3.35","gmblaeyn52cyf2b","prime","5f3ac1732efa0a74f975b1a8","5f60e3c0a3b16e07647b2ff9","5f6380293b94e7068fc333dc","false","null","<div style=""align-items: center; display: flex; color: darkorange; font-size: 90px""><b>ø</b></div>","null","","","","forget_cue","","","","","","","","","","","","","","","",""
"html-keyboard-response","229","1638946","0.0-4.0-1.0-0.36","gmblaeyn52cyf2b","prime","5f3ac1732efa0a74f975b1a8","5f60e3c0a3b16e07647b2ff9","5f6380293b94e7068fc333dc","false","null","<span style=""color: black; font-size: 48px"">M + N</span>","null","","","","resp_prompt","","","","","","","","","","","","","","","",""
"categorize-image","230","1639589","0.0-4.0-1.0-1.36","gmblaeyn52cyf2b","prime","5f3ac1732efa0a74f975b1a8","5f60e3c0a3b16e07647b2ff9","5f6380293b94e7068fc333dc","true","640","./Stimuli/SelectedImages/LM/LM57.bmp","83","","","","test","true","M + N","83","switch","LM","LM57.bmp","remember","","85","3","prime1","left","","","",""
"html-keyboard-response","231","1641591","0.0-4.0-1.0-3.36","gmblaeyn52cyf2b","prime","5f3ac1732efa0a74f975b1a8","5f60e3c0a3b16e07647b2ff9","5f6380293b94e7068fc333dc","false","null","<div style=""align-items: center; display: flex; color: dodgerblue; font-size: 90px""><b>o</b></div>","null","","","","forget_cue","","","","","","","","","","","","","","","",""
"html-keyboard-response","232","1642292","0.0-4.0-1.0-0.37","gmblaeyn52cyf2b","prime","5f3ac1732efa0a74f975b1a8","5f60e3c0a3b16e07647b2ff9","5f6380293b94e7068fc333dc","false","null","<span style=""color: black; font-size: 48px"">M + N</span>","null","","","","resp_prompt","","","","","","","","","","","","","","","",""
"categorize-image","233","1642980","0.0-4.0-1.0-1.37","gmblaeyn52cyf2b","prime","5f3ac1732efa0a74f975b1a8","5f60e3c0a3b16e07647b2ff9","5f6380293b94e7068fc333dc","true","687","./Stimuli/SelectedImages/LN/LN13.bmp","76","","","","test","true","M + N","76","switch","LN","LN13.bmp","forget","","86","3","prime1","right","","","",""
"html-keyboard-response","234","1644986","0.0-4.0-1.0-3.37","gmblaeyn52cyf2b","prime","5f3ac1732efa0a74f975b1a8","5f60e3c0a3b16e07647b2ff9","5f6380293b94e7068fc333dc","false","null","<div style=""align-items: center; display: flex; color: darkorange; font-size: 90px""><b>ø</b></div>","null","","","","forget_cue","","","","","","","","","","","","","","","",""
"html-keyboard-response","235","1645689","0.0-4.0-1.0-0.38","gmblaeyn52cyf2b","prime","5f3ac1732efa0a74f975b1a8","5f60e3c0a3b16e07647b2ff9","5f6380293b94e7068fc333dc","false","null","<span style=""color: black; font-size: 48px"">N + M</span>","null","","","","resp_prompt","","","","","","","","","","","","","","","",""
"categorize-image","236","1646540","0.0-4.0-1.0-1.38","gmblaeyn52cyf2b","prime","5f3ac1732efa0a74f975b1a8","5f60e3c0a3b16e07647b2ff9","5f6380293b94e7068fc333dc","true","849","./Stimuli/SelectedImages/LN/LN42.bmp","83","","","","test","true","N + M","83","switch","LN","LN42.bmp","forget","","87","3","prime1","left","","","",""
"html-keyboard-response","237","1648556","0.0-4.0-1.0-3.38","gmblaeyn52cyf2b","prime","5f3ac1732efa0a74f975b1a8","5f60e3c0a3b16e07647b2ff9","5f6380293b94e7068fc333dc","false","null","<div style=""align-items: center; display: flex; color: darkorange; font-size: 90px""><b>ø</b></div>","null","","","","forget_cue","","","","","","","","","","","","","","","",""
"html-keyboard-response","238","1649258","0.0-4.0-1.0-0.39","gmblaeyn52cyf2b","prime","5f3ac1732efa0a74f975b1a8","5f60e3c0a3b16e07647b2ff9","5f6380293b94e7068fc333dc","false","null","<span style=""color: black; font-size: 48px"">N + M</span>","null","","","","resp_prompt","","","","","","","","","","","","","","","",""
"categorize-image","239","1650089","0.0-4.0-1.0-1.39","gmblaeyn52cyf2b","prime","5f3ac1732efa0a74f975b1a8","5f60e3c0a3b16e07647b2ff9","5f6380293b94e7068fc333dc","true","829","./Stimuli/SelectedImages/SM/SM24.bmp","76","","","","test","true","N + M","76","repetition","SM","SM24.bmp","forget","","88","3","prime1","right","","","",""
"html-keyboard-response","240","1652091","0.0-4.0-1.0-3.39","gmblaeyn52cyf2b","prime","5f3ac1732efa0a74f975b1a8","5f60e3c0a3b16e07647b2ff9","5f6380293b94e7068fc333dc","false","null","<div style=""align-items: center; display: flex; color: darkorange; font-size: 90px""><b>ø</b></div>","null","","","","forget_cue","","","","","","","","","","","","","","","",""
"html-keyboard-response","241","1652807","0.0-4.0-1.0-0.40","gmblaeyn52cyf2b","prime","5f3ac1732efa0a74f975b1a8","5f60e3c0a3b16e07647b2ff9","5f6380293b94e7068fc333dc","false","null","<span style=""color: black; font-size: 48px"">N + M</span>","null","","","","resp_prompt","","","","","","","","","","","","","","","",""
"categorize-image","242","1653477","0.0-4.0-1.0-1.40","gmblaeyn52cyf2b","prime","5f3ac1732efa0a74f975b1a8","5f60e3c0a3b16e07647b2ff9","5f6380293b94e7068fc333dc","true","668","./Stimuli/SelectedImages/LM/LM150.bmp","76","","","","test","true","N + M","76","switch","LM","LM150.bmp","forget","","89","3","prime1","right","","","",""
"html-keyboard-response","243","1655479","0.0-4.0-1.0-3.40","gmblaeyn52cyf2b","prime","5f3ac1732efa0a74f975b1a8","5f60e3c0a3b16e07647b2ff9","5f6380293b94e7068fc333dc","false","null","<div style=""align-items: center; display: flex; color: darkorange; font-size: 90px""><b>ø</b></div>","null","","","","forget_cue","","","","","","","","","","","","","","","",""
"html-keyboard-response","244","1656197","0.0-4.0-1.0-0.41","gmblaeyn52cyf2b","prime","5f3ac1732efa0a74f975b1a8","5f60e3c0a3b16e07647b2ff9","5f6380293b94e7068fc333dc","false","null","<span style=""color: black; font-size: 48px"">M + N</span>","null","","","","resp_prompt","","","","","","","","","","","","","","","",""
"categorize-image","245","1656883","0.0-4.0-1.0-1.41","gmblaeyn52cyf2b","prime","5f3ac1732efa0a74f975b1a8","5f60e3c0a3b16e07647b2ff9","5f6380293b94e7068fc333dc","true","684","./Stimuli/SelectedImages/SM/SM148.bmp","76","","","","test","false","M + N","83","repetition","SM","SM148.bmp","remember","","90","3","prime1","right","","","",""
"html-keyboard-response","246","1657384","0.0-4.0-1.0-2.41-0.41","gmblaeyn52cyf2b","prime","5f3ac1732efa0a74f975b1a8","5f60e3c0a3b16e07647b2ff9","5f6380293b94e7068fc333dc","false","null","<span style=""color: red; font-size: 48px"">Error!</span>","null","","","","feedback","","","","","","","","","","","","","","","",""
"html-keyboard-response","247","1659385","0.0-4.0-1.0-3.41","gmblaeyn52cyf2b","prime","5f3ac1732efa0a74f975b1a8","5f60e3c0a3b16e07647b2ff9","5f6380293b94e7068fc333dc","false","null","<div style=""align-items: center; display: flex; color: dodgerblue; font-size: 90px""><b>o</b></div>","null","","","","forget_cue","","","","","","","","","","","","","","","",""
"html-keyboard-response","248","1660086","0.0-4.0-1.0-0.42","gmblaeyn52cyf2b","prime","5f3ac1732efa0a74f975b1a8","5f60e3c0a3b16e07647b2ff9","5f6380293b94e7068fc333dc","false","null","<span style=""color: black; font-size: 48px"">M + N</span>","null","","","","resp_prompt","","","","","","","","","","","","","","","",""
"categorize-image","249","1660840","0.0-4.0-1.0-1.42","gmblaeyn52cyf2b","prime","5f3ac1732efa0a74f975b1a8","5f60e3c0a3b16e07647b2ff9","5f6380293b94e7068fc333dc","true","751","./Stimuli/SelectedImages/SN/SN181.bmp","76","","","","test","true","M + N","76","repetition","SN","SN181.bmp","remember","","91","3","prime1","right","","","",""
"html-keyboard-response","250","1662841","0.0-4.0-1.0-3.42","gmblaeyn52cyf2b","prime","5f3ac1732efa0a74f975b1a8","5f60e3c0a3b16e07647b2ff9","5f6380293b94e7068fc333dc","false","null","<div style=""align-items: center; display: flex; color: dodgerblue; font-size: 90px""><b>o</b></div>","null","","","","forget_cue","","","","","","","","","","","","","","","",""
"html-keyboard-response","251","1663556","0.0-4.0-1.0-0.43","gmblaeyn52cyf2b","prime","5f3ac1732efa0a74f975b1a8","5f60e3c0a3b16e07647b2ff9","5f6380293b94e7068fc333dc","false","null","<span style=""color: black; font-size: 48px"">N + M</span>","null","","","","resp_prompt","","","","","","","","","","","","","","","",""
"categorize-image","252","1664197","0.0-4.0-1.0-1.43","gmblaeyn52cyf2b","prime","5f3ac1732efa0a74f975b1a8","5f60e3c0a3b16e07647b2ff9","5f6380293b94e7068fc333dc","true","639","./Stimuli/SelectedImages/LN/LN92.bmp","83","","","","test","true","N + M","83","switch","LN","LN92.bmp","forget","","92","3","prime1","left","","","",""
"html-keyboard-response","253","1666199","0.0-4.0-1.0-3.43","gmblaeyn52cyf2b","prime","5f3ac1732efa0a74f975b1a8","5f60e3c0a3b16e07647b2ff9","5f6380293b94e7068fc333dc","false","null","<div style=""align-items: center; display: flex; color: darkorange; font-size: 90px""><b>ø</b></div>","null","","","","forget_cue","","","","","","","","","","","","","","","",""
"html-keyboard-response","254","1666901","0.0-4.0-1.0-0.44","gmblaeyn52cyf2b","prime","5f3ac1732efa0a74f975b1a8","5f60e3c0a3b16e07647b2ff9","5f6380293b94e7068fc333dc","false","null","<span style=""color: black; font-size: 48px"">N + M</span>","null","","","","resp_prompt","","","","","","","","","","","","","","","",""
"categorize-image","255","1667522","0.0-4.0-1.0-1.44","gmblaeyn52cyf2b","prime","5f3ac1732efa0a74f975b1a8","5f60e3c0a3b16e07647b2ff9","5f6380293b94e7068fc333dc","true","617","./Stimuli/SelectedImages/SN/SN140.bmp","83","","","","test","true","N + M","83","switch","SN","SN140.bmp","remember","","93","3","prime1","left","","","",""
"html-keyboard-response","256","1669527","0.0-4.0-1.0-3.44","gmblaeyn52cyf2b","prime","5f3ac1732efa0a74f975b1a8","5f60e3c0a3b16e07647b2ff9","5f6380293b94e7068fc333dc","false","null","<div style=""align-items: center; display: flex; color: dodgerblue; font-size: 90px""><b>o</b></div>","null","","","","forget_cue","","","","","","","","","","","","","","","",""
