"trial_type","trial_index","time_elapsed","internal_node_id","subject","exp_part","prolific_PID","study_ID","session_ID","use","rt","stimulus","key_press","button_pressed","responses","question_order","trial_part","correct","resp_map","correct_resp","probe_condition","category","image","forget_condition","list","trial_num","block_num","block","response","test_part","n_span","sequence","num_spaces"
"pavlovia","0","3","0.0-0.0","flzg8gbj8znzz7n","","5f54dec7364a0485d880f139","5f60e3c0a3b16e07647b2ff9","5f61dbfc02dd8903b59a8ae3","false","","","","","","","","","","","","","","","","","","","","","","",""
"html-keyboard-response","1","15715","0.0-1.0-0.0-0.0","flzg8gbj8znzz7n","welcome","5f54dec7364a0485d880f139","5f60e3c0a3b16e07647b2ff9","5f61dbfc02dd8903b59a8ae3","false","15709.830000065267","<div align=left>Dear participant, <br> thank you for participating in an online study of the Cognition, Action, and Sustainability Unit of the University of Freiburg! <br> <br>The aim of this study is to examine our ability to remember previously learned information. <br>Our goal is to find out, whether our memory improves, when we only remember information that is relevant to us. <br>The experiment will take about 35 minutes to complete. <br> <br>Please, note that you can only participate in this study if you are using a device with a keyboard (PC, Laptop etc.) <br>and not if you are using a mobile device such as a tablet or smartphone.<br> <br>Press 'SPACE' to proceed to the experiment. </div>","32","","","","","","","","","","","","","","","","","","","",""
"html-keyboard-response","2","40089","0.0-1.0-0.0-1.0","flzg8gbj8znzz7n","welcome","5f54dec7364a0485d880f139","5f60e3c0a3b16e07647b2ff9","5f61dbfc02dd8903b59a8ae3","false","24372.10999999661","<div align=left><strong> Time Course of this experiment: </strong> <br><br> <strong> 1.</strong>  First, please fill in some information regarding your demographic data. <br><br> <strong> 2.</strong>  Next, your task will be to classify everyday objects. <br>In addition, you will be asked to remember certain objects and recall them later. <br>Working on these tasks requires your undivided attention and concentration.<br>It is therefore essential that you eliminate any sources of distraction in your  <br>environment and ensure that you will not be disturbed. <br><br><strong> 3.</strong>  At the end of the experiment, you will be asked to answer a few additional questions. <br> <br><strong> Important:</strong> After finishing the experiment, only close the browser window <br> by clicking on the 'end the experiment'-button when you are asked to do so. <br>Closing the browser window prematurely will make the allocation of your participation credit impossible. <br><br> Press 'SPACE' to start the experiment. </div>","32","","","","","","","","","","","","","","","","","","","",""
"html-button-response","3","76949","0.0-1.0-0.0-2.0","flzg8gbj8znzz7n","welcome","5f54dec7364a0485d880f139","5f60e3c0a3b16e07647b2ff9","5f61dbfc02dd8903b59a8ae3","true","36857.11999994237","<div align=left><strong> Informed consent </strong>  <br>The aim of our research is to better understand human behavior and mental processes. <br>In the following study your behavior (e.g. choices, reaction times) will be studied. <br> <br><strong> Voluntariness and Anonymity </strong> <br>Your participation in this study is  <strong> voluntary</strong>.<br>You may withdraw your consent to participate at any time without providing a reason for doing so and without fear of prejudice. <br><br>As no personal data will be collected, <strong>your data and your person cannot be connected after data collection</strong> – the data-set is anonymous. <br>Respectively, deletion of your data will not be possible after data collection has been completed, as we cannot retrace your data-set.<br>The results and anonymized data collected in this study will be published as a scientific publication. <br>This will happen in an <strong>anonymized format</strong>, so that no data can be traced back to a specific person. <br> <br>The anonymized data of this study will be made available to other researchers and/or in a data archive on the Internet as a means of transparency and to enable subsequent re-use. By doing so, this study follows the recommendations of the Deutsche Forschungsgemeinschaft (DFG, German Research Foundation) and Deutsche Gesellschaft für Psychologie (DGPS, German Psychological Society) regarding quality assurance in research.<br>If you have any questions now or after the experiment, please contact our team (experiments@cs.uni-freiburg.de).<br><br><br>I hereby declare, that I understand the above described conditions of participation and I agree to participate under these conditions. <br><br> </div>","","0","","","","","","","","","","","","","","","","","","",""
"html-keyboard-response","4","103277","0.0-1.0-0.0-3.0","flzg8gbj8znzz7n","welcome","5f54dec7364a0485d880f139","5f60e3c0a3b16e07647b2ff9","5f61dbfc02dd8903b59a8ae3","false","26326.445000013337","<div align=left><strong> General information concerning the experiment </strong>  <br> <br>Please follow the instructions:<ol> <li><strong> Do not leave this tab (your browser window) during the experiment and do not reload this tab! </strong>  <br>If you do switch tabs/windows during the experiment (to check your mail or visit another website, for example), <br>the experiment will end automatically and you will <strong>not receive credit</strong> for your participation. <br>Repeated participation or resumption of the experiment is impossible.</li> <br><li>Please close all other programs for the duration of your participation. </li> <br><li>Please mute or turn off your phone and put it out of your reach. </li> <br><li>Please also take off any disturbing accessories (such as wristwatches, bracelets, etc.). </li> <br><li>If you have music playing in the background, please turn it off now. </li> <br></ol>Thank you! <br>Press 'SPACE' to continue. </div>","32","","","","","","","","","","","","","","","","","","","",""
"survey-text","5","107597","0.0-1.0-1.0-0.0","flzg8gbj8znzz7n","demographics","5f54dec7364a0485d880f139","5f60e3c0a3b16e07647b2ff9","5f61dbfc02dd8903b59a8ae3","true","4311.744999955408","","","","{""age"":""22""}","","","","","","","","","","","","","","","","","",""
"survey-multi-choice","6","131141","0.0-1.0-1.0-1.0","flzg8gbj8znzz7n","demographics","5f54dec7364a0485d880f139","5f60e3c0a3b16e07647b2ff9","5f61dbfc02dd8903b59a8ae3","true","23542.580000008456","","","","{""gender"":""male"",""school"":""high school"",""education"":""Still in training/ university""}","[0,1,2]","","","","","","","","","","","","","","","","",""
"survey-text","7","154169","0.0-1.0-1.0-2.0-0.0","flzg8gbj8znzz7n","demographics","5f54dec7364a0485d880f139","5f60e3c0a3b16e07647b2ff9","5f61dbfc02dd8903b59a8ae3","true","23017.944999970496","","","","{""education_text"":""Business administration with Spanish""}","","","","","","","","","","","","","","","","","",""
"html-keyboard-response","8","169916","0.0-1.0-2.0","flzg8gbj8znzz7n","instructions","5f54dec7364a0485d880f139","5f60e3c0a3b16e07647b2ff9","5f61dbfc02dd8903b59a8ae3","false","15746.279999963008","<div align=left> The experiment is now about to start: <br> <br>In the following part, you will be presented pictures of everyday objects. <br>Your first task is to <strong>classify these objects. </strong> <br> <br> You will classify them either as mechanical or non-mechanical objects. <br> <br>Objects that include any kind of technical mechanism (for example, wheels, switches, levers, <br> electronic components) fall under the category of <strong>mechanical</strong> objects. <br>Only objects without any kind of technical mechanism should be classified as <strong>non-mechanical</strong>. <br><br>Press 'SPACE' to continue. </div>","32","","","","","","","","","","","","","","","","","","","",""
"html-keyboard-response","9","232360","0.0-2.0-0.0","flzg8gbj8znzz7n","instructions","5f54dec7364a0485d880f139","5f60e3c0a3b16e07647b2ff9","5f61dbfc02dd8903b59a8ae3","false","62441.54000002891","<div align=justify>You will classify the objects using the <strong>'S'</strong> and the <strong>'L'</strong> keys on your keyboard.<br>For doing so, please place your <strong>left index finger</strong> on the <strong>'S'</strong> key and place your <strong>right index finger</strong> on the <strong>'L'</strong> key. <br><br> Each trial starts with an instruction, indicating which key ('S'/'L') you need to press to classify <br>the object as mechanical (letter M) or non-mechanical (letter N).<br>The instruction <strong>M + N</strong> indicates that, in the current trial, by pressing the left key ('S') you classify the displayed object as mechanical (M) <br> and by pressing the right key ('L') you classify the object as non-mechanical (N). <br>The instruction <strong>N + M</strong> on the other hand indicates that by pressing the left key ('S') you classify the displayed object as non-mechanical (N) <br> and by pressing the right key ('L') you classify the object as mechanical (M). <br><br>Please press the key corresponding to the correct classification as fast as possible as soon as the object is displayed and try to avoid making mistakes.<br>If you do not respond within a 2 second window, a corresponding feedback will be displayed and the next trial will start.<br> The experiment is divided into multiple blocks to give you the opportunity to take a break after each block. <br>First, you can now practice this task. <br><br>Please place your <strong>LEFT INDEX FINGER</strong> on the 'S' key and your <strong>RIGHT INDEX FINGER</strong> on the 'L' key now. <br><br>Press SPACE to continue.</div>","32","","","","","","","","","","","","","","","","","","","",""
"html-keyboard-response","10","245542","0.0-2.0-1.0","flzg8gbj8znzz7n","instructions","5f54dec7364a0485d880f139","5f60e3c0a3b16e07647b2ff9","5f61dbfc02dd8903b59a8ae3","false","13180.659999954514","<div align=left> You will now have time to practice this task.<br><br>Remember: <br> <br><li>Please place your index fingers on the <strong>'S'</strong> and <strong>'L'</strong> keys <br>to respond as fast and accurately as possible.</li><li>Every picture can be classified as either mechanical or non-mechanical.</li><li>If you do not respond in time or commit an error, you will receive a corresponding feedback. </li><li> Please try to respond as <strong> fast </strong> and as <strong> accurately as possible </strong> .<br><li>To ensure optimal results, please minimize distractions and stay focused. </li><br><br>Press SPACE to continue.</div>","32","","","","","","","","","","","","","","","","","","","",""
"html-keyboard-response","11","246247","0.0-2.0-2.0-0.0","flzg8gbj8znzz7n","practice_no_cue","5f54dec7364a0485d880f139","5f60e3c0a3b16e07647b2ff9","5f61dbfc02dd8903b59a8ae3","false","null","<span style=""color: black; font-size: 48px"">M + N</span>","null","","","","resp_prompt","","","","","","","","","","","","","","","",""
"categorize-image","12","248751","0.0-2.0-2.0-1.0","flzg8gbj8znzz7n","practice_no_cue","5f54dec7364a0485d880f139","5f60e3c0a3b16e07647b2ff9","5f61dbfc02dd8903b59a8ae3","true","null","./Stimuli/ImagesPractice/LM143.jpg","null","","","","test","false","M + N","83","","LM","LM143.jpg","forget","old","1","1","start","too_slow","","","",""
"html-keyboard-response","13","249453","0.0-2.0-2.0-0.1","flzg8gbj8znzz7n","practice_no_cue","5f54dec7364a0485d880f139","5f60e3c0a3b16e07647b2ff9","5f61dbfc02dd8903b59a8ae3","false","null","<span style=""color: black; font-size: 48px"">N + M</span>","null","","","","resp_prompt","","","","","","","","","","","","","","","",""
"categorize-image","14","250828","0.0-2.0-2.0-1.1","flzg8gbj8znzz7n","practice_no_cue","5f54dec7364a0485d880f139","5f60e3c0a3b16e07647b2ff9","5f61dbfc02dd8903b59a8ae3","true","873.7700000638142","./Stimuli/ImagesPractice/SN76.jpg","76","","","","test","false","N + M","83","","SN","SN76.jpg","remember","old","2","1","start","right","","","",""
"html-keyboard-response","15","251530","0.0-2.0-2.0-0.2","flzg8gbj8znzz7n","practice_no_cue","5f54dec7364a0485d880f139","5f60e3c0a3b16e07647b2ff9","5f61dbfc02dd8903b59a8ae3","false","null","<span style=""color: black; font-size: 48px"">M + N</span>","null","","","","resp_prompt","","","","","","","","","","","","","","","",""
"categorize-image","16","252558","0.0-2.0-2.0-1.2","flzg8gbj8znzz7n","practice_no_cue","5f54dec7364a0485d880f139","5f60e3c0a3b16e07647b2ff9","5f61dbfc02dd8903b59a8ae3","true","526.6100000590086","./Stimuli/ImagesPractice/LM230.jpg","83","","","","test","true","M + N","83","","LM","LM230.jpg","remember","old","3","1","start","left","","","",""
"html-keyboard-response","17","253260","0.0-2.0-2.0-0.3","flzg8gbj8znzz7n","practice_no_cue","5f54dec7364a0485d880f139","5f60e3c0a3b16e07647b2ff9","5f61dbfc02dd8903b59a8ae3","false","null","<span style=""color: black; font-size: 48px"">M + N</span>","null","","","","resp_prompt","","","","","","","","","","","","","","","",""
"categorize-image","18","254528","0.0-2.0-2.0-1.3","flzg8gbj8znzz7n","practice_no_cue","5f54dec7364a0485d880f139","5f60e3c0a3b16e07647b2ff9","5f61dbfc02dd8903b59a8ae3","true","765.5550000490621","./Stimuli/ImagesPractice/LM239.jpg","83","","","","test","true","M + N","83","","LM","LM239.jpg","remember","old","4","1","start","left","","","",""
"html-keyboard-response","19","255229","0.0-2.0-2.0-0.4","flzg8gbj8znzz7n","practice_no_cue","5f54dec7364a0485d880f139","5f60e3c0a3b16e07647b2ff9","5f61dbfc02dd8903b59a8ae3","false","null","<span style=""color: black; font-size: 48px"">N + M</span>","null","","","","resp_prompt","","","","","","","","","","","","","","","",""
"categorize-image","20","256307","0.0-2.0-2.0-1.4","flzg8gbj8znzz7n","practice_no_cue","5f54dec7364a0485d880f139","5f60e3c0a3b16e07647b2ff9","5f61dbfc02dd8903b59a8ae3","true","575.9150000521913","./Stimuli/ImagesPractice/SM62.jpg","83","","","","test","false","N + M","76","","SM","SM62.jpg","forget","old","5","1","start","left","","","",""
"html-keyboard-response","21","257008","0.0-2.0-2.0-0.5","flzg8gbj8znzz7n","practice_no_cue","5f54dec7364a0485d880f139","5f60e3c0a3b16e07647b2ff9","5f61dbfc02dd8903b59a8ae3","false","null","<span style=""color: black; font-size: 48px"">M + N</span>","null","","","","resp_prompt","","","","","","","","","","","","","","","",""
"categorize-image","22","258059","0.0-2.0-2.0-1.5","flzg8gbj8znzz7n","practice_no_cue","5f54dec7364a0485d880f139","5f60e3c0a3b16e07647b2ff9","5f61dbfc02dd8903b59a8ae3","true","547.4650000687689","./Stimuli/ImagesPractice/SN205.jpg","76","","","","test","true","M + N","76","","SN","SN205.jpg","forget","old","6","1","start","right","","","",""
"html-keyboard-response","23","258761","0.0-2.0-2.0-0.6","flzg8gbj8znzz7n","practice_no_cue","5f54dec7364a0485d880f139","5f60e3c0a3b16e07647b2ff9","5f61dbfc02dd8903b59a8ae3","false","null","<span style=""color: black; font-size: 48px"">M + N</span>","null","","","","resp_prompt","","","","","","","","","","","","","","","",""
"categorize-image","24","259760","0.0-2.0-2.0-1.6","flzg8gbj8znzz7n","practice_no_cue","5f54dec7364a0485d880f139","5f60e3c0a3b16e07647b2ff9","5f61dbfc02dd8903b59a8ae3","true","496.9600000185892","./Stimuli/ImagesPractice/SM98.jpg","76","","","","test","false","M + N","83","","SM","SM98.jpg","remember","old","7","1","start","right","","","",""
"html-keyboard-response","25","260461","0.0-2.0-2.0-0.7","flzg8gbj8znzz7n","practice_no_cue","5f54dec7364a0485d880f139","5f60e3c0a3b16e07647b2ff9","5f61dbfc02dd8903b59a8ae3","false","null","<span style=""color: black; font-size: 48px"">N + M</span>","null","","","","resp_prompt","","","","","","","","","","","","","","","",""
"categorize-image","26","261489","0.0-2.0-2.0-1.7","flzg8gbj8znzz7n","practice_no_cue","5f54dec7364a0485d880f139","5f60e3c0a3b16e07647b2ff9","5f61dbfc02dd8903b59a8ae3","true","525.2399999881163","./Stimuli/ImagesPractice/LN17.jpg","76","","","","test","false","N + M","83","","LN","LN17.jpg","remember","old","8","1","start","right","","","",""
"html-keyboard-response","27","262191","0.0-2.0-2.0-0.8","flzg8gbj8znzz7n","practice_no_cue","5f54dec7364a0485d880f139","5f60e3c0a3b16e07647b2ff9","5f61dbfc02dd8903b59a8ae3","false","null","<span style=""color: black; font-size: 48px"">N + M</span>","null","","","","resp_prompt","","","","","","","","","","","","","","","",""
"categorize-image","28","263015","0.0-2.0-2.0-1.8","flzg8gbj8znzz7n","practice_no_cue","5f54dec7364a0485d880f139","5f60e3c0a3b16e07647b2ff9","5f61dbfc02dd8903b59a8ae3","true","323.04500008467585","./Stimuli/ImagesPractice/LM55.jpg","76","","","","test","true","N + M","76","","LM","LM55.jpg","forget","old","9","1","start","right","","","",""
"html-keyboard-response","29","263717","0.0-2.0-2.0-0.9","flzg8gbj8znzz7n","practice_no_cue","5f54dec7364a0485d880f139","5f60e3c0a3b16e07647b2ff9","5f61dbfc02dd8903b59a8ae3","false","null","<span style=""color: black; font-size: 48px"">M + N</span>","null","","","","resp_prompt","","","","","","","","","","","","","","","",""
"categorize-image","30","264740","0.0-2.0-2.0-1.9","flzg8gbj8znzz7n","practice_no_cue","5f54dec7364a0485d880f139","5f60e3c0a3b16e07647b2ff9","5f61dbfc02dd8903b59a8ae3","true","519.3599999183789","./Stimuli/ImagesPractice/LN109.jpg","76","","","","test","true","M + N","76","","LN","LN109.jpg","forget","old","10","1","start","right","","","",""
"html-keyboard-response","31","265442","0.0-2.0-2.0-0.10","flzg8gbj8znzz7n","practice_no_cue","5f54dec7364a0485d880f139","5f60e3c0a3b16e07647b2ff9","5f61dbfc02dd8903b59a8ae3","false","null","<span style=""color: black; font-size: 48px"">M + N</span>","null","","","","resp_prompt","","","","","","","","","","","","","","","",""
"categorize-image","32","266470","0.0-2.0-2.0-1.10","flzg8gbj8znzz7n","practice_no_cue","5f54dec7364a0485d880f139","5f60e3c0a3b16e07647b2ff9","5f61dbfc02dd8903b59a8ae3","true","526.564999949187","./Stimuli/ImagesPractice/SN220.jpg","83","","","","test","false","M + N","76","","SN","SN220.jpg","remember","old","11","1","start","left","","","",""
"html-keyboard-response","33","267171","0.0-2.0-2.0-0.11","flzg8gbj8znzz7n","practice_no_cue","5f54dec7364a0485d880f139","5f60e3c0a3b16e07647b2ff9","5f61dbfc02dd8903b59a8ae3","false","null","<span style=""color: black; font-size: 48px"">N + M</span>","null","","","","resp_prompt","","","","","","","","","","","","","","","",""
"categorize-image","34","268053","0.0-2.0-2.0-1.11","flzg8gbj8znzz7n","practice_no_cue","5f54dec7364a0485d880f139","5f60e3c0a3b16e07647b2ff9","5f61dbfc02dd8903b59a8ae3","true","380.20499993581325","./Stimuli/ImagesPractice/LM224.jpg","76","","","","test","true","N + M","76","","LM","LM224.jpg","remember","old","12","1","start","right","","","",""
"html-keyboard-response","35","268755","0.0-2.0-2.0-0.12","flzg8gbj8znzz7n","practice_no_cue","5f54dec7364a0485d880f139","5f60e3c0a3b16e07647b2ff9","5f61dbfc02dd8903b59a8ae3","false","null","<span style=""color: black; font-size: 48px"">N + M</span>","null","","","","resp_prompt","","","","","","","","","","","","","","","",""
"categorize-image","36","269738","0.0-2.0-2.0-1.12","flzg8gbj8znzz7n","practice_no_cue","5f54dec7364a0485d880f139","5f60e3c0a3b16e07647b2ff9","5f61dbfc02dd8903b59a8ae3","true","481.23999999370426","./Stimuli/ImagesPractice/LN15.jpg","83","","","","test","true","N + M","83","","LN","LN15.jpg","forget","old","13","1","start","left","","","",""
"html-keyboard-response","37","270440","0.0-2.0-2.0-0.13","flzg8gbj8znzz7n","practice_no_cue","5f54dec7364a0485d880f139","5f60e3c0a3b16e07647b2ff9","5f61dbfc02dd8903b59a8ae3","false","null","<span style=""color: black; font-size: 48px"">M + N</span>","null","","","","resp_prompt","","","","","","","","","","","","","","","",""
"categorize-image","38","271358","0.0-2.0-2.0-1.13","flzg8gbj8znzz7n","practice_no_cue","5f54dec7364a0485d880f139","5f60e3c0a3b16e07647b2ff9","5f61dbfc02dd8903b59a8ae3","true","415.44000001158565","./Stimuli/ImagesPractice/LM147.jpg","76","","","","test","false","M + N","83","","LM","LM147.jpg","forget","old","14","1","start","right","","","",""
"html-keyboard-response","39","272060","0.0-2.0-2.0-0.14","flzg8gbj8znzz7n","practice_no_cue","5f54dec7364a0485d880f139","5f60e3c0a3b16e07647b2ff9","5f61dbfc02dd8903b59a8ae3","false","null","<span style=""color: black; font-size: 48px"">N + M</span>","null","","","","resp_prompt","","","","","","","","","","","","","","","",""
"categorize-image","40","273068","0.0-2.0-2.0-1.14","flzg8gbj8znzz7n","practice_no_cue","5f54dec7364a0485d880f139","5f60e3c0a3b16e07647b2ff9","5f61dbfc02dd8903b59a8ae3","true","505.85999991744757","./Stimuli/ImagesPractice/SM61.jpg","76","","","","test","true","N + M","76","","SM","SM61.jpg","remember","old","15","1","start","right","","","",""
"html-keyboard-response","41","273769","0.0-2.0-2.0-0.15","flzg8gbj8znzz7n","practice_no_cue","5f54dec7364a0485d880f139","5f60e3c0a3b16e07647b2ff9","5f61dbfc02dd8903b59a8ae3","false","null","<span style=""color: black; font-size: 48px"">N + M</span>","null","","","","resp_prompt","","","","","","","","","","","","","","","",""
"categorize-image","42","274830","0.0-2.0-2.0-1.15","flzg8gbj8znzz7n","practice_no_cue","5f54dec7364a0485d880f139","5f60e3c0a3b16e07647b2ff9","5f61dbfc02dd8903b59a8ae3","true","558.409999939613","./Stimuli/ImagesPractice/SN75.jpg","83","","","","test","true","N + M","83","","SN","SN75.jpg","forget","old","16","1","start","left","","","",""
"html-keyboard-response","43","289395","0.0-2.0-3.0","flzg8gbj8znzz7n","break","5f54dec7364a0485d880f139","5f60e3c0a3b16e07647b2ff9","5f61dbfc02dd8903b59a8ae3","false","14563.66500002332","<p style='font-size: 32px;'>Break</><br><br><br><br><br><p style='font-size: 24px;'>In the last block, you committed 6 errors and did not respond in time on 1 trials.
</p><p style='font-size: 24px;'>Try to respond as fast and accurately as possible in the next block as well! </p><p style='font-size: 24px;'>Press SPACE to continue.</p>","32","","","","","","","","","","","","","","","","","","","",""
"html-keyboard-response","44","305636","0.0-2.0-4.0","flzg8gbj8znzz7n","instructions","5f54dec7364a0485d880f139","5f60e3c0a3b16e07647b2ff9","5f61dbfc02dd8903b59a8ae3","false","16238.23999997694","<div align=left> Great!<br><br>Are you ready to continue?<br><br>If you want to reread the instructions and redo the practice trials, <br>please press „Z“. <br><br>Press SPACE to CONTINUE with the experiment when you are ready. </div>","32","","","","","","","","","","","","","","","","","","","",""
"html-keyboard-response","45","345260","0.0-3.0-0.0","flzg8gbj8znzz7n","instructions","5f54dec7364a0485d880f139","5f60e3c0a3b16e07647b2ff9","5f61dbfc02dd8903b59a8ae3","false","39620.830000028946","<div align=left>Great!<br> <strong>Attention</strong>! You will now receive a second, additional task! <br><br>To this point it was you <strong>first task</strong> to correctly <strong>classify objects</strong>. <br><br>As mentioned in the beginning, we aim to examine how well humans can remember previously learned information.<br>We would like to find out whether our memory improves if we only remember information that is relevant to us. <br><br>Therefore, your <strong>second task</strong> will be to <strong>remember</strong> the pictures you are to categorize. <br> After the learning phase, there will be a memory test phase, in which you will be asked to indicate whether you have seen a picture before or not. <br>Some, but not all pictures shown in the learning phase will appear in the memory test phase.<br>After classifying a picture, you will be told whether you should remember it for the memory test phase or not. <br>Thus, some pictures can be forgotten, whereas others have to be remembered. <br><br>Note: From now on, feedback will only be displayed if you responded incorrectly or not in time.<br><br>Press SPACE to continue.</div>","32","","","","","","","","","","","","","","","","","","","",""
"html-keyboard-response","46","370642","0.0-3.0-1.0","flzg8gbj8znzz7n","instructions","5f54dec7364a0485d880f139","5f60e3c0a3b16e07647b2ff9","5f61dbfc02dd8903b59a8ae3","false","25381.27999997232","<div align=left>In the following part, you will thus have to remember only some pictures. <br>Immediately after seeing and classifying the picture, a symbol will be displayed, indicating whether you should remember or forget the previous picture. <br><br>A <span style='color: dodgerblue; font-size: 28px'>O</span> indicates REMEMBER. That means, you have to remember this picture, because it will be tested later. <br><br>A <span style='color: darkorange; font-size:28px'>Ø</span> indicates FORGET. You do not have to remember this picture. <br><br> As you will have to remember a lot of pictures, it will be hard for you to remember all of them. <br>It will put you at an advantage if you instantly forget the pictures you are not asked to remember. <br> This will make it easier for you to remember the pictures that will be tested afterwards. <br><br>Press SPACE to continue.</div>","32","","","","","","","","","","","","","","","","","","","",""
"html-keyboard-response","47","384991","0.0-3.0-2.0","flzg8gbj8znzz7n","instructions","5f54dec7364a0485d880f139","5f60e3c0a3b16e07647b2ff9","5f61dbfc02dd8903b59a8ae3","false","14346.430000034161","<div align=left> Now you have the chance to practice both tasks together.<br><br>Remember: <br> <br><li>Please place your index fingers on the <strong>'S'</strong> and <strong>'L'</strong> keys <br>to respond as fast and accurately as possible.</li><li>Every picture can be classified as either mechanical or non-mechanical.</li><li>If you do not respond in time or commit an error, you will receive a corresponding feedback. <br>Please try to respond as <strong> fast </strong> and as <strong> accurately as possible </strong>.</li><li> Please remember only the to-be-remembered <span style='color: dodgerblue; font-size: 28px'>O</span> pictures. <br></li><li> Please minimize distractions and stay focused. </li><br><br>Press SPACE to START</div>","32","","","","","","","","","","","","","","","","","","","",""
"html-keyboard-response","48","385693","0.0-3.0-3.0-0.0","flzg8gbj8znzz7n","practice_cue","5f54dec7364a0485d880f139","5f60e3c0a3b16e07647b2ff9","5f61dbfc02dd8903b59a8ae3","false","null","<span style=""color: black; font-size: 48px"">N + M</span>","null","","","","resp_prompt","","","","","","","","","","","","","","","",""
"categorize-image","49","386320","0.0-3.0-3.0-1.0","flzg8gbj8znzz7n","practice_cue","5f54dec7364a0485d880f139","5f60e3c0a3b16e07647b2ff9","5f61dbfc02dd8903b59a8ae3","true","621.7500000493601","./Stimuli/ImagesPractice/LN17.jpg","76","","","","test","false","N + M","83","","LN","LN17.jpg","remember","old","17","2","practice_forget","right","","","",""
"html-keyboard-response","50","386822","0.0-3.0-3.0-2.0-0.0","flzg8gbj8znzz7n","practice_cue","5f54dec7364a0485d880f139","5f60e3c0a3b16e07647b2ff9","5f61dbfc02dd8903b59a8ae3","false","null","<span style=""color: red; font-size: 48px"">Error!</span>","null","","","","feedback","","","","","","","","","","","","","","","",""
"html-keyboard-response","51","388823","0.0-3.0-3.0-3.0","flzg8gbj8znzz7n","practice_cue","5f54dec7364a0485d880f139","5f60e3c0a3b16e07647b2ff9","5f61dbfc02dd8903b59a8ae3","false","null","<div style=""align-items: center; display: flex; color: dodgerblue; font-size: 90px""><b>o</b></div>","null","","","","forget_cue","","","","","","","","","","","","","","","",""
"html-keyboard-response","52","389525","0.0-3.0-3.0-0.1","flzg8gbj8znzz7n","practice_cue","5f54dec7364a0485d880f139","5f60e3c0a3b16e07647b2ff9","5f61dbfc02dd8903b59a8ae3","false","null","<span style=""color: black; font-size: 48px"">N + M</span>","null","","","","resp_prompt","","","","","","","","","","","","","","","",""
"categorize-image","53","390237","0.0-3.0-3.0-1.1","flzg8gbj8znzz7n","practice_cue","5f54dec7364a0485d880f139","5f60e3c0a3b16e07647b2ff9","5f61dbfc02dd8903b59a8ae3","true","708.2500000251457","./Stimuli/ImagesPractice/LM55.jpg","83","","","","test","false","N + M","76","","LM","LM55.jpg","forget","old","18","2","practice_forget","left","","","",""
"html-keyboard-response","54","390740","0.0-3.0-3.0-2.1-0.1","flzg8gbj8znzz7n","practice_cue","5f54dec7364a0485d880f139","5f60e3c0a3b16e07647b2ff9","5f61dbfc02dd8903b59a8ae3","false","null","<span style=""color: red; font-size: 48px"">Error!</span>","null","","","","feedback","","","","","","","","","","","","","","","",""
"html-keyboard-response","55","392742","0.0-3.0-3.0-3.1","flzg8gbj8znzz7n","practice_cue","5f54dec7364a0485d880f139","5f60e3c0a3b16e07647b2ff9","5f61dbfc02dd8903b59a8ae3","false","null","<div style=""align-items: center; display: flex; color: darkorange; font-size: 90px""><b>ø</b></div>","null","","","","forget_cue","","","","","","","","","","","","","","","",""
"html-keyboard-response","56","393445","0.0-3.0-3.0-0.2","flzg8gbj8znzz7n","practice_cue","5f54dec7364a0485d880f139","5f60e3c0a3b16e07647b2ff9","5f61dbfc02dd8903b59a8ae3","false","null","<span style=""color: black; font-size: 48px"">M + N</span>","null","","","","resp_prompt","","","","","","","","","","","","","","","",""
"categorize-image","57","394015","0.0-3.0-3.0-1.2","flzg8gbj8znzz7n","practice_cue","5f54dec7364a0485d880f139","5f60e3c0a3b16e07647b2ff9","5f61dbfc02dd8903b59a8ae3","true","563.4399999398738","./Stimuli/ImagesPractice/SN205.jpg","76","","","","test","true","M + N","76","","SN","SN205.jpg","forget","old","19","2","practice_forget","right","","","",""
"html-keyboard-response","58","396018","0.0-3.0-3.0-3.2","flzg8gbj8znzz7n","practice_cue","5f54dec7364a0485d880f139","5f60e3c0a3b16e07647b2ff9","5f61dbfc02dd8903b59a8ae3","false","null","<div style=""align-items: center; display: flex; color: darkorange; font-size: 90px""><b>ø</b></div>","null","","","","forget_cue","","","","","","","","","","","","","","","",""
"html-keyboard-response","59","396720","0.0-3.0-3.0-0.3","flzg8gbj8znzz7n","practice_cue","5f54dec7364a0485d880f139","5f60e3c0a3b16e07647b2ff9","5f61dbfc02dd8903b59a8ae3","false","null","<span style=""color: black; font-size: 48px"">M + N</span>","null","","","","resp_prompt","","","","","","","","","","","","","","","",""
"categorize-image","60","397258","0.0-3.0-3.0-1.3","flzg8gbj8znzz7n","practice_cue","5f54dec7364a0485d880f139","5f60e3c0a3b16e07647b2ff9","5f61dbfc02dd8903b59a8ae3","true","533.9149999199435","./Stimuli/ImagesPractice/LM230.jpg","83","","","","test","true","M + N","83","","LM","LM230.jpg","remember","old","20","2","practice_forget","left","","","",""
"html-keyboard-response","61","399260","0.0-3.0-3.0-3.3","flzg8gbj8znzz7n","practice_cue","5f54dec7364a0485d880f139","5f60e3c0a3b16e07647b2ff9","5f61dbfc02dd8903b59a8ae3","false","null","<div style=""align-items: center; display: flex; color: dodgerblue; font-size: 90px""><b>o</b></div>","null","","","","forget_cue","","","","","","","","","","","","","","","",""
"html-keyboard-response","62","399961","0.0-3.0-3.0-0.4","flzg8gbj8znzz7n","practice_cue","5f54dec7364a0485d880f139","5f60e3c0a3b16e07647b2ff9","5f61dbfc02dd8903b59a8ae3","false","null","<span style=""color: black; font-size: 48px"">M + N</span>","null","","","","resp_prompt","","","","","","","","","","","","","","","",""
"categorize-image","63","400533","0.0-3.0-3.0-1.4","flzg8gbj8znzz7n","practice_cue","5f54dec7364a0485d880f139","5f60e3c0a3b16e07647b2ff9","5f61dbfc02dd8903b59a8ae3","true","566.64999993518","./Stimuli/ImagesPractice/LM147.jpg","83","","","","test","true","M + N","83","","LM","LM147.jpg","forget","old","21","2","practice_forget","left","","","",""
"html-keyboard-response","64","402534","0.0-3.0-3.0-3.4","flzg8gbj8znzz7n","practice_cue","5f54dec7364a0485d880f139","5f60e3c0a3b16e07647b2ff9","5f61dbfc02dd8903b59a8ae3","false","null","<div style=""align-items: center; display: flex; color: darkorange; font-size: 90px""><b>ø</b></div>","null","","","","forget_cue","","","","","","","","","","","","","","","",""
"html-keyboard-response","65","403236","0.0-3.0-3.0-0.5","flzg8gbj8znzz7n","practice_cue","5f54dec7364a0485d880f139","5f60e3c0a3b16e07647b2ff9","5f61dbfc02dd8903b59a8ae3","false","null","<span style=""color: black; font-size: 48px"">N + M</span>","null","","","","resp_prompt","","","","","","","","","","","","","","","",""
"categorize-image","66","403743","0.0-3.0-3.0-1.5","flzg8gbj8znzz7n","practice_cue","5f54dec7364a0485d880f139","5f60e3c0a3b16e07647b2ff9","5f61dbfc02dd8903b59a8ae3","true","502.379999961704","./Stimuli/ImagesPractice/SN76.jpg","76","","","","test","false","N + M","83","","SN","SN76.jpg","remember","old","22","2","practice_forget","right","","","",""
"html-keyboard-response","67","404245","0.0-3.0-3.0-2.5-0.5","flzg8gbj8znzz7n","practice_cue","5f54dec7364a0485d880f139","5f60e3c0a3b16e07647b2ff9","5f61dbfc02dd8903b59a8ae3","false","null","<span style=""color: red; font-size: 48px"">Error!</span>","null","","","","feedback","","","","","","","","","","","","","","","",""
"html-keyboard-response","68","406249","0.0-3.0-3.0-3.5","flzg8gbj8znzz7n","practice_cue","5f54dec7364a0485d880f139","5f60e3c0a3b16e07647b2ff9","5f61dbfc02dd8903b59a8ae3","false","null","<div style=""align-items: center; display: flex; color: dodgerblue; font-size: 90px""><b>o</b></div>","null","","","","forget_cue","","","","","","","","","","","","","","","",""
"html-keyboard-response","69","406950","0.0-3.0-3.0-0.6","flzg8gbj8znzz7n","practice_cue","5f54dec7364a0485d880f139","5f60e3c0a3b16e07647b2ff9","5f61dbfc02dd8903b59a8ae3","false","null","<span style=""color: black; font-size: 48px"">N + M</span>","null","","","","resp_prompt","","","","","","","","","","","","","","","",""
"categorize-image","70","407701","0.0-3.0-3.0-1.6","flzg8gbj8znzz7n","practice_cue","5f54dec7364a0485d880f139","5f60e3c0a3b16e07647b2ff9","5f61dbfc02dd8903b59a8ae3","true","746.0149999242276","./Stimuli/ImagesPractice/SN75.jpg","83","","","","test","true","N + M","83","","SN","SN75.jpg","forget","old","23","2","practice_forget","left","","","",""
"html-keyboard-response","71","409703","0.0-3.0-3.0-3.6","flzg8gbj8znzz7n","practice_cue","5f54dec7364a0485d880f139","5f60e3c0a3b16e07647b2ff9","5f61dbfc02dd8903b59a8ae3","false","null","<div style=""align-items: center; display: flex; color: darkorange; font-size: 90px""><b>ø</b></div>","null","","","","forget_cue","","","","","","","","","","","","","","","",""
"html-keyboard-response","72","410405","0.0-3.0-3.0-0.7","flzg8gbj8znzz7n","practice_cue","5f54dec7364a0485d880f139","5f60e3c0a3b16e07647b2ff9","5f61dbfc02dd8903b59a8ae3","false","null","<span style=""color: black; font-size: 48px"">N + M</span>","null","","","","resp_prompt","","","","","","","","","","","","","","","",""
"categorize-image","73","411050","0.0-3.0-3.0-1.7","flzg8gbj8znzz7n","practice_cue","5f54dec7364a0485d880f139","5f60e3c0a3b16e07647b2ff9","5f61dbfc02dd8903b59a8ae3","true","641.1450000014156","./Stimuli/ImagesPractice/SM61.jpg","83","","","","test","false","N + M","76","","SM","SM61.jpg","remember","old","24","2","practice_forget","left","","","",""
"html-keyboard-response","74","411553","0.0-3.0-3.0-2.7-0.7","flzg8gbj8znzz7n","practice_cue","5f54dec7364a0485d880f139","5f60e3c0a3b16e07647b2ff9","5f61dbfc02dd8903b59a8ae3","false","null","<span style=""color: red; font-size: 48px"">Error!</span>","null","","","","feedback","","","","","","","","","","","","","","","",""
"html-keyboard-response","75","413555","0.0-3.0-3.0-3.7","flzg8gbj8znzz7n","practice_cue","5f54dec7364a0485d880f139","5f60e3c0a3b16e07647b2ff9","5f61dbfc02dd8903b59a8ae3","false","null","<div style=""align-items: center; display: flex; color: dodgerblue; font-size: 90px""><b>o</b></div>","null","","","","forget_cue","","","","","","","","","","","","","","","",""
"html-keyboard-response","76","414257","0.0-3.0-3.0-0.8","flzg8gbj8znzz7n","practice_cue","5f54dec7364a0485d880f139","5f60e3c0a3b16e07647b2ff9","5f61dbfc02dd8903b59a8ae3","false","null","<span style=""color: black; font-size: 48px"">M + N</span>","null","","","","resp_prompt","","","","","","","","","","","","","","","",""
"categorize-image","77","414848","0.0-3.0-3.0-1.8","flzg8gbj8znzz7n","practice_cue","5f54dec7364a0485d880f139","5f60e3c0a3b16e07647b2ff9","5f61dbfc02dd8903b59a8ae3","true","587.4999999068677","./Stimuli/ImagesPractice/LN109.jpg","83","","","","test","false","M + N","76","","LN","LN109.jpg","forget","old","25","2","practice_forget","left","","","",""
"html-keyboard-response","78","415354","0.0-3.0-3.0-2.8-0.8","flzg8gbj8znzz7n","practice_cue","5f54dec7364a0485d880f139","5f60e3c0a3b16e07647b2ff9","5f61dbfc02dd8903b59a8ae3","false","null","<span style=""color: red; font-size: 48px"">Error!</span>","null","","","","feedback","","","","","","","","","","","","","","","",""
"html-keyboard-response","79","417356","0.0-3.0-3.0-3.8","flzg8gbj8znzz7n","practice_cue","5f54dec7364a0485d880f139","5f60e3c0a3b16e07647b2ff9","5f61dbfc02dd8903b59a8ae3","false","null","<div style=""align-items: center; display: flex; color: darkorange; font-size: 90px""><b>ø</b></div>","null","","","","forget_cue","","","","","","","","","","","","","","","",""
"html-keyboard-response","80","418059","0.0-3.0-3.0-0.9","flzg8gbj8znzz7n","practice_cue","5f54dec7364a0485d880f139","5f60e3c0a3b16e07647b2ff9","5f61dbfc02dd8903b59a8ae3","false","null","<span style=""color: black; font-size: 48px"">N + M</span>","null","","","","resp_prompt","","","","","","","","","","","","","","","",""
"categorize-image","81","419186","0.0-3.0-3.0-1.9","flzg8gbj8znzz7n","practice_cue","5f54dec7364a0485d880f139","5f60e3c0a3b16e07647b2ff9","5f61dbfc02dd8903b59a8ae3","true","1122.679999913089","./Stimuli/ImagesPractice/SM62.jpg","76","","","","test","true","N + M","76","","SM","SM62.jpg","forget","old","26","2","practice_forget","right","","","",""
"html-keyboard-response","82","421187","0.0-3.0-3.0-3.9","flzg8gbj8znzz7n","practice_cue","5f54dec7364a0485d880f139","5f60e3c0a3b16e07647b2ff9","5f61dbfc02dd8903b59a8ae3","false","null","<div style=""align-items: center; display: flex; color: darkorange; font-size: 90px""><b>ø</b></div>","null","","","","forget_cue","","","","","","","","","","","","","","","",""
"html-keyboard-response","83","421888","0.0-3.0-3.0-0.10","flzg8gbj8znzz7n","practice_cue","5f54dec7364a0485d880f139","5f60e3c0a3b16e07647b2ff9","5f61dbfc02dd8903b59a8ae3","false","null","<span style=""color: black; font-size: 48px"">M + N</span>","null","","","","resp_prompt","","","","","","","","","","","","","","","",""
"categorize-image","84","422521","0.0-3.0-3.0-1.10","flzg8gbj8znzz7n","practice_cue","5f54dec7364a0485d880f139","5f60e3c0a3b16e07647b2ff9","5f61dbfc02dd8903b59a8ae3","true","628.3450000919402","./Stimuli/ImagesPractice/SN220.jpg","76","","","","test","true","M + N","76","","SN","SN220.jpg","remember","old","27","2","practice_forget","right","","","",""
"html-keyboard-response","85","424522","0.0-3.0-3.0-3.10","flzg8gbj8znzz7n","practice_cue","5f54dec7364a0485d880f139","5f60e3c0a3b16e07647b2ff9","5f61dbfc02dd8903b59a8ae3","false","null","<div style=""align-items: center; display: flex; color: dodgerblue; font-size: 90px""><b>o</b></div>","null","","","","forget_cue","","","","","","","","","","","","","","","",""
"html-keyboard-response","86","425223","0.0-3.0-3.0-0.11","flzg8gbj8znzz7n","practice_cue","5f54dec7364a0485d880f139","5f60e3c0a3b16e07647b2ff9","5f61dbfc02dd8903b59a8ae3","false","null","<span style=""color: black; font-size: 48px"">M + N</span>","null","","","","resp_prompt","","","","","","","","","","","","","","","",""
"categorize-image","87","425765","0.0-3.0-3.0-1.11","flzg8gbj8znzz7n","practice_cue","5f54dec7364a0485d880f139","5f60e3c0a3b16e07647b2ff9","5f61dbfc02dd8903b59a8ae3","true","537.3449999606237","./Stimuli/ImagesPractice/LM143.jpg","83","","","","test","true","M + N","83","","LM","LM143.jpg","forget","old","28","2","practice_forget","left","","","",""
"html-keyboard-response","88","427767","0.0-3.0-3.0-3.11","flzg8gbj8znzz7n","practice_cue","5f54dec7364a0485d880f139","5f60e3c0a3b16e07647b2ff9","5f61dbfc02dd8903b59a8ae3","false","null","<div style=""align-items: center; display: flex; color: darkorange; font-size: 90px""><b>ø</b></div>","null","","","","forget_cue","","","","","","","","","","","","","","","",""
"html-keyboard-response","89","428469","0.0-3.0-3.0-0.12","flzg8gbj8znzz7n","practice_cue","5f54dec7364a0485d880f139","5f60e3c0a3b16e07647b2ff9","5f61dbfc02dd8903b59a8ae3","false","null","<span style=""color: black; font-size: 48px"">M + N</span>","null","","","","resp_prompt","","","","","","","","","","","","","","","",""
"categorize-image","90","429027","0.0-3.0-3.0-1.12","flzg8gbj8znzz7n","practice_cue","5f54dec7364a0485d880f139","5f60e3c0a3b16e07647b2ff9","5f61dbfc02dd8903b59a8ae3","true","554.424999980256","./Stimuli/ImagesPractice/SM98.jpg","83","","","","test","true","M + N","83","","SM","SM98.jpg","remember","old","29","2","practice_forget","left","","","",""
"html-keyboard-response","91","431030","0.0-3.0-3.0-3.12","flzg8gbj8znzz7n","practice_cue","5f54dec7364a0485d880f139","5f60e3c0a3b16e07647b2ff9","5f61dbfc02dd8903b59a8ae3","false","null","<div style=""align-items: center; display: flex; color: dodgerblue; font-size: 90px""><b>o</b></div>","null","","","","forget_cue","","","","","","","","","","","","","","","",""
"html-keyboard-response","92","431732","0.0-3.0-3.0-0.13","flzg8gbj8znzz7n","practice_cue","5f54dec7364a0485d880f139","5f60e3c0a3b16e07647b2ff9","5f61dbfc02dd8903b59a8ae3","false","null","<span style=""color: black; font-size: 48px"">M + N</span>","null","","","","resp_prompt","","","","","","","","","","","","","","","",""
"categorize-image","93","432270","0.0-3.0-3.0-1.13","flzg8gbj8znzz7n","practice_cue","5f54dec7364a0485d880f139","5f60e3c0a3b16e07647b2ff9","5f61dbfc02dd8903b59a8ae3","true","533.6499999975786","./Stimuli/ImagesPractice/LM239.jpg","83","","","","test","true","M + N","83","","LM","LM239.jpg","remember","old","30","2","practice_forget","left","","","",""
"html-keyboard-response","94","434271","0.0-3.0-3.0-3.13","flzg8gbj8znzz7n","practice_cue","5f54dec7364a0485d880f139","5f60e3c0a3b16e07647b2ff9","5f61dbfc02dd8903b59a8ae3","false","null","<div style=""align-items: center; display: flex; color: dodgerblue; font-size: 90px""><b>o</b></div>","null","","","","forget_cue","","","","","","","","","","","","","","","",""
"html-keyboard-response","95","434973","0.0-3.0-3.0-0.14","flzg8gbj8znzz7n","practice_cue","5f54dec7364a0485d880f139","5f60e3c0a3b16e07647b2ff9","5f61dbfc02dd8903b59a8ae3","false","null","<span style=""color: black; font-size: 48px"">N + M</span>","null","","","","resp_prompt","","","","","","","","","","","","","","","",""
"categorize-image","96","435541","0.0-3.0-3.0-1.14","flzg8gbj8znzz7n","practice_cue","5f54dec7364a0485d880f139","5f60e3c0a3b16e07647b2ff9","5f61dbfc02dd8903b59a8ae3","true","564.0650000423193","./Stimuli/ImagesPractice/LM224.jpg","83","","","","test","false","N + M","76","","LM","LM224.jpg","remember","old","31","2","practice_forget","left","","","",""
"html-keyboard-response","97","436044","0.0-3.0-3.0-2.14-0.14","flzg8gbj8znzz7n","practice_cue","5f54dec7364a0485d880f139","5f60e3c0a3b16e07647b2ff9","5f61dbfc02dd8903b59a8ae3","false","null","<span style=""color: red; font-size: 48px"">Error!</span>","null","","","","feedback","","","","","","","","","","","","","","","",""
"html-keyboard-response","98","438046","0.0-3.0-3.0-3.14","flzg8gbj8znzz7n","practice_cue","5f54dec7364a0485d880f139","5f60e3c0a3b16e07647b2ff9","5f61dbfc02dd8903b59a8ae3","false","null","<div style=""align-items: center; display: flex; color: dodgerblue; font-size: 90px""><b>o</b></div>","null","","","","forget_cue","","","","","","","","","","","","","","","",""
"html-keyboard-response","99","438749","0.0-3.0-3.0-0.15","flzg8gbj8znzz7n","practice_cue","5f54dec7364a0485d880f139","5f60e3c0a3b16e07647b2ff9","5f61dbfc02dd8903b59a8ae3","false","null","<span style=""color: black; font-size: 48px"">N + M</span>","null","","","","resp_prompt","","","","","","","","","","","","","","","",""
"categorize-image","100","439363","0.0-3.0-3.0-1.15","flzg8gbj8znzz7n","practice_cue","5f54dec7364a0485d880f139","5f60e3c0a3b16e07647b2ff9","5f61dbfc02dd8903b59a8ae3","true","609.7650000592694","./Stimuli/ImagesPractice/LN15.jpg","83","","","","test","true","N + M","83","","LN","LN15.jpg","forget","old","32","2","practice_forget","left","","","",""
"html-keyboard-response","101","441367","0.0-3.0-3.0-3.15","flzg8gbj8znzz7n","practice_cue","5f54dec7364a0485d880f139","5f60e3c0a3b16e07647b2ff9","5f61dbfc02dd8903b59a8ae3","false","null","<div style=""align-items: center; display: flex; color: darkorange; font-size: 90px""><b>ø</b></div>","null","","","","forget_cue","","","","","","","","","","","","","","","",""
"html-keyboard-response","102","458102","0.0-3.0-4.0","flzg8gbj8znzz7n","break","5f54dec7364a0485d880f139","5f60e3c0a3b16e07647b2ff9","5f61dbfc02dd8903b59a8ae3","false","16732.960000052117","<p style='font-size: 32px;'>Break</><br><br><br><br><br><p style='font-size: 24px;'>In the last block, you committed 6 errors and did not respond in time on 0 trials.
</p><p style='font-size: 24px;'>Try to respond as fast and accurately as possible in the next block as well! </p><p style='font-size: 24px;'>Press SPACE to continue.</p>","32","","","","","","","","","","","","","","","","","","","",""
"html-keyboard-response","103","480492","0.0-3.0-5.0","flzg8gbj8znzz7n","instructions","5f54dec7364a0485d880f139","5f60e3c0a3b16e07647b2ff9","5f61dbfc02dd8903b59a8ae3","false","22387.254999950528","<div align=left> Now, to practice, we kindly ask you to remember as many of the to-be-remembered pictures<br>of the previous learning phase as possible.<br><br>The pictures you were instructed to remember were the pictures followed by a <span style='color: dodgerblue; font-size: 28px'>O</span>.<br><br>In this memory test phase, you will also see some new pictures.<br>It is your task to remember whether you were presented with this specific picture in this study so far or not.<br>If you recognize an object (you have already seen it in this study), it is an OLD object. <br>If you do not recognize an object (you have NOT seen it in this study), it is a NEW object. <br><strong> Attention</strong>: As already mentioned, <span style='color: darkorange; font-size:28px'>Ø</span>-pictures will <strong>never</strong> appear in this memory test (neither as new objects). <br><br>Press SPACE to continue. </div>","32","","","","","","","","","","","","","","","","","","","",""
"html-keyboard-response","104","518128","0.0-3.0-6.0","flzg8gbj8znzz7n","instructions","5f54dec7364a0485d880f139","5f60e3c0a3b16e07647b2ff9","5f61dbfc02dd8903b59a8ae3","false","37634.31499991566","<div align=left> M and N no longer will appear on the left/right of the fixation cross. <br>Instead there will be a note at the bottom of the left or right side  <br>indicating which key you should press for an old or new object:  <br> <br>Press the <strong>right</strong> key to classify an object as <strong>old</strong> and press the <strong>left</strong>, to classify an object as <strong>new</strong>.<br>Please classify the objects as new/old by again placing your index finger on the 'S' and 'L' keys <br>and press them accordingly.<br><br><strong>Old:</strong> This object has been presented before. <br><strong>New:</strong> This object has <strong>not</strong> been presented.<br><br>Now please put your right and left index fingers on the 'S' and 'L' keys of your keyboard. <br>Please respond as fast and as accurately as possible!<br><br>Press SPACE to continue. </div>","32","","","","","","","","","","","","","","","","","","","",""
"categorize-image","105","522121","0.0-3.0-7.0-0.0","flzg8gbj8znzz7n","practice_recog","5f54dec7364a0485d880f139","5f60e3c0a3b16e07647b2ff9","5f61dbfc02dd8903b59a8ae3","true","3489.904999965802","./Stimuli/ImagesPractice/LM239.jpg","76","","","","test","true","","76","","LM","LM239.jpg","","old","33","3","practice_recog","right","","","",""
"categorize-image","106","524038","0.0-3.0-7.0-0.1","flzg8gbj8znzz7n","practice_recog","5f54dec7364a0485d880f139","5f60e3c0a3b16e07647b2ff9","5f61dbfc02dd8903b59a8ae3","true","1413.7349999509752","./Stimuli/ImagesPractice/LN2.jpg","83","","","","test","true","","83","","LN","LN2.jpg","","new","34","3","practice_recog","left","","","",""
"categorize-image","107","526204","0.0-3.0-7.0-0.2","flzg8gbj8znzz7n","practice_recog","5f54dec7364a0485d880f139","5f60e3c0a3b16e07647b2ff9","5f61dbfc02dd8903b59a8ae3","true","1661.255000042729","./Stimuli/ImagesPractice/SM97.jpg","83","","","","test","true","","83","","SM","SM97.jpg","","new","35","3","practice_recog","left","","","",""
"categorize-image","108","528306","0.0-3.0-7.0-0.3","flzg8gbj8znzz7n","practice_recog","5f54dec7364a0485d880f139","5f60e3c0a3b16e07647b2ff9","5f61dbfc02dd8903b59a8ae3","true","1596.2150000268593","./Stimuli/ImagesPractice/SN222.jpg","83","","","","test","true","","83","","SN","SN222.jpg","","new","36","3","practice_recog","left","","","",""
"categorize-image","109","529787","0.0-3.0-7.0-0.4","flzg8gbj8znzz7n","practice_recog","5f54dec7364a0485d880f139","5f60e3c0a3b16e07647b2ff9","5f61dbfc02dd8903b59a8ae3","true","975.9850000264123","./Stimuli/ImagesPractice/SN221.jpg","83","","","","test","true","","83","","SN","SN221.jpg","","new","37","3","practice_recog","left","","","",""
"categorize-image","110","531236","0.0-3.0-7.0-0.5","flzg8gbj8znzz7n","practice_recog","5f54dec7364a0485d880f139","5f60e3c0a3b16e07647b2ff9","5f61dbfc02dd8903b59a8ae3","true","945.1000000117347","./Stimuli/ImagesPractice/SM61.jpg","76","","","","test","true","","76","","SM","SM61.jpg","","old","38","3","practice_recog","right","","","",""
"categorize-image","111","532650","0.0-3.0-7.0-0.6","flzg8gbj8znzz7n","practice_recog","5f54dec7364a0485d880f139","5f60e3c0a3b16e07647b2ff9","5f61dbfc02dd8903b59a8ae3","true","912.4699999811128","./Stimuli/ImagesPractice/LM224.jpg","76","","","","test","true","","76","","LM","LM224.jpg","","old","39","3","practice_recog","right","","","",""
"categorize-image","112","534572","0.0-3.0-7.0-0.7","flzg8gbj8znzz7n","practice_recog","5f54dec7364a0485d880f139","5f60e3c0a3b16e07647b2ff9","5f61dbfc02dd8903b59a8ae3","true","1418.610000051558","./Stimuli/ImagesPractice/LM230.jpg","76","","","","test","true","","76","","LM","LM230.jpg","","old","40","3","practice_recog","right","","","",""
"categorize-image","113","536504","0.0-3.0-7.0-0.8","flzg8gbj8znzz7n","practice_recog","5f54dec7364a0485d880f139","5f60e3c0a3b16e07647b2ff9","5f61dbfc02dd8903b59a8ae3","true","1430.530000012368","./Stimuli/ImagesPractice/LN17.jpg","76","","","","test","true","","76","","LN","LN17.jpg","","old","41","3","practice_recog","right","","","",""
"categorize-image","114","538238","0.0-3.0-7.0-0.9","flzg8gbj8znzz7n","practice_recog","5f54dec7364a0485d880f139","5f60e3c0a3b16e07647b2ff9","5f61dbfc02dd8903b59a8ae3","true","1229.425000026822","./Stimuli/ImagesPractice/LN72.jpg","83","","","","test","true","","83","","LN","LN72.jpg","","new","42","3","practice_recog","left","","","",""
"categorize-image","115","539574","0.0-3.0-7.0-0.10","flzg8gbj8znzz7n","practice_recog","5f54dec7364a0485d880f139","5f60e3c0a3b16e07647b2ff9","5f61dbfc02dd8903b59a8ae3","true","832.0900000398979","./Stimuli/ImagesPractice/SM98.jpg","83","","","","test","false","","76","","SM","SM98.jpg","","old","43","3","practice_recog","left","","","",""
"categorize-image","116","542074","0.0-3.0-7.0-0.11","flzg8gbj8znzz7n","practice_recog","5f54dec7364a0485d880f139","5f60e3c0a3b16e07647b2ff9","5f61dbfc02dd8903b59a8ae3","true","1997.8600000031292","./Stimuli/ImagesPractice/SM35.jpg","83","","","","test","true","","83","","SM","SM35.jpg","","new","44","3","practice_recog","left","","","",""
"categorize-image","117","544320","0.0-3.0-7.0-0.12","flzg8gbj8znzz7n","practice_recog","5f54dec7364a0485d880f139","5f60e3c0a3b16e07647b2ff9","5f61dbfc02dd8903b59a8ae3","true","1741.4949999656528","./Stimuli/ImagesPractice/SN76.jpg","76","","","","test","true","","76","","SN","SN76.jpg","","old","45","3","practice_recog","right","","","",""
"categorize-image","118","545829","0.0-3.0-7.0-0.13","flzg8gbj8znzz7n","practice_recog","5f54dec7364a0485d880f139","5f60e3c0a3b16e07647b2ff9","5f61dbfc02dd8903b59a8ae3","true","1006.7500000586733","./Stimuli/ImagesPractice/LN4.jpg","83","","","","test","true","","83","","LN","LN4.jpg","","new","46","3","practice_recog","left","","","",""
"categorize-image","119","547617","0.0-3.0-7.0-0.14","flzg8gbj8znzz7n","practice_recog","5f54dec7364a0485d880f139","5f60e3c0a3b16e07647b2ff9","5f61dbfc02dd8903b59a8ae3","true","1286.3549999892712","./Stimuli/ImagesPractice/SM37.jpg","83","","","","test","true","","83","","SM","SM37.jpg","","new","47","3","practice_recog","left","","","",""
"categorize-image","120","549252","0.0-3.0-7.0-0.15","flzg8gbj8znzz7n","practice_recog","5f54dec7364a0485d880f139","5f60e3c0a3b16e07647b2ff9","5f61dbfc02dd8903b59a8ae3","true","1130.6499999482185","./Stimuli/ImagesPractice/SN220.jpg","76","","","","test","true","","76","","SN","SN220.jpg","","old","48","3","practice_recog","right","","","",""
"html-keyboard-response","121","566106","0.0-3.0-8.0","flzg8gbj8znzz7n","instructions","5f54dec7364a0485d880f139","5f60e3c0a3b16e07647b2ff9","5f61dbfc02dd8903b59a8ae3","false","16852.28500002995","<div align=left> Great!<br><br>Are you ready to continue?<br>If you want to reread the instructions and redo the practice trials, please <br>press „Z“.<br><br>You can proceed when you are ready.<br><br>After the presentation of each object, you will receive an instruction whether to <br>remember or to forget the object.<br>We will test your memory of the following pictures only at the very end of <br>the experiment after all learning blocks are completed. <br><br>Press SPACE to CONTINUE when you are ready. </div>","32","","","","","","","","","","","","","","","","","","","",""
"html-keyboard-response","122","605300","0.0-4.0-0.0","flzg8gbj8znzz7n","instructions","5f54dec7364a0485d880f139","5f60e3c0a3b16e07647b2ff9","5f61dbfc02dd8903b59a8ae3","false","39192.834999994375","<div align=left> The actual experiment is about to start.<br>The practice trials are over!<br><br>Please always respond both fast and accurately!<br><br>Remember: <br> <br><li> Please place your index fingers on the <strong>'S'</strong> and <strong>'L'</strong> keys <br>to respond as fast and accurately as possible.</li><li> Every picture can be classified as either mechanical or non-mechanical.</li><li> If you do not respond in time or commit an error, you will receive a corresponding feedback.<br> Please try to respond as <strong> fast </strong> and as <strong> accurately as possible </strong>.</li><li> Remember the <span style='color: dodgerblue; font-size: 28px'>O</span> pictures. <br></li><li> Please minimize distractions and stay focused. </li><br><br>Press SPACE to START.</div>","32","","","","","","","","","","","","","","","","","","","",""
"html-keyboard-response","123","606002","0.0-4.0-1.0-0.0","flzg8gbj8znzz7n","prime","5f54dec7364a0485d880f139","5f60e3c0a3b16e07647b2ff9","5f61dbfc02dd8903b59a8ae3","false","null","<span style=""color: black; font-size: 48px"">M + N</span>","null","","","","resp_prompt","","","","","","","","","","","","","","","",""
"categorize-image","124","606672","0.0-4.0-1.0-1.0","flzg8gbj8znzz7n","prime","5f54dec7364a0485d880f139","5f60e3c0a3b16e07647b2ff9","5f61dbfc02dd8903b59a8ae3","true","667.3650000011548","./Stimuli/SelectedImages/LM/LM58.bmp","83","","","","test","true","M + N","83","repetition","LM","LM58.bmp","remember","","49","3","prime1","left","","","",""
"html-keyboard-response","125","608673","0.0-4.0-1.0-3.0","flzg8gbj8znzz7n","prime","5f54dec7364a0485d880f139","5f60e3c0a3b16e07647b2ff9","5f61dbfc02dd8903b59a8ae3","false","null","<div style=""align-items: center; display: flex; color: dodgerblue; font-size: 90px""><b>o</b></div>","null","","","","forget_cue","","","","","","","","","","","","","","","",""
"html-keyboard-response","126","609376","0.0-4.0-1.0-0.1","flzg8gbj8znzz7n","prime","5f54dec7364a0485d880f139","5f60e3c0a3b16e07647b2ff9","5f61dbfc02dd8903b59a8ae3","false","null","<span style=""color: black; font-size: 48px"">N + M</span>","null","","","","resp_prompt","","","","","","","","","","","","","","","",""
"categorize-image","127","610036","0.0-4.0-1.0-1.1","flzg8gbj8znzz7n","prime","5f54dec7364a0485d880f139","5f60e3c0a3b16e07647b2ff9","5f61dbfc02dd8903b59a8ae3","true","657.9700000584126","./Stimuli/SelectedImages/SM/SM108.bmp","76","","","","test","true","N + M","76","repetition","SM","SM108.bmp","remember","","50","3","prime1","right","","","",""
"html-keyboard-response","128","612037","0.0-4.0-1.0-3.1","flzg8gbj8znzz7n","prime","5f54dec7364a0485d880f139","5f60e3c0a3b16e07647b2ff9","5f61dbfc02dd8903b59a8ae3","false","null","<div style=""align-items: center; display: flex; color: dodgerblue; font-size: 90px""><b>o</b></div>","null","","","","forget_cue","","","","","","","","","","","","","","","",""
"html-keyboard-response","129","612739","0.0-4.0-1.0-0.2","flzg8gbj8znzz7n","prime","5f54dec7364a0485d880f139","5f60e3c0a3b16e07647b2ff9","5f61dbfc02dd8903b59a8ae3","false","null","<span style=""color: black; font-size: 48px"">N + M</span>","null","","","","resp_prompt","","","","","","","","","","","","","","","",""
"categorize-image","130","613424","0.0-4.0-1.0-1.2","flzg8gbj8znzz7n","prime","5f54dec7364a0485d880f139","5f60e3c0a3b16e07647b2ff9","5f61dbfc02dd8903b59a8ae3","true","682.7200000407174","./Stimuli/SelectedImages/SM/SM195.bmp","76","","","","test","true","N + M","76","repetition","SM","SM195.bmp","forget","","51","3","prime1","right","","","",""
"html-keyboard-response","131","615426","0.0-4.0-1.0-3.2","flzg8gbj8znzz7n","prime","5f54dec7364a0485d880f139","5f60e3c0a3b16e07647b2ff9","5f61dbfc02dd8903b59a8ae3","false","null","<div style=""align-items: center; display: flex; color: darkorange; font-size: 90px""><b>ø</b></div>","null","","","","forget_cue","","","","","","","","","","","","","","","",""
"html-keyboard-response","132","616129","0.0-4.0-1.0-0.3","flzg8gbj8znzz7n","prime","5f54dec7364a0485d880f139","5f60e3c0a3b16e07647b2ff9","5f61dbfc02dd8903b59a8ae3","false","null","<span style=""color: black; font-size: 48px"">N + M</span>","null","","","","resp_prompt","","","","","","","","","","","","","","","",""
"categorize-image","133","616811","0.0-4.0-1.0-1.3","flzg8gbj8znzz7n","prime","5f54dec7364a0485d880f139","5f60e3c0a3b16e07647b2ff9","5f61dbfc02dd8903b59a8ae3","true","679.0549999568611","./Stimuli/SelectedImages/LM/LM48.bmp","76","","","","test","true","N + M","76","repetition","LM","LM48.bmp","remember","","52","3","prime1","right","","","",""
"html-keyboard-response","134","618812","0.0-4.0-1.0-3.3","flzg8gbj8znzz7n","prime","5f54dec7364a0485d880f139","5f60e3c0a3b16e07647b2ff9","5f61dbfc02dd8903b59a8ae3","false","null","<div style=""align-items: center; display: flex; color: dodgerblue; font-size: 90px""><b>o</b></div>","null","","","","forget_cue","","","","","","","","","","","","","","","",""
"html-keyboard-response","135","619514","0.0-4.0-1.0-0.4","flzg8gbj8znzz7n","prime","5f54dec7364a0485d880f139","5f60e3c0a3b16e07647b2ff9","5f61dbfc02dd8903b59a8ae3","false","null","<span style=""color: black; font-size: 48px"">N + M</span>","null","","","","resp_prompt","","","","","","","","","","","","","","","",""
"categorize-image","136","620258","0.0-4.0-1.0-1.4","flzg8gbj8znzz7n","prime","5f54dec7364a0485d880f139","5f60e3c0a3b16e07647b2ff9","5f61dbfc02dd8903b59a8ae3","true","741.3950000191107","./Stimuli/SelectedImages/SN/SN18.bmp","83","","","","test","true","N + M","83","switch","SN","SN18.bmp","forget","","53","3","prime1","left","","","",""
"html-keyboard-response","137","622259","0.0-4.0-1.0-3.4","flzg8gbj8znzz7n","prime","5f54dec7364a0485d880f139","5f60e3c0a3b16e07647b2ff9","5f61dbfc02dd8903b59a8ae3","false","null","<div style=""align-items: center; display: flex; color: darkorange; font-size: 90px""><b>ø</b></div>","null","","","","forget_cue","","","","","","","","","","","","","","","",""
"html-keyboard-response","138","622960","0.0-4.0-1.0-0.5","flzg8gbj8znzz7n","prime","5f54dec7364a0485d880f139","5f60e3c0a3b16e07647b2ff9","5f61dbfc02dd8903b59a8ae3","false","null","<span style=""color: black; font-size: 48px"">N + M</span>","null","","","","resp_prompt","","","","","","","","","","","","","","","",""
"categorize-image","139","623584","0.0-4.0-1.0-1.5","flzg8gbj8znzz7n","prime","5f54dec7364a0485d880f139","5f60e3c0a3b16e07647b2ff9","5f61dbfc02dd8903b59a8ae3","true","621.8949999893084","./Stimuli/SelectedImages/LM/LM235.bmp","76","","","","test","true","N + M","76","switch","LM","LM235.bmp","forget","","54","3","prime1","right","","","",""
"html-keyboard-response","140","625585","0.0-4.0-1.0-3.5","flzg8gbj8znzz7n","prime","5f54dec7364a0485d880f139","5f60e3c0a3b16e07647b2ff9","5f61dbfc02dd8903b59a8ae3","false","null","<div style=""align-items: center; display: flex; color: darkorange; font-size: 90px""><b>ø</b></div>","null","","","","forget_cue","","","","","","","","","","","","","","","",""
"html-keyboard-response","141","626286","0.0-4.0-1.0-0.6","flzg8gbj8znzz7n","prime","5f54dec7364a0485d880f139","5f60e3c0a3b16e07647b2ff9","5f61dbfc02dd8903b59a8ae3","false","null","<span style=""color: black; font-size: 48px"">M + N</span>","null","","","","resp_prompt","","","","","","","","","","","","","","","",""
"categorize-image","142","626935","0.0-4.0-1.0-1.6","flzg8gbj8znzz7n","prime","5f54dec7364a0485d880f139","5f60e3c0a3b16e07647b2ff9","5f61dbfc02dd8903b59a8ae3","true","643.8549999147654","./Stimuli/SelectedImages/SN/SN240.bmp","76","","","","test","true","M + N","76","repetition","SN","SN240.bmp","forget","","55","3","prime1","right","","","",""
"html-keyboard-response","143","628937","0.0-4.0-1.0-3.6","flzg8gbj8znzz7n","prime","5f54dec7364a0485d880f139","5f60e3c0a3b16e07647b2ff9","5f61dbfc02dd8903b59a8ae3","false","null","<div style=""align-items: center; display: flex; color: darkorange; font-size: 90px""><b>ø</b></div>","null","","","","forget_cue","","","","","","","","","","","","","","","",""
"html-keyboard-response","144","629638","0.0-4.0-1.0-0.7","flzg8gbj8znzz7n","prime","5f54dec7364a0485d880f139","5f60e3c0a3b16e07647b2ff9","5f61dbfc02dd8903b59a8ae3","false","null","<span style=""color: black; font-size: 48px"">N + M</span>","null","","","","resp_prompt","","","","","","","","","","","","","","","",""
"categorize-image","145","630449","0.0-4.0-1.0-1.7","flzg8gbj8znzz7n","prime","5f54dec7364a0485d880f139","5f60e3c0a3b16e07647b2ff9","5f61dbfc02dd8903b59a8ae3","true","807.7050000429153","./Stimuli/SelectedImages/LN/LN131.bmp","76","","","","test","false","N + M","83","switch","LN","LN131.bmp","forget","","56","3","prime1","right","","","",""
"html-keyboard-response","146","630951","0.0-4.0-1.0-2.7-0.7","flzg8gbj8znzz7n","prime","5f54dec7364a0485d880f139","5f60e3c0a3b16e07647b2ff9","5f61dbfc02dd8903b59a8ae3","false","null","<span style=""color: red; font-size: 48px"">Error!</span>","null","","","","feedback","","","","","","","","","","","","","","","",""
"html-keyboard-response","147","632953","0.0-4.0-1.0-3.7","flzg8gbj8znzz7n","prime","5f54dec7364a0485d880f139","5f60e3c0a3b16e07647b2ff9","5f61dbfc02dd8903b59a8ae3","false","null","<div style=""align-items: center; display: flex; color: darkorange; font-size: 90px""><b>ø</b></div>","null","","","","forget_cue","","","","","","","","","","","","","","","",""
"html-keyboard-response","148","633654","0.0-4.0-1.0-0.8","flzg8gbj8znzz7n","prime","5f54dec7364a0485d880f139","5f60e3c0a3b16e07647b2ff9","5f61dbfc02dd8903b59a8ae3","false","null","<span style=""color: black; font-size: 48px"">N + M</span>","null","","","","resp_prompt","","","","","","","","","","","","","","","",""
"categorize-image","149","634279","0.0-4.0-1.0-1.8","flzg8gbj8znzz7n","prime","5f54dec7364a0485d880f139","5f60e3c0a3b16e07647b2ff9","5f61dbfc02dd8903b59a8ae3","true","622.9899999452755","./Stimuli/SelectedImages/LM/LM129.bmp","76","","","","test","true","N + M","76","switch","LM","LM129.bmp","remember","","57","3","prime1","right","","","",""
"html-keyboard-response","150","636281","0.0-4.0-1.0-3.8","flzg8gbj8znzz7n","prime","5f54dec7364a0485d880f139","5f60e3c0a3b16e07647b2ff9","5f61dbfc02dd8903b59a8ae3","false","null","<div style=""align-items: center; display: flex; color: dodgerblue; font-size: 90px""><b>o</b></div>","null","","","","forget_cue","","","","","","","","","","","","","","","",""
"html-keyboard-response","151","636982","0.0-4.0-1.0-0.9","flzg8gbj8znzz7n","prime","5f54dec7364a0485d880f139","5f60e3c0a3b16e07647b2ff9","5f61dbfc02dd8903b59a8ae3","false","null","<span style=""color: black; font-size: 48px"">M + N</span>","null","","","","resp_prompt","","","","","","","","","","","","","","","",""
"categorize-image","152","637549","0.0-4.0-1.0-1.9","flzg8gbj8znzz7n","prime","5f54dec7364a0485d880f139","5f60e3c0a3b16e07647b2ff9","5f61dbfc02dd8903b59a8ae3","true","564.8100000107661","./Stimuli/SelectedImages/SM/SM148.bmp","83","","","","test","true","M + N","83","repetition","SM","SM148.bmp","forget","","58","3","prime1","left","","","",""
"html-keyboard-response","153","639551","0.0-4.0-1.0-3.9","flzg8gbj8znzz7n","prime","5f54dec7364a0485d880f139","5f60e3c0a3b16e07647b2ff9","5f61dbfc02dd8903b59a8ae3","false","null","<div style=""align-items: center; display: flex; color: darkorange; font-size: 90px""><b>ø</b></div>","null","","","","forget_cue","","","","","","","","","","","","","","","",""
"html-keyboard-response","154","640252","0.0-4.0-1.0-0.10","flzg8gbj8znzz7n","prime","5f54dec7364a0485d880f139","5f60e3c0a3b16e07647b2ff9","5f61dbfc02dd8903b59a8ae3","false","null","<span style=""color: black; font-size: 48px"">N + M</span>","null","","","","resp_prompt","","","","","","","","","","","","","","","",""
"categorize-image","155","641092","0.0-4.0-1.0-1.10","flzg8gbj8znzz7n","prime","5f54dec7364a0485d880f139","5f60e3c0a3b16e07647b2ff9","5f61dbfc02dd8903b59a8ae3","true","836.0950000351295","./Stimuli/SelectedImages/LN/LN177.bmp","76","","","","test","false","N + M","83","repetition","LN","LN177.bmp","forget","","59","3","prime1","right","","","",""
"html-keyboard-response","156","641593","0.0-4.0-1.0-2.10-0.10","flzg8gbj8znzz7n","prime","5f54dec7364a0485d880f139","5f60e3c0a3b16e07647b2ff9","5f61dbfc02dd8903b59a8ae3","false","null","<span style=""color: red; font-size: 48px"">Error!</span>","null","","","","feedback","","","","","","","","","","","","","","","",""
"html-keyboard-response","157","643595","0.0-4.0-1.0-3.10","flzg8gbj8znzz7n","prime","5f54dec7364a0485d880f139","5f60e3c0a3b16e07647b2ff9","5f61dbfc02dd8903b59a8ae3","false","null","<div style=""align-items: center; display: flex; color: darkorange; font-size: 90px""><b>ø</b></div>","null","","","","forget_cue","","","","","","","","","","","","","","","",""
"html-keyboard-response","158","644296","0.0-4.0-1.0-0.11","flzg8gbj8znzz7n","prime","5f54dec7364a0485d880f139","5f60e3c0a3b16e07647b2ff9","5f61dbfc02dd8903b59a8ae3","false","null","<span style=""color: black; font-size: 48px"">N + M</span>","null","","","","resp_prompt","","","","","","","","","","","","","","","",""
"categorize-image","159","645037","0.0-4.0-1.0-1.11","flzg8gbj8znzz7n","prime","5f54dec7364a0485d880f139","5f60e3c0a3b16e07647b2ff9","5f61dbfc02dd8903b59a8ae3","true","737.1300000231713","./Stimuli/SelectedImages/LM/LM100.bmp","76","","","","test","true","N + M","76","switch","LM","LM100.bmp","forget","","60","3","prime1","right","","","",""
"html-keyboard-response","160","647039","0.0-4.0-1.0-3.11","flzg8gbj8znzz7n","prime","5f54dec7364a0485d880f139","5f60e3c0a3b16e07647b2ff9","5f61dbfc02dd8903b59a8ae3","false","null","<div style=""align-items: center; display: flex; color: darkorange; font-size: 90px""><b>ø</b></div>","null","","","","forget_cue","","","","","","","","","","","","","","","",""
"html-keyboard-response","161","647741","0.0-4.0-1.0-0.12","flzg8gbj8znzz7n","prime","5f54dec7364a0485d880f139","5f60e3c0a3b16e07647b2ff9","5f61dbfc02dd8903b59a8ae3","false","null","<span style=""color: black; font-size: 48px"">M + N</span>","null","","","","resp_prompt","","","","","","","","","","","","","","","",""
"categorize-image","162","648639","0.0-4.0-1.0-1.12","flzg8gbj8znzz7n","prime","5f54dec7364a0485d880f139","5f60e3c0a3b16e07647b2ff9","5f61dbfc02dd8903b59a8ae3","true","895.1850000303239","./Stimuli/SelectedImages/SN/SN179.bmp","76","","","","test","true","M + N","76","switch","SN","SN179.bmp","forget","","61","3","prime1","right","","","",""
"html-keyboard-response","163","650640","0.0-4.0-1.0-3.12","flzg8gbj8znzz7n","prime","5f54dec7364a0485d880f139","5f60e3c0a3b16e07647b2ff9","5f61dbfc02dd8903b59a8ae3","false","null","<div style=""align-items: center; display: flex; color: darkorange; font-size: 90px""><b>ø</b></div>","null","","","","forget_cue","","","","","","","","","","","","","","","",""
"html-keyboard-response","164","651342","0.0-4.0-1.0-0.13","flzg8gbj8znzz7n","prime","5f54dec7364a0485d880f139","5f60e3c0a3b16e07647b2ff9","5f61dbfc02dd8903b59a8ae3","false","null","<span style=""color: black; font-size: 48px"">N + M</span>","null","","","","resp_prompt","","","","","","","","","","","","","","","",""
"categorize-image","165","652235","0.0-4.0-1.0-1.13","flzg8gbj8znzz7n","prime","5f54dec7364a0485d880f139","5f60e3c0a3b16e07647b2ff9","5f61dbfc02dd8903b59a8ae3","true","887.0400000596419","./Stimuli/SelectedImages/LN/LN42.bmp","83","","","","test","true","N + M","83","repetition","LN","LN42.bmp","remember","","62","3","prime1","left","","","",""
"html-keyboard-response","166","654236","0.0-4.0-1.0-3.13","flzg8gbj8znzz7n","prime","5f54dec7364a0485d880f139","5f60e3c0a3b16e07647b2ff9","5f61dbfc02dd8903b59a8ae3","false","null","<div style=""align-items: center; display: flex; color: dodgerblue; font-size: 90px""><b>o</b></div>","null","","","","forget_cue","","","","","","","","","","","","","","","",""
"html-keyboard-response","167","654937","0.0-4.0-1.0-0.14","flzg8gbj8znzz7n","prime","5f54dec7364a0485d880f139","5f60e3c0a3b16e07647b2ff9","5f61dbfc02dd8903b59a8ae3","false","null","<span style=""color: black; font-size: 48px"">M + N</span>","null","","","","resp_prompt","","","","","","","","","","","","","","","",""
"categorize-image","168","655696","0.0-4.0-1.0-1.14","flzg8gbj8znzz7n","prime","5f54dec7364a0485d880f139","5f60e3c0a3b16e07647b2ff9","5f61dbfc02dd8903b59a8ae3","true","757.3799999663606","./Stimuli/SelectedImages/LN/LN111.bmp","76","","","","test","true","M + N","76","repetition","LN","LN111.bmp","forget","","63","3","prime1","right","","","",""
"html-keyboard-response","169","657697","0.0-4.0-1.0-3.14","flzg8gbj8znzz7n","prime","5f54dec7364a0485d880f139","5f60e3c0a3b16e07647b2ff9","5f61dbfc02dd8903b59a8ae3","false","null","<div style=""align-items: center; display: flex; color: darkorange; font-size: 90px""><b>ø</b></div>","null","","","","forget_cue","","","","","","","","","","","","","","","",""
"html-keyboard-response","170","658399","0.0-4.0-1.0-0.15","flzg8gbj8znzz7n","prime","5f54dec7364a0485d880f139","5f60e3c0a3b16e07647b2ff9","5f61dbfc02dd8903b59a8ae3","false","null","<span style=""color: black; font-size: 48px"">N + M</span>","null","","","","resp_prompt","","","","","","","","","","","","","","","",""
"categorize-image","171","659295","0.0-4.0-1.0-1.15","flzg8gbj8znzz7n","prime","5f54dec7364a0485d880f139","5f60e3c0a3b16e07647b2ff9","5f61dbfc02dd8903b59a8ae3","true","892.5449999514967","./Stimuli/SelectedImages/SN/SN181.bmp","76","","","","test","false","N + M","83","repetition","SN","SN181.bmp","remember","","64","3","prime1","right","","","",""
"html-keyboard-response","172","659797","0.0-4.0-1.0-2.15-0.15","flzg8gbj8znzz7n","prime","5f54dec7364a0485d880f139","5f60e3c0a3b16e07647b2ff9","5f61dbfc02dd8903b59a8ae3","false","null","<span style=""color: red; font-size: 48px"">Error!</span>","null","","","","feedback","","","","","","","","","","","","","","","",""
"html-keyboard-response","173","661798","0.0-4.0-1.0-3.15","flzg8gbj8znzz7n","prime","5f54dec7364a0485d880f139","5f60e3c0a3b16e07647b2ff9","5f61dbfc02dd8903b59a8ae3","false","null","<div style=""align-items: center; display: flex; color: dodgerblue; font-size: 90px""><b>o</b></div>","null","","","","forget_cue","","","","","","","","","","","","","","","",""
"html-keyboard-response","174","662499","0.0-4.0-1.0-0.16","flzg8gbj8znzz7n","prime","5f54dec7364a0485d880f139","5f60e3c0a3b16e07647b2ff9","5f61dbfc02dd8903b59a8ae3","false","null","<span style=""color: black; font-size: 48px"">M + N</span>","null","","","","resp_prompt","","","","","","","","","","","","","","","",""
"categorize-image","175","663096","0.0-4.0-1.0-1.16","flzg8gbj8znzz7n","prime","5f54dec7364a0485d880f139","5f60e3c0a3b16e07647b2ff9","5f61dbfc02dd8903b59a8ae3","true","594.3249999545515","./Stimuli/SelectedImages/SM/SM207.bmp","83","","","","test","true","M + N","83","repetition","SM","SM207.bmp","forget","","65","3","prime1","left","","","",""
"html-keyboard-response","176","665098","0.0-4.0-1.0-3.16","flzg8gbj8znzz7n","prime","5f54dec7364a0485d880f139","5f60e3c0a3b16e07647b2ff9","5f61dbfc02dd8903b59a8ae3","false","null","<div style=""align-items: center; display: flex; color: darkorange; font-size: 90px""><b>ø</b></div>","null","","","","forget_cue","","","","","","","","","","","","","","","",""
"html-keyboard-response","177","665800","0.0-4.0-1.0-0.17","flzg8gbj8znzz7n","prime","5f54dec7364a0485d880f139","5f60e3c0a3b16e07647b2ff9","5f61dbfc02dd8903b59a8ae3","false","null","<span style=""color: black; font-size: 48px"">N + M</span>","null","","","","resp_prompt","","","","","","","","","","","","","","","",""
"categorize-image","178","666544","0.0-4.0-1.0-1.17","flzg8gbj8znzz7n","prime","5f54dec7364a0485d880f139","5f60e3c0a3b16e07647b2ff9","5f61dbfc02dd8903b59a8ae3","true","741.2049999693409","./Stimuli/SelectedImages/LM/LM150.bmp","76","","","","test","true","N + M","76","repetition","LM","LM150.bmp","remember","","66","3","prime1","right","","","",""
"html-keyboard-response","179","668545","0.0-4.0-1.0-3.17","flzg8gbj8znzz7n","prime","5f54dec7364a0485d880f139","5f60e3c0a3b16e07647b2ff9","5f61dbfc02dd8903b59a8ae3","false","null","<div style=""align-items: center; display: flex; color: dodgerblue; font-size: 90px""><b>o</b></div>","null","","","","forget_cue","","","","","","","","","","","","","","","",""
"html-keyboard-response","180","669247","0.0-4.0-1.0-0.18","flzg8gbj8znzz7n","prime","5f54dec7364a0485d880f139","5f60e3c0a3b16e07647b2ff9","5f61dbfc02dd8903b59a8ae3","false","null","<span style=""color: black; font-size: 48px"">N + M</span>","null","","","","resp_prompt","","","","","","","","","","","","","","","",""
"categorize-image","181","669873","0.0-4.0-1.0-1.18","flzg8gbj8znzz7n","prime","5f54dec7364a0485d880f139","5f60e3c0a3b16e07647b2ff9","5f61dbfc02dd8903b59a8ae3","true","624.0449999459088","./Stimuli/SelectedImages/SM/SM128.bmp","76","","","","test","true","N + M","76","repetition","SM","SM128.bmp","remember","","67","3","prime1","right","","","",""
"html-keyboard-response","182","671874","0.0-4.0-1.0-3.18","flzg8gbj8znzz7n","prime","5f54dec7364a0485d880f139","5f60e3c0a3b16e07647b2ff9","5f61dbfc02dd8903b59a8ae3","false","null","<div style=""align-items: center; display: flex; color: dodgerblue; font-size: 90px""><b>o</b></div>","null","","","","forget_cue","","","","","","","","","","","","","","","",""
"html-keyboard-response","183","672575","0.0-4.0-1.0-0.19","flzg8gbj8znzz7n","prime","5f54dec7364a0485d880f139","5f60e3c0a3b16e07647b2ff9","5f61dbfc02dd8903b59a8ae3","false","null","<span style=""color: black; font-size: 48px"">M + N</span>","null","","","","resp_prompt","","","","","","","","","","","","","","","",""
"categorize-image","184","673481","0.0-4.0-1.0-1.19","flzg8gbj8znzz7n","prime","5f54dec7364a0485d880f139","5f60e3c0a3b16e07647b2ff9","5f61dbfc02dd8903b59a8ae3","true","903.3549999585375","./Stimuli/SelectedImages/SN/SN187.bmp","76","","","","test","true","M + N","76","repetition","SN","SN187.bmp","forget","","68","3","prime1","right","","","",""
"html-keyboard-response","185","675483","0.0-4.0-1.0-3.19","flzg8gbj8znzz7n","prime","5f54dec7364a0485d880f139","5f60e3c0a3b16e07647b2ff9","5f61dbfc02dd8903b59a8ae3","false","null","<div style=""align-items: center; display: flex; color: darkorange; font-size: 90px""><b>ø</b></div>","null","","","","forget_cue","","","","","","","","","","","","","","","",""
"html-keyboard-response","186","676184","0.0-4.0-1.0-0.20","flzg8gbj8znzz7n","prime","5f54dec7364a0485d880f139","5f60e3c0a3b16e07647b2ff9","5f61dbfc02dd8903b59a8ae3","false","null","<span style=""color: black; font-size: 48px"">N + M</span>","null","","","","resp_prompt","","","","","","","","","","","","","","","",""
"categorize-image","187","676964","0.0-4.0-1.0-1.20","flzg8gbj8znzz7n","prime","5f54dec7364a0485d880f139","5f60e3c0a3b16e07647b2ff9","5f61dbfc02dd8903b59a8ae3","true","777.0550000714138","./Stimuli/SelectedImages/LN/LN12.bmp","83","","","","test","true","N + M","83","repetition","LN","LN12.bmp","remember","","69","3","prime1","left","","","",""
"html-keyboard-response","188","678966","0.0-4.0-1.0-3.20","flzg8gbj8znzz7n","prime","5f54dec7364a0485d880f139","5f60e3c0a3b16e07647b2ff9","5f61dbfc02dd8903b59a8ae3","false","null","<div style=""align-items: center; display: flex; color: dodgerblue; font-size: 90px""><b>o</b></div>","null","","","","forget_cue","","","","","","","","","","","","","","","",""
"html-keyboard-response","189","679667","0.0-4.0-1.0-0.21","flzg8gbj8znzz7n","prime","5f54dec7364a0485d880f139","5f60e3c0a3b16e07647b2ff9","5f61dbfc02dd8903b59a8ae3","false","null","<span style=""color: black; font-size: 48px"">M + N</span>","null","","","","resp_prompt","","","","","","","","","","","","","","","",""
"categorize-image","190","680203","0.0-4.0-1.0-1.21","flzg8gbj8znzz7n","prime","5f54dec7364a0485d880f139","5f60e3c0a3b16e07647b2ff9","5f61dbfc02dd8903b59a8ae3","true","532.5850000372157","./Stimuli/SelectedImages/LM/LM179.bmp","83","","","","test","true","M + N","83","switch","LM","LM179.bmp","remember","","70","3","prime1","left","","","",""
"html-keyboard-response","191","682203","0.0-4.0-1.0-3.21","flzg8gbj8znzz7n","prime","5f54dec7364a0485d880f139","5f60e3c0a3b16e07647b2ff9","5f61dbfc02dd8903b59a8ae3","false","null","<div style=""align-items: center; display: flex; color: dodgerblue; font-size: 90px""><b>o</b></div>","null","","","","forget_cue","","","","","","","","","","","","","","","",""
"html-keyboard-response","192","682905","0.0-4.0-1.0-0.22","flzg8gbj8znzz7n","prime","5f54dec7364a0485d880f139","5f60e3c0a3b16e07647b2ff9","5f61dbfc02dd8903b59a8ae3","false","null","<span style=""color: black; font-size: 48px"">N + M</span>","null","","","","resp_prompt","","","","","","","","","","","","","","","",""
"categorize-image","193","683448","0.0-4.0-1.0-1.22","flzg8gbj8znzz7n","prime","5f54dec7364a0485d880f139","5f60e3c0a3b16e07647b2ff9","5f61dbfc02dd8903b59a8ae3","true","540.6400000210851","./Stimuli/SelectedImages/SN/SN182.bmp","76","","","","test","false","N + M","83","switch","SN","SN182.bmp","remember","","71","3","prime1","right","","","",""
"html-keyboard-response","194","683951","0.0-4.0-1.0-2.22-0.22","flzg8gbj8znzz7n","prime","5f54dec7364a0485d880f139","5f60e3c0a3b16e07647b2ff9","5f61dbfc02dd8903b59a8ae3","false","null","<span style=""color: red; font-size: 48px"">Error!</span>","null","","","","feedback","","","","","","","","","","","","","","","",""
"html-keyboard-response","195","685953","0.0-4.0-1.0-3.22","flzg8gbj8znzz7n","prime","5f54dec7364a0485d880f139","5f60e3c0a3b16e07647b2ff9","5f61dbfc02dd8903b59a8ae3","false","null","<div style=""align-items: center; display: flex; color: dodgerblue; font-size: 90px""><b>o</b></div>","null","","","","forget_cue","","","","","","","","","","","","","","","",""
"html-keyboard-response","196","686655","0.0-4.0-1.0-0.23","flzg8gbj8znzz7n","prime","5f54dec7364a0485d880f139","5f60e3c0a3b16e07647b2ff9","5f61dbfc02dd8903b59a8ae3","false","null","<span style=""color: black; font-size: 48px"">N + M</span>","null","","","","resp_prompt","","","","","","","","","","","","","","","",""
"categorize-image","197","687310","0.0-4.0-1.0-1.23","flzg8gbj8znzz7n","prime","5f54dec7364a0485d880f139","5f60e3c0a3b16e07647b2ff9","5f61dbfc02dd8903b59a8ae3","true","652.8249999973923","./Stimuli/SelectedImages/SN/SN155.bmp","76","","","","test","false","N + M","83","repetition","SN","SN155.bmp","forget","","72","3","prime1","right","","","",""
"html-keyboard-response","198","687812","0.0-4.0-1.0-2.23-0.23","flzg8gbj8znzz7n","prime","5f54dec7364a0485d880f139","5f60e3c0a3b16e07647b2ff9","5f61dbfc02dd8903b59a8ae3","false","null","<span style=""color: red; font-size: 48px"">Error!</span>","null","","","","feedback","","","","","","","","","","","","","","","",""
"html-keyboard-response","199","689814","0.0-4.0-1.0-3.23","flzg8gbj8znzz7n","prime","5f54dec7364a0485d880f139","5f60e3c0a3b16e07647b2ff9","5f61dbfc02dd8903b59a8ae3","false","null","<div style=""align-items: center; display: flex; color: darkorange; font-size: 90px""><b>ø</b></div>","null","","","","forget_cue","","","","","","","","","","","","","","","",""
"html-keyboard-response","200","690515","0.0-4.0-1.0-0.24","flzg8gbj8znzz7n","prime","5f54dec7364a0485d880f139","5f60e3c0a3b16e07647b2ff9","5f61dbfc02dd8903b59a8ae3","false","null","<span style=""color: black; font-size: 48px"">N + M</span>","null","","","","resp_prompt","","","","","","","","","","","","","","","",""
"categorize-image","201","691227","0.0-4.0-1.0-1.24","flzg8gbj8znzz7n","prime","5f54dec7364a0485d880f139","5f60e3c0a3b16e07647b2ff9","5f61dbfc02dd8903b59a8ae3","true","708.5250000236556","./Stimuli/SelectedImages/SN/SN27.bmp","83","","","","test","true","N + M","83","repetition","SN","SN27.bmp","remember","","73","3","prime1","left","","","",""
"html-keyboard-response","202","693228","0.0-4.0-1.0-3.24","flzg8gbj8znzz7n","prime","5f54dec7364a0485d880f139","5f60e3c0a3b16e07647b2ff9","5f61dbfc02dd8903b59a8ae3","false","null","<div style=""align-items: center; display: flex; color: dodgerblue; font-size: 90px""><b>o</b></div>","null","","","","forget_cue","","","","","","","","","","","","","","","",""
"html-keyboard-response","203","693929","0.0-4.0-1.0-0.25","flzg8gbj8znzz7n","prime","5f54dec7364a0485d880f139","5f60e3c0a3b16e07647b2ff9","5f61dbfc02dd8903b59a8ae3","false","null","<span style=""color: black; font-size: 48px"">M + N</span>","null","","","","resp_prompt","","","","","","","","","","","","","","","",""
"categorize-image","204","694773","0.0-4.0-1.0-1.25","flzg8gbj8znzz7n","prime","5f54dec7364a0485d880f139","5f60e3c0a3b16e07647b2ff9","5f61dbfc02dd8903b59a8ae3","true","841.2149999057874","./Stimuli/SelectedImages/SN/SN64.bmp","76","","","","test","true","M + N","76","switch","SN","SN64.bmp","remember","","74","3","prime1","right","","","",""
"html-keyboard-response","205","696775","0.0-4.0-1.0-3.25","flzg8gbj8znzz7n","prime","5f54dec7364a0485d880f139","5f60e3c0a3b16e07647b2ff9","5f61dbfc02dd8903b59a8ae3","false","null","<div style=""align-items: center; display: flex; color: dodgerblue; font-size: 90px""><b>o</b></div>","null","","","","forget_cue","","","","","","","","","","","","","","","",""
"html-keyboard-response","206","697477","0.0-4.0-1.0-0.26","flzg8gbj8znzz7n","prime","5f54dec7364a0485d880f139","5f60e3c0a3b16e07647b2ff9","5f61dbfc02dd8903b59a8ae3","false","null","<span style=""color: black; font-size: 48px"">N + M</span>","null","","","","resp_prompt","","","","","","","","","","","","","","","",""
"categorize-image","207","698359","0.0-4.0-1.0-1.26","flzg8gbj8znzz7n","prime","5f54dec7364a0485d880f139","5f60e3c0a3b16e07647b2ff9","5f61dbfc02dd8903b59a8ae3","true","879.6049999073148","./Stimuli/SelectedImages/SM/SM184.bmp","76","","","","test","true","N + M","76","switch","SM","SM184.bmp","forget","","75","3","prime1","right","","","",""
"html-keyboard-response","208","700360","0.0-4.0-1.0-3.26","flzg8gbj8znzz7n","prime","5f54dec7364a0485d880f139","5f60e3c0a3b16e07647b2ff9","5f61dbfc02dd8903b59a8ae3","false","null","<div style=""align-items: center; display: flex; color: darkorange; font-size: 90px""><b>ø</b></div>","null","","","","forget_cue","","","","","","","","","","","","","","","",""
"html-keyboard-response","209","701061","0.0-4.0-1.0-0.27","flzg8gbj8znzz7n","prime","5f54dec7364a0485d880f139","5f60e3c0a3b16e07647b2ff9","5f61dbfc02dd8903b59a8ae3","false","null","<span style=""color: black; font-size: 48px"">M + N</span>","null","","","","resp_prompt","","","","","","","","","","","","","","","",""
"categorize-image","210","701821","0.0-4.0-1.0-1.27","flzg8gbj8znzz7n","prime","5f54dec7364a0485d880f139","5f60e3c0a3b16e07647b2ff9","5f61dbfc02dd8903b59a8ae3","true","757.0149999810383","./Stimuli/SelectedImages/SN/SN52.bmp","76","","","","test","true","M + N","76","repetition","SN","SN52.bmp","remember","","76","3","prime1","right","","","",""
"html-keyboard-response","211","703823","0.0-4.0-1.0-3.27","flzg8gbj8znzz7n","prime","5f54dec7364a0485d880f139","5f60e3c0a3b16e07647b2ff9","5f61dbfc02dd8903b59a8ae3","false","null","<div style=""align-items: center; display: flex; color: dodgerblue; font-size: 90px""><b>o</b></div>","null","","","","forget_cue","","","","","","","","","","","","","","","",""
"html-keyboard-response","212","704524","0.0-4.0-1.0-0.28","flzg8gbj8znzz7n","prime","5f54dec7364a0485d880f139","5f60e3c0a3b16e07647b2ff9","5f61dbfc02dd8903b59a8ae3","false","null","<span style=""color: black; font-size: 48px"">N + M</span>","null","","","","resp_prompt","","","","","","","","","","","","","","","",""
"categorize-image","213","705555","0.0-4.0-1.0-1.28","flzg8gbj8znzz7n","prime","5f54dec7364a0485d880f139","5f60e3c0a3b16e07647b2ff9","5f61dbfc02dd8903b59a8ae3","true","1028.385000070557","./Stimuli/SelectedImages/LN/LN149.bmp","83","","","","test","true","N + M","83","switch","LN","LN149.bmp","remember","","77","3","prime1","left","","","",""
"html-keyboard-response","214","707557","0.0-4.0-1.0-3.28","flzg8gbj8znzz7n","prime","5f54dec7364a0485d880f139","5f60e3c0a3b16e07647b2ff9","5f61dbfc02dd8903b59a8ae3","false","null","<div style=""align-items: center; display: flex; color: dodgerblue; font-size: 90px""><b>o</b></div>","null","","","","forget_cue","","","","","","","","","","","","","","","",""
"html-keyboard-response","215","708258","0.0-4.0-1.0-0.29","flzg8gbj8znzz7n","prime","5f54dec7364a0485d880f139","5f60e3c0a3b16e07647b2ff9","5f61dbfc02dd8903b59a8ae3","false","null","<span style=""color: black; font-size: 48px"">M + N</span>","null","","","","resp_prompt","","","","","","","","","","","","","","","",""
"categorize-image","216","708914","0.0-4.0-1.0-1.29","flzg8gbj8znzz7n","prime","5f54dec7364a0485d880f139","5f60e3c0a3b16e07647b2ff9","5f61dbfc02dd8903b59a8ae3","true","652.9999999329448","./Stimuli/SelectedImages/LM/LM51.bmp","83","","","","test","true","M + N","83","switch","LM","LM51.bmp","forget","","78","3","prime1","left","","","",""
"html-keyboard-response","217","710915","0.0-4.0-1.0-3.29","flzg8gbj8znzz7n","prime","5f54dec7364a0485d880f139","5f60e3c0a3b16e07647b2ff9","5f61dbfc02dd8903b59a8ae3","false","null","<div style=""align-items: center; display: flex; color: darkorange; font-size: 90px""><b>ø</b></div>","null","","","","forget_cue","","","","","","","","","","","","","","","",""
"html-keyboard-response","218","711616","0.0-4.0-1.0-0.30","flzg8gbj8znzz7n","prime","5f54dec7364a0485d880f139","5f60e3c0a3b16e07647b2ff9","5f61dbfc02dd8903b59a8ae3","false","null","<span style=""color: black; font-size: 48px"">M + N</span>","null","","","","resp_prompt","","","","","","","","","","","","","","","",""
"categorize-image","219","712439","0.0-4.0-1.0-1.30","flzg8gbj8znzz7n","prime","5f54dec7364a0485d880f139","5f60e3c0a3b16e07647b2ff9","5f61dbfc02dd8903b59a8ae3","true","819.5400000549853","./Stimuli/SelectedImages/SM/SM74.bmp","83","","","","test","true","M + N","83","repetition","SM","SM74.bmp","remember","","79","3","prime1","left","","","",""
"html-keyboard-response","220","714440","0.0-4.0-1.0-3.30","flzg8gbj8znzz7n","prime","5f54dec7364a0485d880f139","5f60e3c0a3b16e07647b2ff9","5f61dbfc02dd8903b59a8ae3","false","null","<div style=""align-items: center; display: flex; color: dodgerblue; font-size: 90px""><b>o</b></div>","null","","","","forget_cue","","","","","","","","","","","","","","","",""
"html-keyboard-response","221","715141","0.0-4.0-1.0-0.31","flzg8gbj8znzz7n","prime","5f54dec7364a0485d880f139","5f60e3c0a3b16e07647b2ff9","5f61dbfc02dd8903b59a8ae3","false","null","<span style=""color: black; font-size: 48px"">M + N</span>","null","","","","resp_prompt","","","","","","","","","","","","","","","",""
"categorize-image","222","715797","0.0-4.0-1.0-1.31","flzg8gbj8znzz7n","prime","5f54dec7364a0485d880f139","5f60e3c0a3b16e07647b2ff9","5f61dbfc02dd8903b59a8ae3","true","652.4350000545382","./Stimuli/SelectedImages/SM/SM200.bmp","83","","","","test","true","M + N","83","switch","SM","SM200.bmp","remember","","80","3","prime1","left","","","",""
"html-keyboard-response","223","717799","0.0-4.0-1.0-3.31","flzg8gbj8znzz7n","prime","5f54dec7364a0485d880f139","5f60e3c0a3b16e07647b2ff9","5f61dbfc02dd8903b59a8ae3","false","null","<div style=""align-items: center; display: flex; color: dodgerblue; font-size: 90px""><b>o</b></div>","null","","","","forget_cue","","","","","","","","","","","","","","","",""
"html-keyboard-response","224","718501","0.0-4.0-1.0-0.32","flzg8gbj8znzz7n","prime","5f54dec7364a0485d880f139","5f60e3c0a3b16e07647b2ff9","5f61dbfc02dd8903b59a8ae3","false","null","<span style=""color: black; font-size: 48px"">M + N</span>","null","","","","resp_prompt","","","","","","","","","","","","","","","",""
"categorize-image","225","719110","0.0-4.0-1.0-1.32","flzg8gbj8znzz7n","prime","5f54dec7364a0485d880f139","5f60e3c0a3b16e07647b2ff9","5f61dbfc02dd8903b59a8ae3","true","606.1500000068918","./Stimuli/SelectedImages/LN/LN101.bmp","76","","","","test","true","M + N","76","switch","LN","LN101.bmp","remember","","81","3","prime1","right","","","",""
"html-keyboard-response","226","721111","0.0-4.0-1.0-3.32","flzg8gbj8znzz7n","prime","5f54dec7364a0485d880f139","5f60e3c0a3b16e07647b2ff9","5f61dbfc02dd8903b59a8ae3","false","null","<div style=""align-items: center; display: flex; color: dodgerblue; font-size: 90px""><b>o</b></div>","null","","","","forget_cue","","","","","","","","","","","","","","","",""
"html-keyboard-response","227","721813","0.0-4.0-1.0-0.33","flzg8gbj8znzz7n","prime","5f54dec7364a0485d880f139","5f60e3c0a3b16e07647b2ff9","5f61dbfc02dd8903b59a8ae3","false","null","<span style=""color: black; font-size: 48px"">N + M</span>","null","","","","resp_prompt","","","","","","","","","","","","","","","",""
"categorize-image","228","722498","0.0-4.0-1.0-1.33","flzg8gbj8znzz7n","prime","5f54dec7364a0485d880f139","5f60e3c0a3b16e07647b2ff9","5f61dbfc02dd8903b59a8ae3","true","682.5649999082088","./Stimuli/SelectedImages/SN/SN49.bmp","76","","","","test","false","N + M","83","switch","SN","SN49.bmp","remember","","82","3","prime1","right","","","",""
"html-keyboard-response","229","723000","0.0-4.0-1.0-2.33-0.33","flzg8gbj8znzz7n","prime","5f54dec7364a0485d880f139","5f60e3c0a3b16e07647b2ff9","5f61dbfc02dd8903b59a8ae3","false","null","<span style=""color: red; font-size: 48px"">Error!</span>","null","","","","feedback","","","","","","","","","","","","","","","",""
"html-keyboard-response","230","725001","0.0-4.0-1.0-3.33","flzg8gbj8znzz7n","prime","5f54dec7364a0485d880f139","5f60e3c0a3b16e07647b2ff9","5f61dbfc02dd8903b59a8ae3","false","null","<div style=""align-items: center; display: flex; color: dodgerblue; font-size: 90px""><b>o</b></div>","null","","","","forget_cue","","","","","","","","","","","","","","","",""
"html-keyboard-response","231","725702","0.0-4.0-1.0-0.34","flzg8gbj8znzz7n","prime","5f54dec7364a0485d880f139","5f60e3c0a3b16e07647b2ff9","5f61dbfc02dd8903b59a8ae3","false","null","<span style=""color: black; font-size: 48px"">M + N</span>","null","","","","resp_prompt","","","","","","","","","","","","","","","",""
"categorize-image","232","726246","0.0-4.0-1.0-1.34","flzg8gbj8znzz7n","prime","5f54dec7364a0485d880f139","5f60e3c0a3b16e07647b2ff9","5f61dbfc02dd8903b59a8ae3","true","541.1050000693649","./Stimuli/SelectedImages/LN/LN128.bmp","76","","","","test","true","M + N","76","repetition","LN","LN128.bmp","remember","","83","3","prime1","right","","","",""
"html-keyboard-response","233","728248","0.0-4.0-1.0-3.34","flzg8gbj8znzz7n","prime","5f54dec7364a0485d880f139","5f60e3c0a3b16e07647b2ff9","5f61dbfc02dd8903b59a8ae3","false","null","<div style=""align-items: center; display: flex; color: dodgerblue; font-size: 90px""><b>o</b></div>","null","","","","forget_cue","","","","","","","","","","","","","","","",""
"html-keyboard-response","234","728949","0.0-4.0-1.0-0.35","flzg8gbj8znzz7n","prime","5f54dec7364a0485d880f139","5f60e3c0a3b16e07647b2ff9","5f61dbfc02dd8903b59a8ae3","false","null","<span style=""color: black; font-size: 48px"">M + N</span>","null","","","","resp_prompt","","","","","","","","","","","","","","","",""
"categorize-image","235","729507","0.0-4.0-1.0-1.35","flzg8gbj8znzz7n","prime","5f54dec7364a0485d880f139","5f60e3c0a3b16e07647b2ff9","5f61dbfc02dd8903b59a8ae3","true","556.3100000144914","./Stimuli/SelectedImages/SM/SM205.bmp","83","","","","test","true","M + N","83","repetition","SM","SM205.bmp","remember","","84","3","prime1","left","","","",""
"html-keyboard-response","236","731509","0.0-4.0-1.0-3.35","flzg8gbj8znzz7n","prime","5f54dec7364a0485d880f139","5f60e3c0a3b16e07647b2ff9","5f61dbfc02dd8903b59a8ae3","false","null","<div style=""align-items: center; display: flex; color: dodgerblue; font-size: 90px""><b>o</b></div>","null","","","","forget_cue","","","","","","","","","","","","","","","",""
"html-keyboard-response","237","732211","0.0-4.0-1.0-0.36","flzg8gbj8znzz7n","prime","5f54dec7364a0485d880f139","5f60e3c0a3b16e07647b2ff9","5f61dbfc02dd8903b59a8ae3","false","null","<span style=""color: black; font-size: 48px"">N + M</span>","null","","","","resp_prompt","","","","","","","","","","","","","","","",""
"categorize-image","238","733024","0.0-4.0-1.0-1.36","flzg8gbj8znzz7n","prime","5f54dec7364a0485d880f139","5f60e3c0a3b16e07647b2ff9","5f61dbfc02dd8903b59a8ae3","true","810.1249999599531","./Stimuli/SelectedImages/LN/LN28.bmp","83","","","","test","true","N + M","83","switch","LN","LN28.bmp","forget","","85","3","prime1","left","","","",""
"html-keyboard-response","239","735026","0.0-4.0-1.0-3.36","flzg8gbj8znzz7n","prime","5f54dec7364a0485d880f139","5f60e3c0a3b16e07647b2ff9","5f61dbfc02dd8903b59a8ae3","false","null","<div style=""align-items: center; display: flex; color: darkorange; font-size: 90px""><b>ø</b></div>","null","","","","forget_cue","","","","","","","","","","","","","","","",""
"html-keyboard-response","240","735729","0.0-4.0-1.0-0.37","flzg8gbj8znzz7n","prime","5f54dec7364a0485d880f139","5f60e3c0a3b16e07647b2ff9","5f61dbfc02dd8903b59a8ae3","false","null","<span style=""color: black; font-size: 48px"">N + M</span>","null","","","","resp_prompt","","","","","","","","","","","","","","","",""
"categorize-image","241","736562","0.0-4.0-1.0-1.37","flzg8gbj8znzz7n","prime","5f54dec7364a0485d880f139","5f60e3c0a3b16e07647b2ff9","5f61dbfc02dd8903b59a8ae3","true","830.7400000048801","./Stimuli/SelectedImages/SN/SN60.bmp","83","","","","test","true","N + M","83","repetition","SN","SN60.bmp","forget","","86","3","prime1","left","","","",""
"html-keyboard-response","242","738564","0.0-4.0-1.0-3.37","flzg8gbj8znzz7n","prime","5f54dec7364a0485d880f139","5f60e3c0a3b16e07647b2ff9","5f61dbfc02dd8903b59a8ae3","false","null","<div style=""align-items: center; display: flex; color: darkorange; font-size: 90px""><b>ø</b></div>","null","","","","forget_cue","","","","","","","","","","","","","","","",""
"html-keyboard-response","243","739265","0.0-4.0-1.0-0.38","flzg8gbj8znzz7n","prime","5f54dec7364a0485d880f139","5f60e3c0a3b16e07647b2ff9","5f61dbfc02dd8903b59a8ae3","false","null","<span style=""color: black; font-size: 48px"">M + N</span>","null","","","","resp_prompt","","","","","","","","","","","","","","","",""
"categorize-image","244","739800","0.0-4.0-1.0-1.38","flzg8gbj8znzz7n","prime","5f54dec7364a0485d880f139","5f60e3c0a3b16e07647b2ff9","5f61dbfc02dd8903b59a8ae3","true","532.5399999273941","./Stimuli/SelectedImages/SM/SM106.bmp","83","","","","test","true","M + N","83","switch","SM","SM106.bmp","forget","","87","3","prime1","left","","","",""
"html-keyboard-response","245","741801","0.0-4.0-1.0-3.38","flzg8gbj8znzz7n","prime","5f54dec7364a0485d880f139","5f60e3c0a3b16e07647b2ff9","5f61dbfc02dd8903b59a8ae3","false","null","<div style=""align-items: center; display: flex; color: darkorange; font-size: 90px""><b>ø</b></div>","null","","","","forget_cue","","","","","","","","","","","","","","","",""
"html-keyboard-response","246","742503","0.0-4.0-1.0-0.39","flzg8gbj8znzz7n","prime","5f54dec7364a0485d880f139","5f60e3c0a3b16e07647b2ff9","5f61dbfc02dd8903b59a8ae3","false","null","<span style=""color: black; font-size: 48px"">M + N</span>","null","","","","resp_prompt","","","","","","","","","","","","","","","",""
"categorize-image","247","743184","0.0-4.0-1.0-1.39","flzg8gbj8znzz7n","prime","5f54dec7364a0485d880f139","5f60e3c0a3b16e07647b2ff9","5f61dbfc02dd8903b59a8ae3","true","677.3299999767914","./Stimuli/SelectedImages/LN/LN150.bmp","76","","","","test","true","M + N","76","switch","LN","LN150.bmp","remember","","88","3","prime1","right","","","",""
"html-keyboard-response","248","745185","0.0-4.0-1.0-3.39","flzg8gbj8znzz7n","prime","5f54dec7364a0485d880f139","5f60e3c0a3b16e07647b2ff9","5f61dbfc02dd8903b59a8ae3","false","null","<div style=""align-items: center; display: flex; color: dodgerblue; font-size: 90px""><b>o</b></div>","null","","","","forget_cue","","","","","","","","","","","","","","","",""
"html-keyboard-response","249","745887","0.0-4.0-1.0-0.40","flzg8gbj8znzz7n","prime","5f54dec7364a0485d880f139","5f60e3c0a3b16e07647b2ff9","5f61dbfc02dd8903b59a8ae3","false","null","<span style=""color: black; font-size: 48px"">M + N</span>","null","","","","resp_prompt","","","","","","","","","","","","","","","",""
"categorize-image","250","746337","0.0-4.0-1.0-1.40","flzg8gbj8znzz7n","prime","5f54dec7364a0485d880f139","5f60e3c0a3b16e07647b2ff9","5f61dbfc02dd8903b59a8ae3","true","446.6799999354407","./Stimuli/SelectedImages/LM/LM103.bmp","83","","","","test","true","M + N","83","switch","LM","LM103.bmp","forget","","89","3","prime1","left","","","",""
"html-keyboard-response","251","748338","0.0-4.0-1.0-3.40","flzg8gbj8znzz7n","prime","5f54dec7364a0485d880f139","5f60e3c0a3b16e07647b2ff9","5f61dbfc02dd8903b59a8ae3","false","null","<div style=""align-items: center; display: flex; color: darkorange; font-size: 90px""><b>ø</b></div>","null","","","","forget_cue","","","","","","","","","","","","","","","",""
"html-keyboard-response","252","749039","0.0-4.0-1.0-0.41","flzg8gbj8znzz7n","prime","5f54dec7364a0485d880f139","5f60e3c0a3b16e07647b2ff9","5f61dbfc02dd8903b59a8ae3","false","null","<span style=""color: black; font-size: 48px"">N + M</span>","null","","","","resp_prompt","","","","","","","","","","","","","","","",""
"categorize-image","253","749810","0.0-4.0-1.0-1.41","flzg8gbj8znzz7n","prime","5f54dec7364a0485d880f139","5f60e3c0a3b16e07647b2ff9","5f61dbfc02dd8903b59a8ae3","true","767.2000000020489","./Stimuli/SelectedImages/SM/SM213.bmp","76","","","","test","true","N + M","76","switch","SM","SM213.bmp","remember","","90","3","prime1","right","","","",""
