"trial_type","trial_index","time_elapsed","internal_node_id","subject","exp_part","prolific_PID","study_ID","session_ID","use","rt","stimulus","key_press","button_pressed","responses","question_order","trial_part","correct","resp_map","correct_resp","probe_condition","category","image","forget_condition","list","trial_num","block_num","block","response","test_part","n_span","sequence","num_spaces"
"pavlovia","0","19","0.0-0.0","bruuy04jngyxvho","","5d18cf6eb3e698001eea9960","5f60e3c0a3b16e07647b2ff9","5f64c2c6810bd8027a7934a3","false","","","","","","","","","","","","","","","","","","","","","","",""
"html-keyboard-response","1","18960","0.0-1.0-0.0-0.0","bruuy04jngyxvho","welcome","5d18cf6eb3e698001eea9960","5f60e3c0a3b16e07647b2ff9","5f64c2c6810bd8027a7934a3","false","18934.27500000689","<div align=left>Dear participant, <br> thank you for participating in an online study of the Cognition, Action, and Sustainability Unit of the University of Freiburg! <br> <br>The aim of this study is to examine our ability to remember previously learned information. <br>Our goal is to find out, whether our memory improves, when we only remember information that is relevant to us. <br>The experiment will take about 35 minutes to complete. <br> <br>Please, note that you can only participate in this study if you are using a device with a keyboard (PC, Laptop etc.) <br>and not if you are using a mobile device such as a tablet or smartphone.<br> <br>Press 'SPACE' to proceed to the experiment. </div>","32","","","","","","","","","","","","","","","","","","","",""
"html-keyboard-response","2","42088","0.0-1.0-0.0-1.0","bruuy04jngyxvho","welcome","5d18cf6eb3e698001eea9960","5f60e3c0a3b16e07647b2ff9","5f64c2c6810bd8027a7934a3","false","23121.420000010403","<div align=left><strong> Time Course of this experiment: </strong> <br><br> <strong> 1.</strong>  First, please fill in some information regarding your demographic data. <br><br> <strong> 2.</strong>  Next, your task will be to classify everyday objects. <br>In addition, you will be asked to remember certain objects and recall them later. <br>Working on these tasks requires your undivided attention and concentration.<br>It is therefore essential that you eliminate any sources of distraction in your  <br>environment and ensure that you will not be disturbed. <br><br><strong> 3.</strong>  At the end of the experiment, you will be asked to answer a few additional questions. <br> <br><strong> Important:</strong> After finishing the experiment, only close the browser window <br> by clicking on the 'end the experiment'-button when you are asked to do so. <br>Closing the browser window prematurely will make the allocation of your participation credit impossible. <br><br> Press 'SPACE' to start the experiment. </div>","32","","","","","","","","","","","","","","","","","","","",""
"html-button-response","3","80458","0.0-1.0-0.0-2.0","bruuy04jngyxvho","welcome","5d18cf6eb3e698001eea9960","5f60e3c0a3b16e07647b2ff9","5f64c2c6810bd8027a7934a3","true","38354.28499999398","<div align=left><strong> Informed consent </strong>  <br>The aim of our research is to better understand human behavior and mental processes. <br>In the following study your behavior (e.g. choices, reaction times) will be studied. <br> <br><strong> Voluntariness and Anonymity </strong> <br>Your participation in this study is  <strong> voluntary</strong>.<br>You may withdraw your consent to participate at any time without providing a reason for doing so and without fear of prejudice. <br><br>As no personal data will be collected, <strong>your data and your person cannot be connected after data collection</strong> – the data-set is anonymous. <br>Respectively, deletion of your data will not be possible after data collection has been completed, as we cannot retrace your data-set.<br>The results and anonymized data collected in this study will be published as a scientific publication. <br>This will happen in an <strong>anonymized format</strong>, so that no data can be traced back to a specific person. <br> <br>The anonymized data of this study will be made available to other researchers and/or in a data archive on the Internet as a means of transparency and to enable subsequent re-use. By doing so, this study follows the recommendations of the Deutsche Forschungsgemeinschaft (DFG, German Research Foundation) and Deutsche Gesellschaft für Psychologie (DGPS, German Psychological Society) regarding quality assurance in research.<br>If you have any questions now or after the experiment, please contact our team (experiments@cs.uni-freiburg.de).<br><br><br>I hereby declare, that I understand the above described conditions of participation and I agree to participate under these conditions. <br><br> </div>","","0","","","","","","","","","","","","","","","","","","",""
"html-keyboard-response","4","116099","0.0-1.0-0.0-3.0","bruuy04jngyxvho","welcome","5d18cf6eb3e698001eea9960","5f60e3c0a3b16e07647b2ff9","5f64c2c6810bd8027a7934a3","false","35623.64000000525","<div align=left><strong> General information concerning the experiment </strong>  <br> <br>Please follow the instructions:<ol> <li><strong> Do not leave this tab (your browser window) during the experiment and do not reload this tab! </strong>  <br>If you do switch tabs/windows during the experiment (to check your mail or visit another website, for example), <br>the experiment will end automatically and you will <strong>not receive credit</strong> for your participation. <br>Repeated participation or resumption of the experiment is impossible.</li> <br><li>Please close all other programs for the duration of your participation. </li> <br><li>Please mute or turn off your phone and put it out of your reach. </li> <br><li>Please also take off any disturbing accessories (such as wristwatches, bracelets, etc.). </li> <br><li>If you have music playing in the background, please turn it off now. </li> <br></ol>Thank you! <br>Press 'SPACE' to continue. </div>","32","","","","","","","","","","","","","","","","","","","",""
"survey-text","5","122656","0.0-1.0-1.0-0.0","bruuy04jngyxvho","demographics","5d18cf6eb3e698001eea9960","5f60e3c0a3b16e07647b2ff9","5f64c2c6810bd8027a7934a3","true","6515.239999993355","","","","{""age"":""28""}","","","","","","","","","","","","","","","","","",""
"survey-multi-choice","6","156699","0.0-1.0-1.0-1.0","bruuy04jngyxvho","demographics","5d18cf6eb3e698001eea9960","5f60e3c0a3b16e07647b2ff9","5f64c2c6810bd8027a7934a3","true","33754.6399999992","","","","{""gender"":""female"",""school"":""high school"",""education"":""High school graduate, diploma or equivalent""}","[0,1,2]","","","","","","","","","","","","","","","","",""
"html-keyboard-response","7","516617","0.0-1.0-2.0","bruuy04jngyxvho","instructions","5d18cf6eb3e698001eea9960","5f60e3c0a3b16e07647b2ff9","5f64c2c6810bd8027a7934a3","false","359874.9050000042","<div align=left> The experiment is now about to start: <br> <br>In the following part, you will be presented pictures of everyday objects. <br>Your first task is to <strong>classify these objects. </strong> <br> <br> You will classify them either as mechanical or non-mechanical objects. <br> <br>Objects that include any kind of technical mechanism (for example, wheels, switches, levers, <br> electronic components) fall under the category of <strong>mechanical</strong> objects. <br>Only objects without any kind of technical mechanism should be classified as <strong>non-mechanical</strong>. <br><br>Press 'SPACE' to continue. </div>","32","","","","","","","","","","","","","","","","","","","",""
"html-keyboard-response","8","643981","0.0-2.0-0.0","bruuy04jngyxvho","instructions","5d18cf6eb3e698001eea9960","5f60e3c0a3b16e07647b2ff9","5f64c2c6810bd8027a7934a3","false","127307.80999999843","<div align=justify>You will classify the objects using the <strong>'S'</strong> and the <strong>'L'</strong> keys on your keyboard.<br>For doing so, please place your <strong>left index finger</strong> on the <strong>'S'</strong> key and place your <strong>right index finger</strong> on the <strong>'L'</strong> key. <br><br> Each trial starts with an instruction, indicating which key ('S'/'L') you need to press to classify <br>the object as mechanical (letter M) or non-mechanical (letter N).<br>The instruction <strong>M + N</strong> indicates that, in the current trial, by pressing the left key ('S') you classify the displayed object as mechanical (M) <br> and by pressing the right key ('L') you classify the object as non-mechanical (N). <br>The instruction <strong>N + M</strong> on the other hand indicates that by pressing the left key ('S') you classify the displayed object as non-mechanical (N) <br> and by pressing the right key ('L') you classify the object as mechanical (M). <br><br>Please press the key corresponding to the correct classification as fast as possible as soon as the object is displayed and try to avoid making mistakes.<br>If you do not respond within a 2 second window, a corresponding feedback will be displayed and the next trial will start.<br> The experiment is divided into multiple blocks to give you the opportunity to take a break after each block. <br>First, you can now practice this task. <br><br>Please place your <strong>LEFT INDEX FINGER</strong> on the 'S' key and your <strong>RIGHT INDEX FINGER</strong> on the 'L' key now. <br><br>Press SPACE to continue.</div>","32","","","","","","","","","","","","","","","","","","","",""
"html-keyboard-response","9","654156","0.0-2.0-1.0","bruuy04jngyxvho","instructions","5d18cf6eb3e698001eea9960","5f60e3c0a3b16e07647b2ff9","5f64c2c6810bd8027a7934a3","false","10163.61999999208","<div align=left> You will now have time to practice this task.<br><br>Remember: <br> <br><li>Please place your index fingers on the <strong>'S'</strong> and <strong>'L'</strong> keys <br>to respond as fast and accurately as possible.</li><li>Every picture can be classified as either mechanical or non-mechanical.</li><li>If you do not respond in time or commit an error, you will receive a corresponding feedback. </li><li> Please try to respond as <strong> fast </strong> and as <strong> accurately as possible </strong> .<br><li>To ensure optimal results, please minimize distractions and stay focused. </li><br><br>Press SPACE to continue.</div>","32","","","","","","","","","","","","","","","","","","","",""
"html-keyboard-response","10","654891","0.0-2.0-2.0-0.0","bruuy04jngyxvho","practice_no_cue","5d18cf6eb3e698001eea9960","5f60e3c0a3b16e07647b2ff9","5f64c2c6810bd8027a7934a3","false","null","<span style=""color: black; font-size: 48px"">M + N</span>","null","","","","resp_prompt","","","","","","","","","","","","","","","",""
"categorize-image","11","657103","0.0-2.0-2.0-1.0","bruuy04jngyxvho","practice_no_cue","5d18cf6eb3e698001eea9960","5f60e3c0a3b16e07647b2ff9","5f64c2c6810bd8027a7934a3","true","1671.4999999967404","./Stimuli/ImagesPractice/LN109.jpg","76","","","","test","true","M + N","76","","LN","LN109.jpg","remember","old","1","1","start","right","","","",""
"html-keyboard-response","12","657817","0.0-2.0-2.0-0.1","bruuy04jngyxvho","practice_no_cue","5d18cf6eb3e698001eea9960","5f60e3c0a3b16e07647b2ff9","5f64c2c6810bd8027a7934a3","false","null","<span style=""color: black; font-size: 48px"">N + M</span>","null","","","","resp_prompt","","","","","","","","","","","","","","","",""
"categorize-image","13","659244","0.0-2.0-2.0-1.1","bruuy04jngyxvho","practice_no_cue","5d18cf6eb3e698001eea9960","5f60e3c0a3b16e07647b2ff9","5f64c2c6810bd8027a7934a3","true","916.8950000021141","./Stimuli/ImagesPractice/LN2.jpg","76","","","","test","false","N + M","83","","LN","LN2.jpg","remember","old","2","1","start","right","","","",""
"html-keyboard-response","14","659948","0.0-2.0-2.0-0.2","bruuy04jngyxvho","practice_no_cue","5d18cf6eb3e698001eea9960","5f60e3c0a3b16e07647b2ff9","5f64c2c6810bd8027a7934a3","false","null","<span style=""color: black; font-size: 48px"">N + M</span>","null","","","","resp_prompt","","","","","","","","","","","","","","","",""
"categorize-image","15","661664","0.0-2.0-2.0-1.2","bruuy04jngyxvho","practice_no_cue","5d18cf6eb3e698001eea9960","5f60e3c0a3b16e07647b2ff9","5f64c2c6810bd8027a7934a3","true","1204.3249999987893","./Stimuli/ImagesPractice/LM143.jpg","76","","","","test","true","N + M","76","","LM","LM143.jpg","forget","old","3","1","start","right","","","",""
"html-keyboard-response","16","662370","0.0-2.0-2.0-0.3","bruuy04jngyxvho","practice_no_cue","5d18cf6eb3e698001eea9960","5f60e3c0a3b16e07647b2ff9","5f64c2c6810bd8027a7934a3","false","null","<span style=""color: black; font-size: 48px"">N + M</span>","null","","","","resp_prompt","","","","","","","","","","","","","","","",""
"categorize-image","17","663742","0.0-2.0-2.0-1.3","bruuy04jngyxvho","practice_no_cue","5d18cf6eb3e698001eea9960","5f60e3c0a3b16e07647b2ff9","5f64c2c6810bd8027a7934a3","true","862.6249999942956","./Stimuli/ImagesPractice/LM230.jpg","76","","","","test","true","N + M","76","","LM","LM230.jpg","forget","old","4","1","start","right","","","",""
"html-keyboard-response","18","664446","0.0-2.0-2.0-0.4","bruuy04jngyxvho","practice_no_cue","5d18cf6eb3e698001eea9960","5f60e3c0a3b16e07647b2ff9","5f64c2c6810bd8027a7934a3","false","null","<span style=""color: black; font-size: 48px"">M + N</span>","null","","","","resp_prompt","","","","","","","","","","","","","","","",""
"categorize-image","19","665843","0.0-2.0-2.0-1.4","bruuy04jngyxvho","practice_no_cue","5d18cf6eb3e698001eea9960","5f60e3c0a3b16e07647b2ff9","5f64c2c6810bd8027a7934a3","true","892.7899999980582","./Stimuli/ImagesPractice/LM224.jpg","83","","","","test","true","M + N","83","","LM","LM224.jpg","forget","old","5","1","start","left","","","",""
"html-keyboard-response","20","666546","0.0-2.0-2.0-0.5","bruuy04jngyxvho","practice_no_cue","5d18cf6eb3e698001eea9960","5f60e3c0a3b16e07647b2ff9","5f64c2c6810bd8027a7934a3","false","null","<span style=""color: black; font-size: 48px"">M + N</span>","null","","","","resp_prompt","","","","","","","","","","","","","","","",""
"categorize-image","21","667933","0.0-2.0-2.0-1.5","bruuy04jngyxvho","practice_no_cue","5d18cf6eb3e698001eea9960","5f60e3c0a3b16e07647b2ff9","5f64c2c6810bd8027a7934a3","true","881.6749999969034","./Stimuli/ImagesPractice/SM61.jpg","76","","","","test","false","M + N","83","","SM","SM61.jpg","forget","old","6","1","start","right","","","",""
"html-keyboard-response","22","668641","0.0-2.0-2.0-0.6","bruuy04jngyxvho","practice_no_cue","5d18cf6eb3e698001eea9960","5f60e3c0a3b16e07647b2ff9","5f64c2c6810bd8027a7934a3","false","null","<span style=""color: black; font-size: 48px"">M + N</span>","null","","","","resp_prompt","","","","","","","","","","","","","","","",""
"categorize-image","23","670112","0.0-2.0-2.0-1.6","bruuy04jngyxvho","practice_no_cue","5d18cf6eb3e698001eea9960","5f60e3c0a3b16e07647b2ff9","5f64c2c6810bd8027a7934a3","true","963.8700000068638","./Stimuli/ImagesPractice/LM239.jpg","83","","","","test","true","M + N","83","","LM","LM239.jpg","remember","old","7","1","start","left","","","",""
"html-keyboard-response","24","670829","0.0-2.0-2.0-0.7","bruuy04jngyxvho","practice_no_cue","5d18cf6eb3e698001eea9960","5f60e3c0a3b16e07647b2ff9","5f64c2c6810bd8027a7934a3","false","null","<span style=""color: black; font-size: 48px"">M + N</span>","null","","","","resp_prompt","","","","","","","","","","","","","","","",""
"categorize-image","25","672263","0.0-2.0-2.0-1.7","bruuy04jngyxvho","practice_no_cue","5d18cf6eb3e698001eea9960","5f60e3c0a3b16e07647b2ff9","5f64c2c6810bd8027a7934a3","true","921.3750000053551","./Stimuli/ImagesPractice/SN222.jpg","76","","","","test","true","M + N","76","","SN","SN222.jpg","remember","old","8","1","start","right","","","",""
"html-keyboard-response","26","672967","0.0-2.0-2.0-0.8","bruuy04jngyxvho","practice_no_cue","5d18cf6eb3e698001eea9960","5f60e3c0a3b16e07647b2ff9","5f64c2c6810bd8027a7934a3","false","null","<span style=""color: black; font-size: 48px"">M + N</span>","null","","","","resp_prompt","","","","","","","","","","","","","","","",""
"categorize-image","27","674195","0.0-2.0-2.0-1.8","bruuy04jngyxvho","practice_no_cue","5d18cf6eb3e698001eea9960","5f60e3c0a3b16e07647b2ff9","5f64c2c6810bd8027a7934a3","true","716.1150000029011","./Stimuli/ImagesPractice/SM97.jpg","83","","","","test","true","M + N","83","","SM","SM97.jpg","forget","old","9","1","start","left","","","",""
"html-keyboard-response","28","674902","0.0-2.0-2.0-0.9","bruuy04jngyxvho","practice_no_cue","5d18cf6eb3e698001eea9960","5f60e3c0a3b16e07647b2ff9","5f64c2c6810bd8027a7934a3","false","null","<span style=""color: black; font-size: 48px"">N + M</span>","null","","","","resp_prompt","","","","","","","","","","","","","","","",""
"categorize-image","29","676316","0.0-2.0-2.0-1.9","bruuy04jngyxvho","practice_no_cue","5d18cf6eb3e698001eea9960","5f60e3c0a3b16e07647b2ff9","5f64c2c6810bd8027a7934a3","true","906.1550000042189","./Stimuli/ImagesPractice/SN221.jpg","83","","","","test","true","N + M","83","","SN","SN221.jpg","forget","old","10","1","start","left","","","",""
"html-keyboard-response","30","677019","0.0-2.0-2.0-0.10","bruuy04jngyxvho","practice_no_cue","5d18cf6eb3e698001eea9960","5f60e3c0a3b16e07647b2ff9","5f64c2c6810bd8027a7934a3","false","null","<span style=""color: black; font-size: 48px"">N + M</span>","null","","","","resp_prompt","","","","","","","","","","","","","","","",""
"categorize-image","31","678341","0.0-2.0-2.0-1.10","bruuy04jngyxvho","practice_no_cue","5d18cf6eb3e698001eea9960","5f60e3c0a3b16e07647b2ff9","5f64c2c6810bd8027a7934a3","true","815.149999994901","./Stimuli/ImagesPractice/SM62.jpg","76","","","","test","true","N + M","76","","SM","SM62.jpg","remember","old","11","1","start","right","","","",""
"html-keyboard-response","32","679046","0.0-2.0-2.0-0.11","bruuy04jngyxvho","practice_no_cue","5d18cf6eb3e698001eea9960","5f60e3c0a3b16e07647b2ff9","5f64c2c6810bd8027a7934a3","false","null","<span style=""color: black; font-size: 48px"">M + N</span>","null","","","","resp_prompt","","","","","","","","","","","","","","","",""
"categorize-image","33","680552","0.0-2.0-2.0-1.11","bruuy04jngyxvho","practice_no_cue","5d18cf6eb3e698001eea9960","5f60e3c0a3b16e07647b2ff9","5f64c2c6810bd8027a7934a3","true","996.9500000006519","./Stimuli/ImagesPractice/LN15.jpg","76","","","","test","true","M + N","76","","LN","LN15.jpg","remember","old","12","1","start","right","","","",""
"html-keyboard-response","34","681257","0.0-2.0-2.0-0.12","bruuy04jngyxvho","practice_no_cue","5d18cf6eb3e698001eea9960","5f60e3c0a3b16e07647b2ff9","5f64c2c6810bd8027a7934a3","false","null","<span style=""color: black; font-size: 48px"">N + M</span>","null","","","","resp_prompt","","","","","","","","","","","","","","","",""
"categorize-image","35","682964","0.0-2.0-2.0-1.12","bruuy04jngyxvho","practice_no_cue","5d18cf6eb3e698001eea9960","5f60e3c0a3b16e07647b2ff9","5f64c2c6810bd8027a7934a3","true","1197.920000005979","./Stimuli/ImagesPractice/SN220.jpg","76","","","","test","false","N + M","83","","SN","SN220.jpg","forget","old","13","1","start","right","","","",""
"html-keyboard-response","36","683669","0.0-2.0-2.0-0.13","bruuy04jngyxvho","practice_no_cue","5d18cf6eb3e698001eea9960","5f60e3c0a3b16e07647b2ff9","5f64c2c6810bd8027a7934a3","false","null","<span style=""color: black; font-size: 48px"">N + M</span>","null","","","","resp_prompt","","","","","","","","","","","","","","","",""
"categorize-image","37","685197","0.0-2.0-2.0-1.13","bruuy04jngyxvho","practice_no_cue","5d18cf6eb3e698001eea9960","5f60e3c0a3b16e07647b2ff9","5f64c2c6810bd8027a7934a3","true","1022.4700000107987","./Stimuli/ImagesPractice/SM37.jpg","76","","","","test","true","N + M","76","","SM","SM37.jpg","remember","old","14","1","start","right","","","",""
"html-keyboard-response","38","685902","0.0-2.0-2.0-0.14","bruuy04jngyxvho","practice_no_cue","5d18cf6eb3e698001eea9960","5f60e3c0a3b16e07647b2ff9","5f64c2c6810bd8027a7934a3","false","null","<span style=""color: black; font-size: 48px"">M + N</span>","null","","","","resp_prompt","","","","","","","","","","","","","","","",""
"categorize-image","39","687346","0.0-2.0-2.0-1.14","bruuy04jngyxvho","practice_no_cue","5d18cf6eb3e698001eea9960","5f60e3c0a3b16e07647b2ff9","5f64c2c6810bd8027a7934a3","true","936.5050000051269","./Stimuli/ImagesPractice/SN205.jpg","83","","","","test","false","M + N","76","","SN","SN205.jpg","forget","old","15","1","start","left","","","",""
"html-keyboard-response","40","688052","0.0-2.0-2.0-0.15","bruuy04jngyxvho","practice_no_cue","5d18cf6eb3e698001eea9960","5f60e3c0a3b16e07647b2ff9","5f64c2c6810bd8027a7934a3","false","null","<span style=""color: black; font-size: 48px"">N + M</span>","null","","","","resp_prompt","","","","","","","","","","","","","","","",""
"categorize-image","41","690072","0.0-2.0-2.0-1.15","bruuy04jngyxvho","practice_no_cue","5d18cf6eb3e698001eea9960","5f60e3c0a3b16e07647b2ff9","5f64c2c6810bd8027a7934a3","true","1513.9600000111386","./Stimuli/ImagesPractice/LN72.jpg","76","","","","test","false","N + M","83","","LN","LN72.jpg","remember","old","16","1","start","right","","","",""
"html-keyboard-response","42","761411","0.0-2.0-3.0","bruuy04jngyxvho","break","5d18cf6eb3e698001eea9960","5f60e3c0a3b16e07647b2ff9","5f64c2c6810bd8027a7934a3","false","71319.08500001009","<p style='font-size: 32px;'>Break</><br><br><br><br><br><p style='font-size: 24px;'>In the last block, you committed 5 errors and did not respond in time on 0 trials.
</p><p style='font-size: 24px;'>Try to respond as fast and accurately as possible in the next block as well! </p><p style='font-size: 24px;'>Press SPACE to continue.</p>","32","","","","","","","","","","","","","","","","","","","",""
"html-keyboard-response","43","807337","0.0-2.0-4.0","bruuy04jngyxvho","instructions","5d18cf6eb3e698001eea9960","5f60e3c0a3b16e07647b2ff9","5f64c2c6810bd8027a7934a3","false","45912.510000009206","<div align=left> Great!<br><br>Are you ready to continue?<br><br>If you want to reread the instructions and redo the practice trials, <br>please press „Z“. <br><br>Press SPACE to CONTINUE with the experiment when you are ready. </div>","32","","","","","","","","","","","","","","","","","","","",""
"html-keyboard-response","44","875833","0.0-3.0-0.0","bruuy04jngyxvho","instructions","5d18cf6eb3e698001eea9960","5f60e3c0a3b16e07647b2ff9","5f64c2c6810bd8027a7934a3","false","68480.07499999949","<div align=left>Great!<br> <strong>Attention</strong>! You will now receive a second, additional task! <br><br>To this point it was you <strong>first task</strong> to correctly <strong>classify objects</strong>. <br><br>As mentioned in the beginning, we aim to examine how well humans can remember previously learned information.<br>We would like to find out whether our memory improves if we only remember information that is relevant to us. <br><br>Therefore, your <strong>second task</strong> will be to <strong>remember</strong> the pictures you are to categorize. <br> After the learning phase, there will be a memory test phase, in which you will be asked to indicate whether you have seen a picture before or not. <br>Some, but not all pictures shown in the learning phase will appear in the memory test phase.<br>After classifying a picture, you will be told whether you should remember it for the memory test phase or not. <br>Thus, some pictures can be forgotten, whereas others have to be remembered. <br><br>Note: From now on, feedback will only be displayed if you responded incorrectly or not in time.<br><br>Press SPACE to continue.</div>","32","","","","","","","","","","","","","","","","","","","",""
"html-keyboard-response","45","915108","0.0-3.0-1.0","bruuy04jngyxvho","instructions","5d18cf6eb3e698001eea9960","5f60e3c0a3b16e07647b2ff9","5f64c2c6810bd8027a7934a3","false","39266.39499999874","<div align=left>In the following part, you will thus have to remember only some pictures. <br>Immediately after seeing and classifying the picture, a symbol will be displayed, indicating whether you should remember or forget the previous picture. <br><br>A <span style='color: dodgerblue; font-size: 28px'>O</span> indicates REMEMBER. That means, you have to remember this picture, because it will be tested later. <br><br>A <span style='color: darkorange; font-size:28px'>Ø</span> indicates FORGET. You do not have to remember this picture. <br><br> As you will have to remember a lot of pictures, it will be hard for you to remember all of them. <br>It will put you at an advantage if you instantly forget the pictures you are not asked to remember. <br> This will make it easier for you to remember the pictures that will be tested afterwards. <br><br>Press SPACE to continue.</div>","32","","","","","","","","","","","","","","","","","","","",""
"html-keyboard-response","46","941520","0.0-3.0-2.0","bruuy04jngyxvho","instructions","5d18cf6eb3e698001eea9960","5f60e3c0a3b16e07647b2ff9","5f64c2c6810bd8027a7934a3","false","26408.400000000256","<div align=left> Now you have the chance to practice both tasks together.<br><br>Remember: <br> <br><li>Please place your index fingers on the <strong>'S'</strong> and <strong>'L'</strong> keys <br>to respond as fast and accurately as possible.</li><li>Every picture can be classified as either mechanical or non-mechanical.</li><li>If you do not respond in time or commit an error, you will receive a corresponding feedback. <br>Please try to respond as <strong> fast </strong> and as <strong> accurately as possible </strong>.</li><li> Please remember only the to-be-remembered <span style='color: dodgerblue; font-size: 28px'>O</span> pictures. <br></li><li> Please minimize distractions and stay focused. </li><br><br>Press SPACE to START</div>","32","","","","","","","","","","","","","","","","","","","",""
"html-keyboard-response","47","942227","0.0-3.0-3.0-0.0","bruuy04jngyxvho","practice_cue","5d18cf6eb3e698001eea9960","5f60e3c0a3b16e07647b2ff9","5f64c2c6810bd8027a7934a3","false","null","<span style=""color: black; font-size: 48px"">M + N</span>","null","","","","resp_prompt","","","","","","","","","","","","","","","",""
"categorize-image","48","942920","0.0-3.0-3.0-1.0","bruuy04jngyxvho","practice_cue","5d18cf6eb3e698001eea9960","5f60e3c0a3b16e07647b2ff9","5f64c2c6810bd8027a7934a3","true","662.0499999989988","./Stimuli/ImagesPractice/SN222.jpg","76","","","","test","true","M + N","76","","SN","SN222.jpg","remember","old","17","2","practice_forget","right","","","",""
"html-keyboard-response","49","944929","0.0-3.0-3.0-3.0","bruuy04jngyxvho","practice_cue","5d18cf6eb3e698001eea9960","5f60e3c0a3b16e07647b2ff9","5f64c2c6810bd8027a7934a3","false","null","<div style=""align-items: center; display: flex; color: dodgerblue; font-size: 90px""><b>o</b></div>","null","","","","forget_cue","","","","","","","","","","","","","","","",""
"html-keyboard-response","50","945633","0.0-3.0-3.0-0.1","bruuy04jngyxvho","practice_cue","5d18cf6eb3e698001eea9960","5f60e3c0a3b16e07647b2ff9","5f64c2c6810bd8027a7934a3","false","null","<span style=""color: black; font-size: 48px"">N + M</span>","null","","","","resp_prompt","","","","","","","","","","","","","","","",""
"categorize-image","51","946609","0.0-3.0-3.0-1.1","bruuy04jngyxvho","practice_cue","5d18cf6eb3e698001eea9960","5f60e3c0a3b16e07647b2ff9","5f64c2c6810bd8027a7934a3","true","962.3300000093877","./Stimuli/ImagesPractice/SM62.jpg","76","","","","test","true","N + M","76","","SM","SM62.jpg","remember","old","18","2","practice_forget","right","","","",""
"html-keyboard-response","52","948617","0.0-3.0-3.0-3.1","bruuy04jngyxvho","practice_cue","5d18cf6eb3e698001eea9960","5f60e3c0a3b16e07647b2ff9","5f64c2c6810bd8027a7934a3","false","null","<div style=""align-items: center; display: flex; color: dodgerblue; font-size: 90px""><b>o</b></div>","null","","","","forget_cue","","","","","","","","","","","","","","","",""
"html-keyboard-response","53","949322","0.0-3.0-3.0-0.2","bruuy04jngyxvho","practice_cue","5d18cf6eb3e698001eea9960","5f60e3c0a3b16e07647b2ff9","5f64c2c6810bd8027a7934a3","false","null","<span style=""color: black; font-size: 48px"">M + N</span>","null","","","","resp_prompt","","","","","","","","","","","","","","","",""
"categorize-image","54","950264","0.0-3.0-3.0-1.2","bruuy04jngyxvho","practice_cue","5d18cf6eb3e698001eea9960","5f60e3c0a3b16e07647b2ff9","5f64c2c6810bd8027a7934a3","true","919.0399999934016","./Stimuli/ImagesPractice/LN15.jpg","76","","","","test","true","M + N","76","","LN","LN15.jpg","remember","old","19","2","practice_forget","right","","","",""
"html-keyboard-response","55","952270","0.0-3.0-3.0-3.2","bruuy04jngyxvho","practice_cue","5d18cf6eb3e698001eea9960","5f60e3c0a3b16e07647b2ff9","5f64c2c6810bd8027a7934a3","false","null","<div style=""align-items: center; display: flex; color: dodgerblue; font-size: 90px""><b>o</b></div>","null","","","","forget_cue","","","","","","","","","","","","","","","",""
"html-keyboard-response","56","952975","0.0-3.0-3.0-0.3","bruuy04jngyxvho","practice_cue","5d18cf6eb3e698001eea9960","5f60e3c0a3b16e07647b2ff9","5f64c2c6810bd8027a7934a3","false","null","<span style=""color: black; font-size: 48px"">M + N</span>","null","","","","resp_prompt","","","","","","","","","","","","","","","",""
"categorize-image","57","953975","0.0-3.0-3.0-1.3","bruuy04jngyxvho","practice_cue","5d18cf6eb3e698001eea9960","5f60e3c0a3b16e07647b2ff9","5f64c2c6810bd8027a7934a3","true","977.5299999892013","./Stimuli/ImagesPractice/LN109.jpg","76","","","","test","true","M + N","76","","LN","LN109.jpg","remember","old","20","2","practice_forget","right","","","",""
"html-keyboard-response","58","955981","0.0-3.0-3.0-3.3","bruuy04jngyxvho","practice_cue","5d18cf6eb3e698001eea9960","5f60e3c0a3b16e07647b2ff9","5f64c2c6810bd8027a7934a3","false","null","<div style=""align-items: center; display: flex; color: dodgerblue; font-size: 90px""><b>o</b></div>","null","","","","forget_cue","","","","","","","","","","","","","","","",""
"html-keyboard-response","59","956684","0.0-3.0-3.0-0.4","bruuy04jngyxvho","practice_cue","5d18cf6eb3e698001eea9960","5f60e3c0a3b16e07647b2ff9","5f64c2c6810bd8027a7934a3","false","null","<span style=""color: black; font-size: 48px"">N + M</span>","null","","","","resp_prompt","","","","","","","","","","","","","","","",""
"categorize-image","60","958175","0.0-3.0-3.0-1.4","bruuy04jngyxvho","practice_cue","5d18cf6eb3e698001eea9960","5f60e3c0a3b16e07647b2ff9","5f64c2c6810bd8027a7934a3","true","1475.9499999927357","./Stimuli/ImagesPractice/LN2.jpg","83","","","","test","true","N + M","83","","LN","LN2.jpg","remember","old","21","2","practice_forget","left","","","",""
"html-keyboard-response","61","960179","0.0-3.0-3.0-3.4","bruuy04jngyxvho","practice_cue","5d18cf6eb3e698001eea9960","5f60e3c0a3b16e07647b2ff9","5f64c2c6810bd8027a7934a3","false","null","<div style=""align-items: center; display: flex; color: dodgerblue; font-size: 90px""><b>o</b></div>","null","","","","forget_cue","","","","","","","","","","","","","","","",""
"html-keyboard-response","62","960884","0.0-3.0-3.0-0.5","bruuy04jngyxvho","practice_cue","5d18cf6eb3e698001eea9960","5f60e3c0a3b16e07647b2ff9","5f64c2c6810bd8027a7934a3","false","null","<span style=""color: black; font-size: 48px"">N + M</span>","null","","","","resp_prompt","","","","","","","","","","","","","","","",""
"categorize-image","63","961970","0.0-3.0-3.0-1.5","bruuy04jngyxvho","practice_cue","5d18cf6eb3e698001eea9960","5f60e3c0a3b16e07647b2ff9","5f64c2c6810bd8027a7934a3","true","1067.0149999932619","./Stimuli/ImagesPractice/SN220.jpg","83","","","","test","true","N + M","83","","SN","SN220.jpg","forget","old","22","2","practice_forget","left","","","",""
"html-keyboard-response","64","963977","0.0-3.0-3.0-3.5","bruuy04jngyxvho","practice_cue","5d18cf6eb3e698001eea9960","5f60e3c0a3b16e07647b2ff9","5f64c2c6810bd8027a7934a3","false","null","<div style=""align-items: center; display: flex; color: darkorange; font-size: 90px""><b>ø</b></div>","null","","","","forget_cue","","","","","","","","","","","","","","","",""
"html-keyboard-response","65","964682","0.0-3.0-3.0-0.6","bruuy04jngyxvho","practice_cue","5d18cf6eb3e698001eea9960","5f60e3c0a3b16e07647b2ff9","5f64c2c6810bd8027a7934a3","false","null","<span style=""color: black; font-size: 48px"">M + N</span>","null","","","","resp_prompt","","","","","","","","","","","","","","","",""
"categorize-image","66","966439","0.0-3.0-3.0-1.6","bruuy04jngyxvho","practice_cue","5d18cf6eb3e698001eea9960","5f60e3c0a3b16e07647b2ff9","5f64c2c6810bd8027a7934a3","true","1733.170000006794","./Stimuli/ImagesPractice/SM61.jpg","83","","","","test","true","M + N","83","","SM","SM61.jpg","forget","old","23","2","practice_forget","left","","","",""
"html-keyboard-response","67","968448","0.0-3.0-3.0-3.6","bruuy04jngyxvho","practice_cue","5d18cf6eb3e698001eea9960","5f60e3c0a3b16e07647b2ff9","5f64c2c6810bd8027a7934a3","false","null","<div style=""align-items: center; display: flex; color: darkorange; font-size: 90px""><b>ø</b></div>","null","","","","forget_cue","","","","","","","","","","","","","","","",""
"html-keyboard-response","68","969151","0.0-3.0-3.0-0.7","bruuy04jngyxvho","practice_cue","5d18cf6eb3e698001eea9960","5f60e3c0a3b16e07647b2ff9","5f64c2c6810bd8027a7934a3","false","null","<span style=""color: black; font-size: 48px"">N + M</span>","null","","","","resp_prompt","","","","","","","","","","","","","","","",""
"categorize-image","69","970261","0.0-3.0-3.0-1.7","bruuy04jngyxvho","practice_cue","5d18cf6eb3e698001eea9960","5f60e3c0a3b16e07647b2ff9","5f64c2c6810bd8027a7934a3","true","1097.9399999923771","./Stimuli/ImagesPractice/SM37.jpg","76","","","","test","true","N + M","76","","SM","SM37.jpg","remember","old","24","2","practice_forget","right","","","",""
"html-keyboard-response","70","972264","0.0-3.0-3.0-3.7","bruuy04jngyxvho","practice_cue","5d18cf6eb3e698001eea9960","5f60e3c0a3b16e07647b2ff9","5f64c2c6810bd8027a7934a3","false","null","<div style=""align-items: center; display: flex; color: dodgerblue; font-size: 90px""><b>o</b></div>","null","","","","forget_cue","","","","","","","","","","","","","","","",""
"html-keyboard-response","71","972968","0.0-3.0-3.0-0.8","bruuy04jngyxvho","practice_cue","5d18cf6eb3e698001eea9960","5f60e3c0a3b16e07647b2ff9","5f64c2c6810bd8027a7934a3","false","null","<span style=""color: black; font-size: 48px"">N + M</span>","null","","","","resp_prompt","","","","","","","","","","","","","","","",""
"categorize-image","72","974200","0.0-3.0-3.0-1.8","bruuy04jngyxvho","practice_cue","5d18cf6eb3e698001eea9960","5f60e3c0a3b16e07647b2ff9","5f64c2c6810bd8027a7934a3","true","1214.830000011716","./Stimuli/ImagesPractice/SN221.jpg","83","","","","test","true","N + M","83","","SN","SN221.jpg","forget","old","25","2","practice_forget","left","","","",""
"html-keyboard-response","73","976204","0.0-3.0-3.0-3.8","bruuy04jngyxvho","practice_cue","5d18cf6eb3e698001eea9960","5f60e3c0a3b16e07647b2ff9","5f64c2c6810bd8027a7934a3","false","null","<div style=""align-items: center; display: flex; color: darkorange; font-size: 90px""><b>ø</b></div>","null","","","","forget_cue","","","","","","","","","","","","","","","",""
"html-keyboard-response","74","976908","0.0-3.0-3.0-0.9","bruuy04jngyxvho","practice_cue","5d18cf6eb3e698001eea9960","5f60e3c0a3b16e07647b2ff9","5f64c2c6810bd8027a7934a3","false","null","<span style=""color: black; font-size: 48px"">M + N</span>","null","","","","resp_prompt","","","","","","","","","","","","","","","",""
"categorize-image","75","977929","0.0-3.0-3.0-1.9","bruuy04jngyxvho","practice_cue","5d18cf6eb3e698001eea9960","5f60e3c0a3b16e07647b2ff9","5f64c2c6810bd8027a7934a3","true","998.3150000043679","./Stimuli/ImagesPractice/SN205.jpg","83","","","","test","false","M + N","76","","SN","SN205.jpg","forget","old","26","2","practice_forget","left","","","",""
"html-keyboard-response","76","978435","0.0-3.0-3.0-2.9-0.9","bruuy04jngyxvho","practice_cue","5d18cf6eb3e698001eea9960","5f60e3c0a3b16e07647b2ff9","5f64c2c6810bd8027a7934a3","false","null","<span style=""color: red; font-size: 48px"">Error!</span>","null","","","","feedback","","","","","","","","","","","","","","","",""
"html-keyboard-response","77","980440","0.0-3.0-3.0-3.9","bruuy04jngyxvho","practice_cue","5d18cf6eb3e698001eea9960","5f60e3c0a3b16e07647b2ff9","5f64c2c6810bd8027a7934a3","false","null","<div style=""align-items: center; display: flex; color: darkorange; font-size: 90px""><b>ø</b></div>","null","","","","forget_cue","","","","","","","","","","","","","","","",""
"html-keyboard-response","78","981162","0.0-3.0-3.0-0.10","bruuy04jngyxvho","practice_cue","5d18cf6eb3e698001eea9960","5f60e3c0a3b16e07647b2ff9","5f64c2c6810bd8027a7934a3","false","null","<span style=""color: black; font-size: 48px"">N + M</span>","null","","","","resp_prompt","","","","","","","","","","","","","","","",""
"categorize-image","79","982320","0.0-3.0-3.0-1.10","bruuy04jngyxvho","practice_cue","5d18cf6eb3e698001eea9960","5f60e3c0a3b16e07647b2ff9","5f64c2c6810bd8027a7934a3","true","1133.2350000011502","./Stimuli/ImagesPractice/LM143.jpg","76","","","","test","true","N + M","76","","LM","LM143.jpg","forget","old","27","2","practice_forget","right","","","",""
"html-keyboard-response","80","984324","0.0-3.0-3.0-3.10","bruuy04jngyxvho","practice_cue","5d18cf6eb3e698001eea9960","5f60e3c0a3b16e07647b2ff9","5f64c2c6810bd8027a7934a3","false","null","<div style=""align-items: center; display: flex; color: darkorange; font-size: 90px""><b>ø</b></div>","null","","","","forget_cue","","","","","","","","","","","","","","","",""
"html-keyboard-response","81","985029","0.0-3.0-3.0-0.11","bruuy04jngyxvho","practice_cue","5d18cf6eb3e698001eea9960","5f60e3c0a3b16e07647b2ff9","5f64c2c6810bd8027a7934a3","false","null","<span style=""color: black; font-size: 48px"">N + M</span>","null","","","","resp_prompt","","","","","","","","","","","","","","","",""
"categorize-image","82","985866","0.0-3.0-3.0-1.11","bruuy04jngyxvho","practice_cue","5d18cf6eb3e698001eea9960","5f60e3c0a3b16e07647b2ff9","5f64c2c6810bd8027a7934a3","true","811.9350000051782","./Stimuli/ImagesPractice/LM230.jpg","76","","","","test","true","N + M","76","","LM","LM230.jpg","forget","old","28","2","practice_forget","right","","","",""
"html-keyboard-response","83","987871","0.0-3.0-3.0-3.11","bruuy04jngyxvho","practice_cue","5d18cf6eb3e698001eea9960","5f60e3c0a3b16e07647b2ff9","5f64c2c6810bd8027a7934a3","false","null","<div style=""align-items: center; display: flex; color: darkorange; font-size: 90px""><b>ø</b></div>","null","","","","forget_cue","","","","","","","","","","","","","","","",""
"html-keyboard-response","84","988574","0.0-3.0-3.0-0.12","bruuy04jngyxvho","practice_cue","5d18cf6eb3e698001eea9960","5f60e3c0a3b16e07647b2ff9","5f64c2c6810bd8027a7934a3","false","null","<span style=""color: black; font-size: 48px"">M + N</span>","null","","","","resp_prompt","","","","","","","","","","","","","","","",""
"categorize-image","85","989338","0.0-3.0-3.0-1.12","bruuy04jngyxvho","practice_cue","5d18cf6eb3e698001eea9960","5f60e3c0a3b16e07647b2ff9","5f64c2c6810bd8027a7934a3","true","743.5850000038045","./Stimuli/ImagesPractice/LM239.jpg","83","","","","test","true","M + N","83","","LM","LM239.jpg","remember","old","29","2","practice_forget","left","","","",""
"html-keyboard-response","86","991342","0.0-3.0-3.0-3.12","bruuy04jngyxvho","practice_cue","5d18cf6eb3e698001eea9960","5f60e3c0a3b16e07647b2ff9","5f64c2c6810bd8027a7934a3","false","null","<div style=""align-items: center; display: flex; color: dodgerblue; font-size: 90px""><b>o</b></div>","null","","","","forget_cue","","","","","","","","","","","","","","","",""
"html-keyboard-response","87","992046","0.0-3.0-3.0-0.13","bruuy04jngyxvho","practice_cue","5d18cf6eb3e698001eea9960","5f60e3c0a3b16e07647b2ff9","5f64c2c6810bd8027a7934a3","false","null","<span style=""color: black; font-size: 48px"">N + M</span>","null","","","","resp_prompt","","","","","","","","","","","","","","","",""
"categorize-image","88","993117","0.0-3.0-3.0-1.13","bruuy04jngyxvho","practice_cue","5d18cf6eb3e698001eea9960","5f60e3c0a3b16e07647b2ff9","5f64c2c6810bd8027a7934a3","true","1051.739999995334","./Stimuli/ImagesPractice/LN72.jpg","83","","","","test","true","N + M","83","","LN","LN72.jpg","remember","old","30","2","practice_forget","left","","","",""
"html-keyboard-response","89","995122","0.0-3.0-3.0-3.13","bruuy04jngyxvho","practice_cue","5d18cf6eb3e698001eea9960","5f60e3c0a3b16e07647b2ff9","5f64c2c6810bd8027a7934a3","false","null","<div style=""align-items: center; display: flex; color: dodgerblue; font-size: 90px""><b>o</b></div>","null","","","","forget_cue","","","","","","","","","","","","","","","",""
"html-keyboard-response","90","995825","0.0-3.0-3.0-0.14","bruuy04jngyxvho","practice_cue","5d18cf6eb3e698001eea9960","5f60e3c0a3b16e07647b2ff9","5f64c2c6810bd8027a7934a3","false","null","<span style=""color: black; font-size: 48px"">M + N</span>","null","","","","resp_prompt","","","","","","","","","","","","","","","",""
"categorize-image","91","996947","0.0-3.0-3.0-1.14","bruuy04jngyxvho","practice_cue","5d18cf6eb3e698001eea9960","5f60e3c0a3b16e07647b2ff9","5f64c2c6810bd8027a7934a3","true","1105.4849999927683","./Stimuli/ImagesPractice/LM224.jpg","83","","","","test","true","M + N","83","","LM","LM224.jpg","forget","old","31","2","practice_forget","left","","","",""
"html-keyboard-response","92","998953","0.0-3.0-3.0-3.14","bruuy04jngyxvho","practice_cue","5d18cf6eb3e698001eea9960","5f60e3c0a3b16e07647b2ff9","5f64c2c6810bd8027a7934a3","false","null","<div style=""align-items: center; display: flex; color: darkorange; font-size: 90px""><b>ø</b></div>","null","","","","forget_cue","","","","","","","","","","","","","","","",""
"html-keyboard-response","93","999656","0.0-3.0-3.0-0.15","bruuy04jngyxvho","practice_cue","5d18cf6eb3e698001eea9960","5f60e3c0a3b16e07647b2ff9","5f64c2c6810bd8027a7934a3","false","null","<span style=""color: black; font-size: 48px"">M + N</span>","null","","","","resp_prompt","","","","","","","","","","","","","","","",""
"categorize-image","94","1000637","0.0-3.0-3.0-1.15","bruuy04jngyxvho","practice_cue","5d18cf6eb3e698001eea9960","5f60e3c0a3b16e07647b2ff9","5f64c2c6810bd8027a7934a3","true","959.805000005872","./Stimuli/ImagesPractice/SM97.jpg","83","","","","test","true","M + N","83","","SM","SM97.jpg","forget","old","32","2","practice_forget","left","","","",""
"html-keyboard-response","95","1002641","0.0-3.0-3.0-3.15","bruuy04jngyxvho","practice_cue","5d18cf6eb3e698001eea9960","5f60e3c0a3b16e07647b2ff9","5f64c2c6810bd8027a7934a3","false","null","<div style=""align-items: center; display: flex; color: darkorange; font-size: 90px""><b>ø</b></div>","null","","","","forget_cue","","","","","","","","","","","","","","","",""
"html-keyboard-response","96","1006692","0.0-3.0-4.0","bruuy04jngyxvho","break","5d18cf6eb3e698001eea9960","5f60e3c0a3b16e07647b2ff9","5f64c2c6810bd8027a7934a3","false","4045.9649999975227","<p style='font-size: 32px;'>Break</><br><br><br><br><br><p style='font-size: 24px;'>In the last block, you committed 1 errors and did not respond in time on 0 trials.
</p><p style='font-size: 24px;'>Try to respond as fast and accurately as possible in the next block as well! </p><p style='font-size: 24px;'>Press SPACE to continue.</p>","32","","","","","","","","","","","","","","","","","","","",""
"html-keyboard-response","97","1029656","0.0-3.0-5.0","bruuy04jngyxvho","instructions","5d18cf6eb3e698001eea9960","5f60e3c0a3b16e07647b2ff9","5f64c2c6810bd8027a7934a3","false","22956.46499999566","<div align=left> Now, to practice, we kindly ask you to remember as many of the to-be-remembered pictures<br>of the previous learning phase as possible.<br><br>The pictures you were instructed to remember were the pictures followed by a <span style='color: dodgerblue; font-size: 28px'>O</span>.<br><br>In this memory test phase, you will also see some new pictures.<br>It is your task to remember whether you were presented with this specific picture in this study so far or not.<br>If you recognize an object (you have already seen it in this study), it is an OLD object. <br>If you do not recognize an object (you have NOT seen it in this study), it is a NEW object. <br><strong> Attention</strong>: As already mentioned, <span style='color: darkorange; font-size:28px'>Ø</span>-pictures will <strong>never</strong> appear in this memory test (neither as new objects). <br><br>Press SPACE to continue. </div>","32","","","","","","","","","","","","","","","","","","","",""
"html-keyboard-response","98","1074373","0.0-3.0-6.0","bruuy04jngyxvho","instructions","5d18cf6eb3e698001eea9960","5f60e3c0a3b16e07647b2ff9","5f64c2c6810bd8027a7934a3","false","44709.60500001104","<div align=left> M and N no longer will appear on the left/right of the fixation cross. <br>Instead there will be a note at the bottom of the left or right side  <br>indicating which key you should press for an old or new object:  <br> <br>Press the <strong>right</strong> key to classify an object as <strong>old</strong> and press the <strong>left</strong>, to classify an object as <strong>new</strong>.<br>Please classify the objects as new/old by again placing your index finger on the 'S' and 'L' keys <br>and press them accordingly.<br><br><strong>Old:</strong> This object has been presented before. <br><strong>New:</strong> This object has <strong>not</strong> been presented.<br><br>Now please put your right and left index fingers on the 'S' and 'L' keys of your keyboard. <br>Please respond as fast and as accurately as possible!<br><br>Press SPACE to continue. </div>","32","","","","","","","","","","","","","","","","","","","",""
"categorize-image","99","1076853","0.0-3.0-7.0-0.0","bruuy04jngyxvho","practice_recog","5d18cf6eb3e698001eea9960","5f60e3c0a3b16e07647b2ff9","5f64c2c6810bd8027a7934a3","true","1954.6549999939743","./Stimuli/ImagesPractice/LN109.jpg","83","","","","test","true","","83","","LN","LN109.jpg","","old","33","3","practice_recog","left","","","",""
"categorize-image","100","1078171","0.0-3.0-7.0-0.1","bruuy04jngyxvho","practice_recog","5d18cf6eb3e698001eea9960","5f60e3c0a3b16e07647b2ff9","5f64c2c6810bd8027a7934a3","true","807.4850000119768","./Stimuli/ImagesPractice/LN15.jpg","83","","","","test","true","","83","","LN","LN15.jpg","","old","34","3","practice_recog","left","","","",""
"categorize-image","101","1079555","0.0-3.0-7.0-0.2","bruuy04jngyxvho","practice_recog","5d18cf6eb3e698001eea9960","5f60e3c0a3b16e07647b2ff9","5f64c2c6810bd8027a7934a3","true","873.3150000046007","./Stimuli/ImagesPractice/LN17.jpg","76","","","","test","true","","76","","LN","LN17.jpg","","new","35","3","practice_recog","right","","","",""
"categorize-image","102","1080968","0.0-3.0-7.0-0.3","bruuy04jngyxvho","practice_recog","5d18cf6eb3e698001eea9960","5f60e3c0a3b16e07647b2ff9","5f64c2c6810bd8027a7934a3","true","902.1899999934249","./Stimuli/ImagesPractice/SM62.jpg","83","","","","test","true","","83","","SM","SM62.jpg","","old","36","3","practice_recog","left","","","",""
"categorize-image","103","1082267","0.0-3.0-7.0-0.4","bruuy04jngyxvho","practice_recog","5d18cf6eb3e698001eea9960","5f60e3c0a3b16e07647b2ff9","5f64c2c6810bd8027a7934a3","true","790.9299999882933","./Stimuli/ImagesPractice/LM55.jpg","76","","","","test","true","","76","","LM","LM55.jpg","","new","37","3","practice_recog","right","","","",""
"categorize-image","104","1083668","0.0-3.0-7.0-0.5","bruuy04jngyxvho","practice_recog","5d18cf6eb3e698001eea9960","5f60e3c0a3b16e07647b2ff9","5f64c2c6810bd8027a7934a3","true","887.9299999973737","./Stimuli/ImagesPractice/LN72.jpg","83","","","","test","true","","83","","LN","LN72.jpg","","old","38","3","practice_recog","left","","","",""
"categorize-image","105","1084973","0.0-3.0-7.0-0.6","bruuy04jngyxvho","practice_recog","5d18cf6eb3e698001eea9960","5f60e3c0a3b16e07647b2ff9","5f64c2c6810bd8027a7934a3","true","797.164999996312","./Stimuli/ImagesPractice/SM98.jpg","76","","","","test","true","","76","","SM","SM98.jpg","","new","39","3","practice_recog","right","","","",""
"categorize-image","106","1086456","0.0-3.0-7.0-0.7","bruuy04jngyxvho","practice_recog","5d18cf6eb3e698001eea9960","5f60e3c0a3b16e07647b2ff9","5f64c2c6810bd8027a7934a3","true","976.2700000135228","./Stimuli/ImagesPractice/SM37.jpg","83","","","","test","true","","83","","SM","SM37.jpg","","old","40","3","practice_recog","left","","","",""
"categorize-image","107","1087750","0.0-3.0-7.0-0.8","bruuy04jngyxvho","practice_recog","5d18cf6eb3e698001eea9960","5f60e3c0a3b16e07647b2ff9","5f64c2c6810bd8027a7934a3","true","777.8350000006612","./Stimuli/ImagesPractice/LN2.jpg","83","","","","test","true","","83","","LN","LN2.jpg","","old","41","3","practice_recog","left","","","",""
"categorize-image","108","1089029","0.0-3.0-7.0-0.9","bruuy04jngyxvho","practice_recog","5d18cf6eb3e698001eea9960","5f60e3c0a3b16e07647b2ff9","5f64c2c6810bd8027a7934a3","true","769.2300000053365","./Stimuli/ImagesPractice/LN4.jpg","76","","","","test","true","","76","","LN","LN4.jpg","","new","42","3","practice_recog","right","","","",""
"categorize-image","109","1090373","0.0-3.0-7.0-0.10","bruuy04jngyxvho","practice_recog","5d18cf6eb3e698001eea9960","5f60e3c0a3b16e07647b2ff9","5f64c2c6810bd8027a7934a3","true","835.5799999991432","./Stimuli/ImagesPractice/SN76.jpg","76","","","","test","true","","76","","SN","SN76.jpg","","new","43","3","practice_recog","right","","","",""
"categorize-image","110","1091827","0.0-3.0-7.0-0.11","bruuy04jngyxvho","practice_recog","5d18cf6eb3e698001eea9960","5f60e3c0a3b16e07647b2ff9","5f64c2c6810bd8027a7934a3","true","945.8299999968149","./Stimuli/ImagesPractice/LM239.jpg","83","","","","test","true","","83","","LM","LM239.jpg","","old","44","3","practice_recog","left","","","",""
"categorize-image","111","1093624","0.0-3.0-7.0-0.12","bruuy04jngyxvho","practice_recog","5d18cf6eb3e698001eea9960","5f60e3c0a3b16e07647b2ff9","5f64c2c6810bd8027a7934a3","true","1285.994999998482","./Stimuli/ImagesPractice/LM147.jpg","76","","","","test","true","","76","","LM","LM147.jpg","","new","45","3","practice_recog","right","","","",""
"categorize-image","112","1094986","0.0-3.0-7.0-0.13","bruuy04jngyxvho","practice_recog","5d18cf6eb3e698001eea9960","5f60e3c0a3b16e07647b2ff9","5f64c2c6810bd8027a7934a3","true","851.9949999901","./Stimuli/ImagesPractice/SN75.jpg","76","","","","test","true","","76","","SN","SN75.jpg","","new","46","3","practice_recog","right","","","",""
"categorize-image","113","1096410","0.0-3.0-7.0-0.14","bruuy04jngyxvho","practice_recog","5d18cf6eb3e698001eea9960","5f60e3c0a3b16e07647b2ff9","5f64c2c6810bd8027a7934a3","true","911.6499999945518","./Stimuli/ImagesPractice/SM35.jpg","76","","","","test","true","","76","","SM","SM35.jpg","","new","47","3","practice_recog","right","","","",""
"categorize-image","114","1097664","0.0-3.0-7.0-0.15","bruuy04jngyxvho","practice_recog","5d18cf6eb3e698001eea9960","5f60e3c0a3b16e07647b2ff9","5f64c2c6810bd8027a7934a3","true","741.6499999964144","./Stimuli/ImagesPractice/SN222.jpg","83","","","","test","true","","83","","SN","SN222.jpg","","old","48","3","practice_recog","left","","","",""
"html-keyboard-response","115","1107510","0.0-3.0-8.0","bruuy04jngyxvho","instructions","5d18cf6eb3e698001eea9960","5f60e3c0a3b16e07647b2ff9","5f64c2c6810bd8027a7934a3","false","9840.394999992102","<div align=left> Great!<br><br>Are you ready to continue?<br>If you want to reread the instructions and redo the practice trials, please <br>press „Z“.<br><br>You can proceed when you are ready.<br><br>After the presentation of each object, you will receive an instruction whether to <br>remember or to forget the object.<br>We will test your memory of the following pictures only at the very end of <br>the experiment after all learning blocks are completed. <br><br>Press SPACE to CONTINUE when you are ready. </div>","32","","","","","","","","","","","","","","","","","","","",""
"html-keyboard-response","116","1288849","0.0-4.0-0.0","bruuy04jngyxvho","instructions","5d18cf6eb3e698001eea9960","5f60e3c0a3b16e07647b2ff9","5f64c2c6810bd8027a7934a3","false","181331.255000012","<div align=left> The actual experiment is about to start.<br>The practice trials are over!<br><br>Please always respond both fast and accurately!<br><br>Remember: <br> <br><li> Please place your index fingers on the <strong>'S'</strong> and <strong>'L'</strong> keys <br>to respond as fast and accurately as possible.</li><li> Every picture can be classified as either mechanical or non-mechanical.</li><li> If you do not respond in time or commit an error, you will receive a corresponding feedback.<br> Please try to respond as <strong> fast </strong> and as <strong> accurately as possible </strong>.</li><li> Remember the <span style='color: dodgerblue; font-size: 28px'>O</span> pictures. <br></li><li> Please minimize distractions and stay focused. </li><br><br>Press SPACE to START.</div>","32","","","","","","","","","","","","","","","","","","","",""
"html-keyboard-response","117","1289560","0.0-4.0-1.0-0.0","bruuy04jngyxvho","prime","5d18cf6eb3e698001eea9960","5f60e3c0a3b16e07647b2ff9","5f64c2c6810bd8027a7934a3","false","null","<span style=""color: black; font-size: 48px"">N + M</span>","null","","","","resp_prompt","","","","","","","","","","","","","","","",""
"categorize-image","118","1290666","0.0-4.0-1.0-1.0","bruuy04jngyxvho","prime","5d18cf6eb3e698001eea9960","5f60e3c0a3b16e07647b2ff9","5f64c2c6810bd8027a7934a3","true","1086.0850000027567","./Stimuli/SelectedImages/SN/SN93.bmp","83","","","","test","true","N + M","83","switch","SN","SN93.bmp","forget","","49","3","prime1","left","","","",""
"html-keyboard-response","119","1292672","0.0-4.0-1.0-3.0","bruuy04jngyxvho","prime","5d18cf6eb3e698001eea9960","5f60e3c0a3b16e07647b2ff9","5f64c2c6810bd8027a7934a3","false","null","<div style=""align-items: center; display: flex; color: darkorange; font-size: 90px""><b>ø</b></div>","null","","","","forget_cue","","","","","","","","","","","","","","","",""
"html-keyboard-response","120","1293376","0.0-4.0-1.0-0.1","bruuy04jngyxvho","prime","5d18cf6eb3e698001eea9960","5f60e3c0a3b16e07647b2ff9","5f64c2c6810bd8027a7934a3","false","null","<span style=""color: black; font-size: 48px"">N + M</span>","null","","","","resp_prompt","","","","","","","","","","","","","","","",""
"categorize-image","121","1295139","0.0-4.0-1.0-1.1","bruuy04jngyxvho","prime","5d18cf6eb3e698001eea9960","5f60e3c0a3b16e07647b2ff9","5f64c2c6810bd8027a7934a3","true","1743.9100000045728","./Stimuli/SelectedImages/LN/LN59.bmp","83","","","","test","true","N + M","83","switch","LN","LN59.bmp","forget","","50","3","prime1","left","","","",""
"html-keyboard-response","122","1297154","0.0-4.0-1.0-3.1","bruuy04jngyxvho","prime","5d18cf6eb3e698001eea9960","5f60e3c0a3b16e07647b2ff9","5f64c2c6810bd8027a7934a3","false","null","<div style=""align-items: center; display: flex; color: darkorange; font-size: 90px""><b>ø</b></div>","null","","","","forget_cue","","","","","","","","","","","","","","","",""
"html-keyboard-response","123","1297859","0.0-4.0-1.0-0.2","bruuy04jngyxvho","prime","5d18cf6eb3e698001eea9960","5f60e3c0a3b16e07647b2ff9","5f64c2c6810bd8027a7934a3","false","null","<span style=""color: black; font-size: 48px"">M + N</span>","null","","","","resp_prompt","","","","","","","","","","","","","","","",""
"categorize-image","124","1299834","0.0-4.0-1.0-1.2","bruuy04jngyxvho","prime","5d18cf6eb3e698001eea9960","5f60e3c0a3b16e07647b2ff9","5f64c2c6810bd8027a7934a3","true","1957.5699999986682","./Stimuli/SelectedImages/LN/LN150.bmp","76","","","","test","true","M + N","76","repetition","LN","LN150.bmp","remember","","51","3","prime1","right","","","",""
"html-keyboard-response","125","1301836","0.0-4.0-1.0-3.2","bruuy04jngyxvho","prime","5d18cf6eb3e698001eea9960","5f60e3c0a3b16e07647b2ff9","5f64c2c6810bd8027a7934a3","false","null","<div style=""align-items: center; display: flex; color: dodgerblue; font-size: 90px""><b>o</b></div>","null","","","","forget_cue","","","","","","","","","","","","","","","",""
"html-keyboard-response","126","1302541","0.0-4.0-1.0-0.3","bruuy04jngyxvho","prime","5d18cf6eb3e698001eea9960","5f60e3c0a3b16e07647b2ff9","5f64c2c6810bd8027a7934a3","false","null","<span style=""color: black; font-size: 48px"">M + N</span>","null","","","","resp_prompt","","","","","","","","","","","","","","","",""
"categorize-image","127","1303678","0.0-4.0-1.0-1.3","bruuy04jngyxvho","prime","5d18cf6eb3e698001eea9960","5f60e3c0a3b16e07647b2ff9","5f64c2c6810bd8027a7934a3","true","1113.330000007525","./Stimuli/SelectedImages/LM/LM51.bmp","83","","","","test","true","M + N","83","repetition","LM","LM51.bmp","remember","","52","3","prime1","left","","","",""
"html-keyboard-response","128","1305685","0.0-4.0-1.0-3.3","bruuy04jngyxvho","prime","5d18cf6eb3e698001eea9960","5f60e3c0a3b16e07647b2ff9","5f64c2c6810bd8027a7934a3","false","null","<div style=""align-items: center; display: flex; color: dodgerblue; font-size: 90px""><b>o</b></div>","null","","","","forget_cue","","","","","","","","","","","","","","","",""
"html-keyboard-response","129","1306391","0.0-4.0-1.0-0.4","bruuy04jngyxvho","prime","5d18cf6eb3e698001eea9960","5f60e3c0a3b16e07647b2ff9","5f64c2c6810bd8027a7934a3","false","null","<span style=""color: black; font-size: 48px"">M + N</span>","null","","","","resp_prompt","","","","","","","","","","","","","","","",""
"categorize-image","130","1307541","0.0-4.0-1.0-1.4","bruuy04jngyxvho","prime","5d18cf6eb3e698001eea9960","5f60e3c0a3b16e07647b2ff9","5f64c2c6810bd8027a7934a3","true","1134.0500000079628","./Stimuli/SelectedImages/SM/SM108.bmp","83","","","","test","true","M + N","83","repetition","SM","SM108.bmp","remember","","53","3","prime1","left","","","",""
"html-keyboard-response","131","1309547","0.0-4.0-1.0-3.4","bruuy04jngyxvho","prime","5d18cf6eb3e698001eea9960","5f60e3c0a3b16e07647b2ff9","5f64c2c6810bd8027a7934a3","false","null","<div style=""align-items: center; display: flex; color: dodgerblue; font-size: 90px""><b>o</b></div>","null","","","","forget_cue","","","","","","","","","","","","","","","",""
"html-keyboard-response","132","1310252","0.0-4.0-1.0-0.5","bruuy04jngyxvho","prime","5d18cf6eb3e698001eea9960","5f60e3c0a3b16e07647b2ff9","5f64c2c6810bd8027a7934a3","false","null","<span style=""color: black; font-size: 48px"">N + M</span>","null","","","","resp_prompt","","","","","","","","","","","","","","","",""
"categorize-image","133","1311264","0.0-4.0-1.0-1.5","bruuy04jngyxvho","prime","5d18cf6eb3e698001eea9960","5f60e3c0a3b16e07647b2ff9","5f64c2c6810bd8027a7934a3","true","988.9649999968242","./Stimuli/SelectedImages/SN/SN49.bmp","83","","","","test","true","N + M","83","repetition","SN","SN49.bmp","forget","","54","3","prime1","left","","","",""
"html-keyboard-response","134","1313270","0.0-4.0-1.0-3.5","bruuy04jngyxvho","prime","5d18cf6eb3e698001eea9960","5f60e3c0a3b16e07647b2ff9","5f64c2c6810bd8027a7934a3","false","null","<div style=""align-items: center; display: flex; color: darkorange; font-size: 90px""><b>ø</b></div>","null","","","","forget_cue","","","","","","","","","","","","","","","",""
"html-keyboard-response","135","1313975","0.0-4.0-1.0-0.6","bruuy04jngyxvho","prime","5d18cf6eb3e698001eea9960","5f60e3c0a3b16e07647b2ff9","5f64c2c6810bd8027a7934a3","false","null","<span style=""color: black; font-size: 48px"">M + N</span>","null","","","","resp_prompt","","","","","","","","","","","","","","","",""
"categorize-image","136","1314731","0.0-4.0-1.0-1.6","bruuy04jngyxvho","prime","5d18cf6eb3e698001eea9960","5f60e3c0a3b16e07647b2ff9","5f64c2c6810bd8027a7934a3","true","733.839999986114","./Stimuli/SelectedImages/LM/LM157.bmp","83","","","","test","true","M + N","83","switch","LM","LM157.bmp","forget","","55","3","prime1","left","","","",""
"html-keyboard-response","137","1316734","0.0-4.0-1.0-3.6","bruuy04jngyxvho","prime","5d18cf6eb3e698001eea9960","5f60e3c0a3b16e07647b2ff9","5f64c2c6810bd8027a7934a3","false","null","<div style=""align-items: center; display: flex; color: darkorange; font-size: 90px""><b>ø</b></div>","null","","","","forget_cue","","","","","","","","","","","","","","","",""
"html-keyboard-response","138","1317450","0.0-4.0-1.0-0.7","bruuy04jngyxvho","prime","5d18cf6eb3e698001eea9960","5f60e3c0a3b16e07647b2ff9","5f64c2c6810bd8027a7934a3","false","null","<span style=""color: black; font-size: 48px"">M + N</span>","null","","","","resp_prompt","","","","","","","","","","","","","","","",""
"categorize-image","139","1318376","0.0-4.0-1.0-1.7","bruuy04jngyxvho","prime","5d18cf6eb3e698001eea9960","5f60e3c0a3b16e07647b2ff9","5f64c2c6810bd8027a7934a3","true","905.7000000029802","./Stimuli/SelectedImages/SN/SN140.bmp","76","","","","test","true","M + N","76","switch","SN","SN140.bmp","remember","","56","3","prime1","right","","","",""
"html-keyboard-response","140","1320381","0.0-4.0-1.0-3.7","bruuy04jngyxvho","prime","5d18cf6eb3e698001eea9960","5f60e3c0a3b16e07647b2ff9","5f64c2c6810bd8027a7934a3","false","null","<div style=""align-items: center; display: flex; color: dodgerblue; font-size: 90px""><b>o</b></div>","null","","","","forget_cue","","","","","","","","","","","","","","","",""
"html-keyboard-response","141","1321086","0.0-4.0-1.0-0.8","bruuy04jngyxvho","prime","5d18cf6eb3e698001eea9960","5f60e3c0a3b16e07647b2ff9","5f64c2c6810bd8027a7934a3","false","null","<span style=""color: black; font-size: 48px"">N + M</span>","null","","","","resp_prompt","","","","","","","","","","","","","","","",""
"categorize-image","142","1322827","0.0-4.0-1.0-1.8","bruuy04jngyxvho","prime","5d18cf6eb3e698001eea9960","5f60e3c0a3b16e07647b2ff9","5f64c2c6810bd8027a7934a3","true","1726.3749999983702","./Stimuli/SelectedImages/SN/SN240.bmp","83","","","","test","true","N + M","83","repetition","SN","SN240.bmp","remember","","57","3","prime1","left","","","",""
"html-keyboard-response","143","1324830","0.0-4.0-1.0-3.8","bruuy04jngyxvho","prime","5d18cf6eb3e698001eea9960","5f60e3c0a3b16e07647b2ff9","5f64c2c6810bd8027a7934a3","false","null","<div style=""align-items: center; display: flex; color: dodgerblue; font-size: 90px""><b>o</b></div>","null","","","","forget_cue","","","","","","","","","","","","","","","",""
"html-keyboard-response","144","1325534","0.0-4.0-1.0-0.9","bruuy04jngyxvho","prime","5d18cf6eb3e698001eea9960","5f60e3c0a3b16e07647b2ff9","5f64c2c6810bd8027a7934a3","false","null","<span style=""color: black; font-size: 48px"">N + M</span>","null","","","","resp_prompt","","","","","","","","","","","","","","","",""
"categorize-image","145","1326494","0.0-4.0-1.0-1.9","bruuy04jngyxvho","prime","5d18cf6eb3e698001eea9960","5f60e3c0a3b16e07647b2ff9","5f64c2c6810bd8027a7934a3","true","936.5499999986496","./Stimuli/SelectedImages/SM/SM205.bmp","76","","","","test","true","N + M","76","switch","SM","SM205.bmp","forget","","58","3","prime1","right","","","",""
"html-keyboard-response","146","1328498","0.0-4.0-1.0-3.9","bruuy04jngyxvho","prime","5d18cf6eb3e698001eea9960","5f60e3c0a3b16e07647b2ff9","5f64c2c6810bd8027a7934a3","false","null","<div style=""align-items: center; display: flex; color: darkorange; font-size: 90px""><b>ø</b></div>","null","","","","forget_cue","","","","","","","","","","","","","","","",""
"html-keyboard-response","147","1329202","0.0-4.0-1.0-0.10","bruuy04jngyxvho","prime","5d18cf6eb3e698001eea9960","5f60e3c0a3b16e07647b2ff9","5f64c2c6810bd8027a7934a3","false","null","<span style=""color: black; font-size: 48px"">M + N</span>","null","","","","resp_prompt","","","","","","","","","","","","","","","",""
"categorize-image","148","1330292","0.0-4.0-1.0-1.10","bruuy04jngyxvho","prime","5d18cf6eb3e698001eea9960","5f60e3c0a3b16e07647b2ff9","5f64c2c6810bd8027a7934a3","true","1072.1000000047497","./Stimuli/SelectedImages/LN/LN92.bmp","76","","","","test","true","M + N","76","switch","LN","LN92.bmp","forget","","59","3","prime1","right","","","",""
"html-keyboard-response","149","1332299","0.0-4.0-1.0-3.10","bruuy04jngyxvho","prime","5d18cf6eb3e698001eea9960","5f60e3c0a3b16e07647b2ff9","5f64c2c6810bd8027a7934a3","false","null","<div style=""align-items: center; display: flex; color: darkorange; font-size: 90px""><b>ø</b></div>","null","","","","forget_cue","","","","","","","","","","","","","","","",""
"html-keyboard-response","150","1333002","0.0-4.0-1.0-0.11","bruuy04jngyxvho","prime","5d18cf6eb3e698001eea9960","5f60e3c0a3b16e07647b2ff9","5f64c2c6810bd8027a7934a3","false","null","<span style=""color: black; font-size: 48px"">N + M</span>","null","","","","resp_prompt","","","","","","","","","","","","","","","",""
"categorize-image","151","1334082","0.0-4.0-1.0-1.11","bruuy04jngyxvho","prime","5d18cf6eb3e698001eea9960","5f60e3c0a3b16e07647b2ff9","5f64c2c6810bd8027a7934a3","true","1060.700000001816","./Stimuli/SelectedImages/SM/SM78.bmp","76","","","","test","true","N + M","76","repetition","SM","SM78.bmp","forget","","60","3","prime1","right","","","",""
"html-keyboard-response","152","1336087","0.0-4.0-1.0-3.11","bruuy04jngyxvho","prime","5d18cf6eb3e698001eea9960","5f60e3c0a3b16e07647b2ff9","5f64c2c6810bd8027a7934a3","false","null","<div style=""align-items: center; display: flex; color: darkorange; font-size: 90px""><b>ø</b></div>","null","","","","forget_cue","","","","","","","","","","","","","","","",""
"html-keyboard-response","153","1336793","0.0-4.0-1.0-0.12","bruuy04jngyxvho","prime","5d18cf6eb3e698001eea9960","5f60e3c0a3b16e07647b2ff9","5f64c2c6810bd8027a7934a3","false","null","<span style=""color: black; font-size: 48px"">M + N</span>","null","","","","resp_prompt","","","","","","","","","","","","","","","",""
"categorize-image","154","1338041","0.0-4.0-1.0-1.12","bruuy04jngyxvho","prime","5d18cf6eb3e698001eea9960","5f60e3c0a3b16e07647b2ff9","5f64c2c6810bd8027a7934a3","true","1229.7200000029989","./Stimuli/SelectedImages/LN/LN131.bmp","76","","","","test","true","M + N","76","switch","LN","LN131.bmp","remember","","61","3","prime1","right","","","",""
"html-keyboard-response","155","1340049","0.0-4.0-1.0-3.12","bruuy04jngyxvho","prime","5d18cf6eb3e698001eea9960","5f60e3c0a3b16e07647b2ff9","5f64c2c6810bd8027a7934a3","false","null","<div style=""align-items: center; display: flex; color: dodgerblue; font-size: 90px""><b>o</b></div>","null","","","","forget_cue","","","","","","","","","","","","","","","",""
"html-keyboard-response","156","1340756","0.0-4.0-1.0-0.13","bruuy04jngyxvho","prime","5d18cf6eb3e698001eea9960","5f60e3c0a3b16e07647b2ff9","5f64c2c6810bd8027a7934a3","false","null","<span style=""color: black; font-size: 48px"">N + M</span>","null","","","","resp_prompt","","","","","","","","","","","","","","","",""
"categorize-image","157","1342632","0.0-4.0-1.0-1.13","bruuy04jngyxvho","prime","5d18cf6eb3e698001eea9960","5f60e3c0a3b16e07647b2ff9","5f64c2c6810bd8027a7934a3","true","1854.854999997653","./Stimuli/SelectedImages/LN/LN82.bmp","76","","","","test","false","N + M","83","repetition","LN","LN82.bmp","remember","","62","3","prime1","right","","","",""
"html-keyboard-response","158","1343139","0.0-4.0-1.0-2.13-0.13","bruuy04jngyxvho","prime","5d18cf6eb3e698001eea9960","5f60e3c0a3b16e07647b2ff9","5f64c2c6810bd8027a7934a3","false","null","<span style=""color: red; font-size: 48px"">Error!</span>","null","","","","feedback","","","","","","","","","","","","","","","",""
"html-keyboard-response","159","1345143","0.0-4.0-1.0-3.13","bruuy04jngyxvho","prime","5d18cf6eb3e698001eea9960","5f60e3c0a3b16e07647b2ff9","5f64c2c6810bd8027a7934a3","false","null","<div style=""align-items: center; display: flex; color: dodgerblue; font-size: 90px""><b>o</b></div>","null","","","","forget_cue","","","","","","","","","","","","","","","",""
"html-keyboard-response","160","1345848","0.0-4.0-1.0-0.14","bruuy04jngyxvho","prime","5d18cf6eb3e698001eea9960","5f60e3c0a3b16e07647b2ff9","5f64c2c6810bd8027a7934a3","false","null","<span style=""color: black; font-size: 48px"">N + M</span>","null","","","","resp_prompt","","","","","","","","","","","","","","","",""
"categorize-image","161","1346790","0.0-4.0-1.0-1.14","bruuy04jngyxvho","prime","5d18cf6eb3e698001eea9960","5f60e3c0a3b16e07647b2ff9","5f64c2c6810bd8027a7934a3","true","921.9700000102166","./Stimuli/SelectedImages/SN/SN187.bmp","83","","","","test","true","N + M","83","repetition","SN","SN187.bmp","remember","","63","3","prime1","left","","","",""
"html-keyboard-response","162","1348794","0.0-4.0-1.0-3.14","bruuy04jngyxvho","prime","5d18cf6eb3e698001eea9960","5f60e3c0a3b16e07647b2ff9","5f64c2c6810bd8027a7934a3","false","null","<div style=""align-items: center; display: flex; color: dodgerblue; font-size: 90px""><b>o</b></div>","null","","","","forget_cue","","","","","","","","","","","","","","","",""
"html-keyboard-response","163","1349498","0.0-4.0-1.0-0.15","bruuy04jngyxvho","prime","5d18cf6eb3e698001eea9960","5f60e3c0a3b16e07647b2ff9","5f64c2c6810bd8027a7934a3","false","null","<span style=""color: black; font-size: 48px"">N + M</span>","null","","","","resp_prompt","","","","","","","","","","","","","","","",""
"categorize-image","164","1350616","0.0-4.0-1.0-1.15","bruuy04jngyxvho","prime","5d18cf6eb3e698001eea9960","5f60e3c0a3b16e07647b2ff9","5f64c2c6810bd8027a7934a3","true","1098.8349999971688","./Stimuli/SelectedImages/LM/LM103.bmp","76","","","","test","true","N + M","76","repetition","LM","LM103.bmp","remember","","64","3","prime1","right","","","",""
"html-keyboard-response","165","1352621","0.0-4.0-1.0-3.15","bruuy04jngyxvho","prime","5d18cf6eb3e698001eea9960","5f60e3c0a3b16e07647b2ff9","5f64c2c6810bd8027a7934a3","false","null","<div style=""align-items: center; display: flex; color: dodgerblue; font-size: 90px""><b>o</b></div>","null","","","","forget_cue","","","","","","","","","","","","","","","",""
"html-keyboard-response","166","1353325","0.0-4.0-1.0-0.16","bruuy04jngyxvho","prime","5d18cf6eb3e698001eea9960","5f60e3c0a3b16e07647b2ff9","5f64c2c6810bd8027a7934a3","false","null","<span style=""color: black; font-size: 48px"">M + N</span>","null","","","","resp_prompt","","","","","","","","","","","","","","","",""
"categorize-image","167","1354647","0.0-4.0-1.0-1.16","bruuy04jngyxvho","prime","5d18cf6eb3e698001eea9960","5f60e3c0a3b16e07647b2ff9","5f64c2c6810bd8027a7934a3","true","1306.0499999991152","./Stimuli/SelectedImages/LM/LM179.bmp","83","","","","test","true","M + N","83","repetition","LM","LM179.bmp","remember","","65","3","prime1","left","","","",""
"html-keyboard-response","168","1356653","0.0-4.0-1.0-3.16","bruuy04jngyxvho","prime","5d18cf6eb3e698001eea9960","5f60e3c0a3b16e07647b2ff9","5f64c2c6810bd8027a7934a3","false","null","<div style=""align-items: center; display: flex; color: dodgerblue; font-size: 90px""><b>o</b></div>","null","","","","forget_cue","","","","","","","","","","","","","","","",""
"html-keyboard-response","169","1357358","0.0-4.0-1.0-0.17","bruuy04jngyxvho","prime","5d18cf6eb3e698001eea9960","5f60e3c0a3b16e07647b2ff9","5f64c2c6810bd8027a7934a3","false","null","<span style=""color: black; font-size: 48px"">N + M</span>","null","","","","resp_prompt","","","","","","","","","","","","","","","",""
"categorize-image","170","1358721","0.0-4.0-1.0-1.17","bruuy04jngyxvho","prime","5d18cf6eb3e698001eea9960","5f60e3c0a3b16e07647b2ff9","5f64c2c6810bd8027a7934a3","true","1338.4450000012293","./Stimuli/SelectedImages/LN/LN42.bmp","83","","","","test","true","N + M","83","switch","LN","LN42.bmp","remember","","66","3","prime1","left","","","",""
"html-keyboard-response","171","1360727","0.0-4.0-1.0-3.17","bruuy04jngyxvho","prime","5d18cf6eb3e698001eea9960","5f60e3c0a3b16e07647b2ff9","5f64c2c6810bd8027a7934a3","false","null","<div style=""align-items: center; display: flex; color: dodgerblue; font-size: 90px""><b>o</b></div>","null","","","","forget_cue","","","","","","","","","","","","","","","",""
"html-keyboard-response","172","1361433","0.0-4.0-1.0-0.18","bruuy04jngyxvho","prime","5d18cf6eb3e698001eea9960","5f60e3c0a3b16e07647b2ff9","5f64c2c6810bd8027a7934a3","false","null","<span style=""color: black; font-size: 48px"">N + M</span>","null","","","","resp_prompt","","","","","","","","","","","","","","","",""
"categorize-image","173","1362646","0.0-4.0-1.0-1.18","bruuy04jngyxvho","prime","5d18cf6eb3e698001eea9960","5f60e3c0a3b16e07647b2ff9","5f64c2c6810bd8027a7934a3","true","1190.8900000127032","./Stimuli/SelectedImages/SM/SM200.bmp","76","","","","test","true","N + M","76","repetition","SM","SM200.bmp","remember","","67","3","prime1","right","","","",""
"html-keyboard-response","174","1364652","0.0-4.0-1.0-3.18","bruuy04jngyxvho","prime","5d18cf6eb3e698001eea9960","5f60e3c0a3b16e07647b2ff9","5f64c2c6810bd8027a7934a3","false","null","<div style=""align-items: center; display: flex; color: dodgerblue; font-size: 90px""><b>o</b></div>","null","","","","forget_cue","","","","","","","","","","","","","","","",""
"html-keyboard-response","175","1365356","0.0-4.0-1.0-0.19","bruuy04jngyxvho","prime","5d18cf6eb3e698001eea9960","5f60e3c0a3b16e07647b2ff9","5f64c2c6810bd8027a7934a3","false","null","<span style=""color: black; font-size: 48px"">M + N</span>","null","","","","resp_prompt","","","","","","","","","","","","","","","",""
"categorize-image","176","1366713","0.0-4.0-1.0-1.19","bruuy04jngyxvho","prime","5d18cf6eb3e698001eea9960","5f60e3c0a3b16e07647b2ff9","5f64c2c6810bd8027a7934a3","true","1339.5799999996088","./Stimuli/SelectedImages/SM/SM73.bmp","83","","","","test","true","M + N","83","switch","SM","SM73.bmp","remember","","68","3","prime1","left","","","",""
"html-keyboard-response","177","1368716","0.0-4.0-1.0-3.19","bruuy04jngyxvho","prime","5d18cf6eb3e698001eea9960","5f60e3c0a3b16e07647b2ff9","5f64c2c6810bd8027a7934a3","false","null","<div style=""align-items: center; display: flex; color: dodgerblue; font-size: 90px""><b>o</b></div>","null","","","","forget_cue","","","","","","","","","","","","","","","",""
"html-keyboard-response","178","1369421","0.0-4.0-1.0-0.20","bruuy04jngyxvho","prime","5d18cf6eb3e698001eea9960","5f60e3c0a3b16e07647b2ff9","5f64c2c6810bd8027a7934a3","false","null","<span style=""color: black; font-size: 48px"">M + N</span>","null","","","","resp_prompt","","","","","","","","","","","","","","","",""
"categorize-image","179","1370396","0.0-4.0-1.0-1.20","bruuy04jngyxvho","prime","5d18cf6eb3e698001eea9960","5f60e3c0a3b16e07647b2ff9","5f64c2c6810bd8027a7934a3","true","956.1650000107475","./Stimuli/SelectedImages/SN/SN27.bmp","76","","","","test","true","M + N","76","repetition","SN","SN27.bmp","forget","","69","3","prime1","right","","","",""
"html-keyboard-response","180","1372400","0.0-4.0-1.0-3.20","bruuy04jngyxvho","prime","5d18cf6eb3e698001eea9960","5f60e3c0a3b16e07647b2ff9","5f64c2c6810bd8027a7934a3","false","null","<div style=""align-items: center; display: flex; color: darkorange; font-size: 90px""><b>ø</b></div>","null","","","","forget_cue","","","","","","","","","","","","","","","",""
"html-keyboard-response","181","1373105","0.0-4.0-1.0-0.21","bruuy04jngyxvho","prime","5d18cf6eb3e698001eea9960","5f60e3c0a3b16e07647b2ff9","5f64c2c6810bd8027a7934a3","false","null","<span style=""color: black; font-size: 48px"">N + M</span>","null","","","","resp_prompt","","","","","","","","","","","","","","","",""
"categorize-image","182","1374216","0.0-4.0-1.0-1.21","bruuy04jngyxvho","prime","5d18cf6eb3e698001eea9960","5f60e3c0a3b16e07647b2ff9","5f64c2c6810bd8027a7934a3","true","1093.325000008801","./Stimuli/SelectedImages/SM/SM213.bmp","76","","","","test","true","N + M","76","switch","SM","SM213.bmp","remember","","70","3","prime1","right","","","",""
"html-keyboard-response","183","1376222","0.0-4.0-1.0-3.21","bruuy04jngyxvho","prime","5d18cf6eb3e698001eea9960","5f60e3c0a3b16e07647b2ff9","5f64c2c6810bd8027a7934a3","false","null","<div style=""align-items: center; display: flex; color: dodgerblue; font-size: 90px""><b>o</b></div>","null","","","","forget_cue","","","","","","","","","","","","","","","",""
"html-keyboard-response","184","1376926","0.0-4.0-1.0-0.22","bruuy04jngyxvho","prime","5d18cf6eb3e698001eea9960","5f60e3c0a3b16e07647b2ff9","5f64c2c6810bd8027a7934a3","false","null","<span style=""color: black; font-size: 48px"">M + N</span>","null","","","","resp_prompt","","","","","","","","","","","","","","","",""
"categorize-image","185","1377990","0.0-4.0-1.0-1.22","bruuy04jngyxvho","prime","5d18cf6eb3e698001eea9960","5f60e3c0a3b16e07647b2ff9","5f64c2c6810bd8027a7934a3","true","1037.8950000014156","./Stimuli/SelectedImages/LN/LN177.bmp","76","","","","test","true","M + N","76","switch","LN","LN177.bmp","forget","","71","3","prime1","right","","","",""
"html-keyboard-response","186","1379994","0.0-4.0-1.0-3.22","bruuy04jngyxvho","prime","5d18cf6eb3e698001eea9960","5f60e3c0a3b16e07647b2ff9","5f64c2c6810bd8027a7934a3","false","null","<div style=""align-items: center; display: flex; color: darkorange; font-size: 90px""><b>ø</b></div>","null","","","","forget_cue","","","","","","","","","","","","","","","",""
"html-keyboard-response","187","1380698","0.0-4.0-1.0-0.23","bruuy04jngyxvho","prime","5d18cf6eb3e698001eea9960","5f60e3c0a3b16e07647b2ff9","5f64c2c6810bd8027a7934a3","false","null","<span style=""color: black; font-size: 48px"">N + M</span>","null","","","","resp_prompt","","","","","","","","","","","","","","","",""
"categorize-image","188","1381916","0.0-4.0-1.0-1.23","bruuy04jngyxvho","prime","5d18cf6eb3e698001eea9960","5f60e3c0a3b16e07647b2ff9","5f64c2c6810bd8027a7934a3","true","1203.9099999964237","./Stimuli/SelectedImages/SM/SM195.bmp","76","","","","test","true","N + M","76","repetition","SM","SM195.bmp","forget","","72","3","prime1","right","","","",""
"html-keyboard-response","189","1383921","0.0-4.0-1.0-3.23","bruuy04jngyxvho","prime","5d18cf6eb3e698001eea9960","5f60e3c0a3b16e07647b2ff9","5f64c2c6810bd8027a7934a3","false","null","<div style=""align-items: center; display: flex; color: darkorange; font-size: 90px""><b>ø</b></div>","null","","","","forget_cue","","","","","","","","","","","","","","","",""
"html-keyboard-response","190","1384625","0.0-4.0-1.0-0.24","bruuy04jngyxvho","prime","5d18cf6eb3e698001eea9960","5f60e3c0a3b16e07647b2ff9","5f64c2c6810bd8027a7934a3","false","null","<span style=""color: black; font-size: 48px"">N + M</span>","null","","","","resp_prompt","","","","","","","","","","","","","","","",""
"categorize-image","191","1385685","0.0-4.0-1.0-1.24","bruuy04jngyxvho","prime","5d18cf6eb3e698001eea9960","5f60e3c0a3b16e07647b2ff9","5f64c2c6810bd8027a7934a3","true","1038.0250000017695","./Stimuli/SelectedImages/SN/SN111.bmp","83","","","","test","true","N + M","83","switch","SN","SN111.bmp","remember","","73","3","prime1","left","","","",""
"html-keyboard-response","192","1387694","0.0-4.0-1.0-3.24","bruuy04jngyxvho","prime","5d18cf6eb3e698001eea9960","5f60e3c0a3b16e07647b2ff9","5f64c2c6810bd8027a7934a3","false","null","<div style=""align-items: center; display: flex; color: dodgerblue; font-size: 90px""><b>o</b></div>","null","","","","forget_cue","","","","","","","","","","","","","","","",""
"html-keyboard-response","193","1388398","0.0-4.0-1.0-0.25","bruuy04jngyxvho","prime","5d18cf6eb3e698001eea9960","5f60e3c0a3b16e07647b2ff9","5f64c2c6810bd8027a7934a3","false","null","<span style=""color: black; font-size: 48px"">M + N</span>","null","","","","resp_prompt","","","","","","","","","","","","","","","",""
"categorize-image","194","1389577","0.0-4.0-1.0-1.25","bruuy04jngyxvho","prime","5d18cf6eb3e698001eea9960","5f60e3c0a3b16e07647b2ff9","5f64c2c6810bd8027a7934a3","true","1157.7149999940302","./Stimuli/SelectedImages/SM/SM184.bmp","83","","","","test","true","M + N","83","switch","SM","SM184.bmp","forget","","74","3","prime1","left","","","",""
"html-keyboard-response","195","1391582","0.0-4.0-1.0-3.25","bruuy04jngyxvho","prime","5d18cf6eb3e698001eea9960","5f60e3c0a3b16e07647b2ff9","5f64c2c6810bd8027a7934a3","false","null","<div style=""align-items: center; display: flex; color: darkorange; font-size: 90px""><b>ø</b></div>","null","","","","forget_cue","","","","","","","","","","","","","","","",""
"html-keyboard-response","196","1392288","0.0-4.0-1.0-0.26","bruuy04jngyxvho","prime","5d18cf6eb3e698001eea9960","5f60e3c0a3b16e07647b2ff9","5f64c2c6810bd8027a7934a3","false","null","<span style=""color: black; font-size: 48px"">M + N</span>","null","","","","resp_prompt","","","","","","","","","","","","","","","",""
"categorize-image","197","1394080","0.0-4.0-1.0-1.26","bruuy04jngyxvho","prime","5d18cf6eb3e698001eea9960","5f60e3c0a3b16e07647b2ff9","5f64c2c6810bd8027a7934a3","true","1761.5899999947287","./Stimuli/SelectedImages/SN/SN60.bmp","76","","","","test","true","M + N","76","repetition","SN","SN60.bmp","remember","","75","3","prime1","right","","","",""
"html-keyboard-response","198","1396086","0.0-4.0-1.0-3.26","bruuy04jngyxvho","prime","5d18cf6eb3e698001eea9960","5f60e3c0a3b16e07647b2ff9","5f64c2c6810bd8027a7934a3","false","null","<div style=""align-items: center; display: flex; color: dodgerblue; font-size: 90px""><b>o</b></div>","null","","","","forget_cue","","","","","","","","","","","","","","","",""
"html-keyboard-response","199","1396790","0.0-4.0-1.0-0.27","bruuy04jngyxvho","prime","5d18cf6eb3e698001eea9960","5f60e3c0a3b16e07647b2ff9","5f64c2c6810bd8027a7934a3","false","null","<span style=""color: black; font-size: 48px"">M + N</span>","null","","","","resp_prompt","","","","","","","","","","","","","","","",""
"categorize-image","200","1398021","0.0-4.0-1.0-1.27","bruuy04jngyxvho","prime","5d18cf6eb3e698001eea9960","5f60e3c0a3b16e07647b2ff9","5f64c2c6810bd8027a7934a3","true","1215.0299999921117","./Stimuli/SelectedImages/SN/SN128.bmp","76","","","","test","true","M + N","76","repetition","SN","SN128.bmp","remember","","76","3","prime1","right","","","",""
"html-keyboard-response","201","1400025","0.0-4.0-1.0-3.27","bruuy04jngyxvho","prime","5d18cf6eb3e698001eea9960","5f60e3c0a3b16e07647b2ff9","5f64c2c6810bd8027a7934a3","false","null","<div style=""align-items: center; display: flex; color: dodgerblue; font-size: 90px""><b>o</b></div>","null","","","","forget_cue","","","","","","","","","","","","","","","",""
"html-keyboard-response","202","1400730","0.0-4.0-1.0-0.28","bruuy04jngyxvho","prime","5d18cf6eb3e698001eea9960","5f60e3c0a3b16e07647b2ff9","5f64c2c6810bd8027a7934a3","false","null","<span style=""color: black; font-size: 48px"">M + N</span>","null","","","","resp_prompt","","","","","","","","","","","","","","","",""
"categorize-image","203","1401385","0.0-4.0-1.0-1.28","bruuy04jngyxvho","prime","5d18cf6eb3e698001eea9960","5f60e3c0a3b16e07647b2ff9","5f64c2c6810bd8027a7934a3","true","634.4700000043958","./Stimuli/SelectedImages/SN/SN52.bmp","76","","","","test","true","M + N","76","switch","SN","SN52.bmp","forget","","77","3","prime1","right","","","",""
"html-keyboard-response","204","1403388","0.0-4.0-1.0-3.28","bruuy04jngyxvho","prime","5d18cf6eb3e698001eea9960","5f60e3c0a3b16e07647b2ff9","5f64c2c6810bd8027a7934a3","false","null","<div style=""align-items: center; display: flex; color: darkorange; font-size: 90px""><b>ø</b></div>","null","","","","forget_cue","","","","","","","","","","","","","","","",""
"html-keyboard-response","205","1404092","0.0-4.0-1.0-0.29","bruuy04jngyxvho","prime","5d18cf6eb3e698001eea9960","5f60e3c0a3b16e07647b2ff9","5f64c2c6810bd8027a7934a3","false","null","<span style=""color: black; font-size: 48px"">N + M</span>","null","","","","resp_prompt","","","","","","","","","","","","","","","",""
"categorize-image","206","1405057","0.0-4.0-1.0-1.29","bruuy04jngyxvho","prime","5d18cf6eb3e698001eea9960","5f60e3c0a3b16e07647b2ff9","5f64c2c6810bd8027a7934a3","true","940.929999996908","./Stimuli/SelectedImages/SM/SM207.bmp","76","","","","test","true","N + M","76","repetition","SM","SM207.bmp","remember","","78","3","prime1","right","","","",""
"html-keyboard-response","207","1407062","0.0-4.0-1.0-3.29","bruuy04jngyxvho","prime","5d18cf6eb3e698001eea9960","5f60e3c0a3b16e07647b2ff9","5f64c2c6810bd8027a7934a3","false","null","<div style=""align-items: center; display: flex; color: dodgerblue; font-size: 90px""><b>o</b></div>","null","","","","forget_cue","","","","","","","","","","","","","","","",""
"html-keyboard-response","208","1407766","0.0-4.0-1.0-0.30","bruuy04jngyxvho","prime","5d18cf6eb3e698001eea9960","5f60e3c0a3b16e07647b2ff9","5f64c2c6810bd8027a7934a3","false","null","<span style=""color: black; font-size: 48px"">M + N</span>","null","","","","resp_prompt","","","","","","","","","","","","","","","",""
"categorize-image","209","1408984","0.0-4.0-1.0-1.30","bruuy04jngyxvho","prime","5d18cf6eb3e698001eea9960","5f60e3c0a3b16e07647b2ff9","5f64c2c6810bd8027a7934a3","true","1197.930000009248","./Stimuli/SelectedImages/SM/SM74.bmp","83","","","","test","true","M + N","83","repetition","SM","SM74.bmp","remember","","79","3","prime1","left","","","",""
"html-keyboard-response","210","1410987","0.0-4.0-1.0-3.30","bruuy04jngyxvho","prime","5d18cf6eb3e698001eea9960","5f60e3c0a3b16e07647b2ff9","5f64c2c6810bd8027a7934a3","false","null","<div style=""align-items: center; display: flex; color: dodgerblue; font-size: 90px""><b>o</b></div>","null","","","","forget_cue","","","","","","","","","","","","","","","",""
"html-keyboard-response","211","1411692","0.0-4.0-1.0-0.31","bruuy04jngyxvho","prime","5d18cf6eb3e698001eea9960","5f60e3c0a3b16e07647b2ff9","5f64c2c6810bd8027a7934a3","false","null","<span style=""color: black; font-size: 48px"">N + M</span>","null","","","","resp_prompt","","","","","","","","","","","","","","","",""
"categorize-image","212","1412453","0.0-4.0-1.0-1.31","bruuy04jngyxvho","prime","5d18cf6eb3e698001eea9960","5f60e3c0a3b16e07647b2ff9","5f64c2c6810bd8027a7934a3","true","740.2399999990594","./Stimuli/SelectedImages/LM/LM150.bmp","76","","","","test","true","N + M","76","switch","LM","LM150.bmp","remember","","80","3","prime1","right","","","",""
"html-keyboard-response","213","1414461","0.0-4.0-1.0-3.31","bruuy04jngyxvho","prime","5d18cf6eb3e698001eea9960","5f60e3c0a3b16e07647b2ff9","5f64c2c6810bd8027a7934a3","false","null","<div style=""align-items: center; display: flex; color: dodgerblue; font-size: 90px""><b>o</b></div>","null","","","","forget_cue","","","","","","","","","","","","","","","",""
"html-keyboard-response","214","1415165","0.0-4.0-1.0-0.32","bruuy04jngyxvho","prime","5d18cf6eb3e698001eea9960","5f60e3c0a3b16e07647b2ff9","5f64c2c6810bd8027a7934a3","false","null","<span style=""color: black; font-size: 48px"">M + N</span>","null","","","","resp_prompt","","","","","","","","","","","","","","","",""
"categorize-image","215","1416498","0.0-4.0-1.0-1.32","bruuy04jngyxvho","prime","5d18cf6eb3e698001eea9960","5f60e3c0a3b16e07647b2ff9","5f64c2c6810bd8027a7934a3","true","1317.269999999553","./Stimuli/SelectedImages/SN/SN18.bmp","76","","","","test","true","M + N","76","switch","SN","SN18.bmp","remember","","81","3","prime1","right","","","",""
"html-keyboard-response","216","1418502","0.0-4.0-1.0-3.32","bruuy04jngyxvho","prime","5d18cf6eb3e698001eea9960","5f60e3c0a3b16e07647b2ff9","5f64c2c6810bd8027a7934a3","false","null","<div style=""align-items: center; display: flex; color: dodgerblue; font-size: 90px""><b>o</b></div>","null","","","","forget_cue","","","","","","","","","","","","","","","",""
"html-keyboard-response","217","1419208","0.0-4.0-1.0-0.33","bruuy04jngyxvho","prime","5d18cf6eb3e698001eea9960","5f60e3c0a3b16e07647b2ff9","5f64c2c6810bd8027a7934a3","false","null","<span style=""color: black; font-size: 48px"">M + N</span>","null","","","","resp_prompt","","","","","","","","","","","","","","","",""
"categorize-image","218","1420340","0.0-4.0-1.0-1.33","bruuy04jngyxvho","prime","5d18cf6eb3e698001eea9960","5f60e3c0a3b16e07647b2ff9","5f64c2c6810bd8027a7934a3","true","1111.4450000023935","./Stimuli/SelectedImages/LM/LM100.bmp","83","","","","test","true","M + N","83","switch","LM","LM100.bmp","remember","","82","3","prime1","left","","","",""
"html-keyboard-response","219","1422343","0.0-4.0-1.0-3.33","bruuy04jngyxvho","prime","5d18cf6eb3e698001eea9960","5f60e3c0a3b16e07647b2ff9","5f64c2c6810bd8027a7934a3","false","null","<div style=""align-items: center; display: flex; color: dodgerblue; font-size: 90px""><b>o</b></div>","null","","","","forget_cue","","","","","","","","","","","","","","","",""
"html-keyboard-response","220","1423047","0.0-4.0-1.0-0.34","bruuy04jngyxvho","prime","5d18cf6eb3e698001eea9960","5f60e3c0a3b16e07647b2ff9","5f64c2c6810bd8027a7934a3","false","null","<span style=""color: black; font-size: 48px"">M + N</span>","null","","","","resp_prompt","","","","","","","","","","","","","","","",""
"categorize-image","221","1424259","0.0-4.0-1.0-1.34","bruuy04jngyxvho","prime","5d18cf6eb3e698001eea9960","5f60e3c0a3b16e07647b2ff9","5f64c2c6810bd8027a7934a3","true","1191.5600000065751","./Stimuli/SelectedImages/SM/SM128.bmp","83","","","","test","true","M + N","83","switch","SM","SM128.bmp","forget","","83","3","prime1","left","","","",""
"html-keyboard-response","222","1426265","0.0-4.0-1.0-3.34","bruuy04jngyxvho","prime","5d18cf6eb3e698001eea9960","5f60e3c0a3b16e07647b2ff9","5f64c2c6810bd8027a7934a3","false","null","<div style=""align-items: center; display: flex; color: darkorange; font-size: 90px""><b>ø</b></div>","null","","","","forget_cue","","","","","","","","","","","","","","","",""
"html-keyboard-response","223","1426972","0.0-4.0-1.0-0.35","bruuy04jngyxvho","prime","5d18cf6eb3e698001eea9960","5f60e3c0a3b16e07647b2ff9","5f64c2c6810bd8027a7934a3","false","null","<span style=""color: black; font-size: 48px"">N + M</span>","null","","","","resp_prompt","","","","","","","","","","","","","","","",""
"categorize-image","224","1428201","0.0-4.0-1.0-1.35","bruuy04jngyxvho","prime","5d18cf6eb3e698001eea9960","5f60e3c0a3b16e07647b2ff9","5f64c2c6810bd8027a7934a3","true","1207.6700000031851","./Stimuli/SelectedImages/LM/LM48.bmp","76","","","","test","true","N + M","76","switch","LM","LM48.bmp","remember","","84","3","prime1","right","","","",""
"html-keyboard-response","225","1430205","0.0-4.0-1.0-3.35","bruuy04jngyxvho","prime","5d18cf6eb3e698001eea9960","5f60e3c0a3b16e07647b2ff9","5f64c2c6810bd8027a7934a3","false","null","<div style=""align-items: center; display: flex; color: dodgerblue; font-size: 90px""><b>o</b></div>","null","","","","forget_cue","","","","","","","","","","","","","","","",""
"html-keyboard-response","226","1430911","0.0-4.0-1.0-0.36","bruuy04jngyxvho","prime","5d18cf6eb3e698001eea9960","5f60e3c0a3b16e07647b2ff9","5f64c2c6810bd8027a7934a3","false","null","<span style=""color: black; font-size: 48px"">N + M</span>","null","","","","resp_prompt","","","","","","","","","","","","","","","",""
"categorize-image","227","1432932","0.0-4.0-1.0-1.36","bruuy04jngyxvho","prime","5d18cf6eb3e698001eea9960","5f60e3c0a3b16e07647b2ff9","5f64c2c6810bd8027a7934a3","true","null","./Stimuli/SelectedImages/SN/SN64.bmp","null","","","","test","false","N + M","83","repetition","SN","SN64.bmp","forget","","85","3","prime1","too_slow","","","",""
"html-keyboard-response","228","1433436","0.0-4.0-1.0-2.36-0.36","bruuy04jngyxvho","prime","5d18cf6eb3e698001eea9960","5f60e3c0a3b16e07647b2ff9","5f64c2c6810bd8027a7934a3","false","null","<span style=""color: red; font-size: 48px"">Too slow!</span>","null","","","","feedback","","","","","","","","","","","","","","","",""
"html-keyboard-response","229","1435441","0.0-4.0-1.0-3.36","bruuy04jngyxvho","prime","5d18cf6eb3e698001eea9960","5f60e3c0a3b16e07647b2ff9","5f64c2c6810bd8027a7934a3","false","null","<div style=""align-items: center; display: flex; color: darkorange; font-size: 90px""><b>ø</b></div>","null","","","","forget_cue","","","","","","","","","","","","","","","",""
"html-keyboard-response","230","1436146","0.0-4.0-1.0-0.37","bruuy04jngyxvho","prime","5d18cf6eb3e698001eea9960","5f60e3c0a3b16e07647b2ff9","5f64c2c6810bd8027a7934a3","false","null","<span style=""color: black; font-size: 48px"">N + M</span>","null","","","","resp_prompt","","","","","","","","","","","","","","","",""
"categorize-image","231","1436900","0.0-4.0-1.0-1.37","bruuy04jngyxvho","prime","5d18cf6eb3e698001eea9960","5f60e3c0a3b16e07647b2ff9","5f64c2c6810bd8027a7934a3","true","732.4749999970663","./Stimuli/SelectedImages/LN/LN9.bmp","83","","","","test","true","N + M","83","repetition","LN","LN9.bmp","forget","","86","3","prime1","left","","","",""
"html-keyboard-response","232","1438910","0.0-4.0-1.0-3.37","bruuy04jngyxvho","prime","5d18cf6eb3e698001eea9960","5f60e3c0a3b16e07647b2ff9","5f64c2c6810bd8027a7934a3","false","null","<div style=""align-items: center; display: flex; color: darkorange; font-size: 90px""><b>ø</b></div>","null","","","","forget_cue","","","","","","","","","","","","","","","",""
"html-keyboard-response","233","1439613","0.0-4.0-1.0-0.38","bruuy04jngyxvho","prime","5d18cf6eb3e698001eea9960","5f60e3c0a3b16e07647b2ff9","5f64c2c6810bd8027a7934a3","false","null","<span style=""color: black; font-size: 48px"">M + N</span>","null","","","","resp_prompt","","","","","","","","","","","","","","","",""
"categorize-image","234","1440612","0.0-4.0-1.0-1.38","bruuy04jngyxvho","prime","5d18cf6eb3e698001eea9960","5f60e3c0a3b16e07647b2ff9","5f64c2c6810bd8027a7934a3","true","985.6049999943934","./Stimuli/SelectedImages/LN/LN128.bmp","76","","","","test","true","M + N","76","repetition","LN","LN128.bmp","remember","","87","3","prime1","right","","","",""
"html-keyboard-response","235","1442618","0.0-4.0-1.0-3.38","bruuy04jngyxvho","prime","5d18cf6eb3e698001eea9960","5f60e3c0a3b16e07647b2ff9","5f64c2c6810bd8027a7934a3","false","null","<div style=""align-items: center; display: flex; color: dodgerblue; font-size: 90px""><b>o</b></div>","null","","","","forget_cue","","","","","","","","","","","","","","","",""
"html-keyboard-response","236","1443322","0.0-4.0-1.0-0.39","bruuy04jngyxvho","prime","5d18cf6eb3e698001eea9960","5f60e3c0a3b16e07647b2ff9","5f64c2c6810bd8027a7934a3","false","null","<span style=""color: black; font-size: 48px"">M + N</span>","null","","","","resp_prompt","","","","","","","","","","","","","","","",""
"categorize-image","237","1444365","0.0-4.0-1.0-1.39","bruuy04jngyxvho","prime","5d18cf6eb3e698001eea9960","5f60e3c0a3b16e07647b2ff9","5f64c2c6810bd8027a7934a3","true","1025.824999989476","./Stimuli/SelectedImages/LM/LM59.bmp","83","","","","test","true","M + N","83","switch","LM","LM59.bmp","remember","","88","3","prime1","left","","","",""
"html-keyboard-response","238","1446374","0.0-4.0-1.0-3.39","bruuy04jngyxvho","prime","5d18cf6eb3e698001eea9960","5f60e3c0a3b16e07647b2ff9","5f64c2c6810bd8027a7934a3","false","null","<div style=""align-items: center; display: flex; color: dodgerblue; font-size: 90px""><b>o</b></div>","null","","","","forget_cue","","","","","","","","","","","","","","","",""
"html-keyboard-response","239","1447077","0.0-4.0-1.0-0.40","bruuy04jngyxvho","prime","5d18cf6eb3e698001eea9960","5f60e3c0a3b16e07647b2ff9","5f64c2c6810bd8027a7934a3","false","null","<span style=""color: black; font-size: 48px"">M + N</span>","null","","","","resp_prompt","","","","","","","","","","","","","","","",""
"categorize-image","240","1448060","0.0-4.0-1.0-1.40","bruuy04jngyxvho","prime","5d18cf6eb3e698001eea9960","5f60e3c0a3b16e07647b2ff9","5f64c2c6810bd8027a7934a3","true","963.8549999946263","./Stimuli/SelectedImages/SM/SM17.bmp","83","","","","test","true","M + N","83","repetition","SM","SM17.bmp","forget","","89","3","prime1","left","","","",""
"html-keyboard-response","241","1450065","0.0-4.0-1.0-3.40","bruuy04jngyxvho","prime","5d18cf6eb3e698001eea9960","5f60e3c0a3b16e07647b2ff9","5f64c2c6810bd8027a7934a3","false","null","<div style=""align-items: center; display: flex; color: darkorange; font-size: 90px""><b>ø</b></div>","null","","","","forget_cue","","","","","","","","","","","","","","","",""
"html-keyboard-response","242","1450772","0.0-4.0-1.0-0.41","bruuy04jngyxvho","prime","5d18cf6eb3e698001eea9960","5f60e3c0a3b16e07647b2ff9","5f64c2c6810bd8027a7934a3","false","null","<span style=""color: black; font-size: 48px"">M + N</span>","null","","","","resp_prompt","","","","","","","","","","","","","","","",""
"categorize-image","243","1451826","0.0-4.0-1.0-1.41","bruuy04jngyxvho","prime","5d18cf6eb3e698001eea9960","5f60e3c0a3b16e07647b2ff9","5f64c2c6810bd8027a7934a3","true","1033.8349999948405","./Stimuli/SelectedImages/LN/LN149.bmp","76","","","","test","true","M + N","76","switch","LN","LN149.bmp","remember","","90","3","prime1","right","","","",""
"html-keyboard-response","244","1453833","0.0-4.0-1.0-3.41","bruuy04jngyxvho","prime","5d18cf6eb3e698001eea9960","5f60e3c0a3b16e07647b2ff9","5f64c2c6810bd8027a7934a3","false","null","<div style=""align-items: center; display: flex; color: dodgerblue; font-size: 90px""><b>o</b></div>","null","","","","forget_cue","","","","","","","","","","","","","","","",""
"html-keyboard-response","245","1454537","0.0-4.0-1.0-0.42","bruuy04jngyxvho","prime","5d18cf6eb3e698001eea9960","5f60e3c0a3b16e07647b2ff9","5f64c2c6810bd8027a7934a3","false","null","<span style=""color: black; font-size: 48px"">N + M</span>","null","","","","resp_prompt","","","","","","","","","","","","","","","",""
"categorize-image","246","1455436","0.0-4.0-1.0-1.42","bruuy04jngyxvho","prime","5d18cf6eb3e698001eea9960","5f60e3c0a3b16e07647b2ff9","5f64c2c6810bd8027a7934a3","true","878.0450000050478","./Stimuli/SelectedImages/LN/LN13.bmp","83","","","","test","true","N + M","83","repetition","LN","LN13.bmp","remember","","91","3","prime1","left","","","",""
"html-keyboard-response","247","1457441","0.0-4.0-1.0-3.42","bruuy04jngyxvho","prime","5d18cf6eb3e698001eea9960","5f60e3c0a3b16e07647b2ff9","5f64c2c6810bd8027a7934a3","false","null","<div style=""align-items: center; display: flex; color: dodgerblue; font-size: 90px""><b>o</b></div>","null","","","","forget_cue","","","","","","","","","","","","","","","",""
"html-keyboard-response","248","1458147","0.0-4.0-1.0-0.43","bruuy04jngyxvho","prime","5d18cf6eb3e698001eea9960","5f60e3c0a3b16e07647b2ff9","5f64c2c6810bd8027a7934a3","false","null","<span style=""color: black; font-size: 48px"">M + N</span>","null","","","","resp_prompt","","","","","","","","","","","","","","","",""
"categorize-image","249","1459226","0.0-4.0-1.0-1.43","bruuy04jngyxvho","prime","5d18cf6eb3e698001eea9960","5f60e3c0a3b16e07647b2ff9","5f64c2c6810bd8027a7934a3","true","1059.479999996256","./Stimuli/SelectedImages/LM/LM75.bmp","83","","","","test","true","M + N","83","switch","LM","LM75.bmp","forget","","92","3","prime1","left","","","",""
"html-keyboard-response","250","1461231","0.0-4.0-1.0-3.43","bruuy04jngyxvho","prime","5d18cf6eb3e698001eea9960","5f60e3c0a3b16e07647b2ff9","5f64c2c6810bd8027a7934a3","false","null","<div style=""align-items: center; display: flex; color: darkorange; font-size: 90px""><b>ø</b></div>","null","","","","forget_cue","","","","","","","","","","","","","","","",""
"html-keyboard-response","251","1461936","0.0-4.0-1.0-0.44","bruuy04jngyxvho","prime","5d18cf6eb3e698001eea9960","5f60e3c0a3b16e07647b2ff9","5f64c2c6810bd8027a7934a3","false","null","<span style=""color: black; font-size: 48px"">N + M</span>","null","","","","resp_prompt","","","","","","","","","","","","","","","",""
"categorize-image","252","1462949","0.0-4.0-1.0-1.44","bruuy04jngyxvho","prime","5d18cf6eb3e698001eea9960","5f60e3c0a3b16e07647b2ff9","5f64c2c6810bd8027a7934a3","true","991.6450000018813","./Stimuli/SelectedImages/LM/LM209.bmp","76","","","","test","true","N + M","76","repetition","LM","LM209.bmp","remember","","93","3","prime1","right","","","",""
