"trial_type","trial_index","time_elapsed","internal_node_id","subject","exp_part","prolific_PID","study_ID","session_ID","use","rt","stimulus","key_press","button_pressed","responses","question_order","trial_part","correct","resp_map","correct_resp","probe_condition","category","image","forget_condition","list","trial_num","block_num","block","response","test_part","n_span","sequence","num_spaces"
"pavlovia","0","2","0.0-0.0","v5d17mbq6zpb4pt","","5da79692e7d12f00165fbe54","5f60e3c0a3b16e07647b2ff9","5f61dbf4a4095c18b7181271","false","","","","","","","","","","","","","","","","","","","","","","",""
"html-keyboard-response","1","9031","0.0-1.0-0.0-0.0","v5d17mbq6zpb4pt","welcome","5da79692e7d12f00165fbe54","5f60e3c0a3b16e07647b2ff9","5f61dbf4a4095c18b7181271","false","9027.780000003986","<div align=left>Dear participant, <br> thank you for participating in an online study of the Cognition, Action, and Sustainability Unit of the University of Freiburg! <br> <br>The aim of this study is to examine our ability to remember previously learned information. <br>Our goal is to find out, whether our memory improves, when we only remember information that is relevant to us. <br>The experiment will take about 35 minutes to complete. <br> <br>Please, note that you can only participate in this study if you are using a device with a keyboard (PC, Laptop etc.) <br>and not if you are using a mobile device such as a tablet or smartphone.<br> <br>Press 'SPACE' to proceed to the experiment. </div>","32","","","","","","","","","","","","","","","","","","","",""
"html-keyboard-response","2","24757","0.0-1.0-0.0-1.0","v5d17mbq6zpb4pt","welcome","5da79692e7d12f00165fbe54","5f60e3c0a3b16e07647b2ff9","5f61dbf4a4095c18b7181271","false","15725.400000010268","<div align=left><strong> Time Course of this experiment: </strong> <br><br> <strong> 1.</strong>  First, please fill in some information regarding your demographic data. <br><br> <strong> 2.</strong>  Next, your task will be to classify everyday objects. <br>In addition, you will be asked to remember certain objects and recall them later. <br>Working on these tasks requires your undivided attention and concentration.<br>It is therefore essential that you eliminate any sources of distraction in your  <br>environment and ensure that you will not be disturbed. <br><br><strong> 3.</strong>  At the end of the experiment, you will be asked to answer a few additional questions. <br> <br><strong> Important:</strong> After finishing the experiment, only close the browser window <br> by clicking on the 'end the experiment'-button when you are asked to do so. <br>Closing the browser window prematurely will make the allocation of your participation credit impossible. <br><br> Press 'SPACE' to start the experiment. </div>","32","","","","","","","","","","","","","","","","","","","",""
"html-button-response","3","28262","0.0-1.0-0.0-2.0","v5d17mbq6zpb4pt","welcome","5da79692e7d12f00165fbe54","5f60e3c0a3b16e07647b2ff9","5f61dbf4a4095c18b7181271","true","3503.660000002128","<div align=left><strong> Informed consent </strong>  <br>The aim of our research is to better understand human behavior and mental processes. <br>In the following study your behavior (e.g. choices, reaction times) will be studied. <br> <br><strong> Voluntariness and Anonymity </strong> <br>Your participation in this study is  <strong> voluntary</strong>.<br>You may withdraw your consent to participate at any time without providing a reason for doing so and without fear of prejudice. <br><br>As no personal data will be collected, <strong>your data and your person cannot be connected after data collection</strong> – the data-set is anonymous. <br>Respectively, deletion of your data will not be possible after data collection has been completed, as we cannot retrace your data-set.<br>The results and anonymized data collected in this study will be published as a scientific publication. <br>This will happen in an <strong>anonymized format</strong>, so that no data can be traced back to a specific person. <br> <br>The anonymized data of this study will be made available to other researchers and/or in a data archive on the Internet as a means of transparency and to enable subsequent re-use. By doing so, this study follows the recommendations of the Deutsche Forschungsgemeinschaft (DFG, German Research Foundation) and Deutsche Gesellschaft für Psychologie (DGPS, German Psychological Society) regarding quality assurance in research.<br>If you have any questions now or after the experiment, please contact our team (experiments@cs.uni-freiburg.de).<br><br><br>I hereby declare, that I understand the above described conditions of participation and I agree to participate under these conditions. <br><br> </div>","","0","","","","","","","","","","","","","","","","","","",""
"html-keyboard-response","4","39149","0.0-1.0-0.0-3.0","v5d17mbq6zpb4pt","welcome","5da79692e7d12f00165fbe54","5f60e3c0a3b16e07647b2ff9","5f61dbf4a4095c18b7181271","false","10886.285000000498","<div align=left><strong> General information concerning the experiment </strong>  <br> <br>Please follow the instructions:<ol> <li><strong> Do not leave this tab (your browser window) during the experiment and do not reload this tab! </strong>  <br>If you do switch tabs/windows during the experiment (to check your mail or visit another website, for example), <br>the experiment will end automatically and you will <strong>not receive credit</strong> for your participation. <br>Repeated participation or resumption of the experiment is impossible.</li> <br><li>Please close all other programs for the duration of your participation. </li> <br><li>Please mute or turn off your phone and put it out of your reach. </li> <br><li>Please also take off any disturbing accessories (such as wristwatches, bracelets, etc.). </li> <br><li>If you have music playing in the background, please turn it off now. </li> <br></ol>Thank you! <br>Press 'SPACE' to continue. </div>","32","","","","","","","","","","","","","","","","","","","",""
"survey-text","5","41831","0.0-1.0-1.0-0.0","v5d17mbq6zpb4pt","demographics","5da79692e7d12f00165fbe54","5f60e3c0a3b16e07647b2ff9","5f61dbf4a4095c18b7181271","true","2679.229999994277","","","","{""age"":""21""}","","","","","","","","","","","","","","","","","",""
"survey-multi-choice","6","62235","0.0-1.0-1.0-1.0","v5d17mbq6zpb4pt","demographics","5da79692e7d12f00165fbe54","5f60e3c0a3b16e07647b2ff9","5f61dbf4a4095c18b7181271","true","20401.76999999676","","","","{""gender"":""female"",""school"":""others"",""education"":""Completed university degree or equivalent""}","[0,1,2]","","","","","","","","","","","","","","","","",""
"html-keyboard-response","7","70469","0.0-1.0-2.0","v5d17mbq6zpb4pt","instructions","5da79692e7d12f00165fbe54","5f60e3c0a3b16e07647b2ff9","5f61dbf4a4095c18b7181271","false","8232.735000012326","<div align=left> The experiment is now about to start: <br> <br>In the following part, you will be presented pictures of everyday objects. <br>Your first task is to <strong>classify these objects. </strong> <br> <br> You will classify them either as mechanical or non-mechanical objects. <br> <br>Objects that include any kind of technical mechanism (for example, wheels, switches, levers, <br> electronic components) fall under the category of <strong>mechanical</strong> objects. <br>Only objects without any kind of technical mechanism should be classified as <strong>non-mechanical</strong>. <br><br>Press 'SPACE' to continue. </div>","32","","","","","","","","","","","","","","","","","","","",""
"html-keyboard-response","8","123061","0.0-2.0-0.0","v5d17mbq6zpb4pt","instructions","5da79692e7d12f00165fbe54","5f60e3c0a3b16e07647b2ff9","5f61dbf4a4095c18b7181271","false","52591.20000000985","<div align=justify>You will classify the objects using the <strong>'S'</strong> and the <strong>'L'</strong> keys on your keyboard.<br>For doing so, please place your <strong>left index finger</strong> on the <strong>'S'</strong> key and place your <strong>right index finger</strong> on the <strong>'L'</strong> key. <br><br> Each trial starts with an instruction, indicating which key ('S'/'L') you need to press to classify <br>the object as mechanical (letter M) or non-mechanical (letter N).<br>The instruction <strong>M + N</strong> indicates that, in the current trial, by pressing the left key ('S') you classify the displayed object as mechanical (M) <br> and by pressing the right key ('L') you classify the object as non-mechanical (N). <br>The instruction <strong>N + M</strong> on the other hand indicates that by pressing the left key ('S') you classify the displayed object as non-mechanical (N) <br> and by pressing the right key ('L') you classify the object as mechanical (M). <br><br>Please press the key corresponding to the correct classification as fast as possible as soon as the object is displayed and try to avoid making mistakes.<br>If you do not respond within a 2 second window, a corresponding feedback will be displayed and the next trial will start.<br> The experiment is divided into multiple blocks to give you the opportunity to take a break after each block. <br>First, you can now practice this task. <br><br>Please place your <strong>LEFT INDEX FINGER</strong> on the 'S' key and your <strong>RIGHT INDEX FINGER</strong> on the 'L' key now. <br><br>Press SPACE to continue.</div>","32","","","","","","","","","","","","","","","","","","","",""
"html-keyboard-response","9","126116","0.0-2.0-1.0","v5d17mbq6zpb4pt","instructions","5da79692e7d12f00165fbe54","5f60e3c0a3b16e07647b2ff9","5f61dbf4a4095c18b7181271","false","3053.99000000034","<div align=left> You will now have time to practice this task.<br><br>Remember: <br> <br><li>Please place your index fingers on the <strong>'S'</strong> and <strong>'L'</strong> keys <br>to respond as fast and accurately as possible.</li><li>Every picture can be classified as either mechanical or non-mechanical.</li><li>If you do not respond in time or commit an error, you will receive a corresponding feedback. </li><li> Please try to respond as <strong> fast </strong> and as <strong> accurately as possible </strong> .<br><li>To ensure optimal results, please minimize distractions and stay focused. </li><br><br>Press SPACE to continue.</div>","32","","","","","","","","","","","","","","","","","","","",""
"html-keyboard-response","10","126819","0.0-2.0-2.0-0.0","v5d17mbq6zpb4pt","practice_no_cue","5da79692e7d12f00165fbe54","5f60e3c0a3b16e07647b2ff9","5f61dbf4a4095c18b7181271","false","null","<span style=""color: black; font-size: 48px"">N + M</span>","null","","","","resp_prompt","","","","","","","","","","","","","","","",""
"categorize-image","11","127865","0.0-2.0-2.0-1.0","v5d17mbq6zpb4pt","practice_no_cue","5da79692e7d12f00165fbe54","5f60e3c0a3b16e07647b2ff9","5f61dbf4a4095c18b7181271","true","544.0099999977974","./Stimuli/ImagesPractice/LN4.jpg","83","","","","test","true","N + M","83","","LN","LN4.jpg","forget","old","1","1","start","left","","","",""
"html-keyboard-response","12","128566","0.0-2.0-2.0-0.1","v5d17mbq6zpb4pt","practice_no_cue","5da79692e7d12f00165fbe54","5f60e3c0a3b16e07647b2ff9","5f61dbf4a4095c18b7181271","false","null","<span style=""color: black; font-size: 48px"">N + M</span>","null","","","","resp_prompt","","","","","","","","","","","","","","","",""
"categorize-image","13","129770","0.0-2.0-2.0-1.1","v5d17mbq6zpb4pt","practice_no_cue","5da79692e7d12f00165fbe54","5f60e3c0a3b16e07647b2ff9","5f61dbf4a4095c18b7181271","true","700.8500000083586","./Stimuli/ImagesPractice/SN220.jpg","76","","","","test","false","N + M","83","","SN","SN220.jpg","forget","old","2","1","start","right","","","",""
"html-keyboard-response","14","130471","0.0-2.0-2.0-0.2","v5d17mbq6zpb4pt","practice_no_cue","5da79692e7d12f00165fbe54","5f60e3c0a3b16e07647b2ff9","5f61dbf4a4095c18b7181271","false","null","<span style=""color: black; font-size: 48px"">M + N</span>","null","","","","resp_prompt","","","","","","","","","","","","","","","",""
"categorize-image","15","131842","0.0-2.0-2.0-1.2","v5d17mbq6zpb4pt","practice_no_cue","5da79692e7d12f00165fbe54","5f60e3c0a3b16e07647b2ff9","5f61dbf4a4095c18b7181271","true","868.0250000033993","./Stimuli/ImagesPractice/LM143.jpg","76","","","","test","false","M + N","83","","LM","LM143.jpg","forget","old","3","1","start","right","","","",""
"html-keyboard-response","16","132544","0.0-2.0-2.0-0.3","v5d17mbq6zpb4pt","practice_no_cue","5da79692e7d12f00165fbe54","5f60e3c0a3b16e07647b2ff9","5f61dbf4a4095c18b7181271","false","null","<span style=""color: black; font-size: 48px"">M + N</span>","null","","","","resp_prompt","","","","","","","","","","","","","","","",""
"categorize-image","17","135048","0.0-2.0-2.0-1.3","v5d17mbq6zpb4pt","practice_no_cue","5da79692e7d12f00165fbe54","5f60e3c0a3b16e07647b2ff9","5f61dbf4a4095c18b7181271","true","null","./Stimuli/ImagesPractice/SN221.jpg","null","","","","test","false","M + N","76","","SN","SN221.jpg","forget","old","4","1","start","too_slow","","","",""
"html-keyboard-response","18","135749","0.0-2.0-2.0-0.4","v5d17mbq6zpb4pt","practice_no_cue","5da79692e7d12f00165fbe54","5f60e3c0a3b16e07647b2ff9","5f61dbf4a4095c18b7181271","false","null","<span style=""color: black; font-size: 48px"">N + M</span>","null","","","","resp_prompt","","","","","","","","","","","","","","","",""
"categorize-image","19","137065","0.0-2.0-2.0-1.4","v5d17mbq6zpb4pt","practice_no_cue","5da79692e7d12f00165fbe54","5f60e3c0a3b16e07647b2ff9","5f61dbf4a4095c18b7181271","true","814.4299999985378","./Stimuli/ImagesPractice/SM61.jpg","76","","","","test","true","N + M","76","","SM","SM61.jpg","remember","old","5","1","start","right","","","",""
"html-keyboard-response","20","137767","0.0-2.0-2.0-0.5","v5d17mbq6zpb4pt","practice_no_cue","5da79692e7d12f00165fbe54","5f60e3c0a3b16e07647b2ff9","5f61dbf4a4095c18b7181271","false","null","<span style=""color: black; font-size: 48px"">M + N</span>","null","","","","resp_prompt","","","","","","","","","","","","","","","",""
"categorize-image","21","138769","0.0-2.0-2.0-1.5","v5d17mbq6zpb4pt","practice_no_cue","5da79692e7d12f00165fbe54","5f60e3c0a3b16e07647b2ff9","5f61dbf4a4095c18b7181271","true","499.97499999881256","./Stimuli/ImagesPractice/LN2.jpg","83","","","","test","false","M + N","76","","LN","LN2.jpg","remember","old","6","1","start","left","","","",""
"html-keyboard-response","22","139471","0.0-2.0-2.0-0.6","v5d17mbq6zpb4pt","practice_no_cue","5da79692e7d12f00165fbe54","5f60e3c0a3b16e07647b2ff9","5f61dbf4a4095c18b7181271","false","null","<span style=""color: black; font-size: 48px"">N + M</span>","null","","","","resp_prompt","","","","","","","","","","","","","","","",""
"categorize-image","23","141081","0.0-2.0-2.0-1.6","v5d17mbq6zpb4pt","practice_no_cue","5da79692e7d12f00165fbe54","5f60e3c0a3b16e07647b2ff9","5f61dbf4a4095c18b7181271","true","1108.1000000122003","./Stimuli/ImagesPractice/LN109.jpg","76","","","","test","false","N + M","83","","LN","LN109.jpg","remember","old","7","1","start","right","","","",""
"html-keyboard-response","24","141783","0.0-2.0-2.0-0.7","v5d17mbq6zpb4pt","practice_no_cue","5da79692e7d12f00165fbe54","5f60e3c0a3b16e07647b2ff9","5f61dbf4a4095c18b7181271","false","null","<span style=""color: black; font-size: 48px"">M + N</span>","null","","","","resp_prompt","","","","","","","","","","","","","","","",""
"categorize-image","25","142873","0.0-2.0-2.0-1.7","v5d17mbq6zpb4pt","practice_no_cue","5da79692e7d12f00165fbe54","5f60e3c0a3b16e07647b2ff9","5f61dbf4a4095c18b7181271","true","588.385000010021","./Stimuli/ImagesPractice/LM224.jpg","76","","","","test","false","M + N","83","","LM","LM224.jpg","remember","old","8","1","start","right","","","",""
"html-keyboard-response","26","143575","0.0-2.0-2.0-0.8","v5d17mbq6zpb4pt","practice_no_cue","5da79692e7d12f00165fbe54","5f60e3c0a3b16e07647b2ff9","5f61dbf4a4095c18b7181271","false","null","<span style=""color: black; font-size: 48px"">N + M</span>","null","","","","resp_prompt","","","","","","","","","","","","","","","",""
"categorize-image","27","144977","0.0-2.0-2.0-1.8","v5d17mbq6zpb4pt","practice_no_cue","5da79692e7d12f00165fbe54","5f60e3c0a3b16e07647b2ff9","5f61dbf4a4095c18b7181271","true","899.8150000115857","./Stimuli/ImagesPractice/SM98.jpg","76","","","","test","true","N + M","76","","SM","SM98.jpg","remember","old","9","1","start","right","","","",""
"html-keyboard-response","28","145678","0.0-2.0-2.0-0.9","v5d17mbq6zpb4pt","practice_no_cue","5da79692e7d12f00165fbe54","5f60e3c0a3b16e07647b2ff9","5f61dbf4a4095c18b7181271","false","null","<span style=""color: black; font-size: 48px"">M + N</span>","null","","","","resp_prompt","","","","","","","","","","","","","","","",""
"categorize-image","29","146745","0.0-2.0-2.0-1.9","v5d17mbq6zpb4pt","practice_no_cue","5da79692e7d12f00165fbe54","5f60e3c0a3b16e07647b2ff9","5f61dbf4a4095c18b7181271","true","564.9000000121305","./Stimuli/ImagesPractice/LN15.jpg","83","","","","test","false","M + N","76","","LN","LN15.jpg","remember","old","10","1","start","left","","","",""
"html-keyboard-response","30","147447","0.0-2.0-2.0-0.10","v5d17mbq6zpb4pt","practice_no_cue","5da79692e7d12f00165fbe54","5f60e3c0a3b16e07647b2ff9","5f61dbf4a4095c18b7181271","false","null","<span style=""color: black; font-size: 48px"">N + M</span>","null","","","","resp_prompt","","","","","","","","","","","","","","","",""
"categorize-image","31","148706","0.0-2.0-2.0-1.10","v5d17mbq6zpb4pt","practice_no_cue","5da79692e7d12f00165fbe54","5f60e3c0a3b16e07647b2ff9","5f61dbf4a4095c18b7181271","true","756.6249999945285","./Stimuli/ImagesPractice/SN205.jpg","83","","","","test","true","N + M","83","","SN","SN205.jpg","forget","old","11","1","start","left","","","",""
"html-keyboard-response","32","149408","0.0-2.0-2.0-0.11","v5d17mbq6zpb4pt","practice_no_cue","5da79692e7d12f00165fbe54","5f60e3c0a3b16e07647b2ff9","5f61dbf4a4095c18b7181271","false","null","<span style=""color: black; font-size: 48px"">M + N</span>","null","","","","resp_prompt","","","","","","","","","","","","","","","",""
"categorize-image","33","150698","0.0-2.0-2.0-1.11","v5d17mbq6zpb4pt","practice_no_cue","5da79692e7d12f00165fbe54","5f60e3c0a3b16e07647b2ff9","5f61dbf4a4095c18b7181271","true","786.9700000010198","./Stimuli/ImagesPractice/LN72.jpg","83","","","","test","false","M + N","76","","LN","LN72.jpg","forget","old","12","1","start","left","","","",""
"html-keyboard-response","34","151400","0.0-2.0-2.0-0.12","v5d17mbq6zpb4pt","practice_no_cue","5da79692e7d12f00165fbe54","5f60e3c0a3b16e07647b2ff9","5f61dbf4a4095c18b7181271","false","null","<span style=""color: black; font-size: 48px"">N + M</span>","null","","","","resp_prompt","","","","","","","","","","","","","","","",""
"categorize-image","35","152737","0.0-2.0-2.0-1.12","v5d17mbq6zpb4pt","practice_no_cue","5da79692e7d12f00165fbe54","5f60e3c0a3b16e07647b2ff9","5f61dbf4a4095c18b7181271","true","834.9249999882886","./Stimuli/ImagesPractice/SN222.jpg","76","","","","test","false","N + M","83","","SN","SN222.jpg","remember","old","13","1","start","right","","","",""
"html-keyboard-response","36","153439","0.0-2.0-2.0-0.13","v5d17mbq6zpb4pt","practice_no_cue","5da79692e7d12f00165fbe54","5f60e3c0a3b16e07647b2ff9","5f61dbf4a4095c18b7181271","false","null","<span style=""color: black; font-size: 48px"">N + M</span>","null","","","","resp_prompt","","","","","","","","","","","","","","","",""
"categorize-image","37","154625","0.0-2.0-2.0-1.13","v5d17mbq6zpb4pt","practice_no_cue","5da79692e7d12f00165fbe54","5f60e3c0a3b16e07647b2ff9","5f61dbf4a4095c18b7181271","true","683.9800000016112","./Stimuli/ImagesPractice/LM55.jpg","76","","","","test","true","N + M","76","","LM","LM55.jpg","forget","old","14","1","start","right","","","",""
"html-keyboard-response","38","155327","0.0-2.0-2.0-0.14","v5d17mbq6zpb4pt","practice_no_cue","5da79692e7d12f00165fbe54","5f60e3c0a3b16e07647b2ff9","5f61dbf4a4095c18b7181271","false","null","<span style=""color: black; font-size: 48px"">M + N</span>","null","","","","resp_prompt","","","","","","","","","","","","","","","",""
"categorize-image","39","156912","0.0-2.0-2.0-1.14","v5d17mbq6zpb4pt","practice_no_cue","5da79692e7d12f00165fbe54","5f60e3c0a3b16e07647b2ff9","5f61dbf4a4095c18b7181271","true","1083.9849999902071","./Stimuli/ImagesPractice/LM239.jpg","76","","","","test","false","M + N","83","","LM","LM239.jpg","remember","old","15","1","start","right","","","",""
"html-keyboard-response","40","157613","0.0-2.0-2.0-0.15","v5d17mbq6zpb4pt","practice_no_cue","5da79692e7d12f00165fbe54","5f60e3c0a3b16e07647b2ff9","5f61dbf4a4095c18b7181271","false","null","<span style=""color: black; font-size: 48px"">M + N</span>","null","","","","resp_prompt","","","","","","","","","","","","","","","",""
"categorize-image","41","159106","0.0-2.0-2.0-1.15","v5d17mbq6zpb4pt","practice_no_cue","5da79692e7d12f00165fbe54","5f60e3c0a3b16e07647b2ff9","5f61dbf4a4095c18b7181271","true","990.7050000037998","./Stimuli/ImagesPractice/LM147.jpg","83","","","","test","true","M + N","83","","LM","LM147.jpg","forget","old","16","1","start","left","","","",""
"html-keyboard-response","42","163156","0.0-2.0-3.0","v5d17mbq6zpb4pt","break","5da79692e7d12f00165fbe54","5f60e3c0a3b16e07647b2ff9","5f61dbf4a4095c18b7181271","false","4048.204999999143","<p style='font-size: 32px;'>Break</><br><br><br><br><br><p style='font-size: 24px;'>In the last block, you committed 9 errors and did not respond in time on 1 trials.
</p><p style='font-size: 24px;'>Try to respond as fast and accurately as possible in the next block as well! </p><p style='font-size: 24px;'>Press SPACE to continue.</p>","32","","","","","","","","","","","","","","","","","","","",""
"html-keyboard-response","43","165412","0.0-2.0-4.0","v5d17mbq6zpb4pt","instructions","5da79692e7d12f00165fbe54","5f60e3c0a3b16e07647b2ff9","5f61dbf4a4095c18b7181271","false","2255.1499999972293","<div align=left> Great!<br><br>Are you ready to continue?<br><br>If you want to reread the instructions and redo the practice trials, <br>please press „Z“. <br><br>Press SPACE to CONTINUE with the experiment when you are ready. </div>","32","","","","","","","","","","","","","","","","","","","",""
"html-keyboard-response","44","176356","0.0-3.0-0.0","v5d17mbq6zpb4pt","instructions","5da79692e7d12f00165fbe54","5f60e3c0a3b16e07647b2ff9","5f61dbf4a4095c18b7181271","false","10943.55500000529","<div align=left>Great!<br> <strong>Attention</strong>! You will now receive a second, additional task! <br><br>To this point it was you <strong>first task</strong> to correctly <strong>classify objects</strong>. <br><br>As mentioned in the beginning, we aim to examine how well humans can remember previously learned information.<br>We would like to find out whether our memory improves if we only remember information that is relevant to us. <br><br>Therefore, your <strong>second task</strong> will be to <strong>remember</strong> the pictures you are to categorize. <br> After the learning phase, there will be a memory test phase, in which you will be asked to indicate whether you have seen a picture before or not. <br>Some, but not all pictures shown in the learning phase will appear in the memory test phase.<br>After classifying a picture, you will be told whether you should remember it for the memory test phase or not. <br>Thus, some pictures can be forgotten, whereas others have to be remembered. <br><br>Note: From now on, feedback will only be displayed if you responded incorrectly or not in time.<br><br>Press SPACE to continue.</div>","32","","","","","","","","","","","","","","","","","","","",""
"html-keyboard-response","45","183900","0.0-3.0-1.0","v5d17mbq6zpb4pt","instructions","5da79692e7d12f00165fbe54","5f60e3c0a3b16e07647b2ff9","5f61dbf4a4095c18b7181271","false","7542.5149999937275","<div align=left>In the following part, you will thus have to remember only some pictures. <br>Immediately after seeing and classifying the picture, a symbol will be displayed, indicating whether you should remember or forget the previous picture. <br><br>A <span style='color: dodgerblue; font-size: 28px'>O</span> indicates REMEMBER. That means, you have to remember this picture, because it will be tested later. <br><br>A <span style='color: darkorange; font-size:28px'>Ø</span> indicates FORGET. You do not have to remember this picture. <br><br> As you will have to remember a lot of pictures, it will be hard for you to remember all of them. <br>It will put you at an advantage if you instantly forget the pictures you are not asked to remember. <br> This will make it easier for you to remember the pictures that will be tested afterwards. <br><br>Press SPACE to continue.</div>","32","","","","","","","","","","","","","","","","","","","",""
"html-keyboard-response","46","188092","0.0-3.0-2.0","v5d17mbq6zpb4pt","instructions","5da79692e7d12f00165fbe54","5f60e3c0a3b16e07647b2ff9","5f61dbf4a4095c18b7181271","false","4191.700000010314","<div align=left> Now you have the chance to practice both tasks together.<br><br>Remember: <br> <br><li>Please place your index fingers on the <strong>'S'</strong> and <strong>'L'</strong> keys <br>to respond as fast and accurately as possible.</li><li>Every picture can be classified as either mechanical or non-mechanical.</li><li>If you do not respond in time or commit an error, you will receive a corresponding feedback. <br>Please try to respond as <strong> fast </strong> and as <strong> accurately as possible </strong>.</li><li> Please remember only the to-be-remembered <span style='color: dodgerblue; font-size: 28px'>O</span> pictures. <br></li><li> Please minimize distractions and stay focused. </li><br><br>Press SPACE to START</div>","32","","","","","","","","","","","","","","","","","","","",""
"html-keyboard-response","47","188794","0.0-3.0-3.0-0.0","v5d17mbq6zpb4pt","practice_cue","5da79692e7d12f00165fbe54","5f60e3c0a3b16e07647b2ff9","5f61dbf4a4095c18b7181271","false","null","<span style=""color: black; font-size: 48px"">M + N</span>","null","","","","resp_prompt","","","","","","","","","","","","","","","",""
"categorize-image","48","189446","0.0-3.0-3.0-1.0","v5d17mbq6zpb4pt","practice_cue","5da79692e7d12f00165fbe54","5f60e3c0a3b16e07647b2ff9","5f61dbf4a4095c18b7181271","true","647.8399999905378","./Stimuli/ImagesPractice/LM224.jpg","83","","","","test","true","M + N","83","","LM","LM224.jpg","remember","old","17","2","practice_forget","left","","","",""
"html-keyboard-response","49","191448","0.0-3.0-3.0-3.0","v5d17mbq6zpb4pt","practice_cue","5da79692e7d12f00165fbe54","5f60e3c0a3b16e07647b2ff9","5f61dbf4a4095c18b7181271","false","null","<div style=""align-items: center; display: flex; color: dodgerblue; font-size: 90px""><b>o</b></div>","null","","","","forget_cue","","","","","","","","","","","","","","","",""
"html-keyboard-response","50","192149","0.0-3.0-3.0-0.1","v5d17mbq6zpb4pt","practice_cue","5da79692e7d12f00165fbe54","5f60e3c0a3b16e07647b2ff9","5f61dbf4a4095c18b7181271","false","null","<span style=""color: black; font-size: 48px"">N + M</span>","null","","","","resp_prompt","","","","","","","","","","","","","","","",""
"categorize-image","51","192901","0.0-3.0-3.0-1.1","v5d17mbq6zpb4pt","practice_cue","5da79692e7d12f00165fbe54","5f60e3c0a3b16e07647b2ff9","5f61dbf4a4095c18b7181271","true","749.2150000034599","./Stimuli/ImagesPractice/SM98.jpg","76","","","","test","true","N + M","76","","SM","SM98.jpg","remember","old","18","2","practice_forget","right","","","",""
"html-keyboard-response","52","194902","0.0-3.0-3.0-3.1","v5d17mbq6zpb4pt","practice_cue","5da79692e7d12f00165fbe54","5f60e3c0a3b16e07647b2ff9","5f61dbf4a4095c18b7181271","false","null","<div style=""align-items: center; display: flex; color: dodgerblue; font-size: 90px""><b>o</b></div>","null","","","","forget_cue","","","","","","","","","","","","","","","",""
"html-keyboard-response","53","195604","0.0-3.0-3.0-0.2","v5d17mbq6zpb4pt","practice_cue","5da79692e7d12f00165fbe54","5f60e3c0a3b16e07647b2ff9","5f61dbf4a4095c18b7181271","false","null","<span style=""color: black; font-size: 48px"">N + M</span>","null","","","","resp_prompt","","","","","","","","","","","","","","","",""
"categorize-image","54","196678","0.0-3.0-3.0-1.2","v5d17mbq6zpb4pt","practice_cue","5da79692e7d12f00165fbe54","5f60e3c0a3b16e07647b2ff9","5f61dbf4a4095c18b7181271","true","1070.1800000097137","./Stimuli/ImagesPractice/LN4.jpg","83","","","","test","true","N + M","83","","LN","LN4.jpg","forget","old","19","2","practice_forget","left","","","",""
"html-keyboard-response","55","198680","0.0-3.0-3.0-3.2","v5d17mbq6zpb4pt","practice_cue","5da79692e7d12f00165fbe54","5f60e3c0a3b16e07647b2ff9","5f61dbf4a4095c18b7181271","false","null","<div style=""align-items: center; display: flex; color: darkorange; font-size: 90px""><b>ø</b></div>","null","","","","forget_cue","","","","","","","","","","","","","","","",""
"html-keyboard-response","56","199381","0.0-3.0-3.0-0.3","v5d17mbq6zpb4pt","practice_cue","5da79692e7d12f00165fbe54","5f60e3c0a3b16e07647b2ff9","5f61dbf4a4095c18b7181271","false","null","<span style=""color: black; font-size: 48px"">M + N</span>","null","","","","resp_prompt","","","","","","","","","","","","","","","",""
"categorize-image","57","200262","0.0-3.0-3.0-1.3","v5d17mbq6zpb4pt","practice_cue","5da79692e7d12f00165fbe54","5f60e3c0a3b16e07647b2ff9","5f61dbf4a4095c18b7181271","true","877.7399999962654","./Stimuli/ImagesPractice/LM239.jpg","83","","","","test","true","M + N","83","","LM","LM239.jpg","remember","old","20","2","practice_forget","left","","","",""
"html-keyboard-response","58","202263","0.0-3.0-3.0-3.3","v5d17mbq6zpb4pt","practice_cue","5da79692e7d12f00165fbe54","5f60e3c0a3b16e07647b2ff9","5f61dbf4a4095c18b7181271","false","null","<div style=""align-items: center; display: flex; color: dodgerblue; font-size: 90px""><b>o</b></div>","null","","","","forget_cue","","","","","","","","","","","","","","","",""
"html-keyboard-response","59","202964","0.0-3.0-3.0-0.4","v5d17mbq6zpb4pt","practice_cue","5da79692e7d12f00165fbe54","5f60e3c0a3b16e07647b2ff9","5f61dbf4a4095c18b7181271","false","null","<span style=""color: black; font-size: 48px"">N + M</span>","null","","","","resp_prompt","","","","","","","","","","","","","","","",""
"categorize-image","60","203725","0.0-3.0-3.0-1.4","v5d17mbq6zpb4pt","practice_cue","5da79692e7d12f00165fbe54","5f60e3c0a3b16e07647b2ff9","5f61dbf4a4095c18b7181271","true","757.8099999955157","./Stimuli/ImagesPractice/SN222.jpg","83","","","","test","true","N + M","83","","SN","SN222.jpg","remember","old","21","2","practice_forget","left","","","",""
"html-keyboard-response","61","205726","0.0-3.0-3.0-3.4","v5d17mbq6zpb4pt","practice_cue","5da79692e7d12f00165fbe54","5f60e3c0a3b16e07647b2ff9","5f61dbf4a4095c18b7181271","false","null","<div style=""align-items: center; display: flex; color: dodgerblue; font-size: 90px""><b>o</b></div>","null","","","","forget_cue","","","","","","","","","","","","","","","",""
"html-keyboard-response","62","206428","0.0-3.0-3.0-0.5","v5d17mbq6zpb4pt","practice_cue","5da79692e7d12f00165fbe54","5f60e3c0a3b16e07647b2ff9","5f61dbf4a4095c18b7181271","false","null","<span style=""color: black; font-size: 48px"">N + M</span>","null","","","","resp_prompt","","","","","","","","","","","","","","","",""
"categorize-image","63","206909","0.0-3.0-3.0-1.5","v5d17mbq6zpb4pt","practice_cue","5da79692e7d12f00165fbe54","5f60e3c0a3b16e07647b2ff9","5f61dbf4a4095c18b7181271","true","477.8599999990547","./Stimuli/ImagesPractice/LN109.jpg","76","","","","test","false","N + M","83","","LN","LN109.jpg","remember","old","22","2","practice_forget","right","","","",""
"html-keyboard-response","64","207410","0.0-3.0-3.0-2.5-0.5","v5d17mbq6zpb4pt","practice_cue","5da79692e7d12f00165fbe54","5f60e3c0a3b16e07647b2ff9","5f61dbf4a4095c18b7181271","false","null","<span style=""color: red; font-size: 48px"">Error!</span>","null","","","","feedback","","","","","","","","","","","","","","","",""
"html-keyboard-response","65","209412","0.0-3.0-3.0-3.5","v5d17mbq6zpb4pt","practice_cue","5da79692e7d12f00165fbe54","5f60e3c0a3b16e07647b2ff9","5f61dbf4a4095c18b7181271","false","null","<div style=""align-items: center; display: flex; color: dodgerblue; font-size: 90px""><b>o</b></div>","null","","","","forget_cue","","","","","","","","","","","","","","","",""
"html-keyboard-response","66","210113","0.0-3.0-3.0-0.6","v5d17mbq6zpb4pt","practice_cue","5da79692e7d12f00165fbe54","5f60e3c0a3b16e07647b2ff9","5f61dbf4a4095c18b7181271","false","null","<span style=""color: black; font-size: 48px"">M + N</span>","null","","","","resp_prompt","","","","","","","","","","","","","","","",""
"categorize-image","67","210998","0.0-3.0-3.0-1.6","v5d17mbq6zpb4pt","practice_cue","5da79692e7d12f00165fbe54","5f60e3c0a3b16e07647b2ff9","5f61dbf4a4095c18b7181271","true","881.9300000031944","./Stimuli/ImagesPractice/LM143.jpg","83","","","","test","true","M + N","83","","LM","LM143.jpg","forget","old","23","2","practice_forget","left","","","",""
"html-keyboard-response","68","212999","0.0-3.0-3.0-3.6","v5d17mbq6zpb4pt","practice_cue","5da79692e7d12f00165fbe54","5f60e3c0a3b16e07647b2ff9","5f61dbf4a4095c18b7181271","false","null","<div style=""align-items: center; display: flex; color: darkorange; font-size: 90px""><b>ø</b></div>","null","","","","forget_cue","","","","","","","","","","","","","","","",""
"html-keyboard-response","69","213701","0.0-3.0-3.0-0.7","v5d17mbq6zpb4pt","practice_cue","5da79692e7d12f00165fbe54","5f60e3c0a3b16e07647b2ff9","5f61dbf4a4095c18b7181271","false","null","<span style=""color: black; font-size: 48px"">N + M</span>","null","","","","resp_prompt","","","","","","","","","","","","","","","",""
"categorize-image","70","214501","0.0-3.0-3.0-1.7","v5d17mbq6zpb4pt","practice_cue","5da79692e7d12f00165fbe54","5f60e3c0a3b16e07647b2ff9","5f61dbf4a4095c18b7181271","true","797.2000000008848","./Stimuli/ImagesPractice/SN205.jpg","83","","","","test","true","N + M","83","","SN","SN205.jpg","forget","old","24","2","practice_forget","left","","","",""
"html-keyboard-response","71","216502","0.0-3.0-3.0-3.7","v5d17mbq6zpb4pt","practice_cue","5da79692e7d12f00165fbe54","5f60e3c0a3b16e07647b2ff9","5f61dbf4a4095c18b7181271","false","null","<div style=""align-items: center; display: flex; color: darkorange; font-size: 90px""><b>ø</b></div>","null","","","","forget_cue","","","","","","","","","","","","","","","",""
"html-keyboard-response","72","217203","0.0-3.0-3.0-0.8","v5d17mbq6zpb4pt","practice_cue","5da79692e7d12f00165fbe54","5f60e3c0a3b16e07647b2ff9","5f61dbf4a4095c18b7181271","false","null","<span style=""color: black; font-size: 48px"">N + M</span>","null","","","","resp_prompt","","","","","","","","","","","","","","","",""
"categorize-image","73","218013","0.0-3.0-3.0-1.8","v5d17mbq6zpb4pt","practice_cue","5da79692e7d12f00165fbe54","5f60e3c0a3b16e07647b2ff9","5f61dbf4a4095c18b7181271","true","807.039999999688","./Stimuli/ImagesPractice/SN220.jpg","83","","","","test","true","N + M","83","","SN","SN220.jpg","forget","old","25","2","practice_forget","left","","","",""
"html-keyboard-response","74","220014","0.0-3.0-3.0-3.8","v5d17mbq6zpb4pt","practice_cue","5da79692e7d12f00165fbe54","5f60e3c0a3b16e07647b2ff9","5f61dbf4a4095c18b7181271","false","null","<div style=""align-items: center; display: flex; color: darkorange; font-size: 90px""><b>ø</b></div>","null","","","","forget_cue","","","","","","","","","","","","","","","",""
"html-keyboard-response","75","220715","0.0-3.0-3.0-0.9","v5d17mbq6zpb4pt","practice_cue","5da79692e7d12f00165fbe54","5f60e3c0a3b16e07647b2ff9","5f61dbf4a4095c18b7181271","false","null","<span style=""color: black; font-size: 48px"">M + N</span>","null","","","","resp_prompt","","","","","","","","","","","","","","","",""
"categorize-image","76","221374","0.0-3.0-3.0-1.9","v5d17mbq6zpb4pt","practice_cue","5da79692e7d12f00165fbe54","5f60e3c0a3b16e07647b2ff9","5f61dbf4a4095c18b7181271","true","655.5949999892619","./Stimuli/ImagesPractice/LN72.jpg","83","","","","test","false","M + N","76","","LN","LN72.jpg","forget","old","26","2","practice_forget","left","","","",""
"html-keyboard-response","77","221876","0.0-3.0-3.0-2.9-0.9","v5d17mbq6zpb4pt","practice_cue","5da79692e7d12f00165fbe54","5f60e3c0a3b16e07647b2ff9","5f61dbf4a4095c18b7181271","false","null","<span style=""color: red; font-size: 48px"">Error!</span>","null","","","","feedback","","","","","","","","","","","","","","","",""
"html-keyboard-response","78","223878","0.0-3.0-3.0-3.9","v5d17mbq6zpb4pt","practice_cue","5da79692e7d12f00165fbe54","5f60e3c0a3b16e07647b2ff9","5f61dbf4a4095c18b7181271","false","null","<div style=""align-items: center; display: flex; color: darkorange; font-size: 90px""><b>ø</b></div>","null","","","","forget_cue","","","","","","","","","","","","","","","",""
"html-keyboard-response","79","224579","0.0-3.0-3.0-0.10","v5d17mbq6zpb4pt","practice_cue","5da79692e7d12f00165fbe54","5f60e3c0a3b16e07647b2ff9","5f61dbf4a4095c18b7181271","false","null","<span style=""color: black; font-size: 48px"">M + N</span>","null","","","","resp_prompt","","","","","","","","","","","","","","","",""
"categorize-image","80","225125","0.0-3.0-3.0-1.10","v5d17mbq6zpb4pt","practice_cue","5da79692e7d12f00165fbe54","5f60e3c0a3b16e07647b2ff9","5f61dbf4a4095c18b7181271","true","543.2499999878928","./Stimuli/ImagesPractice/SN221.jpg","76","","","","test","true","M + N","76","","SN","SN221.jpg","forget","old","27","2","practice_forget","right","","","",""
"html-keyboard-response","81","227127","0.0-3.0-3.0-3.10","v5d17mbq6zpb4pt","practice_cue","5da79692e7d12f00165fbe54","5f60e3c0a3b16e07647b2ff9","5f61dbf4a4095c18b7181271","false","null","<div style=""align-items: center; display: flex; color: darkorange; font-size: 90px""><b>ø</b></div>","null","","","","forget_cue","","","","","","","","","","","","","","","",""
"html-keyboard-response","82","227829","0.0-3.0-3.0-0.11","v5d17mbq6zpb4pt","practice_cue","5da79692e7d12f00165fbe54","5f60e3c0a3b16e07647b2ff9","5f61dbf4a4095c18b7181271","false","null","<span style=""color: black; font-size: 48px"">M + N</span>","null","","","","resp_prompt","","","","","","","","","","","","","","","",""
"categorize-image","83","228391","0.0-3.0-3.0-1.11","v5d17mbq6zpb4pt","practice_cue","5da79692e7d12f00165fbe54","5f60e3c0a3b16e07647b2ff9","5f61dbf4a4095c18b7181271","true","557.9849999921862","./Stimuli/ImagesPractice/LM147.jpg","83","","","","test","true","M + N","83","","LM","LM147.jpg","forget","old","28","2","practice_forget","left","","","",""
"html-keyboard-response","84","230392","0.0-3.0-3.0-3.11","v5d17mbq6zpb4pt","practice_cue","5da79692e7d12f00165fbe54","5f60e3c0a3b16e07647b2ff9","5f61dbf4a4095c18b7181271","false","null","<div style=""align-items: center; display: flex; color: darkorange; font-size: 90px""><b>ø</b></div>","null","","","","forget_cue","","","","","","","","","","","","","","","",""
"html-keyboard-response","85","231093","0.0-3.0-3.0-0.12","v5d17mbq6zpb4pt","practice_cue","5da79692e7d12f00165fbe54","5f60e3c0a3b16e07647b2ff9","5f61dbf4a4095c18b7181271","false","null","<span style=""color: black; font-size: 48px"">N + M</span>","null","","","","resp_prompt","","","","","","","","","","","","","","","",""
"categorize-image","86","231742","0.0-3.0-3.0-1.12","v5d17mbq6zpb4pt","practice_cue","5da79692e7d12f00165fbe54","5f60e3c0a3b16e07647b2ff9","5f61dbf4a4095c18b7181271","true","646.2549999996554","./Stimuli/ImagesPractice/SM61.jpg","83","","","","test","false","N + M","76","","SM","SM61.jpg","remember","old","29","2","practice_forget","left","","","",""
"html-keyboard-response","87","232243","0.0-3.0-3.0-2.12-0.12","v5d17mbq6zpb4pt","practice_cue","5da79692e7d12f00165fbe54","5f60e3c0a3b16e07647b2ff9","5f61dbf4a4095c18b7181271","false","null","<span style=""color: red; font-size: 48px"">Error!</span>","null","","","","feedback","","","","","","","","","","","","","","","",""
"html-keyboard-response","88","234244","0.0-3.0-3.0-3.12","v5d17mbq6zpb4pt","practice_cue","5da79692e7d12f00165fbe54","5f60e3c0a3b16e07647b2ff9","5f61dbf4a4095c18b7181271","false","null","<div style=""align-items: center; display: flex; color: dodgerblue; font-size: 90px""><b>o</b></div>","null","","","","forget_cue","","","","","","","","","","","","","","","",""
"html-keyboard-response","89","234946","0.0-3.0-3.0-0.13","v5d17mbq6zpb4pt","practice_cue","5da79692e7d12f00165fbe54","5f60e3c0a3b16e07647b2ff9","5f61dbf4a4095c18b7181271","false","null","<span style=""color: black; font-size: 48px"">N + M</span>","null","","","","resp_prompt","","","","","","","","","","","","","","","",""
"categorize-image","90","235614","0.0-3.0-3.0-1.13","v5d17mbq6zpb4pt","practice_cue","5da79692e7d12f00165fbe54","5f60e3c0a3b16e07647b2ff9","5f61dbf4a4095c18b7181271","true","664.8049999930663","./Stimuli/ImagesPractice/LM55.jpg","76","","","","test","true","N + M","76","","LM","LM55.jpg","forget","old","30","2","practice_forget","right","","","",""
"html-keyboard-response","91","237616","0.0-3.0-3.0-3.13","v5d17mbq6zpb4pt","practice_cue","5da79692e7d12f00165fbe54","5f60e3c0a3b16e07647b2ff9","5f61dbf4a4095c18b7181271","false","null","<div style=""align-items: center; display: flex; color: darkorange; font-size: 90px""><b>ø</b></div>","null","","","","forget_cue","","","","","","","","","","","","","","","",""
"html-keyboard-response","92","238317","0.0-3.0-3.0-0.14","v5d17mbq6zpb4pt","practice_cue","5da79692e7d12f00165fbe54","5f60e3c0a3b16e07647b2ff9","5f61dbf4a4095c18b7181271","false","null","<span style=""color: black; font-size: 48px"">M + N</span>","null","","","","resp_prompt","","","","","","","","","","","","","","","",""
"categorize-image","93","238997","0.0-3.0-3.0-1.14","v5d17mbq6zpb4pt","practice_cue","5da79692e7d12f00165fbe54","5f60e3c0a3b16e07647b2ff9","5f61dbf4a4095c18b7181271","true","677.8049999993527","./Stimuli/ImagesPractice/LN15.jpg","76","","","","test","true","M + N","76","","LN","LN15.jpg","remember","old","31","2","practice_forget","right","","","",""
"html-keyboard-response","94","240998","0.0-3.0-3.0-3.14","v5d17mbq6zpb4pt","practice_cue","5da79692e7d12f00165fbe54","5f60e3c0a3b16e07647b2ff9","5f61dbf4a4095c18b7181271","false","null","<div style=""align-items: center; display: flex; color: dodgerblue; font-size: 90px""><b>o</b></div>","null","","","","forget_cue","","","","","","","","","","","","","","","",""
"html-keyboard-response","95","241699","0.0-3.0-3.0-0.15","v5d17mbq6zpb4pt","practice_cue","5da79692e7d12f00165fbe54","5f60e3c0a3b16e07647b2ff9","5f61dbf4a4095c18b7181271","false","null","<span style=""color: black; font-size: 48px"">M + N</span>","null","","","","resp_prompt","","","","","","","","","","","","","","","",""
"categorize-image","96","242199","0.0-3.0-3.0-1.15","v5d17mbq6zpb4pt","practice_cue","5da79692e7d12f00165fbe54","5f60e3c0a3b16e07647b2ff9","5f61dbf4a4095c18b7181271","true","496.4099999924656","./Stimuli/ImagesPractice/LN2.jpg","83","","","","test","false","M + N","76","","LN","LN2.jpg","remember","old","32","2","practice_forget","left","","","",""
"html-keyboard-response","97","242700","0.0-3.0-3.0-2.15-0.15","v5d17mbq6zpb4pt","practice_cue","5da79692e7d12f00165fbe54","5f60e3c0a3b16e07647b2ff9","5f61dbf4a4095c18b7181271","false","null","<span style=""color: red; font-size: 48px"">Error!</span>","null","","","","feedback","","","","","","","","","","","","","","","",""
"html-keyboard-response","98","244701","0.0-3.0-3.0-3.15","v5d17mbq6zpb4pt","practice_cue","5da79692e7d12f00165fbe54","5f60e3c0a3b16e07647b2ff9","5f61dbf4a4095c18b7181271","false","null","<div style=""align-items: center; display: flex; color: dodgerblue; font-size: 90px""><b>o</b></div>","null","","","","forget_cue","","","","","","","","","","","","","","","",""
"html-keyboard-response","99","249404","0.0-3.0-4.0","v5d17mbq6zpb4pt","break","5da79692e7d12f00165fbe54","5f60e3c0a3b16e07647b2ff9","5f61dbf4a4095c18b7181271","false","4701.73000000068","<p style='font-size: 32px;'>Break</><br><br><br><br><br><p style='font-size: 24px;'>In the last block, you committed 4 errors and did not respond in time on 0 trials.
</p><p style='font-size: 24px;'>Try to respond as fast and accurately as possible in the next block as well! </p><p style='font-size: 24px;'>Press SPACE to continue.</p>","32","","","","","","","","","","","","","","","","","","","",""
"html-keyboard-response","100","264572","0.0-3.0-5.0","v5d17mbq6zpb4pt","instructions","5da79692e7d12f00165fbe54","5f60e3c0a3b16e07647b2ff9","5f61dbf4a4095c18b7181271","false","15168.014999988372","<div align=left> Now, to practice, we kindly ask you to remember as many of the to-be-remembered pictures<br>of the previous learning phase as possible.<br><br>The pictures you were instructed to remember were the pictures followed by a <span style='color: dodgerblue; font-size: 28px'>O</span>.<br><br>In this memory test phase, you will also see some new pictures.<br>It is your task to remember whether you were presented with this specific picture in this study so far or not.<br>If you recognize an object (you have already seen it in this study), it is an OLD object. <br>If you do not recognize an object (you have NOT seen it in this study), it is a NEW object. <br><strong> Attention</strong>: As already mentioned, <span style='color: darkorange; font-size:28px'>Ø</span>-pictures will <strong>never</strong> appear in this memory test (neither as new objects). <br><br>Press SPACE to continue. </div>","32","","","","","","","","","","","","","","","","","","","",""
"html-keyboard-response","101","267436","0.0-3.0-6.0","v5d17mbq6zpb4pt","instructions","5da79692e7d12f00165fbe54","5f60e3c0a3b16e07647b2ff9","5f61dbf4a4095c18b7181271","false","2862.5499999907333","<div align=left> M and N no longer will appear on the left/right of the fixation cross. <br>Instead there will be a note at the bottom of the left or right side  <br>indicating which key you should press for an old or new object:  <br> <br>Press the <strong>right</strong> key to classify an object as <strong>old</strong> and press the <strong>left</strong>, to classify an object as <strong>new</strong>.<br>Please classify the objects as new/old by again placing your index finger on the 'S' and 'L' keys <br>and press them accordingly.<br><br><strong>Old:</strong> This object has been presented before. <br><strong>New:</strong> This object has <strong>not</strong> been presented.<br><br>Now please put your right and left index fingers on the 'S' and 'L' keys of your keyboard. <br>Please respond as fast and as accurately as possible!<br><br>Press SPACE to continue. </div>","32","","","","","","","","","","","","","","","","","","","",""
"categorize-image","102","269137","0.0-3.0-7.0-0.0","v5d17mbq6zpb4pt","practice_recog","5da79692e7d12f00165fbe54","5f60e3c0a3b16e07647b2ff9","5f61dbf4a4095c18b7181271","true","1198.530000008759","./Stimuli/ImagesPractice/LN15.jpg","76","","","","test","true","","76","","LN","LN15.jpg","","old","33","3","practice_recog","right","","","",""
"categorize-image","103","270497","0.0-3.0-7.0-0.1","v5d17mbq6zpb4pt","practice_recog","5da79692e7d12f00165fbe54","5f60e3c0a3b16e07647b2ff9","5f61dbf4a4095c18b7181271","true","857.6100000063889","./Stimuli/ImagesPractice/SM97.jpg","83","","","","test","true","","83","","SM","SM97.jpg","","new","34","3","practice_recog","left","","","",""
"categorize-image","104","271785","0.0-3.0-7.0-0.2","v5d17mbq6zpb4pt","practice_recog","5da79692e7d12f00165fbe54","5f60e3c0a3b16e07647b2ff9","5f61dbf4a4095c18b7181271","true","785.8899999991991","./Stimuli/ImagesPractice/LN2.jpg","76","","","","test","true","","76","","LN","LN2.jpg","","old","35","3","practice_recog","right","","","",""
"categorize-image","105","272993","0.0-3.0-7.0-0.3","v5d17mbq6zpb4pt","practice_recog","5da79692e7d12f00165fbe54","5f60e3c0a3b16e07647b2ff9","5f61dbf4a4095c18b7181271","true","705.629999996745","./Stimuli/ImagesPractice/SN75.jpg","76","","","","test","false","","83","","SN","SN75.jpg","","new","36","3","practice_recog","right","","","",""
"categorize-image","106","274737","0.0-3.0-7.0-0.4","v5d17mbq6zpb4pt","practice_recog","5da79692e7d12f00165fbe54","5f60e3c0a3b16e07647b2ff9","5f61dbf4a4095c18b7181271","true","1241.779999996652","./Stimuli/ImagesPractice/SM62.jpg","83","","","","test","true","","83","","SM","SM62.jpg","","new","37","3","practice_recog","left","","","",""
"categorize-image","107","275945","0.0-3.0-7.0-0.5","v5d17mbq6zpb4pt","practice_recog","5da79692e7d12f00165fbe54","5f60e3c0a3b16e07647b2ff9","5f61dbf4a4095c18b7181271","true","706.4400000090245","./Stimuli/ImagesPractice/LM224.jpg","76","","","","test","true","","76","","LM","LM224.jpg","","old","38","3","practice_recog","right","","","",""
"categorize-image","108","277073","0.0-3.0-7.0-0.6","v5d17mbq6zpb4pt","practice_recog","5da79692e7d12f00165fbe54","5f60e3c0a3b16e07647b2ff9","5f61dbf4a4095c18b7181271","true","626.0800000018207","./Stimuli/ImagesPractice/SM98.jpg","76","","","","test","true","","76","","SM","SM98.jpg","","old","39","3","practice_recog","right","","","",""
"categorize-image","109","278226","0.0-3.0-7.0-0.7","v5d17mbq6zpb4pt","practice_recog","5da79692e7d12f00165fbe54","5f60e3c0a3b16e07647b2ff9","5f61dbf4a4095c18b7181271","true","650.130000009085","./Stimuli/ImagesPractice/SM35.jpg","83","","","","test","true","","83","","SM","SM35.jpg","","new","40","3","practice_recog","left","","","",""
"categorize-image","110","279408","0.0-3.0-7.0-0.8","v5d17mbq6zpb4pt","practice_recog","5da79692e7d12f00165fbe54","5f60e3c0a3b16e07647b2ff9","5f61dbf4a4095c18b7181271","true","680.8000000019092","./Stimuli/ImagesPractice/LN109.jpg","76","","","","test","true","","76","","LN","LN109.jpg","","old","41","3","practice_recog","right","","","",""
"categorize-image","111","280705","0.0-3.0-7.0-0.9","v5d17mbq6zpb4pt","practice_recog","5da79692e7d12f00165fbe54","5f60e3c0a3b16e07647b2ff9","5f61dbf4a4095c18b7181271","true","794.2750000074739","./Stimuli/ImagesPractice/SN222.jpg","76","","","","test","true","","76","","SN","SN222.jpg","","old","42","3","practice_recog","right","","","",""
"categorize-image","112","281792","0.0-3.0-7.0-0.10","v5d17mbq6zpb4pt","practice_recog","5da79692e7d12f00165fbe54","5f60e3c0a3b16e07647b2ff9","5f61dbf4a4095c18b7181271","true","585.1200000033714","./Stimuli/ImagesPractice/LM239.jpg","76","","","","test","true","","76","","LM","LM239.jpg","","old","43","3","practice_recog","right","","","",""
"categorize-image","113","282912","0.0-3.0-7.0-0.11","v5d17mbq6zpb4pt","practice_recog","5da79692e7d12f00165fbe54","5f60e3c0a3b16e07647b2ff9","5f61dbf4a4095c18b7181271","true","618.190000008326","./Stimuli/ImagesPractice/LN17.jpg","83","","","","test","true","","83","","LN","LN17.jpg","","new","44","3","practice_recog","left","","","",""
"categorize-image","114","283984","0.0-3.0-7.0-0.12","v5d17mbq6zpb4pt","practice_recog","5da79692e7d12f00165fbe54","5f60e3c0a3b16e07647b2ff9","5f61dbf4a4095c18b7181271","true","570.240000000922","./Stimuli/ImagesPractice/SN76.jpg","83","","","","test","true","","83","","SN","SN76.jpg","","new","45","3","practice_recog","left","","","",""
"categorize-image","115","285441","0.0-3.0-7.0-0.13","v5d17mbq6zpb4pt","practice_recog","5da79692e7d12f00165fbe54","5f60e3c0a3b16e07647b2ff9","5f61dbf4a4095c18b7181271","true","953.4049999929266","./Stimuli/ImagesPractice/SM37.jpg","83","","","","test","true","","83","","SM","SM37.jpg","","new","46","3","practice_recog","left","","","",""
"categorize-image","116","287073","0.0-3.0-7.0-0.14","v5d17mbq6zpb4pt","practice_recog","5da79692e7d12f00165fbe54","5f60e3c0a3b16e07647b2ff9","5f61dbf4a4095c18b7181271","true","1129.9350000044797","./Stimuli/ImagesPractice/LM230.jpg","76","","","","test","false","","83","","LM","LM230.jpg","","new","47","3","practice_recog","right","","","",""
"categorize-image","117","288256","0.0-3.0-7.0-0.15","v5d17mbq6zpb4pt","practice_recog","5da79692e7d12f00165fbe54","5f60e3c0a3b16e07647b2ff9","5f61dbf4a4095c18b7181271","true","681.6200000030221","./Stimuli/ImagesPractice/SM61.jpg","76","","","","test","true","","76","","SM","SM61.jpg","","old","48","3","practice_recog","right","","","",""
"html-keyboard-response","118","289395","0.0-3.0-8.0","v5d17mbq6zpb4pt","instructions","5da79692e7d12f00165fbe54","5f60e3c0a3b16e07647b2ff9","5f61dbf4a4095c18b7181271","false","1138.8149999984307","<div align=left> Great!<br><br>Are you ready to continue?<br>If you want to reread the instructions and redo the practice trials, please <br>press „Z“.<br><br>You can proceed when you are ready.<br><br>After the presentation of each object, you will receive an instruction whether to <br>remember or to forget the object.<br>We will test your memory of the following pictures only at the very end of <br>the experiment after all learning blocks are completed. <br><br>Press SPACE to CONTINUE when you are ready. </div>","32","","","","","","","","","","","","","","","","","","","",""
"html-keyboard-response","119","293124","0.0-4.0-0.0","v5d17mbq6zpb4pt","instructions","5da79692e7d12f00165fbe54","5f60e3c0a3b16e07647b2ff9","5f61dbf4a4095c18b7181271","false","3727.424999990035","<div align=left> The actual experiment is about to start.<br>The practice trials are over!<br><br>Please always respond both fast and accurately!<br><br>Remember: <br> <br><li> Please place your index fingers on the <strong>'S'</strong> and <strong>'L'</strong> keys <br>to respond as fast and accurately as possible.</li><li> Every picture can be classified as either mechanical or non-mechanical.</li><li> If you do not respond in time or commit an error, you will receive a corresponding feedback.<br> Please try to respond as <strong> fast </strong> and as <strong> accurately as possible </strong>.</li><li> Remember the <span style='color: dodgerblue; font-size: 28px'>O</span> pictures. <br></li><li> Please minimize distractions and stay focused. </li><br><br>Press SPACE to START.</div>","32","","","","","","","","","","","","","","","","","","","",""
"html-keyboard-response","120","293826","0.0-4.0-1.0-0.0","v5d17mbq6zpb4pt","prime","5da79692e7d12f00165fbe54","5f60e3c0a3b16e07647b2ff9","5f61dbf4a4095c18b7181271","false","null","<span style=""color: black; font-size: 48px"">M + N</span>","null","","","","resp_prompt","","","","","","","","","","","","","","","",""
"categorize-image","121","294565","0.0-4.0-1.0-1.0","v5d17mbq6zpb4pt","prime","5da79692e7d12f00165fbe54","5f60e3c0a3b16e07647b2ff9","5f61dbf4a4095c18b7181271","true","736.3949999999022","./Stimuli/SelectedImages/SM/SM213.bmp","83","","","","test","true","M + N","83","switch","SM","SM213.bmp","remember","","49","3","prime1","left","","","",""
"html-keyboard-response","122","296567","0.0-4.0-1.0-3.0","v5d17mbq6zpb4pt","prime","5da79692e7d12f00165fbe54","5f60e3c0a3b16e07647b2ff9","5f61dbf4a4095c18b7181271","false","null","<div style=""align-items: center; display: flex; color: dodgerblue; font-size: 90px""><b>o</b></div>","null","","","","forget_cue","","","","","","","","","","","","","","","",""
"html-keyboard-response","123","297269","0.0-4.0-1.0-0.1","v5d17mbq6zpb4pt","prime","5da79692e7d12f00165fbe54","5f60e3c0a3b16e07647b2ff9","5f61dbf4a4095c18b7181271","false","null","<span style=""color: black; font-size: 48px"">N + M</span>","null","","","","resp_prompt","","","","","","","","","","","","","","","",""
"categorize-image","124","298102","0.0-4.0-1.0-1.1","v5d17mbq6zpb4pt","prime","5da79692e7d12f00165fbe54","5f60e3c0a3b16e07647b2ff9","5f61dbf4a4095c18b7181271","true","830.309999990277","./Stimuli/SelectedImages/SN/SN179.bmp","76","","","","test","false","N + M","83","repetition","SN","SN179.bmp","forget","","50","3","prime1","right","","","",""
"html-keyboard-response","125","298604","0.0-4.0-1.0-2.1-0.1","v5d17mbq6zpb4pt","prime","5da79692e7d12f00165fbe54","5f60e3c0a3b16e07647b2ff9","5f61dbf4a4095c18b7181271","false","null","<span style=""color: red; font-size: 48px"">Error!</span>","null","","","","feedback","","","","","","","","","","","","","","","",""
"html-keyboard-response","126","300606","0.0-4.0-1.0-3.1","v5d17mbq6zpb4pt","prime","5da79692e7d12f00165fbe54","5f60e3c0a3b16e07647b2ff9","5f61dbf4a4095c18b7181271","false","null","<div style=""align-items: center; display: flex; color: darkorange; font-size: 90px""><b>ø</b></div>","null","","","","forget_cue","","","","","","","","","","","","","","","",""
"html-keyboard-response","127","301308","0.0-4.0-1.0-0.2","v5d17mbq6zpb4pt","prime","5da79692e7d12f00165fbe54","5f60e3c0a3b16e07647b2ff9","5f61dbf4a4095c18b7181271","false","null","<span style=""color: black; font-size: 48px"">M + N</span>","null","","","","resp_prompt","","","","","","","","","","","","","","","",""
"categorize-image","128","301862","0.0-4.0-1.0-1.2","v5d17mbq6zpb4pt","prime","5da79692e7d12f00165fbe54","5f60e3c0a3b16e07647b2ff9","5f61dbf4a4095c18b7181271","true","550.3600000083679","./Stimuli/SelectedImages/LM/LM235.bmp","83","","","","test","true","M + N","83","switch","LM","LM235.bmp","forget","","51","3","prime1","left","","","",""
"html-keyboard-response","129","303863","0.0-4.0-1.0-3.2","v5d17mbq6zpb4pt","prime","5da79692e7d12f00165fbe54","5f60e3c0a3b16e07647b2ff9","5f61dbf4a4095c18b7181271","false","null","<div style=""align-items: center; display: flex; color: darkorange; font-size: 90px""><b>ø</b></div>","null","","","","forget_cue","","","","","","","","","","","","","","","",""
"html-keyboard-response","130","304564","0.0-4.0-1.0-0.3","v5d17mbq6zpb4pt","prime","5da79692e7d12f00165fbe54","5f60e3c0a3b16e07647b2ff9","5f61dbf4a4095c18b7181271","false","null","<span style=""color: black; font-size: 48px"">N + M</span>","null","","","","resp_prompt","","","","","","","","","","","","","","","",""
"categorize-image","131","305574","0.0-4.0-1.0-1.3","v5d17mbq6zpb4pt","prime","5da79692e7d12f00165fbe54","5f60e3c0a3b16e07647b2ff9","5f61dbf4a4095c18b7181271","true","1007.1599999937462","./Stimuli/SelectedImages/SN/SN60.bmp","83","","","","test","true","N + M","83","switch","SN","SN60.bmp","remember","","52","3","prime1","left","","","",""
"html-keyboard-response","132","307576","0.0-4.0-1.0-3.3","v5d17mbq6zpb4pt","prime","5da79692e7d12f00165fbe54","5f60e3c0a3b16e07647b2ff9","5f61dbf4a4095c18b7181271","false","null","<div style=""align-items: center; display: flex; color: dodgerblue; font-size: 90px""><b>o</b></div>","null","","","","forget_cue","","","","","","","","","","","","","","","",""
"html-keyboard-response","133","308277","0.0-4.0-1.0-0.4","v5d17mbq6zpb4pt","prime","5da79692e7d12f00165fbe54","5f60e3c0a3b16e07647b2ff9","5f61dbf4a4095c18b7181271","false","null","<span style=""color: black; font-size: 48px"">M + N</span>","null","","","","resp_prompt","","","","","","","","","","","","","","","",""
"categorize-image","134","309030","0.0-4.0-1.0-1.4","v5d17mbq6zpb4pt","prime","5da79692e7d12f00165fbe54","5f60e3c0a3b16e07647b2ff9","5f61dbf4a4095c18b7181271","true","750.0849999923958","./Stimuli/SelectedImages/LN/LN177.bmp","76","","","","test","true","M + N","76","switch","LN","LN177.bmp","remember","","53","3","prime1","right","","","",""
"html-keyboard-response","135","311031","0.0-4.0-1.0-3.4","v5d17mbq6zpb4pt","prime","5da79692e7d12f00165fbe54","5f60e3c0a3b16e07647b2ff9","5f61dbf4a4095c18b7181271","false","null","<div style=""align-items: center; display: flex; color: dodgerblue; font-size: 90px""><b>o</b></div>","null","","","","forget_cue","","","","","","","","","","","","","","","",""
"html-keyboard-response","136","311732","0.0-4.0-1.0-0.5","v5d17mbq6zpb4pt","prime","5da79692e7d12f00165fbe54","5f60e3c0a3b16e07647b2ff9","5f61dbf4a4095c18b7181271","false","null","<span style=""color: black; font-size: 48px"">N + M</span>","null","","","","resp_prompt","","","","","","","","","","","","","","","",""
"categorize-image","137","312357","0.0-4.0-1.0-1.5","v5d17mbq6zpb4pt","prime","5da79692e7d12f00165fbe54","5f60e3c0a3b16e07647b2ff9","5f61dbf4a4095c18b7181271","true","622.5149999954738","./Stimuli/SelectedImages/LN/LN128.bmp","83","","","","test","true","N + M","83","switch","LN","LN128.bmp","remember","","54","3","prime1","left","","","",""
"html-keyboard-response","138","314358","0.0-4.0-1.0-3.5","v5d17mbq6zpb4pt","prime","5da79692e7d12f00165fbe54","5f60e3c0a3b16e07647b2ff9","5f61dbf4a4095c18b7181271","false","null","<div style=""align-items: center; display: flex; color: dodgerblue; font-size: 90px""><b>o</b></div>","null","","","","forget_cue","","","","","","","","","","","","","","","",""
"html-keyboard-response","139","315059","0.0-4.0-1.0-0.6","v5d17mbq6zpb4pt","prime","5da79692e7d12f00165fbe54","5f60e3c0a3b16e07647b2ff9","5f61dbf4a4095c18b7181271","false","null","<span style=""color: black; font-size: 48px"">M + N</span>","null","","","","resp_prompt","","","","","","","","","","","","","","","",""
"categorize-image","140","315645","0.0-4.0-1.0-1.6","v5d17mbq6zpb4pt","prime","5da79692e7d12f00165fbe54","5f60e3c0a3b16e07647b2ff9","5f61dbf4a4095c18b7181271","true","583.5550000047078","./Stimuli/SelectedImages/LM/LM48.bmp","83","","","","test","true","M + N","83","repetition","LM","LM48.bmp","remember","","55","3","prime1","left","","","",""
"html-keyboard-response","141","317646","0.0-4.0-1.0-3.6","v5d17mbq6zpb4pt","prime","5da79692e7d12f00165fbe54","5f60e3c0a3b16e07647b2ff9","5f61dbf4a4095c18b7181271","false","null","<div style=""align-items: center; display: flex; color: dodgerblue; font-size: 90px""><b>o</b></div>","null","","","","forget_cue","","","","","","","","","","","","","","","",""
"html-keyboard-response","142","318348","0.0-4.0-1.0-0.7","v5d17mbq6zpb4pt","prime","5da79692e7d12f00165fbe54","5f60e3c0a3b16e07647b2ff9","5f61dbf4a4095c18b7181271","false","null","<span style=""color: black; font-size: 48px"">M + N</span>","null","","","","resp_prompt","","","","","","","","","","","","","","","",""
"categorize-image","143","318924","0.0-4.0-1.0-1.7","v5d17mbq6zpb4pt","prime","5da79692e7d12f00165fbe54","5f60e3c0a3b16e07647b2ff9","5f61dbf4a4095c18b7181271","true","574.415000010049","./Stimuli/SelectedImages/LM/LM209.bmp","83","","","","test","true","M + N","83","repetition","LM","LM209.bmp","forget","","56","3","prime1","left","","","",""
"html-keyboard-response","144","320926","0.0-4.0-1.0-3.7","v5d17mbq6zpb4pt","prime","5da79692e7d12f00165fbe54","5f60e3c0a3b16e07647b2ff9","5f61dbf4a4095c18b7181271","false","null","<div style=""align-items: center; display: flex; color: darkorange; font-size: 90px""><b>ø</b></div>","null","","","","forget_cue","","","","","","","","","","","","","","","",""
"html-keyboard-response","145","321627","0.0-4.0-1.0-0.8","v5d17mbq6zpb4pt","prime","5da79692e7d12f00165fbe54","5f60e3c0a3b16e07647b2ff9","5f61dbf4a4095c18b7181271","false","null","<span style=""color: black; font-size: 48px"">M + N</span>","null","","","","resp_prompt","","","","","","","","","","","","","","","",""
"categorize-image","146","322126","0.0-4.0-1.0-1.8","v5d17mbq6zpb4pt","prime","5da79692e7d12f00165fbe54","5f60e3c0a3b16e07647b2ff9","5f61dbf4a4095c18b7181271","true","496.4599999948405","./Stimuli/SelectedImages/SM/SM74.bmp","83","","","","test","true","M + N","83","switch","SM","SM74.bmp","remember","","57","3","prime1","left","","","",""
"html-keyboard-response","147","324127","0.0-4.0-1.0-3.8","v5d17mbq6zpb4pt","prime","5da79692e7d12f00165fbe54","5f60e3c0a3b16e07647b2ff9","5f61dbf4a4095c18b7181271","false","null","<div style=""align-items: center; display: flex; color: dodgerblue; font-size: 90px""><b>o</b></div>","null","","","","forget_cue","","","","","","","","","","","","","","","",""
"html-keyboard-response","148","324829","0.0-4.0-1.0-0.9","v5d17mbq6zpb4pt","prime","5da79692e7d12f00165fbe54","5f60e3c0a3b16e07647b2ff9","5f61dbf4a4095c18b7181271","false","null","<span style=""color: black; font-size: 48px"">N + M</span>","null","","","","resp_prompt","","","","","","","","","","","","","","","",""
"categorize-image","149","325797","0.0-4.0-1.0-1.9","v5d17mbq6zpb4pt","prime","5da79692e7d12f00165fbe54","5f60e3c0a3b16e07647b2ff9","5f61dbf4a4095c18b7181271","true","965.2750000095693","./Stimuli/SelectedImages/LM/LM57.bmp","83","","","","test","false","N + M","76","repetition","LM","LM57.bmp","forget","","58","3","prime1","left","","","",""
"html-keyboard-response","150","326298","0.0-4.0-1.0-2.9-0.9","v5d17mbq6zpb4pt","prime","5da79692e7d12f00165fbe54","5f60e3c0a3b16e07647b2ff9","5f61dbf4a4095c18b7181271","false","null","<span style=""color: red; font-size: 48px"">Error!</span>","null","","","","feedback","","","","","","","","","","","","","","","",""
"html-keyboard-response","151","328299","0.0-4.0-1.0-3.9","v5d17mbq6zpb4pt","prime","5da79692e7d12f00165fbe54","5f60e3c0a3b16e07647b2ff9","5f61dbf4a4095c18b7181271","false","null","<div style=""align-items: center; display: flex; color: darkorange; font-size: 90px""><b>ø</b></div>","null","","","","forget_cue","","","","","","","","","","","","","","","",""
"html-keyboard-response","152","329000","0.0-4.0-1.0-0.10","v5d17mbq6zpb4pt","prime","5da79692e7d12f00165fbe54","5f60e3c0a3b16e07647b2ff9","5f61dbf4a4095c18b7181271","false","null","<span style=""color: black; font-size: 48px"">N + M</span>","null","","","","resp_prompt","","","","","","","","","","","","","","","",""
"categorize-image","153","329822","0.0-4.0-1.0-1.10","v5d17mbq6zpb4pt","prime","5da79692e7d12f00165fbe54","5f60e3c0a3b16e07647b2ff9","5f61dbf4a4095c18b7181271","true","818.2600000000093","./Stimuli/SelectedImages/LM/LM100.bmp","76","","","","test","true","N + M","76","switch","LM","LM100.bmp","forget","","59","3","prime1","right","","","",""
"html-keyboard-response","154","331823","0.0-4.0-1.0-3.10","v5d17mbq6zpb4pt","prime","5da79692e7d12f00165fbe54","5f60e3c0a3b16e07647b2ff9","5f61dbf4a4095c18b7181271","false","null","<div style=""align-items: center; display: flex; color: darkorange; font-size: 90px""><b>ø</b></div>","null","","","","forget_cue","","","","","","","","","","","","","","","",""
"html-keyboard-response","155","332524","0.0-4.0-1.0-0.11","v5d17mbq6zpb4pt","prime","5da79692e7d12f00165fbe54","5f60e3c0a3b16e07647b2ff9","5f61dbf4a4095c18b7181271","false","null","<span style=""color: black; font-size: 48px"">N + M</span>","null","","","","resp_prompt","","","","","","","","","","","","","","","",""
"categorize-image","156","333447","0.0-4.0-1.0-1.11","v5d17mbq6zpb4pt","prime","5da79692e7d12f00165fbe54","5f60e3c0a3b16e07647b2ff9","5f61dbf4a4095c18b7181271","true","918.9999999944121","./Stimuli/SelectedImages/SN/SN111.bmp","83","","","","test","true","N + M","83","repetition","SN","SN111.bmp","remember","","60","3","prime1","left","","","",""
"html-keyboard-response","157","335449","0.0-4.0-1.0-3.11","v5d17mbq6zpb4pt","prime","5da79692e7d12f00165fbe54","5f60e3c0a3b16e07647b2ff9","5f61dbf4a4095c18b7181271","false","null","<div style=""align-items: center; display: flex; color: dodgerblue; font-size: 90px""><b>o</b></div>","null","","","","forget_cue","","","","","","","","","","","","","","","",""
"html-keyboard-response","158","336151","0.0-4.0-1.0-0.12","v5d17mbq6zpb4pt","prime","5da79692e7d12f00165fbe54","5f60e3c0a3b16e07647b2ff9","5f61dbf4a4095c18b7181271","false","null","<span style=""color: black; font-size: 48px"">M + N</span>","null","","","","resp_prompt","","","","","","","","","","","","","","","",""
"categorize-image","159","337013","0.0-4.0-1.0-1.12","v5d17mbq6zpb4pt","prime","5da79692e7d12f00165fbe54","5f60e3c0a3b16e07647b2ff9","5f61dbf4a4095c18b7181271","true","859.3149999942398","./Stimuli/SelectedImages/LN/LN12.bmp","76","","","","test","true","M + N","76","switch","LN","LN12.bmp","forget","","61","3","prime1","right","","","",""
"html-keyboard-response","160","339014","0.0-4.0-1.0-3.12","v5d17mbq6zpb4pt","prime","5da79692e7d12f00165fbe54","5f60e3c0a3b16e07647b2ff9","5f61dbf4a4095c18b7181271","false","null","<div style=""align-items: center; display: flex; color: darkorange; font-size: 90px""><b>ø</b></div>","null","","","","forget_cue","","","","","","","","","","","","","","","",""
"html-keyboard-response","161","339715","0.0-4.0-1.0-0.13","v5d17mbq6zpb4pt","prime","5da79692e7d12f00165fbe54","5f60e3c0a3b16e07647b2ff9","5f61dbf4a4095c18b7181271","false","null","<span style=""color: black; font-size: 48px"">N + M</span>","null","","","","resp_prompt","","","","","","","","","","","","","","","",""
"categorize-image","162","340565","0.0-4.0-1.0-1.13","v5d17mbq6zpb4pt","prime","5da79692e7d12f00165fbe54","5f60e3c0a3b16e07647b2ff9","5f61dbf4a4095c18b7181271","true","847.2400000027847","./Stimuli/SelectedImages/LM/LM129.bmp","76","","","","test","true","N + M","76","repetition","LM","LM129.bmp","forget","","62","3","prime1","right","","","",""
"html-keyboard-response","163","342566","0.0-4.0-1.0-3.13","v5d17mbq6zpb4pt","prime","5da79692e7d12f00165fbe54","5f60e3c0a3b16e07647b2ff9","5f61dbf4a4095c18b7181271","false","null","<div style=""align-items: center; display: flex; color: darkorange; font-size: 90px""><b>ø</b></div>","null","","","","forget_cue","","","","","","","","","","","","","","","",""
"html-keyboard-response","164","343268","0.0-4.0-1.0-0.14","v5d17mbq6zpb4pt","prime","5da79692e7d12f00165fbe54","5f60e3c0a3b16e07647b2ff9","5f61dbf4a4095c18b7181271","false","null","<span style=""color: black; font-size: 48px"">N + M</span>","null","","","","resp_prompt","","","","","","","","","","","","","","","",""
"categorize-image","165","343991","0.0-4.0-1.0-1.14","v5d17mbq6zpb4pt","prime","5da79692e7d12f00165fbe54","5f60e3c0a3b16e07647b2ff9","5f61dbf4a4095c18b7181271","true","718.8200000091456","./Stimuli/SelectedImages/LN/LN101.bmp","83","","","","test","true","N + M","83","repetition","LN","LN101.bmp","forget","","63","3","prime1","left","","","",""
"html-keyboard-response","166","345993","0.0-4.0-1.0-3.14","v5d17mbq6zpb4pt","prime","5da79692e7d12f00165fbe54","5f60e3c0a3b16e07647b2ff9","5f61dbf4a4095c18b7181271","false","null","<div style=""align-items: center; display: flex; color: darkorange; font-size: 90px""><b>ø</b></div>","null","","","","forget_cue","","","","","","","","","","","","","","","",""
"html-keyboard-response","167","346694","0.0-4.0-1.0-0.15","v5d17mbq6zpb4pt","prime","5da79692e7d12f00165fbe54","5f60e3c0a3b16e07647b2ff9","5f61dbf4a4095c18b7181271","false","null","<span style=""color: black; font-size: 48px"">N + M</span>","null","","","","resp_prompt","","","","","","","","","","","","","","","",""
"categorize-image","168","347205","0.0-4.0-1.0-1.15","v5d17mbq6zpb4pt","prime","5da79692e7d12f00165fbe54","5f60e3c0a3b16e07647b2ff9","5f61dbf4a4095c18b7181271","true","508.0900000029942","./Stimuli/SelectedImages/SM/SM108.bmp","76","","","","test","true","N + M","76","repetition","SM","SM108.bmp","remember","","64","3","prime1","right","","","",""
"html-keyboard-response","169","349206","0.0-4.0-1.0-3.15","v5d17mbq6zpb4pt","prime","5da79692e7d12f00165fbe54","5f60e3c0a3b16e07647b2ff9","5f61dbf4a4095c18b7181271","false","null","<div style=""align-items: center; display: flex; color: dodgerblue; font-size: 90px""><b>o</b></div>","null","","","","forget_cue","","","","","","","","","","","","","","","",""
"html-keyboard-response","170","349907","0.0-4.0-1.0-0.16","v5d17mbq6zpb4pt","prime","5da79692e7d12f00165fbe54","5f60e3c0a3b16e07647b2ff9","5f61dbf4a4095c18b7181271","false","null","<span style=""color: black; font-size: 48px"">M + N</span>","null","","","","resp_prompt","","","","","","","","","","","","","","","",""
"categorize-image","171","350661","0.0-4.0-1.0-1.16","v5d17mbq6zpb4pt","prime","5da79692e7d12f00165fbe54","5f60e3c0a3b16e07647b2ff9","5f61dbf4a4095c18b7181271","true","751.4999999984866","./Stimuli/SelectedImages/SM/SM207.bmp","83","","","","test","true","M + N","83","repetition","SM","SM207.bmp","remember","","65","3","prime1","left","","","",""
"html-keyboard-response","172","352662","0.0-4.0-1.0-3.16","v5d17mbq6zpb4pt","prime","5da79692e7d12f00165fbe54","5f60e3c0a3b16e07647b2ff9","5f61dbf4a4095c18b7181271","false","null","<div style=""align-items: center; display: flex; color: dodgerblue; font-size: 90px""><b>o</b></div>","null","","","","forget_cue","","","","","","","","","","","","","","","",""
"html-keyboard-response","173","353363","0.0-4.0-1.0-0.17","v5d17mbq6zpb4pt","prime","5da79692e7d12f00165fbe54","5f60e3c0a3b16e07647b2ff9","5f61dbf4a4095c18b7181271","false","null","<span style=""color: black; font-size: 48px"">N + M</span>","null","","","","resp_prompt","","","","","","","","","","","","","","","",""
"categorize-image","174","353998","0.0-4.0-1.0-1.17","v5d17mbq6zpb4pt","prime","5da79692e7d12f00165fbe54","5f60e3c0a3b16e07647b2ff9","5f61dbf4a4095c18b7181271","true","631.5499999909662","./Stimuli/SelectedImages/LN/LN28.bmp","76","","","","test","false","N + M","83","repetition","LN","LN28.bmp","forget","","66","3","prime1","right","","","",""
"html-keyboard-response","175","354499","0.0-4.0-1.0-2.17-0.17","v5d17mbq6zpb4pt","prime","5da79692e7d12f00165fbe54","5f60e3c0a3b16e07647b2ff9","5f61dbf4a4095c18b7181271","false","null","<span style=""color: red; font-size: 48px"">Error!</span>","null","","","","feedback","","","","","","","","","","","","","","","",""
"html-keyboard-response","176","356501","0.0-4.0-1.0-3.17","v5d17mbq6zpb4pt","prime","5da79692e7d12f00165fbe54","5f60e3c0a3b16e07647b2ff9","5f61dbf4a4095c18b7181271","false","null","<div style=""align-items: center; display: flex; color: darkorange; font-size: 90px""><b>ø</b></div>","null","","","","forget_cue","","","","","","","","","","","","","","","",""
"html-keyboard-response","177","357202","0.0-4.0-1.0-0.18","v5d17mbq6zpb4pt","prime","5da79692e7d12f00165fbe54","5f60e3c0a3b16e07647b2ff9","5f61dbf4a4095c18b7181271","false","null","<span style=""color: black; font-size: 48px"">M + N</span>","null","","","","resp_prompt","","","","","","","","","","","","","","","",""
"categorize-image","178","357740","0.0-4.0-1.0-1.18","v5d17mbq6zpb4pt","prime","5da79692e7d12f00165fbe54","5f60e3c0a3b16e07647b2ff9","5f61dbf4a4095c18b7181271","true","535.8399999968242","./Stimuli/SelectedImages/SN/SN49.bmp","76","","","","test","true","M + N","76","repetition","SN","SN49.bmp","forget","","67","3","prime1","right","","","",""
"html-keyboard-response","179","359741","0.0-4.0-1.0-3.18","v5d17mbq6zpb4pt","prime","5da79692e7d12f00165fbe54","5f60e3c0a3b16e07647b2ff9","5f61dbf4a4095c18b7181271","false","null","<div style=""align-items: center; display: flex; color: darkorange; font-size: 90px""><b>ø</b></div>","null","","","","forget_cue","","","","","","","","","","","","","","","",""
"html-keyboard-response","180","360443","0.0-4.0-1.0-0.19","v5d17mbq6zpb4pt","prime","5da79692e7d12f00165fbe54","5f60e3c0a3b16e07647b2ff9","5f61dbf4a4095c18b7181271","false","null","<span style=""color: black; font-size: 48px"">M + N</span>","null","","","","resp_prompt","","","","","","","","","","","","","","","",""
"categorize-image","181","361117","0.0-4.0-1.0-1.19","v5d17mbq6zpb4pt","prime","5da79692e7d12f00165fbe54","5f60e3c0a3b16e07647b2ff9","5f61dbf4a4095c18b7181271","true","670.9100000007311","./Stimuli/SelectedImages/LN/LN149.bmp","76","","","","test","true","M + N","76","repetition","LN","LN149.bmp","remember","","68","3","prime1","right","","","",""
"html-keyboard-response","182","363119","0.0-4.0-1.0-3.19","v5d17mbq6zpb4pt","prime","5da79692e7d12f00165fbe54","5f60e3c0a3b16e07647b2ff9","5f61dbf4a4095c18b7181271","false","null","<div style=""align-items: center; display: flex; color: dodgerblue; font-size: 90px""><b>o</b></div>","null","","","","forget_cue","","","","","","","","","","","","","","","",""
"html-keyboard-response","183","363821","0.0-4.0-1.0-0.20","v5d17mbq6zpb4pt","prime","5da79692e7d12f00165fbe54","5f60e3c0a3b16e07647b2ff9","5f61dbf4a4095c18b7181271","false","null","<span style=""color: black; font-size: 48px"">N + M</span>","null","","","","resp_prompt","","","","","","","","","","","","","","","",""
"categorize-image","184","364765","0.0-4.0-1.0-1.20","v5d17mbq6zpb4pt","prime","5da79692e7d12f00165fbe54","5f60e3c0a3b16e07647b2ff9","5f61dbf4a4095c18b7181271","true","941.2650000012945","./Stimuli/SelectedImages/SN/SN140.bmp","83","","","","test","true","N + M","83","repetition","SN","SN140.bmp","remember","","69","3","prime1","left","","","",""
"html-keyboard-response","185","366766","0.0-4.0-1.0-3.20","v5d17mbq6zpb4pt","prime","5da79692e7d12f00165fbe54","5f60e3c0a3b16e07647b2ff9","5f61dbf4a4095c18b7181271","false","null","<div style=""align-items: center; display: flex; color: dodgerblue; font-size: 90px""><b>o</b></div>","null","","","","forget_cue","","","","","","","","","","","","","","","",""
"html-keyboard-response","186","367467","0.0-4.0-1.0-0.21","v5d17mbq6zpb4pt","prime","5da79692e7d12f00165fbe54","5f60e3c0a3b16e07647b2ff9","5f61dbf4a4095c18b7181271","false","null","<span style=""color: black; font-size: 48px"">M + N</span>","null","","","","resp_prompt","","","","","","","","","","","","","","","",""
"categorize-image","187","368325","0.0-4.0-1.0-1.21","v5d17mbq6zpb4pt","prime","5da79692e7d12f00165fbe54","5f60e3c0a3b16e07647b2ff9","5f61dbf4a4095c18b7181271","true","854.6099999948638","./Stimuli/SelectedImages/LM/LM103.bmp","83","","","","test","true","M + N","83","repetition","LM","LM103.bmp","remember","","70","3","prime1","left","","","",""
"html-keyboard-response","188","370326","0.0-4.0-1.0-3.21","v5d17mbq6zpb4pt","prime","5da79692e7d12f00165fbe54","5f60e3c0a3b16e07647b2ff9","5f61dbf4a4095c18b7181271","false","null","<div style=""align-items: center; display: flex; color: dodgerblue; font-size: 90px""><b>o</b></div>","null","","","","forget_cue","","","","","","","","","","","","","","","",""
"html-keyboard-response","189","371027","0.0-4.0-1.0-0.22","v5d17mbq6zpb4pt","prime","5da79692e7d12f00165fbe54","5f60e3c0a3b16e07647b2ff9","5f61dbf4a4095c18b7181271","false","null","<span style=""color: black; font-size: 48px"">M + N</span>","null","","","","resp_prompt","","","","","","","","","","","","","","","",""
"categorize-image","190","371588","0.0-4.0-1.0-1.22","v5d17mbq6zpb4pt","prime","5da79692e7d12f00165fbe54","5f60e3c0a3b16e07647b2ff9","5f61dbf4a4095c18b7181271","true","558.9050000126008","./Stimuli/SelectedImages/SN/SN93.bmp","76","","","","test","true","M + N","76","repetition","SN","SN93.bmp","remember","","71","3","prime1","right","","","",""
"html-keyboard-response","191","373590","0.0-4.0-1.0-3.22","v5d17mbq6zpb4pt","prime","5da79692e7d12f00165fbe54","5f60e3c0a3b16e07647b2ff9","5f61dbf4a4095c18b7181271","false","null","<div style=""align-items: center; display: flex; color: dodgerblue; font-size: 90px""><b>o</b></div>","null","","","","forget_cue","","","","","","","","","","","","","","","",""
"html-keyboard-response","192","374291","0.0-4.0-1.0-0.23","v5d17mbq6zpb4pt","prime","5da79692e7d12f00165fbe54","5f60e3c0a3b16e07647b2ff9","5f61dbf4a4095c18b7181271","false","null","<span style=""color: black; font-size: 48px"">M + N</span>","null","","","","resp_prompt","","","","","","","","","","","","","","","",""
"categorize-image","193","374869","0.0-4.0-1.0-1.23","v5d17mbq6zpb4pt","prime","5da79692e7d12f00165fbe54","5f60e3c0a3b16e07647b2ff9","5f61dbf4a4095c18b7181271","true","575.4049999959534","./Stimuli/SelectedImages/SN/SN182.bmp","76","","","","test","true","M + N","76","switch","SN","SN182.bmp","remember","","72","3","prime1","right","","","",""
"html-keyboard-response","194","376870","0.0-4.0-1.0-3.23","v5d17mbq6zpb4pt","prime","5da79692e7d12f00165fbe54","5f60e3c0a3b16e07647b2ff9","5f61dbf4a4095c18b7181271","false","null","<div style=""align-items: center; display: flex; color: dodgerblue; font-size: 90px""><b>o</b></div>","null","","","","forget_cue","","","","","","","","","","","","","","","",""
"html-keyboard-response","195","377572","0.0-4.0-1.0-0.24","v5d17mbq6zpb4pt","prime","5da79692e7d12f00165fbe54","5f60e3c0a3b16e07647b2ff9","5f61dbf4a4095c18b7181271","false","null","<span style=""color: black; font-size: 48px"">N + M</span>","null","","","","resp_prompt","","","","","","","","","","","","","","","",""
"categorize-image","196","378422","0.0-4.0-1.0-1.24","v5d17mbq6zpb4pt","prime","5da79692e7d12f00165fbe54","5f60e3c0a3b16e07647b2ff9","5f61dbf4a4095c18b7181271","true","845.9249999868916","./Stimuli/SelectedImages/SN/SN18.bmp","83","","","","test","true","N + M","83","switch","SN","SN18.bmp","forget","","73","3","prime1","left","","","",""
"html-keyboard-response","197","380424","0.0-4.0-1.0-3.24","v5d17mbq6zpb4pt","prime","5da79692e7d12f00165fbe54","5f60e3c0a3b16e07647b2ff9","5f61dbf4a4095c18b7181271","false","null","<div style=""align-items: center; display: flex; color: darkorange; font-size: 90px""><b>ø</b></div>","null","","","","forget_cue","","","","","","","","","","","","","","","",""
"html-keyboard-response","198","381127","0.0-4.0-1.0-0.25","v5d17mbq6zpb4pt","prime","5da79692e7d12f00165fbe54","5f60e3c0a3b16e07647b2ff9","5f61dbf4a4095c18b7181271","false","null","<span style=""color: black; font-size: 48px"">M + N</span>","null","","","","resp_prompt","","","","","","","","","","","","","","","",""
"categorize-image","199","381717","0.0-4.0-1.0-1.25","v5d17mbq6zpb4pt","prime","5da79692e7d12f00165fbe54","5f60e3c0a3b16e07647b2ff9","5f61dbf4a4095c18b7181271","true","587.0949999953154","./Stimuli/SelectedImages/SM/SM195.bmp","83","","","","test","true","M + N","83","repetition","SM","SM195.bmp","forget","","74","3","prime1","left","","","",""
"html-keyboard-response","200","383718","0.0-4.0-1.0-3.25","v5d17mbq6zpb4pt","prime","5da79692e7d12f00165fbe54","5f60e3c0a3b16e07647b2ff9","5f61dbf4a4095c18b7181271","false","null","<div style=""align-items: center; display: flex; color: darkorange; font-size: 90px""><b>ø</b></div>","null","","","","forget_cue","","","","","","","","","","","","","","","",""
"html-keyboard-response","201","384420","0.0-4.0-1.0-0.26","v5d17mbq6zpb4pt","prime","5da79692e7d12f00165fbe54","5f60e3c0a3b16e07647b2ff9","5f61dbf4a4095c18b7181271","false","null","<span style=""color: black; font-size: 48px"">M + N</span>","null","","","","resp_prompt","","","","","","","","","","","","","","","",""
"categorize-image","202","384965","0.0-4.0-1.0-1.26","v5d17mbq6zpb4pt","prime","5da79692e7d12f00165fbe54","5f60e3c0a3b16e07647b2ff9","5f61dbf4a4095c18b7181271","true","542.7700000000186","./Stimuli/SelectedImages/SN/SN155.bmp","76","","","","test","true","M + N","76","switch","SN","SN155.bmp","forget","","75","3","prime1","right","","","",""
"html-keyboard-response","203","386966","0.0-4.0-1.0-3.26","v5d17mbq6zpb4pt","prime","5da79692e7d12f00165fbe54","5f60e3c0a3b16e07647b2ff9","5f61dbf4a4095c18b7181271","false","null","<div style=""align-items: center; display: flex; color: darkorange; font-size: 90px""><b>ø</b></div>","null","","","","forget_cue","","","","","","","","","","","","","","","",""
"html-keyboard-response","204","387667","0.0-4.0-1.0-0.27","v5d17mbq6zpb4pt","prime","5da79692e7d12f00165fbe54","5f60e3c0a3b16e07647b2ff9","5f61dbf4a4095c18b7181271","false","null","<span style=""color: black; font-size: 48px"">M + N</span>","null","","","","resp_prompt","","","","","","","","","","","","","","","",""
"categorize-image","205","388246","0.0-4.0-1.0-1.27","v5d17mbq6zpb4pt","prime","5da79692e7d12f00165fbe54","5f60e3c0a3b16e07647b2ff9","5f61dbf4a4095c18b7181271","true","574.5699999970384","./Stimuli/SelectedImages/LN/LN111.bmp","76","","","","test","true","M + N","76","repetition","LN","LN111.bmp","remember","","76","3","prime1","right","","","",""
"html-keyboard-response","206","390248","0.0-4.0-1.0-3.27","v5d17mbq6zpb4pt","prime","5da79692e7d12f00165fbe54","5f60e3c0a3b16e07647b2ff9","5f61dbf4a4095c18b7181271","false","null","<div style=""align-items: center; display: flex; color: dodgerblue; font-size: 90px""><b>o</b></div>","null","","","","forget_cue","","","","","","","","","","","","","","","",""
"html-keyboard-response","207","390950","0.0-4.0-1.0-0.28","v5d17mbq6zpb4pt","prime","5da79692e7d12f00165fbe54","5f60e3c0a3b16e07647b2ff9","5f61dbf4a4095c18b7181271","false","null","<span style=""color: black; font-size: 48px"">M + N</span>","null","","","","resp_prompt","","","","","","","","","","","","","","","",""
"categorize-image","208","391549","0.0-4.0-1.0-1.28","v5d17mbq6zpb4pt","prime","5da79692e7d12f00165fbe54","5f60e3c0a3b16e07647b2ff9","5f61dbf4a4095c18b7181271","true","595.9250000014435","./Stimuli/SelectedImages/SM/SM17.bmp","83","","","","test","true","M + N","83","switch","SM","SM17.bmp","forget","","77","3","prime1","left","","","",""
"html-keyboard-response","209","393551","0.0-4.0-1.0-3.28","v5d17mbq6zpb4pt","prime","5da79692e7d12f00165fbe54","5f60e3c0a3b16e07647b2ff9","5f61dbf4a4095c18b7181271","false","null","<div style=""align-items: center; display: flex; color: darkorange; font-size: 90px""><b>ø</b></div>","null","","","","forget_cue","","","","","","","","","","","","","","","",""
"html-keyboard-response","210","394252","0.0-4.0-1.0-0.29","v5d17mbq6zpb4pt","prime","5da79692e7d12f00165fbe54","5f60e3c0a3b16e07647b2ff9","5f61dbf4a4095c18b7181271","false","null","<span style=""color: black; font-size: 48px"">N + M</span>","null","","","","resp_prompt","","","","","","","","","","","","","","","",""
"categorize-image","211","394989","0.0-4.0-1.0-1.29","v5d17mbq6zpb4pt","prime","5da79692e7d12f00165fbe54","5f60e3c0a3b16e07647b2ff9","5f61dbf4a4095c18b7181271","true","734.680000008666","./Stimuli/SelectedImages/SN/SN64.bmp","83","","","","test","true","N + M","83","repetition","SN","SN64.bmp","forget","","78","3","prime1","left","","","",""
"html-keyboard-response","212","396991","0.0-4.0-1.0-3.29","v5d17mbq6zpb4pt","prime","5da79692e7d12f00165fbe54","5f60e3c0a3b16e07647b2ff9","5f61dbf4a4095c18b7181271","false","null","<div style=""align-items: center; display: flex; color: darkorange; font-size: 90px""><b>ø</b></div>","null","","","","forget_cue","","","","","","","","","","","","","","","",""
"html-keyboard-response","213","397692","0.0-4.0-1.0-0.30","v5d17mbq6zpb4pt","prime","5da79692e7d12f00165fbe54","5f60e3c0a3b16e07647b2ff9","5f61dbf4a4095c18b7181271","false","null","<span style=""color: black; font-size: 48px"">N + M</span>","null","","","","resp_prompt","","","","","","","","","","","","","","","",""
"categorize-image","214","398404","0.0-4.0-1.0-1.30","v5d17mbq6zpb4pt","prime","5da79692e7d12f00165fbe54","5f60e3c0a3b16e07647b2ff9","5f61dbf4a4095c18b7181271","true","709.9049999960698","./Stimuli/SelectedImages/SM/SM205.bmp","76","","","","test","true","N + M","76","switch","SM","SM205.bmp","remember","","79","3","prime1","right","","","",""
"html-keyboard-response","215","400406","0.0-4.0-1.0-3.30","v5d17mbq6zpb4pt","prime","5da79692e7d12f00165fbe54","5f60e3c0a3b16e07647b2ff9","5f61dbf4a4095c18b7181271","false","null","<div style=""align-items: center; display: flex; color: dodgerblue; font-size: 90px""><b>o</b></div>","null","","","","forget_cue","","","","","","","","","","","","","","","",""
"html-keyboard-response","216","401107","0.0-4.0-1.0-0.31","v5d17mbq6zpb4pt","prime","5da79692e7d12f00165fbe54","5f60e3c0a3b16e07647b2ff9","5f61dbf4a4095c18b7181271","false","null","<span style=""color: black; font-size: 48px"">N + M</span>","null","","","","resp_prompt","","","","","","","","","","","","","","","",""
"categorize-image","217","401661","0.0-4.0-1.0-1.31","v5d17mbq6zpb4pt","prime","5da79692e7d12f00165fbe54","5f60e3c0a3b16e07647b2ff9","5f61dbf4a4095c18b7181271","true","550.7599999982631","./Stimuli/SelectedImages/SM/SM106.bmp","76","","","","test","true","N + M","76","repetition","SM","SM106.bmp","forget","","80","3","prime1","right","","","",""
"html-keyboard-response","218","403662","0.0-4.0-1.0-3.31","v5d17mbq6zpb4pt","prime","5da79692e7d12f00165fbe54","5f60e3c0a3b16e07647b2ff9","5f61dbf4a4095c18b7181271","false","null","<div style=""align-items: center; display: flex; color: darkorange; font-size: 90px""><b>ø</b></div>","null","","","","forget_cue","","","","","","","","","","","","","","","",""
"html-keyboard-response","219","404364","0.0-4.0-1.0-0.32","v5d17mbq6zpb4pt","prime","5da79692e7d12f00165fbe54","5f60e3c0a3b16e07647b2ff9","5f61dbf4a4095c18b7181271","false","null","<span style=""color: black; font-size: 48px"">N + M</span>","null","","","","resp_prompt","","","","","","","","","","","","","","","",""
"categorize-image","220","405118","0.0-4.0-1.0-1.32","v5d17mbq6zpb4pt","prime","5da79692e7d12f00165fbe54","5f60e3c0a3b16e07647b2ff9","5f61dbf4a4095c18b7181271","true","750.1099999935832","./Stimuli/SelectedImages/LM/LM150.bmp","76","","","","test","true","N + M","76","switch","LM","LM150.bmp","remember","","81","3","prime1","right","","","",""
"html-keyboard-response","221","407120","0.0-4.0-1.0-3.32","v5d17mbq6zpb4pt","prime","5da79692e7d12f00165fbe54","5f60e3c0a3b16e07647b2ff9","5f61dbf4a4095c18b7181271","false","null","<div style=""align-items: center; display: flex; color: dodgerblue; font-size: 90px""><b>o</b></div>","null","","","","forget_cue","","","","","","","","","","","","","","","",""
"html-keyboard-response","222","407822","0.0-4.0-1.0-0.33","v5d17mbq6zpb4pt","prime","5da79692e7d12f00165fbe54","5f60e3c0a3b16e07647b2ff9","5f61dbf4a4095c18b7181271","false","null","<span style=""color: black; font-size: 48px"">N + M</span>","null","","","","resp_prompt","","","","","","","","","","","","","","","",""
"categorize-image","223","408876","0.0-4.0-1.0-1.33","v5d17mbq6zpb4pt","prime","5da79692e7d12f00165fbe54","5f60e3c0a3b16e07647b2ff9","5f61dbf4a4095c18b7181271","true","1051.7200000031153","./Stimuli/SelectedImages/LM/LM216.bmp","76","","","","test","true","N + M","76","switch","LM","LM216.bmp","remember","","82","3","prime1","right","","","",""
"html-keyboard-response","224","410878","0.0-4.0-1.0-3.33","v5d17mbq6zpb4pt","prime","5da79692e7d12f00165fbe54","5f60e3c0a3b16e07647b2ff9","5f61dbf4a4095c18b7181271","false","null","<div style=""align-items: center; display: flex; color: dodgerblue; font-size: 90px""><b>o</b></div>","null","","","","forget_cue","","","","","","","","","","","","","","","",""
"html-keyboard-response","225","411579","0.0-4.0-1.0-0.34","v5d17mbq6zpb4pt","prime","5da79692e7d12f00165fbe54","5f60e3c0a3b16e07647b2ff9","5f61dbf4a4095c18b7181271","false","null","<span style=""color: black; font-size: 48px"">N + M</span>","null","","","","resp_prompt","","","","","","","","","","","","","","","",""
"categorize-image","226","412461","0.0-4.0-1.0-1.34","v5d17mbq6zpb4pt","prime","5da79692e7d12f00165fbe54","5f60e3c0a3b16e07647b2ff9","5f61dbf4a4095c18b7181271","true","878.1350000062957","./Stimuli/SelectedImages/SN/SN181.bmp","83","","","","test","true","N + M","83","switch","SN","SN181.bmp","forget","","83","3","prime1","left","","","",""
"html-keyboard-response","227","414463","0.0-4.0-1.0-3.34","v5d17mbq6zpb4pt","prime","5da79692e7d12f00165fbe54","5f60e3c0a3b16e07647b2ff9","5f61dbf4a4095c18b7181271","false","null","<div style=""align-items: center; display: flex; color: darkorange; font-size: 90px""><b>ø</b></div>","null","","","","forget_cue","","","","","","","","","","","","","","","",""
"html-keyboard-response","228","415165","0.0-4.0-1.0-0.35","v5d17mbq6zpb4pt","prime","5da79692e7d12f00165fbe54","5f60e3c0a3b16e07647b2ff9","5f61dbf4a4095c18b7181271","false","null","<span style=""color: black; font-size: 48px"">N + M</span>","null","","","","resp_prompt","","","","","","","","","","","","","","","",""
"categorize-image","229","415918","0.0-4.0-1.0-1.35","v5d17mbq6zpb4pt","prime","5da79692e7d12f00165fbe54","5f60e3c0a3b16e07647b2ff9","5f61dbf4a4095c18b7181271","true","749.3800000083866","./Stimuli/SelectedImages/LM/LM167.bmp","76","","","","test","true","N + M","76","switch","LM","LM167.bmp","forget","","84","3","prime1","right","","","",""
"html-keyboard-response","230","417919","0.0-4.0-1.0-3.35","v5d17mbq6zpb4pt","prime","5da79692e7d12f00165fbe54","5f60e3c0a3b16e07647b2ff9","5f61dbf4a4095c18b7181271","false","null","<div style=""align-items: center; display: flex; color: darkorange; font-size: 90px""><b>ø</b></div>","null","","","","forget_cue","","","","","","","","","","","","","","","",""
"html-keyboard-response","231","418621","0.0-4.0-1.0-0.36","v5d17mbq6zpb4pt","prime","5da79692e7d12f00165fbe54","5f60e3c0a3b16e07647b2ff9","5f61dbf4a4095c18b7181271","false","null","<span style=""color: black; font-size: 48px"">N + M</span>","null","","","","resp_prompt","","","","","","","","","","","","","","","",""
"categorize-image","232","419148","0.0-4.0-1.0-1.36","v5d17mbq6zpb4pt","prime","5da79692e7d12f00165fbe54","5f60e3c0a3b16e07647b2ff9","5f61dbf4a4095c18b7181271","true","524.9400000029709","./Stimuli/SelectedImages/LN/LN82.bmp","76","","","","test","false","N + M","83","switch","LN","LN82.bmp","forget","","85","3","prime1","right","","","",""
"html-keyboard-response","233","419649","0.0-4.0-1.0-2.36-0.36","v5d17mbq6zpb4pt","prime","5da79692e7d12f00165fbe54","5f60e3c0a3b16e07647b2ff9","5f61dbf4a4095c18b7181271","false","null","<span style=""color: red; font-size: 48px"">Error!</span>","null","","","","feedback","","","","","","","","","","","","","","","",""
"html-keyboard-response","234","421651","0.0-4.0-1.0-3.36","v5d17mbq6zpb4pt","prime","5da79692e7d12f00165fbe54","5f60e3c0a3b16e07647b2ff9","5f61dbf4a4095c18b7181271","false","null","<div style=""align-items: center; display: flex; color: darkorange; font-size: 90px""><b>ø</b></div>","null","","","","forget_cue","","","","","","","","","","","","","","","",""
"html-keyboard-response","235","422353","0.0-4.0-1.0-0.37","v5d17mbq6zpb4pt","prime","5da79692e7d12f00165fbe54","5f60e3c0a3b16e07647b2ff9","5f61dbf4a4095c18b7181271","false","null","<span style=""color: black; font-size: 48px"">N + M</span>","null","","","","resp_prompt","","","","","","","","","","","","","","","",""
"categorize-image","236","423276","0.0-4.0-1.0-1.37","v5d17mbq6zpb4pt","prime","5da79692e7d12f00165fbe54","5f60e3c0a3b16e07647b2ff9","5f61dbf4a4095c18b7181271","true","920.4000000027008","./Stimuli/SelectedImages/SM/SM128.bmp","76","","","","test","true","N + M","76","switch","SM","SM128.bmp","forget","","86","3","prime1","right","","","",""
"html-keyboard-response","237","425278","0.0-4.0-1.0-3.37","v5d17mbq6zpb4pt","prime","5da79692e7d12f00165fbe54","5f60e3c0a3b16e07647b2ff9","5f61dbf4a4095c18b7181271","false","null","<div style=""align-items: center; display: flex; color: darkorange; font-size: 90px""><b>ø</b></div>","null","","","","forget_cue","","","","","","","","","","","","","","","",""
"html-keyboard-response","238","425979","0.0-4.0-1.0-0.38","v5d17mbq6zpb4pt","prime","5da79692e7d12f00165fbe54","5f60e3c0a3b16e07647b2ff9","5f61dbf4a4095c18b7181271","false","null","<span style=""color: black; font-size: 48px"">N + M</span>","null","","","","resp_prompt","","","","","","","","","","","","","","","",""
"categorize-image","239","426717","0.0-4.0-1.0-1.38","v5d17mbq6zpb4pt","prime","5da79692e7d12f00165fbe54","5f60e3c0a3b16e07647b2ff9","5f61dbf4a4095c18b7181271","true","735.3299999958836","./Stimuli/SelectedImages/SM/SM148.bmp","76","","","","test","true","N + M","76","switch","SM","SM148.bmp","forget","","87","3","prime1","right","","","",""
"html-keyboard-response","240","428718","0.0-4.0-1.0-3.38","v5d17mbq6zpb4pt","prime","5da79692e7d12f00165fbe54","5f60e3c0a3b16e07647b2ff9","5f61dbf4a4095c18b7181271","false","null","<div style=""align-items: center; display: flex; color: darkorange; font-size: 90px""><b>ø</b></div>","null","","","","forget_cue","","","","","","","","","","","","","","","",""
"html-keyboard-response","241","429420","0.0-4.0-1.0-0.39","v5d17mbq6zpb4pt","prime","5da79692e7d12f00165fbe54","5f60e3c0a3b16e07647b2ff9","5f61dbf4a4095c18b7181271","false","null","<span style=""color: black; font-size: 48px"">M + N</span>","null","","","","resp_prompt","","","","","","","","","","","","","","","",""
"categorize-image","242","430068","0.0-4.0-1.0-1.39","v5d17mbq6zpb4pt","prime","5da79692e7d12f00165fbe54","5f60e3c0a3b16e07647b2ff9","5f61dbf4a4095c18b7181271","true","645.6599999946775","./Stimuli/SelectedImages/LN/LN166.bmp","76","","","","test","true","M + N","76","repetition","LN","LN166.bmp","forget","","88","3","prime1","right","","","",""
"html-keyboard-response","243","432069","0.0-4.0-1.0-3.39","v5d17mbq6zpb4pt","prime","5da79692e7d12f00165fbe54","5f60e3c0a3b16e07647b2ff9","5f61dbf4a4095c18b7181271","false","null","<div style=""align-items: center; display: flex; color: darkorange; font-size: 90px""><b>ø</b></div>","null","","","","forget_cue","","","","","","","","","","","","","","","",""
"html-keyboard-response","244","432771","0.0-4.0-1.0-0.40","v5d17mbq6zpb4pt","prime","5da79692e7d12f00165fbe54","5f60e3c0a3b16e07647b2ff9","5f61dbf4a4095c18b7181271","false","null","<span style=""color: black; font-size: 48px"">M + N</span>","null","","","","resp_prompt","","","","","","","","","","","","","","","",""
"categorize-image","245","433253","0.0-4.0-1.0-1.40","v5d17mbq6zpb4pt","prime","5da79692e7d12f00165fbe54","5f60e3c0a3b16e07647b2ff9","5f61dbf4a4095c18b7181271","true","478.5049999918556","./Stimuli/SelectedImages/SN/SN27.bmp","76","","","","test","true","M + N","76","repetition","SN","SN27.bmp","remember","","89","3","prime1","right","","","",""
"html-keyboard-response","246","435255","0.0-4.0-1.0-3.40","v5d17mbq6zpb4pt","prime","5da79692e7d12f00165fbe54","5f60e3c0a3b16e07647b2ff9","5f61dbf4a4095c18b7181271","false","null","<div style=""align-items: center; display: flex; color: dodgerblue; font-size: 90px""><b>o</b></div>","null","","","","forget_cue","","","","","","","","","","","","","","","",""
"html-keyboard-response","247","435956","0.0-4.0-1.0-0.41","v5d17mbq6zpb4pt","prime","5da79692e7d12f00165fbe54","5f60e3c0a3b16e07647b2ff9","5f61dbf4a4095c18b7181271","false","null","<span style=""color: black; font-size: 48px"">M + N</span>","null","","","","resp_prompt","","","","","","","","","","","","","","","",""
"categorize-image","248","437085","0.0-4.0-1.0-1.41","v5d17mbq6zpb4pt","prime","5da79692e7d12f00165fbe54","5f60e3c0a3b16e07647b2ff9","5f61dbf4a4095c18b7181271","true","1126.2500000011642","./Stimuli/SelectedImages/LM/LM59.bmp","83","","","","test","true","M + N","83","switch","LM","LM59.bmp","remember","","90","3","prime1","left","","","",""
"html-keyboard-response","249","439086","0.0-4.0-1.0-3.41","v5d17mbq6zpb4pt","prime","5da79692e7d12f00165fbe54","5f60e3c0a3b16e07647b2ff9","5f61dbf4a4095c18b7181271","false","null","<div style=""align-items: center; display: flex; color: dodgerblue; font-size: 90px""><b>o</b></div>","null","","","","forget_cue","","","","","","","","","","","","","","","",""
"html-keyboard-response","250","439788","0.0-4.0-1.0-0.42","v5d17mbq6zpb4pt","prime","5da79692e7d12f00165fbe54","5f60e3c0a3b16e07647b2ff9","5f61dbf4a4095c18b7181271","false","null","<span style=""color: black; font-size: 48px"">M + N</span>","null","","","","resp_prompt","","","","","","","","","","","","","","","",""
"categorize-image","251","440268","0.0-4.0-1.0-1.42","v5d17mbq6zpb4pt","prime","5da79692e7d12f00165fbe54","5f60e3c0a3b16e07647b2ff9","5f61dbf4a4095c18b7181271","true","477.5599999993574","./Stimuli/SelectedImages/LM/LM157.bmp","83","","","","test","true","M + N","83","switch","LM","LM157.bmp","forget","","91","3","prime1","left","","","",""
"html-keyboard-response","252","442270","0.0-4.0-1.0-3.42","v5d17mbq6zpb4pt","prime","5da79692e7d12f00165fbe54","5f60e3c0a3b16e07647b2ff9","5f61dbf4a4095c18b7181271","false","null","<div style=""align-items: center; display: flex; color: darkorange; font-size: 90px""><b>ø</b></div>","null","","","","forget_cue","","","","","","","","","","","","","","","",""
