"trial_type","trial_index","time_elapsed","internal_node_id","subject","exp_part","prolific_PID","study_ID","session_ID","use","rt","stimulus","key_press","button_pressed","responses","question_order","trial_part","correct","resp_map","correct_resp","probe_condition","category","image","forget_condition","list","trial_num","block_num","block","response","test_part","n_span","sequence","num_spaces"
"pavlovia","0","4","0.0-0.0","x5oj1fyoa5x9q9g","","5ecc2a43543cc180222321d3","5f60e3c0a3b16e07647b2ff9","5f60ef3695b5a70161ebdf6b","false","","","","","","","","","","","","","","","","","","","","","","",""
"html-keyboard-response","1","13019","0.0-1.0-0.0-0.0","x5oj1fyoa5x9q9g","welcome","5ecc2a43543cc180222321d3","5f60e3c0a3b16e07647b2ff9","5f60ef3695b5a70161ebdf6b","false","13012.094999998226","<div align=left>Dear participant, <br> thank you for participating in an online study of the Cognition, Action, and Sustainability Unit of the University of Freiburg! <br> <br>The aim of this study is to examine our ability to remember previously learned information. <br>Our goal is to find out, whether our memory improves, when we only remember information that is relevant to us. <br>The experiment will take about 35 minutes to complete. <br> <br>Please, note that you can only participate in this study if you are using a device with a keyboard (PC, Laptop etc.) <br>and not if you are using a mobile device such as a tablet or smartphone.<br> <br>Press 'SPACE' to proceed to the experiment. </div>","32","","","","","","","","","","","","","","","","","","","",""
"html-keyboard-response","2","99114","0.0-1.0-0.0-1.0","x5oj1fyoa5x9q9g","welcome","5ecc2a43543cc180222321d3","5f60e3c0a3b16e07647b2ff9","5f60ef3695b5a70161ebdf6b","false","86092.09499999997","<div align=left><strong> Time Course of this experiment: </strong> <br><br> <strong> 1.</strong>  First, please fill in some information regarding your demographic data. <br><br> <strong> 2.</strong>  Next, your task will be to classify everyday objects. <br>In addition, you will be asked to remember certain objects and recall them later. <br>Working on these tasks requires your undivided attention and concentration.<br>It is therefore essential that you eliminate any sources of distraction in your  <br>environment and ensure that you will not be disturbed. <br><br><strong> 3.</strong>  At the end of the experiment, you will be asked to answer a few additional questions. <br> <br><strong> Important:</strong> After finishing the experiment, only close the browser window <br> by clicking on the 'end the experiment'-button when you are asked to do so. <br>Closing the browser window prematurely will make the allocation of your participation credit impossible. <br><br> Press 'SPACE' to start the experiment. </div>","32","","","","","","","","","","","","","","","","","","","",""
"html-button-response","3","118221","0.0-1.0-0.0-2.0","x5oj1fyoa5x9q9g","welcome","5ecc2a43543cc180222321d3","5f60e3c0a3b16e07647b2ff9","5f60ef3695b5a70161ebdf6b","true","19103.190000001632","<div align=left><strong> Informed consent </strong>  <br>The aim of our research is to better understand human behavior and mental processes. <br>In the following study your behavior (e.g. choices, reaction times) will be studied. <br> <br><strong> Voluntariness and Anonymity </strong> <br>Your participation in this study is  <strong> voluntary</strong>.<br>You may withdraw your consent to participate at any time without providing a reason for doing so and without fear of prejudice. <br><br>As no personal data will be collected, <strong>your data and your person cannot be connected after data collection</strong> – the data-set is anonymous. <br>Respectively, deletion of your data will not be possible after data collection has been completed, as we cannot retrace your data-set.<br>The results and anonymized data collected in this study will be published as a scientific publication. <br>This will happen in an <strong>anonymized format</strong>, so that no data can be traced back to a specific person. <br> <br>The anonymized data of this study will be made available to other researchers and/or in a data archive on the Internet as a means of transparency and to enable subsequent re-use. By doing so, this study follows the recommendations of the Deutsche Forschungsgemeinschaft (DFG, German Research Foundation) and Deutsche Gesellschaft für Psychologie (DGPS, German Psychological Society) regarding quality assurance in research.<br>If you have any questions now or after the experiment, please contact our team (experiments@cs.uni-freiburg.de).<br><br><br>I hereby declare, that I understand the above described conditions of participation and I agree to participate under these conditions. <br><br> </div>","","0","","","","","","","","","","","","","","","","","","",""
"html-keyboard-response","4","188723","0.0-1.0-0.0-3.0","x5oj1fyoa5x9q9g","welcome","5ecc2a43543cc180222321d3","5f60e3c0a3b16e07647b2ff9","5f60ef3695b5a70161ebdf6b","false","70499.96000000101","<div align=left><strong> General information concerning the experiment </strong>  <br> <br>Please follow the instructions:<ol> <li><strong> Do not leave this tab (your browser window) during the experiment and do not reload this tab! </strong>  <br>If you do switch tabs/windows during the experiment (to check your mail or visit another website, for example), <br>the experiment will end automatically and you will <strong>not receive credit</strong> for your participation. <br>Repeated participation or resumption of the experiment is impossible.</li> <br><li>Please close all other programs for the duration of your participation. </li> <br><li>Please mute or turn off your phone and put it out of your reach. </li> <br><li>Please also take off any disturbing accessories (such as wristwatches, bracelets, etc.). </li> <br><li>If you have music playing in the background, please turn it off now. </li> <br></ol>Thank you! <br>Press 'SPACE' to continue. </div>","32","","","","","","","","","","","","","","","","","","","",""
"survey-text","5","191676","0.0-1.0-1.0-0.0","x5oj1fyoa5x9q9g","demographics","5ecc2a43543cc180222321d3","5f60e3c0a3b16e07647b2ff9","5f60ef3695b5a70161ebdf6b","true","2941.5049999988696","","","","{""age"":""25""}","","","","","","","","","","","","","","","","","",""
"survey-multi-choice","6","228500","0.0-1.0-1.0-1.0","x5oj1fyoa5x9q9g","demographics","5ecc2a43543cc180222321d3","5f60e3c0a3b16e07647b2ff9","5f60ef3695b5a70161ebdf6b","true","36821.4799999987","","","","{""gender"":""female"",""school"":""high school"",""education"":""Completed university degree or equivalent""}","[0,1,2]","","","","","","","","","","","","","","","","",""
"html-keyboard-response","7","240611","0.0-1.0-2.0","x5oj1fyoa5x9q9g","instructions","5ecc2a43543cc180222321d3","5f60e3c0a3b16e07647b2ff9","5f60ef3695b5a70161ebdf6b","false","12105.905000000348","<div align=left> The experiment is now about to start: <br> <br>In the following part, you will be presented pictures of everyday objects. <br>Your first task is to <strong>classify these objects. </strong> <br> <br> You will classify them either as mechanical or non-mechanical objects. <br> <br>Objects that include any kind of technical mechanism (for example, wheels, switches, levers, <br> electronic components) fall under the category of <strong>mechanical</strong> objects. <br>Only objects without any kind of technical mechanism should be classified as <strong>non-mechanical</strong>. <br><br>Press 'SPACE' to continue. </div>","32","","","","","","","","","","","","","","","","","","","",""
"html-keyboard-response","8","289868","0.0-2.0-0.0","x5oj1fyoa5x9q9g","instructions","5ecc2a43543cc180222321d3","5f60e3c0a3b16e07647b2ff9","5f60ef3695b5a70161ebdf6b","false","49253.16499999823","<div align=justify>You will classify the objects using the <strong>'S'</strong> and the <strong>'L'</strong> keys on your keyboard.<br>For doing so, please place your <strong>left index finger</strong> on the <strong>'S'</strong> key and place your <strong>right index finger</strong> on the <strong>'L'</strong> key. <br><br> Each trial starts with an instruction, indicating which key ('S'/'L') you need to press to classify <br>the object as mechanical (letter M) or non-mechanical (letter N).<br>The instruction <strong>M + N</strong> indicates that, in the current trial, by pressing the left key ('S') you classify the displayed object as mechanical (M) <br> and by pressing the right key ('L') you classify the object as non-mechanical (N). <br>The instruction <strong>N + M</strong> on the other hand indicates that by pressing the left key ('S') you classify the displayed object as non-mechanical (N) <br> and by pressing the right key ('L') you classify the object as mechanical (M). <br><br>Please press the key corresponding to the correct classification as fast as possible as soon as the object is displayed and try to avoid making mistakes.<br>If you do not respond within a 2 second window, a corresponding feedback will be displayed and the next trial will start.<br> The experiment is divided into multiple blocks to give you the opportunity to take a break after each block. <br>First, you can now practice this task. <br><br>Please place your <strong>LEFT INDEX FINGER</strong> on the 'S' key and your <strong>RIGHT INDEX FINGER</strong> on the 'L' key now. <br><br>Press SPACE to continue.</div>","32","","","","","","","","","","","","","","","","","","","",""
"html-keyboard-response","9","300203","0.0-2.0-1.0","x5oj1fyoa5x9q9g","instructions","5ecc2a43543cc180222321d3","5f60e3c0a3b16e07647b2ff9","5f60ef3695b5a70161ebdf6b","false","10332.88000000175","<div align=left> You will now have time to practice this task.<br><br>Remember: <br> <br><li>Please place your index fingers on the <strong>'S'</strong> and <strong>'L'</strong> keys <br>to respond as fast and accurately as possible.</li><li>Every picture can be classified as either mechanical or non-mechanical.</li><li>If you do not respond in time or commit an error, you will receive a corresponding feedback. </li><li> Please try to respond as <strong> fast </strong> and as <strong> accurately as possible </strong> .<br><li>To ensure optimal results, please minimize distractions and stay focused. </li><br><br>Press SPACE to continue.</div>","32","","","","","","","","","","","","","","","","","","","",""
"html-keyboard-response","10","300908","0.0-2.0-2.0-0.0","x5oj1fyoa5x9q9g","practice_no_cue","5ecc2a43543cc180222321d3","5f60e3c0a3b16e07647b2ff9","5f60ef3695b5a70161ebdf6b","false","null","<span style=""color: black; font-size: 48px"">N + M</span>","null","","","","resp_prompt","","","","","","","","","","","","","","","",""
"categorize-image","11","301912","0.0-2.0-2.0-1.0","x5oj1fyoa5x9q9g","practice_no_cue","5ecc2a43543cc180222321d3","5f60e3c0a3b16e07647b2ff9","5f60ef3695b5a70161ebdf6b","true","498.82000000064727","./Stimuli/ImagesPractice/SM37.jpg","83","","","","test","false","N + M","76","","SM","SM37.jpg","remember","old","1","1","start","left","","","",""
"html-keyboard-response","12","302615","0.0-2.0-2.0-0.1","x5oj1fyoa5x9q9g","practice_no_cue","5ecc2a43543cc180222321d3","5f60e3c0a3b16e07647b2ff9","5f60ef3695b5a70161ebdf6b","false","null","<span style=""color: black; font-size: 48px"">M + N</span>","null","","","","resp_prompt","","","","","","","","","","","","","","","",""
"categorize-image","13","303839","0.0-2.0-2.0-1.1","x5oj1fyoa5x9q9g","practice_no_cue","5ecc2a43543cc180222321d3","5f60e3c0a3b16e07647b2ff9","5f60ef3695b5a70161ebdf6b","true","720.4400000009919","./Stimuli/ImagesPractice/SM62.jpg","76","","","","test","false","M + N","83","","SM","SM62.jpg","remember","old","2","1","start","right","","","",""
"html-keyboard-response","14","304541","0.0-2.0-2.0-0.2","x5oj1fyoa5x9q9g","practice_no_cue","5ecc2a43543cc180222321d3","5f60e3c0a3b16e07647b2ff9","5f60ef3695b5a70161ebdf6b","false","null","<span style=""color: black; font-size: 48px"">M + N</span>","null","","","","resp_prompt","","","","","","","","","","","","","","","",""
"categorize-image","15","305527","0.0-2.0-2.0-1.2","x5oj1fyoa5x9q9g","practice_no_cue","5ecc2a43543cc180222321d3","5f60e3c0a3b16e07647b2ff9","5f60ef3695b5a70161ebdf6b","true","483.02999999944586","./Stimuli/ImagesPractice/LM55.jpg","76","","","","test","false","M + N","83","","LM","LM55.jpg","remember","old","3","1","start","right","","","",""
"html-keyboard-response","16","306229","0.0-2.0-2.0-0.3","x5oj1fyoa5x9q9g","practice_no_cue","5ecc2a43543cc180222321d3","5f60e3c0a3b16e07647b2ff9","5f60ef3695b5a70161ebdf6b","false","null","<span style=""color: black; font-size: 48px"">M + N</span>","null","","","","resp_prompt","","","","","","","","","","","","","","","",""
"categorize-image","17","307088","0.0-2.0-2.0-1.3","x5oj1fyoa5x9q9g","practice_no_cue","5ecc2a43543cc180222321d3","5f60e3c0a3b16e07647b2ff9","5f60ef3695b5a70161ebdf6b","true","354.5899999990361","./Stimuli/ImagesPractice/LN72.jpg","76","","","","test","true","M + N","76","","LN","LN72.jpg","remember","old","4","1","start","right","","","",""
"html-keyboard-response","18","307793","0.0-2.0-2.0-0.4","x5oj1fyoa5x9q9g","practice_no_cue","5ecc2a43543cc180222321d3","5f60e3c0a3b16e07647b2ff9","5f60ef3695b5a70161ebdf6b","false","null","<span style=""color: black; font-size: 48px"">M + N</span>","null","","","","resp_prompt","","","","","","","","","","","","","","","",""
"categorize-image","19","308375","0.0-2.0-2.0-1.4","x5oj1fyoa5x9q9g","practice_no_cue","5ecc2a43543cc180222321d3","5f60e3c0a3b16e07647b2ff9","5f60ef3695b5a70161ebdf6b","true","79.1800000006333","./Stimuli/ImagesPractice/SN220.jpg","83","","","","test","false","M + N","76","","SN","SN220.jpg","forget","old","5","1","start","left","","","",""
"html-keyboard-response","20","309077","0.0-2.0-2.0-0.5","x5oj1fyoa5x9q9g","practice_no_cue","5ecc2a43543cc180222321d3","5f60e3c0a3b16e07647b2ff9","5f60ef3695b5a70161ebdf6b","false","null","<span style=""color: black; font-size: 48px"">N + M</span>","null","","","","resp_prompt","","","","","","","","","","","","","","","",""
"categorize-image","21","309879","0.0-2.0-2.0-1.5","x5oj1fyoa5x9q9g","practice_no_cue","5ecc2a43543cc180222321d3","5f60e3c0a3b16e07647b2ff9","5f60ef3695b5a70161ebdf6b","true","298.66500000213273","./Stimuli/ImagesPractice/SN205.jpg","83","","","","test","true","N + M","83","","SN","SN205.jpg","forget","old","6","1","start","left","","","",""
"html-keyboard-response","22","310581","0.0-2.0-2.0-0.6","x5oj1fyoa5x9q9g","practice_no_cue","5ecc2a43543cc180222321d3","5f60e3c0a3b16e07647b2ff9","5f60ef3695b5a70161ebdf6b","false","null","<span style=""color: black; font-size: 48px"">M + N</span>","null","","","","resp_prompt","","","","","","","","","","","","","","","",""
"categorize-image","23","311680","0.0-2.0-2.0-1.6","x5oj1fyoa5x9q9g","practice_no_cue","5ecc2a43543cc180222321d3","5f60e3c0a3b16e07647b2ff9","5f60ef3695b5a70161ebdf6b","true","594.9700000019511","./Stimuli/ImagesPractice/SM98.jpg","83","","","","test","true","M + N","83","","SM","SM98.jpg","forget","old","7","1","start","left","","","",""
"html-keyboard-response","24","312382","0.0-2.0-2.0-0.7","x5oj1fyoa5x9q9g","practice_no_cue","5ecc2a43543cc180222321d3","5f60e3c0a3b16e07647b2ff9","5f60ef3695b5a70161ebdf6b","false","null","<span style=""color: black; font-size: 48px"">N + M</span>","null","","","","resp_prompt","","","","","","","","","","","","","","","",""
"categorize-image","25","313064","0.0-2.0-2.0-1.7","x5oj1fyoa5x9q9g","practice_no_cue","5ecc2a43543cc180222321d3","5f60e3c0a3b16e07647b2ff9","5f60ef3695b5a70161ebdf6b","true","178.13500000198837","./Stimuli/ImagesPractice/LN4.jpg","83","","","","test","true","N + M","83","","LN","LN4.jpg","forget","old","8","1","start","left","","","",""
"html-keyboard-response","26","313766","0.0-2.0-2.0-0.8","x5oj1fyoa5x9q9g","practice_no_cue","5ecc2a43543cc180222321d3","5f60e3c0a3b16e07647b2ff9","5f60ef3695b5a70161ebdf6b","false","null","<span style=""color: black; font-size: 48px"">N + M</span>","null","","","","resp_prompt","","","","","","","","","","","","","","","",""
"categorize-image","27","314351","0.0-2.0-2.0-1.8","x5oj1fyoa5x9q9g","practice_no_cue","5ecc2a43543cc180222321d3","5f60e3c0a3b16e07647b2ff9","5f60ef3695b5a70161ebdf6b","true","81.62000000081025","./Stimuli/ImagesPractice/LM230.jpg","76","","","","test","true","N + M","76","","LM","LM230.jpg","remember","old","9","1","start","right","","","",""
"html-keyboard-response","28","315053","0.0-2.0-2.0-0.9","x5oj1fyoa5x9q9g","practice_no_cue","5ecc2a43543cc180222321d3","5f60e3c0a3b16e07647b2ff9","5f60ef3695b5a70161ebdf6b","false","null","<span style=""color: black; font-size: 48px"">N + M</span>","null","","","","resp_prompt","","","","","","","","","","","","","","","",""
"categorize-image","29","315975","0.0-2.0-2.0-1.9","x5oj1fyoa5x9q9g","practice_no_cue","5ecc2a43543cc180222321d3","5f60e3c0a3b16e07647b2ff9","5f60ef3695b5a70161ebdf6b","true","418.73499999928754","./Stimuli/ImagesPractice/SN221.jpg","83","","","","test","true","N + M","83","","SN","SN221.jpg","remember","old","10","1","start","left","","","",""
"html-keyboard-response","30","316676","0.0-2.0-2.0-0.10","x5oj1fyoa5x9q9g","practice_no_cue","5ecc2a43543cc180222321d3","5f60e3c0a3b16e07647b2ff9","5f60ef3695b5a70161ebdf6b","false","null","<span style=""color: black; font-size: 48px"">M + N</span>","null","","","","resp_prompt","","","","","","","","","","","","","","","",""
"categorize-image","31","317751","0.0-2.0-2.0-1.10","x5oj1fyoa5x9q9g","practice_no_cue","5ecc2a43543cc180222321d3","5f60e3c0a3b16e07647b2ff9","5f60ef3695b5a70161ebdf6b","true","571.5949999976438","./Stimuli/ImagesPractice/LM143.jpg","76","","","","test","false","M + N","83","","LM","LM143.jpg","remember","old","11","1","start","right","","","",""
"html-keyboard-response","32","318454","0.0-2.0-2.0-0.11","x5oj1fyoa5x9q9g","practice_no_cue","5ecc2a43543cc180222321d3","5f60e3c0a3b16e07647b2ff9","5f60ef3695b5a70161ebdf6b","false","null","<span style=""color: black; font-size: 48px"">N + M</span>","null","","","","resp_prompt","","","","","","","","","","","","","","","",""
"categorize-image","33","319447","0.0-2.0-2.0-1.11","x5oj1fyoa5x9q9g","practice_no_cue","5ecc2a43543cc180222321d3","5f60e3c0a3b16e07647b2ff9","5f60ef3695b5a70161ebdf6b","true","489.90000000048894","./Stimuli/ImagesPractice/LM147.jpg","83","","","","test","false","N + M","76","","LM","LM147.jpg","forget","old","12","1","start","left","","","",""
"html-keyboard-response","34","320149","0.0-2.0-2.0-0.12","x5oj1fyoa5x9q9g","practice_no_cue","5ecc2a43543cc180222321d3","5f60e3c0a3b16e07647b2ff9","5f60ef3695b5a70161ebdf6b","false","null","<span style=""color: black; font-size: 48px"">M + N</span>","null","","","","resp_prompt","","","","","","","","","","","","","","","",""
"categorize-image","35","320751","0.0-2.0-2.0-1.12","x5oj1fyoa5x9q9g","practice_no_cue","5ecc2a43543cc180222321d3","5f60e3c0a3b16e07647b2ff9","5f60ef3695b5a70161ebdf6b","true","98.92499999841675","./Stimuli/ImagesPractice/SM35.jpg","76","","","","test","false","M + N","83","","SM","SM35.jpg","forget","old","13","1","start","right","","","",""
"html-keyboard-response","36","321453","0.0-2.0-2.0-0.13","x5oj1fyoa5x9q9g","practice_no_cue","5ecc2a43543cc180222321d3","5f60e3c0a3b16e07647b2ff9","5f60ef3695b5a70161ebdf6b","false","null","<span style=""color: black; font-size: 48px"">M + N</span>","null","","","","resp_prompt","","","","","","","","","","","","","","","",""
"categorize-image","37","322463","0.0-2.0-2.0-1.13","x5oj1fyoa5x9q9g","practice_no_cue","5ecc2a43543cc180222321d3","5f60e3c0a3b16e07647b2ff9","5f60ef3695b5a70161ebdf6b","true","507.2199999995064","./Stimuli/ImagesPractice/LN109.jpg","83","","","","test","false","M + N","76","","LN","LN109.jpg","forget","old","14","1","start","left","","","",""
"html-keyboard-response","38","323165","0.0-2.0-2.0-0.14","x5oj1fyoa5x9q9g","practice_no_cue","5ecc2a43543cc180222321d3","5f60e3c0a3b16e07647b2ff9","5f60ef3695b5a70161ebdf6b","false","null","<span style=""color: black; font-size: 48px"">N + M</span>","null","","","","resp_prompt","","","","","","","","","","","","","","","",""
"categorize-image","39","323896","0.0-2.0-2.0-1.14","x5oj1fyoa5x9q9g","practice_no_cue","5ecc2a43543cc180222321d3","5f60e3c0a3b16e07647b2ff9","5f60ef3695b5a70161ebdf6b","true","226.46499999973457","./Stimuli/ImagesPractice/SN75.jpg","83","","","","test","true","N + M","83","","SN","SN75.jpg","remember","old","15","1","start","left","","","",""
"html-keyboard-response","40","324598","0.0-2.0-2.0-0.15","x5oj1fyoa5x9q9g","practice_no_cue","5ecc2a43543cc180222321d3","5f60e3c0a3b16e07647b2ff9","5f60ef3695b5a70161ebdf6b","false","null","<span style=""color: black; font-size: 48px"">N + M</span>","null","","","","resp_prompt","","","","","","","","","","","","","","","",""
"categorize-image","41","325503","0.0-2.0-2.0-1.15","x5oj1fyoa5x9q9g","practice_no_cue","5ecc2a43543cc180222321d3","5f60e3c0a3b16e07647b2ff9","5f60ef3695b5a70161ebdf6b","true","401.70500000024913","./Stimuli/ImagesPractice/SN76.jpg","76","","","","test","false","N + M","83","","SN","SN76.jpg","forget","old","16","1","start","right","","","",""
"html-keyboard-response","42","336883","0.0-2.0-3.0","x5oj1fyoa5x9q9g","break","5ecc2a43543cc180222321d3","5f60e3c0a3b16e07647b2ff9","5f60ef3695b5a70161ebdf6b","false","11376.179999999295","<p style='font-size: 32px;'>Break</><br><br><br><br><br><p style='font-size: 24px;'>In the last block, you committed 9 errors and did not respond in time on 0 trials.
</p><p style='font-size: 24px;'>Try to respond as fast and accurately as possible in the next block as well! </p><p style='font-size: 24px;'>Press SPACE to continue.</p>","32","","","","","","","","","","","","","","","","","","","",""
"html-keyboard-response","43","342130","0.0-2.0-4.0","x5oj1fyoa5x9q9g","instructions","5ecc2a43543cc180222321d3","5f60e3c0a3b16e07647b2ff9","5f60ef3695b5a70161ebdf6b","false","5244.839999999385","<div align=left> Great!<br><br>Are you ready to continue?<br><br>If you want to reread the instructions and redo the practice trials, <br>please press „Z“. <br><br>Press SPACE to CONTINUE with the experiment when you are ready. </div>","90","","","","","","","","","","","","","","","","","","","",""
"html-keyboard-response","44","365995","0.0-2.1-0.1","x5oj1fyoa5x9q9g","instructions","5ecc2a43543cc180222321d3","5f60e3c0a3b16e07647b2ff9","5f60ef3695b5a70161ebdf6b","false","23861.90500000154","<div align=justify>You will classify the objects using the <strong>'S'</strong> and the <strong>'L'</strong> keys on your keyboard.<br>For doing so, please place your <strong>left index finger</strong> on the <strong>'S'</strong> key and place your <strong>right index finger</strong> on the <strong>'L'</strong> key. <br><br> Each trial starts with an instruction, indicating which key ('S'/'L') you need to press to classify <br>the object as mechanical (letter M) or non-mechanical (letter N).<br>The instruction <strong>M + N</strong> indicates that, in the current trial, by pressing the left key ('S') you classify the displayed object as mechanical (M) <br> and by pressing the right key ('L') you classify the object as non-mechanical (N). <br>The instruction <strong>N + M</strong> on the other hand indicates that by pressing the left key ('S') you classify the displayed object as non-mechanical (N) <br> and by pressing the right key ('L') you classify the object as mechanical (M). <br><br>Please press the key corresponding to the correct classification as fast as possible as soon as the object is displayed and try to avoid making mistakes.<br>If you do not respond within a 2 second window, a corresponding feedback will be displayed and the next trial will start.<br> The experiment is divided into multiple blocks to give you the opportunity to take a break after each block. <br>First, you can now practice this task. <br><br>Please place your <strong>LEFT INDEX FINGER</strong> on the 'S' key and your <strong>RIGHT INDEX FINGER</strong> on the 'L' key now. <br><br>Press SPACE to continue.</div>","32","","","","","","","","","","","","","","","","","","","",""
"html-keyboard-response","45","367474","0.0-2.1-1.1","x5oj1fyoa5x9q9g","instructions","5ecc2a43543cc180222321d3","5f60e3c0a3b16e07647b2ff9","5f60ef3695b5a70161ebdf6b","false","1476.635000002745","<div align=left> You will now have time to practice this task.<br><br>Remember: <br> <br><li>Please place your index fingers on the <strong>'S'</strong> and <strong>'L'</strong> keys <br>to respond as fast and accurately as possible.</li><li>Every picture can be classified as either mechanical or non-mechanical.</li><li>If you do not respond in time or commit an error, you will receive a corresponding feedback. </li><li> Please try to respond as <strong> fast </strong> and as <strong> accurately as possible </strong> .<br><li>To ensure optimal results, please minimize distractions and stay focused. </li><br><br>Press SPACE to continue.</div>","32","","","","","","","","","","","","","","","","","","","",""
"html-keyboard-response","46","368176","0.0-2.1-2.1-0.16","x5oj1fyoa5x9q9g","practice_no_cue","5ecc2a43543cc180222321d3","5f60e3c0a3b16e07647b2ff9","5f60ef3695b5a70161ebdf6b","false","null","<span style=""color: black; font-size: 48px"">M + N</span>","null","","","","resp_prompt","","","","","","","","","","","","","","","",""
"categorize-image","47","368694","0.0-2.1-2.1-1.16","x5oj1fyoa5x9q9g","practice_no_cue","5ecc2a43543cc180222321d3","5f60e3c0a3b16e07647b2ff9","5f60ef3695b5a70161ebdf6b","true","14.865000001038425","./Stimuli/ImagesPractice/LM55.jpg","83","","","","test","true","M + N","83","","LM","LM55.jpg","remember","old","17","2","practice_forget","left","","","",""
"html-keyboard-response","48","369397","0.0-2.1-2.1-0.17","x5oj1fyoa5x9q9g","practice_no_cue","5ecc2a43543cc180222321d3","5f60e3c0a3b16e07647b2ff9","5f60ef3695b5a70161ebdf6b","false","null","<span style=""color: black; font-size: 48px"">N + M</span>","null","","","","resp_prompt","","","","","","","","","","","","","","","",""
"categorize-image","49","370238","0.0-2.1-2.1-1.17","x5oj1fyoa5x9q9g","practice_no_cue","5ecc2a43543cc180222321d3","5f60e3c0a3b16e07647b2ff9","5f60ef3695b5a70161ebdf6b","true","338.0800000013551","./Stimuli/ImagesPractice/SN75.jpg","83","","","","test","true","N + M","83","","SN","SN75.jpg","remember","old","18","2","practice_forget","left","","","",""
"html-keyboard-response","50","370940","0.0-2.1-2.1-0.18","x5oj1fyoa5x9q9g","practice_no_cue","5ecc2a43543cc180222321d3","5f60e3c0a3b16e07647b2ff9","5f60ef3695b5a70161ebdf6b","false","null","<span style=""color: black; font-size: 48px"">N + M</span>","null","","","","resp_prompt","","","","","","","","","","","","","","","",""
"categorize-image","51","371687","0.0-2.1-2.1-1.18","x5oj1fyoa5x9q9g","practice_no_cue","5ecc2a43543cc180222321d3","5f60e3c0a3b16e07647b2ff9","5f60ef3695b5a70161ebdf6b","true","243.09500000166008","./Stimuli/ImagesPractice/LN4.jpg","83","","","","test","true","N + M","83","","LN","LN4.jpg","forget","old","19","2","practice_forget","left","","","",""
"html-keyboard-response","52","372389","0.0-2.1-2.1-0.19","x5oj1fyoa5x9q9g","practice_no_cue","5ecc2a43543cc180222321d3","5f60e3c0a3b16e07647b2ff9","5f60ef3695b5a70161ebdf6b","false","null","<span style=""color: black; font-size: 48px"">M + N</span>","null","","","","resp_prompt","","","","","","","","","","","","","","","",""
"categorize-image","53","373231","0.0-2.1-2.1-1.19","x5oj1fyoa5x9q9g","practice_no_cue","5ecc2a43543cc180222321d3","5f60e3c0a3b16e07647b2ff9","5f60ef3695b5a70161ebdf6b","true","337.2349999990547","./Stimuli/ImagesPractice/SM35.jpg","76","","","","test","false","M + N","83","","SM","SM35.jpg","forget","old","20","2","practice_forget","right","","","",""
"html-keyboard-response","54","373932","0.0-2.1-2.1-0.20","x5oj1fyoa5x9q9g","practice_no_cue","5ecc2a43543cc180222321d3","5f60e3c0a3b16e07647b2ff9","5f60ef3695b5a70161ebdf6b","false","null","<span style=""color: black; font-size: 48px"">N + M</span>","null","","","","resp_prompt","","","","","","","","","","","","","","","",""
"categorize-image","55","375023","0.0-2.1-2.1-1.20","x5oj1fyoa5x9q9g","practice_no_cue","5ecc2a43543cc180222321d3","5f60e3c0a3b16e07647b2ff9","5f60ef3695b5a70161ebdf6b","true","586.8499999996857","./Stimuli/ImagesPractice/SM37.jpg","76","","","","test","true","N + M","76","","SM","SM37.jpg","remember","old","21","2","practice_forget","right","","","",""
"html-keyboard-response","56","375725","0.0-2.1-2.1-0.21","x5oj1fyoa5x9q9g","practice_no_cue","5ecc2a43543cc180222321d3","5f60e3c0a3b16e07647b2ff9","5f60ef3695b5a70161ebdf6b","false","null","<span style=""color: black; font-size: 48px"">N + M</span>","null","","","","resp_prompt","","","","","","","","","","","","","","","",""
"categorize-image","57","376607","0.0-2.1-2.1-1.21","x5oj1fyoa5x9q9g","practice_no_cue","5ecc2a43543cc180222321d3","5f60e3c0a3b16e07647b2ff9","5f60ef3695b5a70161ebdf6b","true","379.0850000004866","./Stimuli/ImagesPractice/SN205.jpg","83","","","","test","true","N + M","83","","SN","SN205.jpg","forget","old","22","2","practice_forget","left","","","",""
"html-keyboard-response","58","377309","0.0-2.1-2.1-0.22","x5oj1fyoa5x9q9g","practice_no_cue","5ecc2a43543cc180222321d3","5f60e3c0a3b16e07647b2ff9","5f60ef3695b5a70161ebdf6b","false","null","<span style=""color: black; font-size: 48px"">M + N</span>","null","","","","resp_prompt","","","","","","","","","","","","","","","",""
"categorize-image","59","378278","0.0-2.1-2.1-1.22","x5oj1fyoa5x9q9g","practice_no_cue","5ecc2a43543cc180222321d3","5f60e3c0a3b16e07647b2ff9","5f60ef3695b5a70161ebdf6b","true","466.3399999990361","./Stimuli/ImagesPractice/SN220.jpg","76","","","","test","true","M + N","76","","SN","SN220.jpg","forget","old","23","2","practice_forget","right","","","",""
"html-keyboard-response","60","378980","0.0-2.1-2.1-0.23","x5oj1fyoa5x9q9g","practice_no_cue","5ecc2a43543cc180222321d3","5f60e3c0a3b16e07647b2ff9","5f60ef3695b5a70161ebdf6b","false","null","<span style=""color: black; font-size: 48px"">M + N</span>","null","","","","resp_prompt","","","","","","","","","","","","","","","",""
"categorize-image","61","379782","0.0-2.1-2.1-1.23","x5oj1fyoa5x9q9g","practice_no_cue","5ecc2a43543cc180222321d3","5f60e3c0a3b16e07647b2ff9","5f60ef3695b5a70161ebdf6b","true","298.6300000011106","./Stimuli/ImagesPractice/LN72.jpg","83","","","","test","false","M + N","76","","LN","LN72.jpg","remember","old","24","2","practice_forget","left","","","",""
"html-keyboard-response","62","380485","0.0-2.1-2.1-0.24","x5oj1fyoa5x9q9g","practice_no_cue","5ecc2a43543cc180222321d3","5f60e3c0a3b16e07647b2ff9","5f60ef3695b5a70161ebdf6b","false","null","<span style=""color: black; font-size: 48px"">M + N</span>","null","","","","resp_prompt","","","","","","","","","","","","","","","",""
"categorize-image","63","381254","0.0-2.1-2.1-1.24","x5oj1fyoa5x9q9g","practice_no_cue","5ecc2a43543cc180222321d3","5f60e3c0a3b16e07647b2ff9","5f60ef3695b5a70161ebdf6b","true","266.2899999995716","./Stimuli/ImagesPractice/SM62.jpg","83","","","","test","true","M + N","83","","SM","SM62.jpg","remember","old","25","2","practice_forget","left","","","",""
"html-keyboard-response","64","381958","0.0-2.1-2.1-0.25","x5oj1fyoa5x9q9g","practice_no_cue","5ecc2a43543cc180222321d3","5f60e3c0a3b16e07647b2ff9","5f60ef3695b5a70161ebdf6b","false","null","<span style=""color: black; font-size: 48px"">N + M</span>","null","","","","resp_prompt","","","","","","","","","","","","","","","",""
"categorize-image","65","382958","0.0-2.1-2.1-1.25","x5oj1fyoa5x9q9g","practice_no_cue","5ecc2a43543cc180222321d3","5f60e3c0a3b16e07647b2ff9","5f60ef3695b5a70161ebdf6b","true","497.55000000004657","./Stimuli/ImagesPractice/SN221.jpg","83","","","","test","true","N + M","83","","SN","SN221.jpg","remember","old","26","2","practice_forget","left","","","",""
"html-keyboard-response","66","383660","0.0-2.1-2.1-0.26","x5oj1fyoa5x9q9g","practice_no_cue","5ecc2a43543cc180222321d3","5f60e3c0a3b16e07647b2ff9","5f60ef3695b5a70161ebdf6b","false","null","<span style=""color: black; font-size: 48px"">M + N</span>","null","","","","resp_prompt","","","","","","","","","","","","","","","",""
"categorize-image","67","384206","0.0-2.1-2.1-1.26","x5oj1fyoa5x9q9g","practice_no_cue","5ecc2a43543cc180222321d3","5f60e3c0a3b16e07647b2ff9","5f60ef3695b5a70161ebdf6b","true","43.05500000191387","./Stimuli/ImagesPractice/LM143.jpg","83","","","","test","true","M + N","83","","LM","LM143.jpg","remember","old","27","2","practice_forget","left","","","",""
"html-keyboard-response","68","384909","0.0-2.1-2.1-0.27","x5oj1fyoa5x9q9g","practice_no_cue","5ecc2a43543cc180222321d3","5f60e3c0a3b16e07647b2ff9","5f60ef3695b5a70161ebdf6b","false","null","<span style=""color: black; font-size: 48px"">M + N</span>","null","","","","resp_prompt","","","","","","","","","","","","","","","",""
"categorize-image","69","385815","0.0-2.1-2.1-1.27","x5oj1fyoa5x9q9g","practice_no_cue","5ecc2a43543cc180222321d3","5f60e3c0a3b16e07647b2ff9","5f60ef3695b5a70161ebdf6b","true","401.6300000003539","./Stimuli/ImagesPractice/LN109.jpg","83","","","","test","false","M + N","76","","LN","LN109.jpg","forget","old","28","2","practice_forget","left","","","",""
"html-keyboard-response","70","386517","0.0-2.1-2.1-0.28","x5oj1fyoa5x9q9g","practice_no_cue","5ecc2a43543cc180222321d3","5f60e3c0a3b16e07647b2ff9","5f60ef3695b5a70161ebdf6b","false","null","<span style=""color: black; font-size: 48px"">M + N</span>","null","","","","resp_prompt","","","","","","","","","","","","","","","",""
"categorize-image","71","387223","0.0-2.1-2.1-1.28","x5oj1fyoa5x9q9g","practice_no_cue","5ecc2a43543cc180222321d3","5f60e3c0a3b16e07647b2ff9","5f60ef3695b5a70161ebdf6b","true","202.38500000047497","./Stimuli/ImagesPractice/SM98.jpg","83","","","","test","true","M + N","83","","SM","SM98.jpg","forget","old","29","2","practice_forget","left","","","",""
"html-keyboard-response","72","387924","0.0-2.1-2.1-0.29","x5oj1fyoa5x9q9g","practice_no_cue","5ecc2a43543cc180222321d3","5f60e3c0a3b16e07647b2ff9","5f60ef3695b5a70161ebdf6b","false","null","<span style=""color: black; font-size: 48px"">N + M</span>","null","","","","resp_prompt","","","","","","","","","","","","","","","",""
"categorize-image","73","388790","0.0-2.1-2.1-1.29","x5oj1fyoa5x9q9g","practice_no_cue","5ecc2a43543cc180222321d3","5f60e3c0a3b16e07647b2ff9","5f60ef3695b5a70161ebdf6b","true","362.69499999977415","./Stimuli/ImagesPractice/LM230.jpg","76","","","","test","true","N + M","76","","LM","LM230.jpg","remember","old","30","2","practice_forget","right","","","",""
"html-keyboard-response","74","389493","0.0-2.1-2.1-0.30","x5oj1fyoa5x9q9g","practice_no_cue","5ecc2a43543cc180222321d3","5f60e3c0a3b16e07647b2ff9","5f60ef3695b5a70161ebdf6b","false","null","<span style=""color: black; font-size: 48px"">N + M</span>","null","","","","resp_prompt","","","","","","","","","","","","","","","",""
"categorize-image","75","390790","0.0-2.1-2.1-1.30","x5oj1fyoa5x9q9g","practice_no_cue","5ecc2a43543cc180222321d3","5f60e3c0a3b16e07647b2ff9","5f60ef3695b5a70161ebdf6b","true","793.7349999992875","./Stimuli/ImagesPractice/SN76.jpg","83","","","","test","true","N + M","83","","SN","SN76.jpg","forget","old","31","2","practice_forget","left","","","",""
"html-keyboard-response","76","391493","0.0-2.1-2.1-0.31","x5oj1fyoa5x9q9g","practice_no_cue","5ecc2a43543cc180222321d3","5f60e3c0a3b16e07647b2ff9","5f60ef3695b5a70161ebdf6b","false","null","<span style=""color: black; font-size: 48px"">N + M</span>","null","","","","resp_prompt","","","","","","","","","","","","","","","",""
"categorize-image","77","392238","0.0-2.1-2.1-1.31","x5oj1fyoa5x9q9g","practice_no_cue","5ecc2a43543cc180222321d3","5f60e3c0a3b16e07647b2ff9","5f60ef3695b5a70161ebdf6b","true","241.87499999965075","./Stimuli/ImagesPractice/LM147.jpg","76","","","","test","true","N + M","76","","LM","LM147.jpg","forget","old","32","2","practice_forget","right","","","",""
"html-keyboard-response","78","394082","0.0-2.1-3.1","x5oj1fyoa5x9q9g","break","5ecc2a43543cc180222321d3","5f60e3c0a3b16e07647b2ff9","5f60ef3695b5a70161ebdf6b","false","1836.9349999993574","<p style='font-size: 32px;'>Break</><br><br><br><br><br><p style='font-size: 24px;'>In the last block, you committed 3 errors and did not respond in time on 0 trials.
</p><p style='font-size: 24px;'>Try to respond as fast and accurately as possible in the next block as well! </p><p style='font-size: 24px;'>Press SPACE to continue.</p>","32","","","","","","","","","","","","","","","","","","","",""
"html-keyboard-response","79","395097","0.0-2.1-4.1","x5oj1fyoa5x9q9g","instructions","5ecc2a43543cc180222321d3","5f60e3c0a3b16e07647b2ff9","5f60ef3695b5a70161ebdf6b","false","1013.9449999987846","<div align=left> Great!<br><br>Are you ready to continue?<br><br>If you want to reread the instructions and redo the practice trials, <br>please press „Z“. <br><br>Press SPACE to CONTINUE with the experiment when you are ready. </div>","32","","","","","","","","","","","","","","","","","","","",""
"html-keyboard-response","80","422163","0.0-3.0-0.0","x5oj1fyoa5x9q9g","instructions","5ecc2a43543cc180222321d3","5f60e3c0a3b16e07647b2ff9","5f60ef3695b5a70161ebdf6b","false","27063.930000000226","<div align=left>Great!<br> <strong>Attention</strong>! You will now receive a second, additional task! <br><br>To this point it was you <strong>first task</strong> to correctly <strong>classify objects</strong>. <br><br>As mentioned in the beginning, we aim to examine how well humans can remember previously learned information.<br>We would like to find out whether our memory improves if we only remember information that is relevant to us. <br><br>Therefore, your <strong>second task</strong> will be to <strong>remember</strong> the pictures you are to categorize. <br> After the learning phase, there will be a memory test phase, in which you will be asked to indicate whether you have seen a picture before or not. <br>Some, but not all pictures shown in the learning phase will appear in the memory test phase.<br>After classifying a picture, you will be told whether you should remember it for the memory test phase or not. <br>Thus, some pictures can be forgotten, whereas others have to be remembered. <br><br>Note: From now on, feedback will only be displayed if you responded incorrectly or not in time.<br><br>Press SPACE to continue.</div>","32","","","","","","","","","","","","","","","","","","","",""
"html-keyboard-response","81","440826","0.0-3.0-1.0","x5oj1fyoa5x9q9g","instructions","5ecc2a43543cc180222321d3","5f60e3c0a3b16e07647b2ff9","5f60ef3695b5a70161ebdf6b","false","18660.830000000715","<div align=left>In the following part, you will thus have to remember only some pictures. <br>Immediately after seeing and classifying the picture, a symbol will be displayed, indicating whether you should remember or forget the previous picture. <br><br>A <span style='color: dodgerblue; font-size: 28px'>O</span> indicates REMEMBER. That means, you have to remember this picture, because it will be tested later. <br><br>A <span style='color: darkorange; font-size:28px'>Ø</span> indicates FORGET. You do not have to remember this picture. <br><br> As you will have to remember a lot of pictures, it will be hard for you to remember all of them. <br>It will put you at an advantage if you instantly forget the pictures you are not asked to remember. <br> This will make it easier for you to remember the pictures that will be tested afterwards. <br><br>Press SPACE to continue.</div>","32","","","","","","","","","","","","","","","","","","","",""
"html-keyboard-response","82","445033","0.0-3.0-2.0","x5oj1fyoa5x9q9g","instructions","5ecc2a43543cc180222321d3","5f60e3c0a3b16e07647b2ff9","5f60ef3695b5a70161ebdf6b","false","4204.7050000000745","<div align=left> Now you have the chance to practice both tasks together.<br><br>Remember: <br> <br><li>Please place your index fingers on the <strong>'S'</strong> and <strong>'L'</strong> keys <br>to respond as fast and accurately as possible.</li><li>Every picture can be classified as either mechanical or non-mechanical.</li><li>If you do not respond in time or commit an error, you will receive a corresponding feedback. <br>Please try to respond as <strong> fast </strong> and as <strong> accurately as possible </strong>.</li><li> Please remember only the to-be-remembered <span style='color: dodgerblue; font-size: 28px'>O</span> pictures. <br></li><li> Please minimize distractions and stay focused. </li><br><br>Press SPACE to START</div>","32","","","","","","","","","","","","","","","","","","","",""
"html-keyboard-response","83","445736","0.0-3.0-3.0-0.0","x5oj1fyoa5x9q9g","practice_cue","5ecc2a43543cc180222321d3","5f60e3c0a3b16e07647b2ff9","5f60ef3695b5a70161ebdf6b","false","null","<span style=""color: black; font-size: 48px"">N + M</span>","null","","","","resp_prompt","","","","","","","","","","","","","","","",""
"categorize-image","84","446108","0.0-3.0-3.0-1.0","x5oj1fyoa5x9q9g","practice_cue","5ecc2a43543cc180222321d3","5f60e3c0a3b16e07647b2ff9","5f60ef3695b5a70161ebdf6b","true","365.2800000018324","./Stimuli/ImagesPractice/SN75.jpg","76","","","","test","false","N + M","83","","SN","SN75.jpg","remember","old","33","3","practice_forget","right","","","",""
"html-keyboard-response","85","446612","0.0-3.0-3.0-2.0-0.0","x5oj1fyoa5x9q9g","practice_cue","5ecc2a43543cc180222321d3","5f60e3c0a3b16e07647b2ff9","5f60ef3695b5a70161ebdf6b","false","null","<span style=""color: red; font-size: 48px"">Error!</span>","null","","","","feedback","","","","","","","","","","","","","","","",""
"html-keyboard-response","86","448614","0.0-3.0-3.0-3.0","x5oj1fyoa5x9q9g","practice_cue","5ecc2a43543cc180222321d3","5f60e3c0a3b16e07647b2ff9","5f60ef3695b5a70161ebdf6b","false","null","<div style=""align-items: center; display: flex; color: dodgerblue; font-size: 90px""><b>o</b></div>","null","","","","forget_cue","","","","","","","","","","","","","","","",""
"html-keyboard-response","87","449318","0.0-3.0-3.0-0.1","x5oj1fyoa5x9q9g","practice_cue","5ecc2a43543cc180222321d3","5f60e3c0a3b16e07647b2ff9","5f60ef3695b5a70161ebdf6b","false","null","<span style=""color: black; font-size: 48px"">M + N</span>","null","","","","resp_prompt","","","","","","","","","","","","","","","",""
"categorize-image","88","449708","0.0-3.0-3.0-1.1","x5oj1fyoa5x9q9g","practice_cue","5ecc2a43543cc180222321d3","5f60e3c0a3b16e07647b2ff9","5f60ef3695b5a70161ebdf6b","true","384.1199999988312","./Stimuli/ImagesPractice/LM143.jpg","83","","","","test","true","M + N","83","","LM","LM143.jpg","remember","old","34","3","practice_forget","left","","","",""
"html-keyboard-response","89","451711","0.0-3.0-3.0-3.1","x5oj1fyoa5x9q9g","practice_cue","5ecc2a43543cc180222321d3","5f60e3c0a3b16e07647b2ff9","5f60ef3695b5a70161ebdf6b","false","null","<div style=""align-items: center; display: flex; color: dodgerblue; font-size: 90px""><b>o</b></div>","null","","","","forget_cue","","","","","","","","","","","","","","","",""
"html-keyboard-response","90","452413","0.0-3.0-3.0-0.2","x5oj1fyoa5x9q9g","practice_cue","5ecc2a43543cc180222321d3","5f60e3c0a3b16e07647b2ff9","5f60ef3695b5a70161ebdf6b","false","null","<span style=""color: black; font-size: 48px"">N + M</span>","null","","","","resp_prompt","","","","","","","","","","","","","","","",""
"categorize-image","91","453627","0.0-3.0-3.0-1.2","x5oj1fyoa5x9q9g","practice_cue","5ecc2a43543cc180222321d3","5f60e3c0a3b16e07647b2ff9","5f60ef3695b5a70161ebdf6b","true","1209.2249999986961","./Stimuli/ImagesPractice/LM230.jpg","76","","","","test","true","N + M","76","","LM","LM230.jpg","remember","old","35","3","practice_forget","right","","","",""
"html-keyboard-response","92","455631","0.0-3.0-3.0-3.2","x5oj1fyoa5x9q9g","practice_cue","5ecc2a43543cc180222321d3","5f60e3c0a3b16e07647b2ff9","5f60ef3695b5a70161ebdf6b","false","null","<div style=""align-items: center; display: flex; color: dodgerblue; font-size: 90px""><b>o</b></div>","null","","","","forget_cue","","","","","","","","","","","","","","","",""
"html-keyboard-response","93","456334","0.0-3.0-3.0-0.3","x5oj1fyoa5x9q9g","practice_cue","5ecc2a43543cc180222321d3","5f60e3c0a3b16e07647b2ff9","5f60ef3695b5a70161ebdf6b","false","null","<span style=""color: black; font-size: 48px"">M + N</span>","null","","","","resp_prompt","","","","","","","","","","","","","","","",""
"categorize-image","94","456619","0.0-3.0-3.0-1.3","x5oj1fyoa5x9q9g","practice_cue","5ecc2a43543cc180222321d3","5f60e3c0a3b16e07647b2ff9","5f60ef3695b5a70161ebdf6b","true","279.82499999774154","./Stimuli/ImagesPractice/SM62.jpg","83","","","","test","true","M + N","83","","SM","SM62.jpg","remember","old","36","3","practice_forget","left","","","",""
"html-keyboard-response","95","458621","0.0-3.0-3.0-3.3","x5oj1fyoa5x9q9g","practice_cue","5ecc2a43543cc180222321d3","5f60e3c0a3b16e07647b2ff9","5f60ef3695b5a70161ebdf6b","false","null","<div style=""align-items: center; display: flex; color: dodgerblue; font-size: 90px""><b>o</b></div>","null","","","","forget_cue","","","","","","","","","","","","","","","",""
"html-keyboard-response","96","459323","0.0-3.0-3.0-0.4","x5oj1fyoa5x9q9g","practice_cue","5ecc2a43543cc180222321d3","5f60e3c0a3b16e07647b2ff9","5f60ef3695b5a70161ebdf6b","false","null","<span style=""color: black; font-size: 48px"">N + M</span>","null","","","","resp_prompt","","","","","","","","","","","","","","","",""
"categorize-image","97","459523","0.0-3.0-3.0-1.4","x5oj1fyoa5x9q9g","practice_cue","5ecc2a43543cc180222321d3","5f60e3c0a3b16e07647b2ff9","5f60ef3695b5a70161ebdf6b","true","194.68000000051688","./Stimuli/ImagesPractice/SN221.jpg","83","","","","test","true","N + M","83","","SN","SN221.jpg","remember","old","37","3","practice_forget","left","","","",""
"html-keyboard-response","98","461526","0.0-3.0-3.0-3.4","x5oj1fyoa5x9q9g","practice_cue","5ecc2a43543cc180222321d3","5f60e3c0a3b16e07647b2ff9","5f60ef3695b5a70161ebdf6b","false","null","<div style=""align-items: center; display: flex; color: dodgerblue; font-size: 90px""><b>o</b></div>","null","","","","forget_cue","","","","","","","","","","","","","","","",""
"html-keyboard-response","99","462228","0.0-3.0-3.0-0.5","x5oj1fyoa5x9q9g","practice_cue","5ecc2a43543cc180222321d3","5f60e3c0a3b16e07647b2ff9","5f60ef3695b5a70161ebdf6b","false","null","<span style=""color: black; font-size: 48px"">N + M</span>","null","","","","resp_prompt","","","","","","","","","","","","","","","",""
"categorize-image","100","463108","0.0-3.0-3.0-1.5","x5oj1fyoa5x9q9g","practice_cue","5ecc2a43543cc180222321d3","5f60e3c0a3b16e07647b2ff9","5f60ef3695b5a70161ebdf6b","true","875.4399999997695","./Stimuli/ImagesPractice/SN76.jpg","76","","","","test","false","N + M","83","","SN","SN76.jpg","forget","old","38","3","practice_forget","right","","","",""
"html-keyboard-response","101","463610","0.0-3.0-3.0-2.5-0.5","x5oj1fyoa5x9q9g","practice_cue","5ecc2a43543cc180222321d3","5f60e3c0a3b16e07647b2ff9","5f60ef3695b5a70161ebdf6b","false","null","<span style=""color: red; font-size: 48px"">Error!</span>","null","","","","feedback","","","","","","","","","","","","","","","",""
"html-keyboard-response","102","465613","0.0-3.0-3.0-3.5","x5oj1fyoa5x9q9g","practice_cue","5ecc2a43543cc180222321d3","5f60e3c0a3b16e07647b2ff9","5f60ef3695b5a70161ebdf6b","false","null","<div style=""align-items: center; display: flex; color: darkorange; font-size: 90px""><b>ø</b></div>","null","","","","forget_cue","","","","","","","","","","","","","","","",""
"html-keyboard-response","103","466314","0.0-3.0-3.0-0.6","x5oj1fyoa5x9q9g","practice_cue","5ecc2a43543cc180222321d3","5f60e3c0a3b16e07647b2ff9","5f60ef3695b5a70161ebdf6b","false","null","<span style=""color: black; font-size: 48px"">N + M</span>","null","","","","resp_prompt","","","","","","","","","","","","","","","",""
"categorize-image","104","466803","0.0-3.0-3.0-1.6","x5oj1fyoa5x9q9g","practice_cue","5ecc2a43543cc180222321d3","5f60e3c0a3b16e07647b2ff9","5f60ef3695b5a70161ebdf6b","true","483.520000001532","./Stimuli/ImagesPractice/LN4.jpg","83","","","","test","true","N + M","83","","LN","LN4.jpg","forget","old","39","3","practice_forget","left","","","",""
"html-keyboard-response","105","468806","0.0-3.0-3.0-3.6","x5oj1fyoa5x9q9g","practice_cue","5ecc2a43543cc180222321d3","5f60e3c0a3b16e07647b2ff9","5f60ef3695b5a70161ebdf6b","false","null","<div style=""align-items: center; display: flex; color: darkorange; font-size: 90px""><b>ø</b></div>","null","","","","forget_cue","","","","","","","","","","","","","","","",""
"html-keyboard-response","106","469507","0.0-3.0-3.0-0.7","x5oj1fyoa5x9q9g","practice_cue","5ecc2a43543cc180222321d3","5f60e3c0a3b16e07647b2ff9","5f60ef3695b5a70161ebdf6b","false","null","<span style=""color: black; font-size: 48px"">N + M</span>","null","","","","resp_prompt","","","","","","","","","","","","","","","",""
"categorize-image","107","470147","0.0-3.0-3.0-1.7","x5oj1fyoa5x9q9g","practice_cue","5ecc2a43543cc180222321d3","5f60e3c0a3b16e07647b2ff9","5f60ef3695b5a70161ebdf6b","true","634.2000000004191","./Stimuli/ImagesPractice/SN205.jpg","83","","","","test","true","N + M","83","","SN","SN205.jpg","forget","old","40","3","practice_forget","left","","","",""
"html-keyboard-response","108","472150","0.0-3.0-3.0-3.7","x5oj1fyoa5x9q9g","practice_cue","5ecc2a43543cc180222321d3","5f60e3c0a3b16e07647b2ff9","5f60ef3695b5a70161ebdf6b","false","null","<div style=""align-items: center; display: flex; color: darkorange; font-size: 90px""><b>ø</b></div>","null","","","","forget_cue","","","","","","","","","","","","","","","",""
"html-keyboard-response","109","472852","0.0-3.0-3.0-0.8","x5oj1fyoa5x9q9g","practice_cue","5ecc2a43543cc180222321d3","5f60e3c0a3b16e07647b2ff9","5f60ef3695b5a70161ebdf6b","false","null","<span style=""color: black; font-size: 48px"">M + N</span>","null","","","","resp_prompt","","","","","","","","","","","","","","","",""
"categorize-image","110","473409","0.0-3.0-3.0-1.8","x5oj1fyoa5x9q9g","practice_cue","5ecc2a43543cc180222321d3","5f60e3c0a3b16e07647b2ff9","5f60ef3695b5a70161ebdf6b","true","553.6099999989965","./Stimuli/ImagesPractice/SM98.jpg","83","","","","test","true","M + N","83","","SM","SM98.jpg","forget","old","41","3","practice_forget","left","","","",""
"html-keyboard-response","111","475412","0.0-3.0-3.0-3.8","x5oj1fyoa5x9q9g","practice_cue","5ecc2a43543cc180222321d3","5f60e3c0a3b16e07647b2ff9","5f60ef3695b5a70161ebdf6b","false","null","<div style=""align-items: center; display: flex; color: darkorange; font-size: 90px""><b>ø</b></div>","null","","","","forget_cue","","","","","","","","","","","","","","","",""
"html-keyboard-response","112","476113","0.0-3.0-3.0-0.9","x5oj1fyoa5x9q9g","practice_cue","5ecc2a43543cc180222321d3","5f60e3c0a3b16e07647b2ff9","5f60ef3695b5a70161ebdf6b","false","null","<span style=""color: black; font-size: 48px"">N + M</span>","null","","","","resp_prompt","","","","","","","","","","","","","","","",""
"categorize-image","113","476435","0.0-3.0-3.0-1.9","x5oj1fyoa5x9q9g","practice_cue","5ecc2a43543cc180222321d3","5f60e3c0a3b16e07647b2ff9","5f60ef3695b5a70161ebdf6b","true","317.0200000022305","./Stimuli/ImagesPractice/SM37.jpg","76","","","","test","true","N + M","76","","SM","SM37.jpg","remember","old","42","3","practice_forget","right","","","",""
"html-keyboard-response","114","478438","0.0-3.0-3.0-3.9","x5oj1fyoa5x9q9g","practice_cue","5ecc2a43543cc180222321d3","5f60e3c0a3b16e07647b2ff9","5f60ef3695b5a70161ebdf6b","false","null","<div style=""align-items: center; display: flex; color: dodgerblue; font-size: 90px""><b>o</b></div>","null","","","","forget_cue","","","","","","","","","","","","","","","",""
"html-keyboard-response","115","479140","0.0-3.0-3.0-0.10","x5oj1fyoa5x9q9g","practice_cue","5ecc2a43543cc180222321d3","5f60e3c0a3b16e07647b2ff9","5f60ef3695b5a70161ebdf6b","false","null","<span style=""color: black; font-size: 48px"">M + N</span>","null","","","","resp_prompt","","","","","","","","","","","","","","","",""
"categorize-image","116","479507","0.0-3.0-3.0-1.10","x5oj1fyoa5x9q9g","practice_cue","5ecc2a43543cc180222321d3","5f60e3c0a3b16e07647b2ff9","5f60ef3695b5a70161ebdf6b","true","361.9650000000256","./Stimuli/ImagesPractice/SM35.jpg","83","","","","test","true","M + N","83","","SM","SM35.jpg","forget","old","43","3","practice_forget","left","","","",""
"html-keyboard-response","117","481509","0.0-3.0-3.0-3.10","x5oj1fyoa5x9q9g","practice_cue","5ecc2a43543cc180222321d3","5f60e3c0a3b16e07647b2ff9","5f60ef3695b5a70161ebdf6b","false","null","<div style=""align-items: center; display: flex; color: darkorange; font-size: 90px""><b>ø</b></div>","null","","","","forget_cue","","","","","","","","","","","","","","","",""
"html-keyboard-response","118","482211","0.0-3.0-3.0-0.11","x5oj1fyoa5x9q9g","practice_cue","5ecc2a43543cc180222321d3","5f60e3c0a3b16e07647b2ff9","5f60ef3695b5a70161ebdf6b","false","null","<span style=""color: black; font-size: 48px"">M + N</span>","null","","","","resp_prompt","","","","","","","","","","","","","","","",""
"categorize-image","119","482827","0.0-3.0-3.0-1.11","x5oj1fyoa5x9q9g","practice_cue","5ecc2a43543cc180222321d3","5f60e3c0a3b16e07647b2ff9","5f60ef3695b5a70161ebdf6b","true","611.2699999976321","./Stimuli/ImagesPractice/SN220.jpg","76","","","","test","true","M + N","76","","SN","SN220.jpg","forget","old","44","3","practice_forget","right","","","",""
"html-keyboard-response","120","484830","0.0-3.0-3.0-3.11","x5oj1fyoa5x9q9g","practice_cue","5ecc2a43543cc180222321d3","5f60e3c0a3b16e07647b2ff9","5f60ef3695b5a70161ebdf6b","false","null","<div style=""align-items: center; display: flex; color: darkorange; font-size: 90px""><b>ø</b></div>","null","","","","forget_cue","","","","","","","","","","","","","","","",""
"html-keyboard-response","121","485532","0.0-3.0-3.0-0.12","x5oj1fyoa5x9q9g","practice_cue","5ecc2a43543cc180222321d3","5f60e3c0a3b16e07647b2ff9","5f60ef3695b5a70161ebdf6b","false","null","<span style=""color: black; font-size: 48px"">M + N</span>","null","","","","resp_prompt","","","","","","","","","","","","","","","",""
"categorize-image","122","486244","0.0-3.0-3.0-1.12","x5oj1fyoa5x9q9g","practice_cue","5ecc2a43543cc180222321d3","5f60e3c0a3b16e07647b2ff9","5f60ef3695b5a70161ebdf6b","true","705.5450000007404","./Stimuli/ImagesPractice/LN72.jpg","83","","","","test","false","M + N","76","","LN","LN72.jpg","remember","old","45","3","practice_forget","left","","","",""
"html-keyboard-response","123","486746","0.0-3.0-3.0-2.12-0.12","x5oj1fyoa5x9q9g","practice_cue","5ecc2a43543cc180222321d3","5f60e3c0a3b16e07647b2ff9","5f60ef3695b5a70161ebdf6b","false","null","<span style=""color: red; font-size: 48px"">Error!</span>","null","","","","feedback","","","","","","","","","","","","","","","",""
"html-keyboard-response","124","488749","0.0-3.0-3.0-3.12","x5oj1fyoa5x9q9g","practice_cue","5ecc2a43543cc180222321d3","5f60e3c0a3b16e07647b2ff9","5f60ef3695b5a70161ebdf6b","false","null","<div style=""align-items: center; display: flex; color: dodgerblue; font-size: 90px""><b>o</b></div>","null","","","","forget_cue","","","","","","","","","","","","","","","",""
"html-keyboard-response","125","489451","0.0-3.0-3.0-0.13","x5oj1fyoa5x9q9g","practice_cue","5ecc2a43543cc180222321d3","5f60e3c0a3b16e07647b2ff9","5f60ef3695b5a70161ebdf6b","false","null","<span style=""color: black; font-size: 48px"">M + N</span>","null","","","","resp_prompt","","","","","","","","","","","","","","","",""
"categorize-image","126","490059","0.0-3.0-3.0-1.13","x5oj1fyoa5x9q9g","practice_cue","5ecc2a43543cc180222321d3","5f60e3c0a3b16e07647b2ff9","5f60ef3695b5a70161ebdf6b","true","601.9949999972596","./Stimuli/ImagesPractice/LM55.jpg","83","","","","test","true","M + N","83","","LM","LM55.jpg","remember","old","46","3","practice_forget","left","","","",""
"html-keyboard-response","127","492061","0.0-3.0-3.0-3.13","x5oj1fyoa5x9q9g","practice_cue","5ecc2a43543cc180222321d3","5f60e3c0a3b16e07647b2ff9","5f60ef3695b5a70161ebdf6b","false","null","<div style=""align-items: center; display: flex; color: dodgerblue; font-size: 90px""><b>o</b></div>","null","","","","forget_cue","","","","","","","","","","","","","","","",""
"html-keyboard-response","128","492763","0.0-3.0-3.0-0.14","x5oj1fyoa5x9q9g","practice_cue","5ecc2a43543cc180222321d3","5f60e3c0a3b16e07647b2ff9","5f60ef3695b5a70161ebdf6b","false","null","<span style=""color: black; font-size: 48px"">M + N</span>","null","","","","resp_prompt","","","","","","","","","","","","","","","",""
"categorize-image","129","493331","0.0-3.0-3.0-1.14","x5oj1fyoa5x9q9g","practice_cue","5ecc2a43543cc180222321d3","5f60e3c0a3b16e07647b2ff9","5f60ef3695b5a70161ebdf6b","true","563.2599999990198","./Stimuli/ImagesPractice/LN109.jpg","76","","","","test","true","M + N","76","","LN","LN109.jpg","forget","old","47","3","practice_forget","right","","","",""
"html-keyboard-response","130","495333","0.0-3.0-3.0-3.14","x5oj1fyoa5x9q9g","practice_cue","5ecc2a43543cc180222321d3","5f60e3c0a3b16e07647b2ff9","5f60ef3695b5a70161ebdf6b","false","null","<div style=""align-items: center; display: flex; color: darkorange; font-size: 90px""><b>ø</b></div>","null","","","","forget_cue","","","","","","","","","","","","","","","",""
"html-keyboard-response","131","496035","0.0-3.0-3.0-0.15","x5oj1fyoa5x9q9g","practice_cue","5ecc2a43543cc180222321d3","5f60e3c0a3b16e07647b2ff9","5f60ef3695b5a70161ebdf6b","false","null","<span style=""color: black; font-size: 48px"">N + M</span>","null","","","","resp_prompt","","","","","","","","","","","","","","","",""
"categorize-image","132","496636","0.0-3.0-3.0-1.15","x5oj1fyoa5x9q9g","practice_cue","5ecc2a43543cc180222321d3","5f60e3c0a3b16e07647b2ff9","5f60ef3695b5a70161ebdf6b","true","594.2400000022026","./Stimuli/ImagesPractice/LM147.jpg","83","","","","test","false","N + M","76","","LM","LM147.jpg","forget","old","48","3","practice_forget","left","","","",""
"html-keyboard-response","133","497138","0.0-3.0-3.0-2.15-0.15","x5oj1fyoa5x9q9g","practice_cue","5ecc2a43543cc180222321d3","5f60e3c0a3b16e07647b2ff9","5f60ef3695b5a70161ebdf6b","false","null","<span style=""color: red; font-size: 48px"">Error!</span>","null","","","","feedback","","","","","","","","","","","","","","","",""
"html-keyboard-response","134","499140","0.0-3.0-3.0-3.15","x5oj1fyoa5x9q9g","practice_cue","5ecc2a43543cc180222321d3","5f60e3c0a3b16e07647b2ff9","5f60ef3695b5a70161ebdf6b","false","null","<div style=""align-items: center; display: flex; color: darkorange; font-size: 90px""><b>ø</b></div>","null","","","","forget_cue","","","","","","","","","","","","","","","",""
"html-keyboard-response","135","502952","0.0-3.0-4.0","x5oj1fyoa5x9q9g","break","5ecc2a43543cc180222321d3","5f60e3c0a3b16e07647b2ff9","5f60ef3695b5a70161ebdf6b","false","3809.4849999979488","<p style='font-size: 32px;'>Break</><br><br><br><br><br><p style='font-size: 24px;'>In the last block, you committed 4 errors and did not respond in time on 0 trials.
</p><p style='font-size: 24px;'>Try to respond as fast and accurately as possible in the next block as well! </p><p style='font-size: 24px;'>Press SPACE to continue.</p>","32","","","","","","","","","","","","","","","","","","","",""
"html-keyboard-response","136","522265","0.0-3.0-5.0","x5oj1fyoa5x9q9g","instructions","5ecc2a43543cc180222321d3","5f60e3c0a3b16e07647b2ff9","5f60ef3695b5a70161ebdf6b","false","19310.954999997222","<div align=left> Now, to practice, we kindly ask you to remember as many of the to-be-remembered pictures<br>of the previous learning phase as possible.<br><br>The pictures you were instructed to remember were the pictures followed by a <span style='color: dodgerblue; font-size: 28px'>O</span>.<br><br>In this memory test phase, you will also see some new pictures.<br>It is your task to remember whether you were presented with this specific picture in this study so far or not.<br>If you recognize an object (you have already seen it in this study), it is an OLD object. <br>If you do not recognize an object (you have NOT seen it in this study), it is a NEW object. <br><strong> Attention</strong>: As already mentioned, <span style='color: darkorange; font-size:28px'>Ø</span>-pictures will <strong>never</strong> appear in this memory test (neither as new objects). <br><br>Press SPACE to continue. </div>","32","","","","","","","","","","","","","","","","","","","",""
"html-keyboard-response","137","545560","0.0-3.0-6.0","x5oj1fyoa5x9q9g","instructions","5ecc2a43543cc180222321d3","5f60e3c0a3b16e07647b2ff9","5f60ef3695b5a70161ebdf6b","false","23292.610000000335","<div align=left> M and N no longer will appear on the left/right of the fixation cross. <br>Instead there will be a note at the bottom of the left or right side  <br>indicating which key you should press for an old or new object:  <br> <br>Press the <strong>right</strong> key to classify an object as <strong>old</strong> and press the <strong>left</strong>, to classify an object as <strong>new</strong>.<br>Please classify the objects as new/old by again placing your index finger on the 'S' and 'L' keys <br>and press them accordingly.<br><br><strong>Old:</strong> This object has been presented before. <br><strong>New:</strong> This object has <strong>not</strong> been presented.<br><br>Now please put your right and left index fingers on the 'S' and 'L' keys of your keyboard. <br>Please respond as fast and as accurately as possible!<br><br>Press SPACE to continue. </div>","32","","","","","","","","","","","","","","","","","","","",""
"categorize-image","138","547588","0.0-3.0-7.0-0.0","x5oj1fyoa5x9q9g","practice_recog","5ecc2a43543cc180222321d3","5f60e3c0a3b16e07647b2ff9","5f60ef3695b5a70161ebdf6b","true","1521.7049999992596","./Stimuli/ImagesPractice/SN221.jpg","76","","","","test","true","","76","","SN","SN221.jpg","","old","49","4","practice_recog","right","","","",""
"categorize-image","139","550196","0.0-3.0-7.0-0.1","x5oj1fyoa5x9q9g","practice_recog","5ecc2a43543cc180222321d3","5f60e3c0a3b16e07647b2ff9","5f60ef3695b5a70161ebdf6b","true","2103.439999999013","./Stimuli/ImagesPractice/SM61.jpg","83","","","","test","true","","83","","SM","SM61.jpg","","new","50","4","practice_recog","left","","","",""
"categorize-image","140","551860","0.0-3.0-7.0-0.2","x5oj1fyoa5x9q9g","practice_recog","5ecc2a43543cc180222321d3","5f60e3c0a3b16e07647b2ff9","5f60ef3695b5a70161ebdf6b","true","1161.3900000011781","./Stimuli/ImagesPractice/SM37.jpg","76","","","","test","true","","76","","SM","SM37.jpg","","old","51","4","practice_recog","right","","","",""
"categorize-image","141","554004","0.0-3.0-7.0-0.3","x5oj1fyoa5x9q9g","practice_recog","5ecc2a43543cc180222321d3","5f60e3c0a3b16e07647b2ff9","5f60ef3695b5a70161ebdf6b","true","1640.0900000007823","./Stimuli/ImagesPractice/LN2.jpg","83","","","","test","true","","83","","LN","LN2.jpg","","new","52","4","practice_recog","left","","","",""
"categorize-image","142","555508","0.0-3.0-7.0-0.4","x5oj1fyoa5x9q9g","practice_recog","5ecc2a43543cc180222321d3","5f60e3c0a3b16e07647b2ff9","5f60ef3695b5a70161ebdf6b","true","1000.3649999998743","./Stimuli/ImagesPractice/LM143.jpg","76","","","","test","true","","76","","LM","LM143.jpg","","old","53","4","practice_recog","right","","","",""
"categorize-image","143","556980","0.0-3.0-7.0-0.5","x5oj1fyoa5x9q9g","practice_recog","5ecc2a43543cc180222321d3","5f60e3c0a3b16e07647b2ff9","5f60ef3695b5a70161ebdf6b","true","968.8200000019278","./Stimuli/ImagesPractice/LM239.jpg","83","","","","test","true","","83","","LM","LM239.jpg","","new","54","4","practice_recog","left","","","",""
"categorize-image","144","559051","0.0-3.0-7.0-0.6","x5oj1fyoa5x9q9g","practice_recog","5ecc2a43543cc180222321d3","5f60e3c0a3b16e07647b2ff9","5f60ef3695b5a70161ebdf6b","true","1568.1650000006193","./Stimuli/ImagesPractice/SM62.jpg","76","","","","test","true","","76","","SM","SM62.jpg","","old","55","4","practice_recog","right","","","",""
"categorize-image","145","560755","0.0-3.0-7.0-0.7","x5oj1fyoa5x9q9g","practice_recog","5ecc2a43543cc180222321d3","5f60e3c0a3b16e07647b2ff9","5f60ef3695b5a70161ebdf6b","true","1200.3999999979278","./Stimuli/ImagesPractice/LN17.jpg","83","","","","test","true","","83","","LN","LN17.jpg","","new","56","4","practice_recog","left","","","",""
"categorize-image","146","562532","0.0-3.0-7.0-0.8","x5oj1fyoa5x9q9g","practice_recog","5ecc2a43543cc180222321d3","5f60e3c0a3b16e07647b2ff9","5f60ef3695b5a70161ebdf6b","true","1272.9600000020582","./Stimuli/ImagesPractice/SM97.jpg","83","","","","test","true","","83","","SM","SM97.jpg","","new","57","4","practice_recog","left","","","",""
"categorize-image","147","563819","0.0-3.0-7.0-0.9","x5oj1fyoa5x9q9g","practice_recog","5ecc2a43543cc180222321d3","5f60e3c0a3b16e07647b2ff9","5f60ef3695b5a70161ebdf6b","true","784.2049999999581","./Stimuli/ImagesPractice/LM224.jpg","83","","","","test","true","","83","","LM","LM224.jpg","","new","58","4","practice_recog","left","","","",""
"categorize-image","148","565316","0.0-3.0-7.0-0.10","x5oj1fyoa5x9q9g","practice_recog","5ecc2a43543cc180222321d3","5f60e3c0a3b16e07647b2ff9","5f60ef3695b5a70161ebdf6b","true","992.6649999979418","./Stimuli/ImagesPractice/SN222.jpg","83","","","","test","true","","83","","SN","SN222.jpg","","new","59","4","practice_recog","left","","","",""
"categorize-image","149","566612","0.0-3.0-7.0-0.11","x5oj1fyoa5x9q9g","practice_recog","5ecc2a43543cc180222321d3","5f60e3c0a3b16e07647b2ff9","5f60ef3695b5a70161ebdf6b","true","792.2000000035623","./Stimuli/ImagesPractice/LM230.jpg","76","","","","test","true","","76","","LM","LM230.jpg","","old","60","4","practice_recog","right","","","",""
"categorize-image","150","568340","0.0-3.0-7.0-0.12","x5oj1fyoa5x9q9g","practice_recog","5ecc2a43543cc180222321d3","5f60e3c0a3b16e07647b2ff9","5f60ef3695b5a70161ebdf6b","true","1224.8000000000466","./Stimuli/ImagesPractice/SN75.jpg","76","","","","test","true","","76","","SN","SN75.jpg","","old","61","4","practice_recog","right","","","",""
"categorize-image","151","569788","0.0-3.0-7.0-0.13","x5oj1fyoa5x9q9g","practice_recog","5ecc2a43543cc180222321d3","5f60e3c0a3b16e07647b2ff9","5f60ef3695b5a70161ebdf6b","true","943.6449999994365","./Stimuli/ImagesPractice/LM55.jpg","76","","","","test","true","","76","","LM","LM55.jpg","","old","62","4","practice_recog","right","","","",""
"categorize-image","152","571116","0.0-3.0-7.0-0.14","x5oj1fyoa5x9q9g","practice_recog","5ecc2a43543cc180222321d3","5f60e3c0a3b16e07647b2ff9","5f60ef3695b5a70161ebdf6b","true","824.0850000001956","./Stimuli/ImagesPractice/LN15.jpg","83","","","","test","true","","83","","LN","LN15.jpg","","new","63","4","practice_recog","left","","","",""
"categorize-image","153","572853","0.0-3.0-7.0-0.15","x5oj1fyoa5x9q9g","practice_recog","5ecc2a43543cc180222321d3","5f60e3c0a3b16e07647b2ff9","5f60ef3695b5a70161ebdf6b","true","1232.005000001751","./Stimuli/ImagesPractice/LN72.jpg","76","","","","test","true","","76","","LN","LN72.jpg","","old","64","4","practice_recog","right","","","",""
"html-keyboard-response","154","579320","0.0-3.0-8.0","x5oj1fyoa5x9q9g","instructions","5ecc2a43543cc180222321d3","5f60e3c0a3b16e07647b2ff9","5f60ef3695b5a70161ebdf6b","false","6464.649999998161","<div align=left> Great!<br><br>Are you ready to continue?<br>If you want to reread the instructions and redo the practice trials, please <br>press „Z“.<br><br>You can proceed when you are ready.<br><br>After the presentation of each object, you will receive an instruction whether to <br>remember or to forget the object.<br>We will test your memory of the following pictures only at the very end of <br>the experiment after all learning blocks are completed. <br><br>Press SPACE to CONTINUE when you are ready. </div>","32","","","","","","","","","","","","","","","","","","","",""
"html-keyboard-response","155","584631","0.0-4.0-0.0","x5oj1fyoa5x9q9g","instructions","5ecc2a43543cc180222321d3","5f60e3c0a3b16e07647b2ff9","5f60ef3695b5a70161ebdf6b","false","5306.254999999423","<div align=left> The actual experiment is about to start.<br>The practice trials are over!<br><br>Please always respond both fast and accurately!<br><br>Remember: <br> <br><li> Please place your index fingers on the <strong>'S'</strong> and <strong>'L'</strong> keys <br>to respond as fast and accurately as possible.</li><li> Every picture can be classified as either mechanical or non-mechanical.</li><li> If you do not respond in time or commit an error, you will receive a corresponding feedback.<br> Please try to respond as <strong> fast </strong> and as <strong> accurately as possible </strong>.</li><li> Remember the <span style='color: dodgerblue; font-size: 28px'>O</span> pictures. <br></li><li> Please minimize distractions and stay focused. </li><br><br>Press SPACE to START.</div>","32","","","","","","","","","","","","","","","","","","","",""
"html-keyboard-response","156","585334","0.0-4.0-1.0-0.0","x5oj1fyoa5x9q9g","prime","5ecc2a43543cc180222321d3","5f60e3c0a3b16e07647b2ff9","5f60ef3695b5a70161ebdf6b","false","null","<span style=""color: black; font-size: 48px"">M + N</span>","null","","","","resp_prompt","","","","","","","","","","","","","","","",""
"categorize-image","157","585954","0.0-4.0-1.0-1.0","x5oj1fyoa5x9q9g","prime","5ecc2a43543cc180222321d3","5f60e3c0a3b16e07647b2ff9","5f60ef3695b5a70161ebdf6b","true","613.8449999998556","./Stimuli/SelectedImages/SM/SM148.bmp","76","","","","test","false","M + N","83","switch","SM","SM148.bmp","forget","","65","4","prime1","right","","","",""
"html-keyboard-response","158","586456","0.0-4.0-1.0-2.0-0.0","x5oj1fyoa5x9q9g","prime","5ecc2a43543cc180222321d3","5f60e3c0a3b16e07647b2ff9","5f60ef3695b5a70161ebdf6b","false","null","<span style=""color: red; font-size: 48px"">Error!</span>","null","","","","feedback","","","","","","","","","","","","","","","",""
"html-keyboard-response","159","588458","0.0-4.0-1.0-3.0","x5oj1fyoa5x9q9g","prime","5ecc2a43543cc180222321d3","5f60e3c0a3b16e07647b2ff9","5f60ef3695b5a70161ebdf6b","false","null","<div style=""align-items: center; display: flex; color: darkorange; font-size: 90px""><b>ø</b></div>","null","","","","forget_cue","","","","","","","","","","","","","","","",""
"html-keyboard-response","160","589161","0.0-4.0-1.0-0.1","x5oj1fyoa5x9q9g","prime","5ecc2a43543cc180222321d3","5f60e3c0a3b16e07647b2ff9","5f60ef3695b5a70161ebdf6b","false","null","<span style=""color: black; font-size: 48px"">M + N</span>","null","","","","resp_prompt","","","","","","","","","","","","","","","",""
"categorize-image","161","590026","0.0-4.0-1.0-1.1","x5oj1fyoa5x9q9g","prime","5ecc2a43543cc180222321d3","5f60e3c0a3b16e07647b2ff9","5f60ef3695b5a70161ebdf6b","true","859.3700000019744","./Stimuli/SelectedImages/SM/SM207.bmp","83","","","","test","true","M + N","83","switch","SM","SM207.bmp","forget","","66","4","prime1","left","","","",""
"html-keyboard-response","162","592029","0.0-4.0-1.0-3.1","x5oj1fyoa5x9q9g","prime","5ecc2a43543cc180222321d3","5f60e3c0a3b16e07647b2ff9","5f60ef3695b5a70161ebdf6b","false","null","<div style=""align-items: center; display: flex; color: darkorange; font-size: 90px""><b>ø</b></div>","null","","","","forget_cue","","","","","","","","","","","","","","","",""
"html-keyboard-response","163","592731","0.0-4.0-1.0-0.2","x5oj1fyoa5x9q9g","prime","5ecc2a43543cc180222321d3","5f60e3c0a3b16e07647b2ff9","5f60ef3695b5a70161ebdf6b","false","null","<span style=""color: black; font-size: 48px"">N + M</span>","null","","","","resp_prompt","","","","","","","","","","","","","","","",""
"categorize-image","164","593113","0.0-4.0-1.0-1.2","x5oj1fyoa5x9q9g","prime","5ecc2a43543cc180222321d3","5f60e3c0a3b16e07647b2ff9","5f60ef3695b5a70161ebdf6b","true","376.77999999874737","./Stimuli/SelectedImages/LM/LM58.bmp","76","","","","test","true","N + M","76","repetition","LM","LM58.bmp","forget","","67","4","prime1","right","","","",""
"html-keyboard-response","165","595116","0.0-4.0-1.0-3.2","x5oj1fyoa5x9q9g","prime","5ecc2a43543cc180222321d3","5f60e3c0a3b16e07647b2ff9","5f60ef3695b5a70161ebdf6b","false","null","<div style=""align-items: center; display: flex; color: darkorange; font-size: 90px""><b>ø</b></div>","null","","","","forget_cue","","","","","","","","","","","","","","","",""
"html-keyboard-response","166","595818","0.0-4.0-1.0-0.3","x5oj1fyoa5x9q9g","prime","5ecc2a43543cc180222321d3","5f60e3c0a3b16e07647b2ff9","5f60ef3695b5a70161ebdf6b","false","null","<span style=""color: black; font-size: 48px"">N + M</span>","null","","","","resp_prompt","","","","","","","","","","","","","","","",""
"categorize-image","167","596049","0.0-4.0-1.0-1.3","x5oj1fyoa5x9q9g","prime","5ecc2a43543cc180222321d3","5f60e3c0a3b16e07647b2ff9","5f60ef3695b5a70161ebdf6b","true","225.67500000155997","./Stimuli/SelectedImages/SN/SN111.bmp","83","","","","test","true","N + M","83","repetition","SN","SN111.bmp","remember","","68","4","prime1","left","","","",""
"html-keyboard-response","168","598051","0.0-4.0-1.0-3.3","x5oj1fyoa5x9q9g","prime","5ecc2a43543cc180222321d3","5f60e3c0a3b16e07647b2ff9","5f60ef3695b5a70161ebdf6b","false","null","<div style=""align-items: center; display: flex; color: dodgerblue; font-size: 90px""><b>o</b></div>","null","","","","forget_cue","","","","","","","","","","","","","","","",""
"html-keyboard-response","169","598753","0.0-4.0-1.0-0.4","x5oj1fyoa5x9q9g","prime","5ecc2a43543cc180222321d3","5f60e3c0a3b16e07647b2ff9","5f60ef3695b5a70161ebdf6b","false","null","<span style=""color: black; font-size: 48px"">M + N</span>","null","","","","resp_prompt","","","","","","","","","","","","","","","",""
"categorize-image","170","599225","0.0-4.0-1.0-1.4","x5oj1fyoa5x9q9g","prime","5ecc2a43543cc180222321d3","5f60e3c0a3b16e07647b2ff9","5f60ef3695b5a70161ebdf6b","true","467.179999999702","./Stimuli/SelectedImages/SN/SN27.bmp","83","","","","test","false","M + N","76","repetition","SN","SN27.bmp","forget","","69","4","prime1","left","","","",""
"html-keyboard-response","171","599728","0.0-4.0-1.0-2.4-0.4","x5oj1fyoa5x9q9g","prime","5ecc2a43543cc180222321d3","5f60e3c0a3b16e07647b2ff9","5f60ef3695b5a70161ebdf6b","false","null","<span style=""color: red; font-size: 48px"">Error!</span>","null","","","","feedback","","","","","","","","","","","","","","","",""
"html-keyboard-response","172","601730","0.0-4.0-1.0-3.4","x5oj1fyoa5x9q9g","prime","5ecc2a43543cc180222321d3","5f60e3c0a3b16e07647b2ff9","5f60ef3695b5a70161ebdf6b","false","null","<div style=""align-items: center; display: flex; color: darkorange; font-size: 90px""><b>ø</b></div>","null","","","","forget_cue","","","","","","","","","","","","","","","",""
"html-keyboard-response","173","602432","0.0-4.0-1.0-0.5","x5oj1fyoa5x9q9g","prime","5ecc2a43543cc180222321d3","5f60e3c0a3b16e07647b2ff9","5f60ef3695b5a70161ebdf6b","false","null","<span style=""color: black; font-size: 48px"">M + N</span>","null","","","","resp_prompt","","","","","","","","","","","","","","","",""
"categorize-image","174","603074","0.0-4.0-1.0-1.5","x5oj1fyoa5x9q9g","prime","5ecc2a43543cc180222321d3","5f60e3c0a3b16e07647b2ff9","5f60ef3695b5a70161ebdf6b","true","636.4850000026636","./Stimuli/SelectedImages/LM/LM167.bmp","83","","","","test","true","M + N","83","switch","LM","LM167.bmp","forget","","70","4","prime1","left","","","",""
"html-keyboard-response","175","605077","0.0-4.0-1.0-3.5","x5oj1fyoa5x9q9g","prime","5ecc2a43543cc180222321d3","5f60e3c0a3b16e07647b2ff9","5f60ef3695b5a70161ebdf6b","false","null","<div style=""align-items: center; display: flex; color: darkorange; font-size: 90px""><b>ø</b></div>","null","","","","forget_cue","","","","","","","","","","","","","","","",""
"html-keyboard-response","176","605779","0.0-4.0-1.0-0.6","x5oj1fyoa5x9q9g","prime","5ecc2a43543cc180222321d3","5f60e3c0a3b16e07647b2ff9","5f60ef3695b5a70161ebdf6b","false","null","<span style=""color: black; font-size: 48px"">M + N</span>","null","","","","resp_prompt","","","","","","","","","","","","","","","",""
"categorize-image","177","606395","0.0-4.0-1.0-1.6","x5oj1fyoa5x9q9g","prime","5ecc2a43543cc180222321d3","5f60e3c0a3b16e07647b2ff9","5f60ef3695b5a70161ebdf6b","true","609.6450000004843","./Stimuli/SelectedImages/LM/LM179.bmp","83","","","","test","true","M + N","83","repetition","LM","LM179.bmp","remember","","71","4","prime1","left","","","",""
"html-keyboard-response","178","608398","0.0-4.0-1.0-3.6","x5oj1fyoa5x9q9g","prime","5ecc2a43543cc180222321d3","5f60e3c0a3b16e07647b2ff9","5f60ef3695b5a70161ebdf6b","false","null","<div style=""align-items: center; display: flex; color: dodgerblue; font-size: 90px""><b>o</b></div>","null","","","","forget_cue","","","","","","","","","","","","","","","",""
"html-keyboard-response","179","609100","0.0-4.0-1.0-0.7","x5oj1fyoa5x9q9g","prime","5ecc2a43543cc180222321d3","5f60e3c0a3b16e07647b2ff9","5f60ef3695b5a70161ebdf6b","false","null","<span style=""color: black; font-size: 48px"">N + M</span>","null","","","","resp_prompt","","","","","","","","","","","","","","","",""
"categorize-image","180","609690","0.0-4.0-1.0-1.7","x5oj1fyoa5x9q9g","prime","5ecc2a43543cc180222321d3","5f60e3c0a3b16e07647b2ff9","5f60ef3695b5a70161ebdf6b","true","584.35499999905","./Stimuli/SelectedImages/SN/SN140.bmp","76","","","","test","false","N + M","83","switch","SN","SN140.bmp","remember","","72","4","prime1","right","","","",""
"html-keyboard-response","181","610192","0.0-4.0-1.0-2.7-0.7","x5oj1fyoa5x9q9g","prime","5ecc2a43543cc180222321d3","5f60e3c0a3b16e07647b2ff9","5f60ef3695b5a70161ebdf6b","false","null","<span style=""color: red; font-size: 48px"">Error!</span>","null","","","","feedback","","","","","","","","","","","","","","","",""
"html-keyboard-response","182","612193","0.0-4.0-1.0-3.7","x5oj1fyoa5x9q9g","prime","5ecc2a43543cc180222321d3","5f60e3c0a3b16e07647b2ff9","5f60ef3695b5a70161ebdf6b","false","null","<div style=""align-items: center; display: flex; color: dodgerblue; font-size: 90px""><b>o</b></div>","null","","","","forget_cue","","","","","","","","","","","","","","","",""
"html-keyboard-response","183","612895","0.0-4.0-1.0-0.8","x5oj1fyoa5x9q9g","prime","5ecc2a43543cc180222321d3","5f60e3c0a3b16e07647b2ff9","5f60ef3695b5a70161ebdf6b","false","null","<span style=""color: black; font-size: 48px"">M + N</span>","null","","","","resp_prompt","","","","","","","","","","","","","","","",""
"categorize-image","184","614170","0.0-4.0-1.0-1.8","x5oj1fyoa5x9q9g","prime","5ecc2a43543cc180222321d3","5f60e3c0a3b16e07647b2ff9","5f60ef3695b5a70161ebdf6b","true","1269.4699999992736","./Stimuli/SelectedImages/SN/SN93.bmp","76","","","","test","true","M + N","76","repetition","SN","SN93.bmp","forget","","73","4","prime1","right","","","",""
"html-keyboard-response","185","616172","0.0-4.0-1.0-3.8","x5oj1fyoa5x9q9g","prime","5ecc2a43543cc180222321d3","5f60e3c0a3b16e07647b2ff9","5f60ef3695b5a70161ebdf6b","false","null","<div style=""align-items: center; display: flex; color: darkorange; font-size: 90px""><b>ø</b></div>","null","","","","forget_cue","","","","","","","","","","","","","","","",""
"html-keyboard-response","186","616875","0.0-4.0-1.0-0.9","x5oj1fyoa5x9q9g","prime","5ecc2a43543cc180222321d3","5f60e3c0a3b16e07647b2ff9","5f60ef3695b5a70161ebdf6b","false","null","<span style=""color: black; font-size: 48px"">M + N</span>","null","","","","resp_prompt","","","","","","","","","","","","","","","",""
"categorize-image","187","617546","0.0-4.0-1.0-1.9","x5oj1fyoa5x9q9g","prime","5ecc2a43543cc180222321d3","5f60e3c0a3b16e07647b2ff9","5f60ef3695b5a70161ebdf6b","true","665.064999997383","./Stimuli/SelectedImages/SN/SN240.bmp","76","","","","test","true","M + N","76","repetition","SN","SN240.bmp","remember","","74","4","prime1","right","","","",""
"html-keyboard-response","188","619548","0.0-4.0-1.0-3.9","x5oj1fyoa5x9q9g","prime","5ecc2a43543cc180222321d3","5f60e3c0a3b16e07647b2ff9","5f60ef3695b5a70161ebdf6b","false","null","<div style=""align-items: center; display: flex; color: dodgerblue; font-size: 90px""><b>o</b></div>","null","","","","forget_cue","","","","","","","","","","","","","","","",""
"html-keyboard-response","189","620250","0.0-4.0-1.0-0.10","x5oj1fyoa5x9q9g","prime","5ecc2a43543cc180222321d3","5f60e3c0a3b16e07647b2ff9","5f60ef3695b5a70161ebdf6b","false","null","<span style=""color: black; font-size: 48px"">N + M</span>","null","","","","resp_prompt","","","","","","","","","","","","","","","",""
"categorize-image","190","621289","0.0-4.0-1.0-1.10","x5oj1fyoa5x9q9g","prime","5ecc2a43543cc180222321d3","5f60e3c0a3b16e07647b2ff9","5f60ef3695b5a70161ebdf6b","true","1033.6000000024214","./Stimuli/SelectedImages/LM/LM48.bmp","76","","","","test","true","N + M","76","switch","LM","LM48.bmp","forget","","75","4","prime1","right","","","",""
"html-keyboard-response","191","623292","0.0-4.0-1.0-3.10","x5oj1fyoa5x9q9g","prime","5ecc2a43543cc180222321d3","5f60e3c0a3b16e07647b2ff9","5f60ef3695b5a70161ebdf6b","false","null","<div style=""align-items: center; display: flex; color: darkorange; font-size: 90px""><b>ø</b></div>","null","","","","forget_cue","","","","","","","","","","","","","","","",""
"html-keyboard-response","192","623994","0.0-4.0-1.0-0.11","x5oj1fyoa5x9q9g","prime","5ecc2a43543cc180222321d3","5f60e3c0a3b16e07647b2ff9","5f60ef3695b5a70161ebdf6b","false","null","<span style=""color: black; font-size: 48px"">N + M</span>","null","","","","resp_prompt","","","","","","","","","","","","","","","",""
"categorize-image","193","624778","0.0-4.0-1.0-1.11","x5oj1fyoa5x9q9g","prime","5ecc2a43543cc180222321d3","5f60e3c0a3b16e07647b2ff9","5f60ef3695b5a70161ebdf6b","true","778.0050000001211","./Stimuli/SelectedImages/LN/LN28.bmp","83","","","","test","true","N + M","83","repetition","LN","LN28.bmp","forget","","76","4","prime1","left","","","",""
"html-keyboard-response","194","626781","0.0-4.0-1.0-3.11","x5oj1fyoa5x9q9g","prime","5ecc2a43543cc180222321d3","5f60e3c0a3b16e07647b2ff9","5f60ef3695b5a70161ebdf6b","false","null","<div style=""align-items: center; display: flex; color: darkorange; font-size: 90px""><b>ø</b></div>","null","","","","forget_cue","","","","","","","","","","","","","","","",""
"html-keyboard-response","195","627482","0.0-4.0-1.0-0.12","x5oj1fyoa5x9q9g","prime","5ecc2a43543cc180222321d3","5f60e3c0a3b16e07647b2ff9","5f60ef3695b5a70161ebdf6b","false","null","<span style=""color: black; font-size: 48px"">M + N</span>","null","","","","resp_prompt","","","","","","","","","","","","","","","",""
"categorize-image","196","628161","0.0-4.0-1.0-1.12","x5oj1fyoa5x9q9g","prime","5ecc2a43543cc180222321d3","5f60e3c0a3b16e07647b2ff9","5f60ef3695b5a70161ebdf6b","true","674.269999999553","./Stimuli/SelectedImages/SM/SM184.bmp","76","","","","test","false","M + N","83","repetition","SM","SM184.bmp","remember","","77","4","prime1","right","","","",""
"html-keyboard-response","197","628664","0.0-4.0-1.0-2.12-0.12","x5oj1fyoa5x9q9g","prime","5ecc2a43543cc180222321d3","5f60e3c0a3b16e07647b2ff9","5f60ef3695b5a70161ebdf6b","false","null","<span style=""color: red; font-size: 48px"">Error!</span>","null","","","","feedback","","","","","","","","","","","","","","","",""
"html-keyboard-response","198","630666","0.0-4.0-1.0-3.12","x5oj1fyoa5x9q9g","prime","5ecc2a43543cc180222321d3","5f60e3c0a3b16e07647b2ff9","5f60ef3695b5a70161ebdf6b","false","null","<div style=""align-items: center; display: flex; color: dodgerblue; font-size: 90px""><b>o</b></div>","null","","","","forget_cue","","","","","","","","","","","","","","","",""
"html-keyboard-response","199","631368","0.0-4.0-1.0-0.13","x5oj1fyoa5x9q9g","prime","5ecc2a43543cc180222321d3","5f60e3c0a3b16e07647b2ff9","5f60ef3695b5a70161ebdf6b","false","null","<span style=""color: black; font-size: 48px"">M + N</span>","null","","","","resp_prompt","","","","","","","","","","","","","","","",""
"categorize-image","200","632753","0.0-4.0-1.0-1.13","x5oj1fyoa5x9q9g","prime","5ecc2a43543cc180222321d3","5f60e3c0a3b16e07647b2ff9","5f60ef3695b5a70161ebdf6b","true","1379.8850000021048","./Stimuli/SelectedImages/SN/SN60.bmp","76","","","","test","true","M + N","76","switch","SN","SN60.bmp","forget","","78","4","prime1","right","","","",""
"html-keyboard-response","201","634756","0.0-4.0-1.0-3.13","x5oj1fyoa5x9q9g","prime","5ecc2a43543cc180222321d3","5f60e3c0a3b16e07647b2ff9","5f60ef3695b5a70161ebdf6b","false","null","<div style=""align-items: center; display: flex; color: darkorange; font-size: 90px""><b>ø</b></div>","null","","","","forget_cue","","","","","","","","","","","","","","","",""
"html-keyboard-response","202","635458","0.0-4.0-1.0-0.14","x5oj1fyoa5x9q9g","prime","5ecc2a43543cc180222321d3","5f60e3c0a3b16e07647b2ff9","5f60ef3695b5a70161ebdf6b","false","null","<span style=""color: black; font-size: 48px"">N + M</span>","null","","","","resp_prompt","","","","","","","","","","","","","","","",""
"categorize-image","203","636418","0.0-4.0-1.0-1.14","x5oj1fyoa5x9q9g","prime","5ecc2a43543cc180222321d3","5f60e3c0a3b16e07647b2ff9","5f60ef3695b5a70161ebdf6b","true","954.5450000005076","./Stimuli/SelectedImages/SM/SM106.bmp","76","","","","test","true","N + M","76","repetition","SM","SM106.bmp","forget","","79","4","prime1","right","","","",""
"html-keyboard-response","204","638421","0.0-4.0-1.0-3.14","x5oj1fyoa5x9q9g","prime","5ecc2a43543cc180222321d3","5f60e3c0a3b16e07647b2ff9","5f60ef3695b5a70161ebdf6b","false","null","<div style=""align-items: center; display: flex; color: darkorange; font-size: 90px""><b>ø</b></div>","null","","","","forget_cue","","","","","","","","","","","","","","","",""
"html-keyboard-response","205","639123","0.0-4.0-1.0-0.15","x5oj1fyoa5x9q9g","prime","5ecc2a43543cc180222321d3","5f60e3c0a3b16e07647b2ff9","5f60ef3695b5a70161ebdf6b","false","null","<span style=""color: black; font-size: 48px"">M + N</span>","null","","","","resp_prompt","","","","","","","","","","","","","","","",""
"categorize-image","206","640369","0.0-4.0-1.0-1.15","x5oj1fyoa5x9q9g","prime","5ecc2a43543cc180222321d3","5f60e3c0a3b16e07647b2ff9","5f60ef3695b5a70161ebdf6b","true","1240.4349999997066","./Stimuli/SelectedImages/SN/SN182.bmp","76","","","","test","true","M + N","76","switch","SN","SN182.bmp","remember","","80","4","prime1","right","","","",""
"html-keyboard-response","207","642372","0.0-4.0-1.0-3.15","x5oj1fyoa5x9q9g","prime","5ecc2a43543cc180222321d3","5f60e3c0a3b16e07647b2ff9","5f60ef3695b5a70161ebdf6b","false","null","<div style=""align-items: center; display: flex; color: dodgerblue; font-size: 90px""><b>o</b></div>","null","","","","forget_cue","","","","","","","","","","","","","","","",""
"html-keyboard-response","208","643073","0.0-4.0-1.0-0.16","x5oj1fyoa5x9q9g","prime","5ecc2a43543cc180222321d3","5f60e3c0a3b16e07647b2ff9","5f60ef3695b5a70161ebdf6b","false","null","<span style=""color: black; font-size: 48px"">M + N</span>","null","","","","resp_prompt","","","","","","","","","","","","","","","",""
"categorize-image","209","644513","0.0-4.0-1.0-1.16","x5oj1fyoa5x9q9g","prime","5ecc2a43543cc180222321d3","5f60e3c0a3b16e07647b2ff9","5f60ef3695b5a70161ebdf6b","true","1434.2899999974761","./Stimuli/SelectedImages/LM/LM235.bmp","76","","","","test","false","M + N","83","switch","LM","LM235.bmp","forget","","81","4","prime1","right","","","",""
"html-keyboard-response","210","645015","0.0-4.0-1.0-2.16-0.16","x5oj1fyoa5x9q9g","prime","5ecc2a43543cc180222321d3","5f60e3c0a3b16e07647b2ff9","5f60ef3695b5a70161ebdf6b","false","null","<span style=""color: red; font-size: 48px"">Error!</span>","null","","","","feedback","","","","","","","","","","","","","","","",""
"html-keyboard-response","211","647018","0.0-4.0-1.0-3.16","x5oj1fyoa5x9q9g","prime","5ecc2a43543cc180222321d3","5f60e3c0a3b16e07647b2ff9","5f60ef3695b5a70161ebdf6b","false","null","<div style=""align-items: center; display: flex; color: darkorange; font-size: 90px""><b>ø</b></div>","null","","","","forget_cue","","","","","","","","","","","","","","","",""
"html-keyboard-response","212","647721","0.0-4.0-1.0-0.17","x5oj1fyoa5x9q9g","prime","5ecc2a43543cc180222321d3","5f60e3c0a3b16e07647b2ff9","5f60ef3695b5a70161ebdf6b","false","null","<span style=""color: black; font-size: 48px"">M + N</span>","null","","","","resp_prompt","","","","","","","","","","","","","","","",""
"categorize-image","213","648610","0.0-4.0-1.0-1.17","x5oj1fyoa5x9q9g","prime","5ecc2a43543cc180222321d3","5f60e3c0a3b16e07647b2ff9","5f60ef3695b5a70161ebdf6b","true","883.3549999981187","./Stimuli/SelectedImages/SM/SM128.bmp","83","","","","test","true","M + N","83","repetition","SM","SM128.bmp","remember","","82","4","prime1","left","","","",""
"html-keyboard-response","214","650613","0.0-4.0-1.0-3.17","x5oj1fyoa5x9q9g","prime","5ecc2a43543cc180222321d3","5f60e3c0a3b16e07647b2ff9","5f60ef3695b5a70161ebdf6b","false","null","<div style=""align-items: center; display: flex; color: dodgerblue; font-size: 90px""><b>o</b></div>","null","","","","forget_cue","","","","","","","","","","","","","","","",""
"html-keyboard-response","215","651315","0.0-4.0-1.0-0.18","x5oj1fyoa5x9q9g","prime","5ecc2a43543cc180222321d3","5f60e3c0a3b16e07647b2ff9","5f60ef3695b5a70161ebdf6b","false","null","<span style=""color: black; font-size: 48px"">N + M</span>","null","","","","resp_prompt","","","","","","","","","","","","","","","",""
"categorize-image","216","652281","0.0-4.0-1.0-1.18","x5oj1fyoa5x9q9g","prime","5ecc2a43543cc180222321d3","5f60e3c0a3b16e07647b2ff9","5f60ef3695b5a70161ebdf6b","true","961.3749999989523","./Stimuli/SelectedImages/LM/LM129.bmp","83","","","","test","false","N + M","76","switch","LM","LM129.bmp","forget","","83","4","prime1","left","","","",""
"html-keyboard-response","217","652783","0.0-4.0-1.0-2.18-0.18","x5oj1fyoa5x9q9g","prime","5ecc2a43543cc180222321d3","5f60e3c0a3b16e07647b2ff9","5f60ef3695b5a70161ebdf6b","false","null","<span style=""color: red; font-size: 48px"">Error!</span>","null","","","","feedback","","","","","","","","","","","","","","","",""
"html-keyboard-response","218","654785","0.0-4.0-1.0-3.18","x5oj1fyoa5x9q9g","prime","5ecc2a43543cc180222321d3","5f60e3c0a3b16e07647b2ff9","5f60ef3695b5a70161ebdf6b","false","null","<div style=""align-items: center; display: flex; color: darkorange; font-size: 90px""><b>ø</b></div>","null","","","","forget_cue","","","","","","","","","","","","","","","",""
"html-keyboard-response","219","655487","0.0-4.0-1.0-0.19","x5oj1fyoa5x9q9g","prime","5ecc2a43543cc180222321d3","5f60e3c0a3b16e07647b2ff9","5f60ef3695b5a70161ebdf6b","false","null","<span style=""color: black; font-size: 48px"">N + M</span>","null","","","","resp_prompt","","","","","","","","","","","","","","","",""
"categorize-image","220","656073","0.0-4.0-1.0-1.19","x5oj1fyoa5x9q9g","prime","5ecc2a43543cc180222321d3","5f60e3c0a3b16e07647b2ff9","5f60ef3695b5a70161ebdf6b","true","580.3699999997625","./Stimuli/SelectedImages/SM/SM78.bmp","83","","","","test","false","N + M","76","switch","SM","SM78.bmp","remember","","84","4","prime1","left","","","",""
"html-keyboard-response","221","656575","0.0-4.0-1.0-2.19-0.19","x5oj1fyoa5x9q9g","prime","5ecc2a43543cc180222321d3","5f60e3c0a3b16e07647b2ff9","5f60ef3695b5a70161ebdf6b","false","null","<span style=""color: red; font-size: 48px"">Error!</span>","null","","","","feedback","","","","","","","","","","","","","","","",""
"html-keyboard-response","222","658578","0.0-4.0-1.0-3.19","x5oj1fyoa5x9q9g","prime","5ecc2a43543cc180222321d3","5f60e3c0a3b16e07647b2ff9","5f60ef3695b5a70161ebdf6b","false","null","<div style=""align-items: center; display: flex; color: dodgerblue; font-size: 90px""><b>o</b></div>","null","","","","forget_cue","","","","","","","","","","","","","","","",""
"html-keyboard-response","223","659280","0.0-4.0-1.0-0.20","x5oj1fyoa5x9q9g","prime","5ecc2a43543cc180222321d3","5f60e3c0a3b16e07647b2ff9","5f60ef3695b5a70161ebdf6b","false","null","<span style=""color: black; font-size: 48px"">N + M</span>","null","","","","resp_prompt","","","","","","","","","","","","","","","",""
"categorize-image","224","660035","0.0-4.0-1.0-1.20","x5oj1fyoa5x9q9g","prime","5ecc2a43543cc180222321d3","5f60e3c0a3b16e07647b2ff9","5f60ef3695b5a70161ebdf6b","true","748.6250000002328","./Stimuli/SelectedImages/SM/SM24.bmp","76","","","","test","true","N + M","76","repetition","SM","SM24.bmp","forget","","85","4","prime1","right","","","",""
"html-keyboard-response","225","662039","0.0-4.0-1.0-3.20","x5oj1fyoa5x9q9g","prime","5ecc2a43543cc180222321d3","5f60e3c0a3b16e07647b2ff9","5f60ef3695b5a70161ebdf6b","false","null","<div style=""align-items: center; display: flex; color: darkorange; font-size: 90px""><b>ø</b></div>","null","","","","forget_cue","","","","","","","","","","","","","","","",""
"html-keyboard-response","226","662741","0.0-4.0-1.0-0.21","x5oj1fyoa5x9q9g","prime","5ecc2a43543cc180222321d3","5f60e3c0a3b16e07647b2ff9","5f60ef3695b5a70161ebdf6b","false","null","<span style=""color: black; font-size: 48px"">M + N</span>","null","","","","resp_prompt","","","","","","","","","","","","","","","",""
"categorize-image","227","663385","0.0-4.0-1.0-1.21","x5oj1fyoa5x9q9g","prime","5ecc2a43543cc180222321d3","5f60e3c0a3b16e07647b2ff9","5f60ef3695b5a70161ebdf6b","true","638.5100000007078","./Stimuli/SelectedImages/LM/LM51.bmp","83","","","","test","true","M + N","83","repetition","LM","LM51.bmp","forget","","86","4","prime1","left","","","",""
"html-keyboard-response","228","665388","0.0-4.0-1.0-3.21","x5oj1fyoa5x9q9g","prime","5ecc2a43543cc180222321d3","5f60e3c0a3b16e07647b2ff9","5f60ef3695b5a70161ebdf6b","false","null","<div style=""align-items: center; display: flex; color: darkorange; font-size: 90px""><b>ø</b></div>","null","","","","forget_cue","","","","","","","","","","","","","","","",""
"html-keyboard-response","229","666090","0.0-4.0-1.0-0.22","x5oj1fyoa5x9q9g","prime","5ecc2a43543cc180222321d3","5f60e3c0a3b16e07647b2ff9","5f60ef3695b5a70161ebdf6b","false","null","<span style=""color: black; font-size: 48px"">N + M</span>","null","","","","resp_prompt","","","","","","","","","","","","","","","",""
"categorize-image","230","667034","0.0-4.0-1.0-1.22","x5oj1fyoa5x9q9g","prime","5ecc2a43543cc180222321d3","5f60e3c0a3b16e07647b2ff9","5f60ef3695b5a70161ebdf6b","true","937.3000000014435","./Stimuli/SelectedImages/LN/LN150.bmp","76","","","","test","false","N + M","83","repetition","LN","LN150.bmp","remember","","87","4","prime1","right","","","",""
"html-keyboard-response","231","667537","0.0-4.0-1.0-2.22-0.22","x5oj1fyoa5x9q9g","prime","5ecc2a43543cc180222321d3","5f60e3c0a3b16e07647b2ff9","5f60ef3695b5a70161ebdf6b","false","null","<span style=""color: red; font-size: 48px"">Error!</span>","null","","","","feedback","","","","","","","","","","","","","","","",""
"html-keyboard-response","232","669539","0.0-4.0-1.0-3.22","x5oj1fyoa5x9q9g","prime","5ecc2a43543cc180222321d3","5f60e3c0a3b16e07647b2ff9","5f60ef3695b5a70161ebdf6b","false","null","<div style=""align-items: center; display: flex; color: dodgerblue; font-size: 90px""><b>o</b></div>","null","","","","forget_cue","","","","","","","","","","","","","","","",""
"html-keyboard-response","233","670241","0.0-4.0-1.0-0.23","x5oj1fyoa5x9q9g","prime","5ecc2a43543cc180222321d3","5f60e3c0a3b16e07647b2ff9","5f60ef3695b5a70161ebdf6b","false","null","<span style=""color: black; font-size: 48px"">N + M</span>","null","","","","resp_prompt","","","","","","","","","","","","","","","",""
"categorize-image","234","671250","0.0-4.0-1.0-1.23","x5oj1fyoa5x9q9g","prime","5ecc2a43543cc180222321d3","5f60e3c0a3b16e07647b2ff9","5f60ef3695b5a70161ebdf6b","true","1003.2949999986449","./Stimuli/SelectedImages/LN/LN12.bmp","76","","","","test","false","N + M","83","repetition","LN","LN12.bmp","forget","","88","4","prime1","right","","","",""
"html-keyboard-response","235","671753","0.0-4.0-1.0-2.23-0.23","x5oj1fyoa5x9q9g","prime","5ecc2a43543cc180222321d3","5f60e3c0a3b16e07647b2ff9","5f60ef3695b5a70161ebdf6b","false","null","<span style=""color: red; font-size: 48px"">Error!</span>","null","","","","feedback","","","","","","","","","","","","","","","",""
"html-keyboard-response","236","673755","0.0-4.0-1.0-3.23","x5oj1fyoa5x9q9g","prime","5ecc2a43543cc180222321d3","5f60e3c0a3b16e07647b2ff9","5f60ef3695b5a70161ebdf6b","false","null","<div style=""align-items: center; display: flex; color: darkorange; font-size: 90px""><b>ø</b></div>","null","","","","forget_cue","","","","","","","","","","","","","","","",""
"html-keyboard-response","237","674458","0.0-4.0-1.0-0.24","x5oj1fyoa5x9q9g","prime","5ecc2a43543cc180222321d3","5f60e3c0a3b16e07647b2ff9","5f60ef3695b5a70161ebdf6b","false","null","<span style=""color: black; font-size: 48px"">M + N</span>","null","","","","resp_prompt","","","","","","","","","","","","","","","",""
"categorize-image","238","676201","0.0-4.0-1.0-1.24","x5oj1fyoa5x9q9g","prime","5ecc2a43543cc180222321d3","5f60e3c0a3b16e07647b2ff9","5f60ef3695b5a70161ebdf6b","true","1737.6250000016298","./Stimuli/SelectedImages/SN/SN128.bmp","76","","","","test","true","M + N","76","repetition","SN","SN128.bmp","remember","","89","4","prime1","right","","","",""
"html-keyboard-response","239","678203","0.0-4.0-1.0-3.24","x5oj1fyoa5x9q9g","prime","5ecc2a43543cc180222321d3","5f60e3c0a3b16e07647b2ff9","5f60ef3695b5a70161ebdf6b","false","null","<div style=""align-items: center; display: flex; color: dodgerblue; font-size: 90px""><b>o</b></div>","null","","","","forget_cue","","","","","","","","","","","","","","","",""
"html-keyboard-response","240","678906","0.0-4.0-1.0-0.25","x5oj1fyoa5x9q9g","prime","5ecc2a43543cc180222321d3","5f60e3c0a3b16e07647b2ff9","5f60ef3695b5a70161ebdf6b","false","null","<span style=""color: black; font-size: 48px"">M + N</span>","null","","","","resp_prompt","","","","","","","","","","","","","","","",""
"categorize-image","241","679793","0.0-4.0-1.0-1.25","x5oj1fyoa5x9q9g","prime","5ecc2a43543cc180222321d3","5f60e3c0a3b16e07647b2ff9","5f60ef3695b5a70161ebdf6b","true","881.170000000624","./Stimuli/SelectedImages/LN/LN177.bmp","83","","","","test","false","M + N","76","switch","LN","LN177.bmp","forget","","90","4","prime1","left","","","",""
"html-keyboard-response","242","680295","0.0-4.0-1.0-2.25-0.25","x5oj1fyoa5x9q9g","prime","5ecc2a43543cc180222321d3","5f60e3c0a3b16e07647b2ff9","5f60ef3695b5a70161ebdf6b","false","null","<span style=""color: red; font-size: 48px"">Error!</span>","null","","","","feedback","","","","","","","","","","","","","","","",""
"html-keyboard-response","243","682296","0.0-4.0-1.0-3.25","x5oj1fyoa5x9q9g","prime","5ecc2a43543cc180222321d3","5f60e3c0a3b16e07647b2ff9","5f60ef3695b5a70161ebdf6b","false","null","<div style=""align-items: center; display: flex; color: darkorange; font-size: 90px""><b>ø</b></div>","null","","","","forget_cue","","","","","","","","","","","","","","","",""
"html-keyboard-response","244","682998","0.0-4.0-1.0-0.26","x5oj1fyoa5x9q9g","prime","5ecc2a43543cc180222321d3","5f60e3c0a3b16e07647b2ff9","5f60ef3695b5a70161ebdf6b","false","null","<span style=""color: black; font-size: 48px"">M + N</span>","null","","","","resp_prompt","","","","","","","","","","","","","","","",""
"categorize-image","245","683857","0.0-4.0-1.0-1.26","x5oj1fyoa5x9q9g","prime","5ecc2a43543cc180222321d3","5f60e3c0a3b16e07647b2ff9","5f60ef3695b5a70161ebdf6b","true","853.5349999984028","./Stimuli/SelectedImages/SM/SM108.bmp","76","","","","test","false","M + N","83","repetition","SM","SM108.bmp","forget","","91","4","prime1","right","","","",""
