"trial_type","trial_index","time_elapsed","internal_node_id","subject","exp_part","prolific_PID","study_ID","session_ID","use","rt","stimulus","key_press","button_pressed","responses","question_order","trial_part","correct","resp_map","correct_resp","probe_condition","category","image","forget_condition","list","trial_num","block_num","block","response","test_part","n_span","sequence","num_spaces"
"pavlovia","0","33","0.0-0.0","8kezsv85n7j12b2","","5efe5fe28d99db366e780cba","5f60e3c0a3b16e07647b2ff9","5f60ee12a4095c01116ded73","false","","","","","","","","","","","","","","","","","","","","","","",""
"html-keyboard-response","1","8989","0.0-1.0-0.0-0.0","8kezsv85n7j12b2","welcome","5efe5fe28d99db366e780cba","5f60e3c0a3b16e07647b2ff9","5f60ee12a4095c01116ded73","false","8941.704999999274","<div align=left>Dear participant, <br> thank you for participating in an online study of the Cognition, Action, and Sustainability Unit of the University of Freiburg! <br> <br>The aim of this study is to examine our ability to remember previously learned information. <br>Our goal is to find out, whether our memory improves, when we only remember information that is relevant to us. <br>The experiment will take about 35 minutes to complete. <br> <br>Please, note that you can only participate in this study if you are using a device with a keyboard (PC, Laptop etc.) <br>and not if you are using a mobile device such as a tablet or smartphone.<br> <br>Press 'SPACE' to proceed to the experiment. </div>","32","","","","","","","","","","","","","","","","","","","",""
"html-keyboard-response","2","32621","0.0-1.0-0.0-1.0","8kezsv85n7j12b2","welcome","5efe5fe28d99db366e780cba","5f60e3c0a3b16e07647b2ff9","5f60ee12a4095c01116ded73","false","23624.939999999697","<div align=left><strong> Time Course of this experiment: </strong> <br><br> <strong> 1.</strong>  First, please fill in some information regarding your demographic data. <br><br> <strong> 2.</strong>  Next, your task will be to classify everyday objects. <br>In addition, you will be asked to remember certain objects and recall them later. <br>Working on these tasks requires your undivided attention and concentration.<br>It is therefore essential that you eliminate any sources of distraction in your  <br>environment and ensure that you will not be disturbed. <br><br><strong> 3.</strong>  At the end of the experiment, you will be asked to answer a few additional questions. <br> <br><strong> Important:</strong> After finishing the experiment, only close the browser window <br> by clicking on the 'end the experiment'-button when you are asked to do so. <br>Closing the browser window prematurely will make the allocation of your participation credit impossible. <br><br> Press 'SPACE' to start the experiment. </div>","32","","","","","","","","","","","","","","","","","","","",""
"html-button-response","3","41248","0.0-1.0-0.0-2.0","8kezsv85n7j12b2","welcome","5efe5fe28d99db366e780cba","5f60e3c0a3b16e07647b2ff9","5f60ee12a4095c01116ded73","true","8618.200000000797","<div align=left><strong> Informed consent </strong>  <br>The aim of our research is to better understand human behavior and mental processes. <br>In the following study your behavior (e.g. choices, reaction times) will be studied. <br> <br><strong> Voluntariness and Anonymity </strong> <br>Your participation in this study is  <strong> voluntary</strong>.<br>You may withdraw your consent to participate at any time without providing a reason for doing so and without fear of prejudice. <br><br>As no personal data will be collected, <strong>your data and your person cannot be connected after data collection</strong> – the data-set is anonymous. <br>Respectively, deletion of your data will not be possible after data collection has been completed, as we cannot retrace your data-set.<br>The results and anonymized data collected in this study will be published as a scientific publication. <br>This will happen in an <strong>anonymized format</strong>, so that no data can be traced back to a specific person. <br> <br>The anonymized data of this study will be made available to other researchers and/or in a data archive on the Internet as a means of transparency and to enable subsequent re-use. By doing so, this study follows the recommendations of the Deutsche Forschungsgemeinschaft (DFG, German Research Foundation) and Deutsche Gesellschaft für Psychologie (DGPS, German Psychological Society) regarding quality assurance in research.<br>If you have any questions now or after the experiment, please contact our team (experiments@cs.uni-freiburg.de).<br><br><br>I hereby declare, that I understand the above described conditions of participation and I agree to participate under these conditions. <br><br> </div>","","0","","","","","","","","","","","","","","","","","","",""
"html-keyboard-response","4","47981","0.0-1.0-0.0-3.0","8kezsv85n7j12b2","welcome","5efe5fe28d99db366e780cba","5f60e3c0a3b16e07647b2ff9","5f60ee12a4095c01116ded73","false","6725.500000000466","<div align=left><strong> General information concerning the experiment </strong>  <br> <br>Please follow the instructions:<ol> <li><strong> Do not leave this tab (your browser window) during the experiment and do not reload this tab! </strong>  <br>If you do switch tabs/windows during the experiment (to check your mail or visit another website, for example), <br>the experiment will end automatically and you will <strong>not receive credit</strong> for your participation. <br>Repeated participation or resumption of the experiment is impossible.</li> <br><li>Please close all other programs for the duration of your participation. </li> <br><li>Please mute or turn off your phone and put it out of your reach. </li> <br><li>Please also take off any disturbing accessories (such as wristwatches, bracelets, etc.). </li> <br><li>If you have music playing in the background, please turn it off now. </li> <br></ol>Thank you! <br>Press 'SPACE' to continue. </div>","32","","","","","","","","","","","","","","","","","","","",""
"survey-text","5","53699","0.0-1.0-1.0-0.0","8kezsv85n7j12b2","demographics","5efe5fe28d99db366e780cba","5f60e3c0a3b16e07647b2ff9","5f60ee12a4095c01116ded73","true","5698.05500000075","","","","{""age"":""28""}","","","","","","","","","","","","","","","","","",""
"survey-multi-choice","6","78606","0.0-1.0-1.0-1.0","8kezsv85n7j12b2","demographics","5efe5fe28d99db366e780cba","5f60e3c0a3b16e07647b2ff9","5f60ee12a4095c01116ded73","true","24894.28500000031","","","","{""gender"":""female"",""school"":""high school"",""education"":""Completed university degree or equivalent""}","[0,1,2]","","","","","","","","","","","","","","","","",""
"html-keyboard-response","7","80935","0.0-1.0-2.0","8kezsv85n7j12b2","instructions","5efe5fe28d99db366e780cba","5f60e3c0a3b16e07647b2ff9","5f60ee12a4095c01116ded73","false","2320.130000000063","<div align=left> The experiment is now about to start: <br> <br>In the following part, you will be presented pictures of everyday objects. <br>Your first task is to <strong>classify these objects. </strong> <br> <br> You will classify them either as mechanical or non-mechanical objects. <br> <br>Objects that include any kind of technical mechanism (for example, wheels, switches, levers, <br> electronic components) fall under the category of <strong>mechanical</strong> objects. <br>Only objects without any kind of technical mechanism should be classified as <strong>non-mechanical</strong>. <br><br>Press 'SPACE' to continue. </div>","32","","","","","","","","","","","","","","","","","","","",""
"html-keyboard-response","8","92151","0.0-2.0-0.0","8kezsv85n7j12b2","instructions","5efe5fe28d99db366e780cba","5f60e3c0a3b16e07647b2ff9","5f60ee12a4095c01116ded73","false","11210.83499999986","<div align=justify>You will classify the objects using the <strong>'S'</strong> and the <strong>'L'</strong> keys on your keyboard.<br>For doing so, please place your <strong>left index finger</strong> on the <strong>'S'</strong> key and place your <strong>right index finger</strong> on the <strong>'L'</strong> key. <br><br> Each trial starts with an instruction, indicating which key ('S'/'L') you need to press to classify <br>the object as mechanical (letter M) or non-mechanical (letter N).<br>The instruction <strong>M + N</strong> indicates that, in the current trial, by pressing the left key ('S') you classify the displayed object as mechanical (M) <br> and by pressing the right key ('L') you classify the object as non-mechanical (N). <br>The instruction <strong>N + M</strong> on the other hand indicates that by pressing the left key ('S') you classify the displayed object as non-mechanical (N) <br> and by pressing the right key ('L') you classify the object as mechanical (M). <br><br>Please press the key corresponding to the correct classification as fast as possible as soon as the object is displayed and try to avoid making mistakes.<br>If you do not respond within a 2 second window, a corresponding feedback will be displayed and the next trial will start.<br> The experiment is divided into multiple blocks to give you the opportunity to take a break after each block. <br>First, you can now practice this task. <br><br>Please place your <strong>LEFT INDEX FINGER</strong> on the 'S' key and your <strong>RIGHT INDEX FINGER</strong> on the 'L' key now. <br><br>Press SPACE to continue.</div>","32","","","","","","","","","","","","","","","","","","","",""
"html-keyboard-response","9","100530","0.0-2.0-1.0","8kezsv85n7j12b2","instructions","5efe5fe28d99db366e780cba","5f60e3c0a3b16e07647b2ff9","5f60ee12a4095c01116ded73","false","8374.270000000251","<div align=left> You will now have time to practice this task.<br><br>Remember: <br> <br><li>Please place your index fingers on the <strong>'S'</strong> and <strong>'L'</strong> keys <br>to respond as fast and accurately as possible.</li><li>Every picture can be classified as either mechanical or non-mechanical.</li><li>If you do not respond in time or commit an error, you will receive a corresponding feedback. </li><li> Please try to respond as <strong> fast </strong> and as <strong> accurately as possible </strong> .<br><li>To ensure optimal results, please minimize distractions and stay focused. </li><br><br>Press SPACE to continue.</div>","32","","","","","","","","","","","","","","","","","","","",""
"html-keyboard-response","10","101240","0.0-2.0-2.0-0.0","8kezsv85n7j12b2","practice_no_cue","5efe5fe28d99db366e780cba","5f60e3c0a3b16e07647b2ff9","5f60ee12a4095c01116ded73","false","null","<span style=""color: black; font-size: 48px"">N + M</span>","null","","","","resp_prompt","","","","","","","","","","","","","","","",""
"categorize-image","11","103757","0.0-2.0-2.0-1.0","8kezsv85n7j12b2","practice_no_cue","5efe5fe28d99db366e780cba","5f60e3c0a3b16e07647b2ff9","5f60ee12a4095c01116ded73","true","null","./Stimuli/ImagesPractice/SN205.jpg","null","","","","test","false","N + M","83","","SN","SN205.jpg","forget","old","1","1","start","too_slow","","","",""
"html-keyboard-response","12","104462","0.0-2.0-2.0-0.1","8kezsv85n7j12b2","practice_no_cue","5efe5fe28d99db366e780cba","5f60e3c0a3b16e07647b2ff9","5f60ee12a4095c01116ded73","false","null","<span style=""color: black; font-size: 48px"">M + N</span>","null","","","","resp_prompt","","","","","","","","","","","","","","","",""
"categorize-image","13","106975","0.0-2.0-2.0-1.1","8kezsv85n7j12b2","practice_no_cue","5efe5fe28d99db366e780cba","5f60e3c0a3b16e07647b2ff9","5f60ee12a4095c01116ded73","true","null","./Stimuli/ImagesPractice/SM98.jpg","null","","","","test","false","M + N","83","","SM","SM98.jpg","remember","old","2","1","start","too_slow","","","",""
"html-keyboard-response","14","107683","0.0-2.0-2.0-0.2","8kezsv85n7j12b2","practice_no_cue","5efe5fe28d99db366e780cba","5f60e3c0a3b16e07647b2ff9","5f60ee12a4095c01116ded73","false","null","<span style=""color: black; font-size: 48px"">M + N</span>","null","","","","resp_prompt","","","","","","","","","","","","","","","",""
"categorize-image","15","109957","0.0-2.0-2.0-1.2","8kezsv85n7j12b2","practice_no_cue","5efe5fe28d99db366e780cba","5f60e3c0a3b16e07647b2ff9","5f60ee12a4095c01116ded73","true","1764.1700000003766","./Stimuli/ImagesPractice/LN72.jpg","76","","","","test","true","M + N","76","","LN","LN72.jpg","forget","old","3","1","start","right","","","",""
"html-keyboard-response","16","110664","0.0-2.0-2.0-0.3","8kezsv85n7j12b2","practice_no_cue","5efe5fe28d99db366e780cba","5f60e3c0a3b16e07647b2ff9","5f60ee12a4095c01116ded73","false","null","<span style=""color: black; font-size: 48px"">N + M</span>","null","","","","resp_prompt","","","","","","","","","","","","","","","",""
"categorize-image","17","111951","0.0-2.0-2.0-1.3","8kezsv85n7j12b2","practice_no_cue","5efe5fe28d99db366e780cba","5f60e3c0a3b16e07647b2ff9","5f60ee12a4095c01116ded73","true","777.4750000007771","./Stimuli/ImagesPractice/LN109.jpg","76","","","","test","false","N + M","83","","LN","LN109.jpg","remember","old","4","1","start","right","","","",""
"html-keyboard-response","18","112655","0.0-2.0-2.0-0.4","8kezsv85n7j12b2","practice_no_cue","5efe5fe28d99db366e780cba","5f60e3c0a3b16e07647b2ff9","5f60ee12a4095c01116ded73","false","null","<span style=""color: black; font-size: 48px"">M + N</span>","null","","","","resp_prompt","","","","","","","","","","","","","","","",""
"categorize-image","19","114064","0.0-2.0-2.0-1.4","8kezsv85n7j12b2","practice_no_cue","5efe5fe28d99db366e780cba","5f60e3c0a3b16e07647b2ff9","5f60ee12a4095c01116ded73","true","899.7600000002421","./Stimuli/ImagesPractice/SN221.jpg","76","","","","test","true","M + N","76","","SN","SN221.jpg","forget","old","5","1","start","right","","","",""
"html-keyboard-response","20","114769","0.0-2.0-2.0-0.5","8kezsv85n7j12b2","practice_no_cue","5efe5fe28d99db366e780cba","5f60e3c0a3b16e07647b2ff9","5f60ee12a4095c01116ded73","false","null","<span style=""color: black; font-size: 48px"">N + M</span>","null","","","","resp_prompt","","","","","","","","","","","","","","","",""
"categorize-image","21","116106","0.0-2.0-2.0-1.5","8kezsv85n7j12b2","practice_no_cue","5efe5fe28d99db366e780cba","5f60e3c0a3b16e07647b2ff9","5f60ee12a4095c01116ded73","true","830.6499999998778","./Stimuli/ImagesPractice/LM143.jpg","76","","","","test","true","N + M","76","","LM","LM143.jpg","remember","old","6","1","start","right","","","",""
"html-keyboard-response","22","116813","0.0-2.0-2.0-0.6","8kezsv85n7j12b2","practice_no_cue","5efe5fe28d99db366e780cba","5f60e3c0a3b16e07647b2ff9","5f60ee12a4095c01116ded73","false","null","<span style=""color: black; font-size: 48px"">M + N</span>","null","","","","resp_prompt","","","","","","","","","","","","","","","",""
"categorize-image","23","117941","0.0-2.0-2.0-1.6","8kezsv85n7j12b2","practice_no_cue","5efe5fe28d99db366e780cba","5f60e3c0a3b16e07647b2ff9","5f60ee12a4095c01116ded73","true","618.0700000004435","./Stimuli/ImagesPractice/SN75.jpg","76","","","","test","true","M + N","76","","SN","SN75.jpg","remember","old","7","1","start","right","","","",""
"html-keyboard-response","24","118647","0.0-2.0-2.0-0.7","8kezsv85n7j12b2","practice_no_cue","5efe5fe28d99db366e780cba","5f60e3c0a3b16e07647b2ff9","5f60ee12a4095c01116ded73","false","null","<span style=""color: black; font-size: 48px"">M + N</span>","null","","","","resp_prompt","","","","","","","","","","","","","","","",""
"categorize-image","25","119870","0.0-2.0-2.0-1.7","8kezsv85n7j12b2","practice_no_cue","5efe5fe28d99db366e780cba","5f60e3c0a3b16e07647b2ff9","5f60ee12a4095c01116ded73","true","709.8450000012235","./Stimuli/ImagesPractice/SM35.jpg","76","","","","test","false","M + N","83","","SM","SM35.jpg","remember","old","8","1","start","right","","","",""
"html-keyboard-response","26","120575","0.0-2.0-2.0-0.8","8kezsv85n7j12b2","practice_no_cue","5efe5fe28d99db366e780cba","5f60e3c0a3b16e07647b2ff9","5f60ee12a4095c01116ded73","false","null","<span style=""color: black; font-size: 48px"">N + M</span>","null","","","","resp_prompt","","","","","","","","","","","","","","","",""
"categorize-image","27","121708","0.0-2.0-2.0-1.8","8kezsv85n7j12b2","practice_no_cue","5efe5fe28d99db366e780cba","5f60e3c0a3b16e07647b2ff9","5f60ee12a4095c01116ded73","true","623.265000000174","./Stimuli/ImagesPractice/LN17.jpg","76","","","","test","false","N + M","83","","LN","LN17.jpg","forget","old","9","1","start","right","","","",""
"html-keyboard-response","28","122414","0.0-2.0-2.0-0.9","8kezsv85n7j12b2","practice_no_cue","5efe5fe28d99db366e780cba","5f60e3c0a3b16e07647b2ff9","5f60ee12a4095c01116ded73","false","null","<span style=""color: black; font-size: 48px"">N + M</span>","null","","","","resp_prompt","","","","","","","","","","","","","","","",""
"categorize-image","29","123689","0.0-2.0-2.0-1.9","8kezsv85n7j12b2","practice_no_cue","5efe5fe28d99db366e780cba","5f60e3c0a3b16e07647b2ff9","5f60ee12a4095c01116ded73","true","769.0949999996374","./Stimuli/ImagesPractice/SM97.jpg","83","","","","test","false","N + M","76","","SM","SM97.jpg","forget","old","10","1","start","left","","","",""
"html-keyboard-response","30","124393","0.0-2.0-2.0-0.10","8kezsv85n7j12b2","practice_no_cue","5efe5fe28d99db366e780cba","5f60e3c0a3b16e07647b2ff9","5f60ee12a4095c01116ded73","false","null","<span style=""color: black; font-size: 48px"">M + N</span>","null","","","","resp_prompt","","","","","","","","","","","","","","","",""
"categorize-image","31","125750","0.0-2.0-2.0-1.10","8kezsv85n7j12b2","practice_no_cue","5efe5fe28d99db366e780cba","5f60e3c0a3b16e07647b2ff9","5f60ee12a4095c01116ded73","true","849.7499999994179","./Stimuli/ImagesPractice/LM147.jpg","83","","","","test","true","M + N","83","","LM","LM147.jpg","forget","old","11","1","start","left","","","",""
"html-keyboard-response","32","126455","0.0-2.0-2.0-0.11","8kezsv85n7j12b2","practice_no_cue","5efe5fe28d99db366e780cba","5f60e3c0a3b16e07647b2ff9","5f60ee12a4095c01116ded73","false","null","<span style=""color: black; font-size: 48px"">N + M</span>","null","","","","resp_prompt","","","","","","","","","","","","","","","",""
"categorize-image","33","127772","0.0-2.0-2.0-1.11","8kezsv85n7j12b2","practice_no_cue","5efe5fe28d99db366e780cba","5f60e3c0a3b16e07647b2ff9","5f60ee12a4095c01116ded73","true","807.8000000004831","./Stimuli/ImagesPractice/LN2.jpg","76","","","","test","false","N + M","83","","LN","LN2.jpg","remember","old","12","1","start","right","","","",""
"html-keyboard-response","34","128477","0.0-2.0-2.0-0.12","8kezsv85n7j12b2","practice_no_cue","5efe5fe28d99db366e780cba","5f60e3c0a3b16e07647b2ff9","5f60ee12a4095c01116ded73","false","null","<span style=""color: black; font-size: 48px"">N + M</span>","null","","","","resp_prompt","","","","","","","","","","","","","","","",""
"categorize-image","35","129708","0.0-2.0-2.0-1.12","8kezsv85n7j12b2","practice_no_cue","5efe5fe28d99db366e780cba","5f60e3c0a3b16e07647b2ff9","5f60ee12a4095c01116ded73","true","721.7749999999651","./Stimuli/ImagesPractice/LM239.jpg","76","","","","test","true","N + M","76","","LM","LM239.jpg","forget","old","13","1","start","right","","","",""
"html-keyboard-response","36","130413","0.0-2.0-2.0-0.13","8kezsv85n7j12b2","practice_no_cue","5efe5fe28d99db366e780cba","5f60e3c0a3b16e07647b2ff9","5f60ee12a4095c01116ded73","false","null","<span style=""color: black; font-size: 48px"">N + M</span>","null","","","","resp_prompt","","","","","","","","","","","","","","","",""
"categorize-image","37","131579","0.0-2.0-2.0-1.13","8kezsv85n7j12b2","practice_no_cue","5efe5fe28d99db366e780cba","5f60e3c0a3b16e07647b2ff9","5f60ee12a4095c01116ded73","true","658.6600000009639","./Stimuli/ImagesPractice/LN15.jpg","83","","","","test","true","N + M","83","","LN","LN15.jpg","remember","old","14","1","start","left","","","",""
"html-keyboard-response","38","132286","0.0-2.0-2.0-0.14","8kezsv85n7j12b2","practice_no_cue","5efe5fe28d99db366e780cba","5f60e3c0a3b16e07647b2ff9","5f60ee12a4095c01116ded73","false","null","<span style=""color: black; font-size: 48px"">M + N</span>","null","","","","resp_prompt","","","","","","","","","","","","","","","",""
"categorize-image","39","133502","0.0-2.0-2.0-1.14","8kezsv85n7j12b2","practice_no_cue","5efe5fe28d99db366e780cba","5f60e3c0a3b16e07647b2ff9","5f60ee12a4095c01116ded73","true","708.3999999995285","./Stimuli/ImagesPractice/LM55.jpg","83","","","","test","true","M + N","83","","LM","LM55.jpg","forget","old","15","1","start","left","","","",""
"html-keyboard-response","40","134208","0.0-2.0-2.0-0.15","8kezsv85n7j12b2","practice_no_cue","5efe5fe28d99db366e780cba","5f60e3c0a3b16e07647b2ff9","5f60ee12a4095c01116ded73","false","null","<span style=""color: black; font-size: 48px"">M + N</span>","null","","","","resp_prompt","","","","","","","","","","","","","","","",""
"categorize-image","41","135363","0.0-2.0-2.0-1.15","8kezsv85n7j12b2","practice_no_cue","5efe5fe28d99db366e780cba","5f60e3c0a3b16e07647b2ff9","5f60ee12a4095c01116ded73","true","650.0299999988929","./Stimuli/ImagesPractice/LN4.jpg","83","","","","test","false","M + N","76","","LN","LN4.jpg","remember","old","16","1","start","left","","","",""
"html-keyboard-response","42","140472","0.0-2.0-3.0","8kezsv85n7j12b2","break","5efe5fe28d99db366e780cba","5f60e3c0a3b16e07647b2ff9","5f60ee12a4095c01116ded73","false","5100.999999998719","<p style='font-size: 32px;'>Break</><br><br><br><br><br><p style='font-size: 24px;'>In the last block, you committed 6 errors and did not respond in time on 2 trials.
</p><p style='font-size: 24px;'>Try to respond as fast and accurately as possible in the next block as well! </p><p style='font-size: 24px;'>Press SPACE to continue.</p>","32","","","","","","","","","","","","","","","","","","","",""
"html-keyboard-response","43","144110","0.0-2.0-4.0","8kezsv85n7j12b2","instructions","5efe5fe28d99db366e780cba","5f60e3c0a3b16e07647b2ff9","5f60ee12a4095c01116ded73","false","3633.6749999991152","<div align=left> Great!<br><br>Are you ready to continue?<br><br>If you want to reread the instructions and redo the practice trials, <br>please press „Z“. <br><br>Press SPACE to CONTINUE with the experiment when you are ready. </div>","32","","","","","","","","","","","","","","","","","","","",""
"html-keyboard-response","44","168141","0.0-3.0-0.0","8kezsv85n7j12b2","instructions","5efe5fe28d99db366e780cba","5f60e3c0a3b16e07647b2ff9","5f60ee12a4095c01116ded73","false","24024.65999999916","<div align=left>Great!<br> <strong>Attention</strong>! You will now receive a second, additional task! <br><br>To this point it was you <strong>first task</strong> to correctly <strong>classify objects</strong>. <br><br>As mentioned in the beginning, we aim to examine how well humans can remember previously learned information.<br>We would like to find out whether our memory improves if we only remember information that is relevant to us. <br><br>Therefore, your <strong>second task</strong> will be to <strong>remember</strong> the pictures you are to categorize. <br> After the learning phase, there will be a memory test phase, in which you will be asked to indicate whether you have seen a picture before or not. <br>Some, but not all pictures shown in the learning phase will appear in the memory test phase.<br>After classifying a picture, you will be told whether you should remember it for the memory test phase or not. <br>Thus, some pictures can be forgotten, whereas others have to be remembered. <br><br>Note: From now on, feedback will only be displayed if you responded incorrectly or not in time.<br><br>Press SPACE to continue.</div>","32","","","","","","","","","","","","","","","","","","","",""
"html-keyboard-response","45","180602","0.0-3.0-1.0","8kezsv85n7j12b2","instructions","5efe5fe28d99db366e780cba","5f60e3c0a3b16e07647b2ff9","5f60ee12a4095c01116ded73","false","12458.59500000006","<div align=left>In the following part, you will thus have to remember only some pictures. <br>Immediately after seeing and classifying the picture, a symbol will be displayed, indicating whether you should remember or forget the previous picture. <br><br>A <span style='color: dodgerblue; font-size: 28px'>O</span> indicates REMEMBER. That means, you have to remember this picture, because it will be tested later. <br><br>A <span style='color: darkorange; font-size:28px'>Ø</span> indicates FORGET. You do not have to remember this picture. <br><br> As you will have to remember a lot of pictures, it will be hard for you to remember all of them. <br>It will put you at an advantage if you instantly forget the pictures you are not asked to remember. <br> This will make it easier for you to remember the pictures that will be tested afterwards. <br><br>Press SPACE to continue.</div>","32","","","","","","","","","","","","","","","","","","","",""
"html-keyboard-response","46","190550","0.0-3.0-2.0","8kezsv85n7j12b2","instructions","5efe5fe28d99db366e780cba","5f60e3c0a3b16e07647b2ff9","5f60ee12a4095c01116ded73","false","9943.80000000092","<div align=left> Now you have the chance to practice both tasks together.<br><br>Remember: <br> <br><li>Please place your index fingers on the <strong>'S'</strong> and <strong>'L'</strong> keys <br>to respond as fast and accurately as possible.</li><li>Every picture can be classified as either mechanical or non-mechanical.</li><li>If you do not respond in time or commit an error, you will receive a corresponding feedback. <br>Please try to respond as <strong> fast </strong> and as <strong> accurately as possible </strong>.</li><li> Please remember only the to-be-remembered <span style='color: dodgerblue; font-size: 28px'>O</span> pictures. <br></li><li> Please minimize distractions and stay focused. </li><br><br>Press SPACE to START</div>","32","","","","","","","","","","","","","","","","","","","",""
"html-keyboard-response","47","191254","0.0-3.0-3.0-0.0","8kezsv85n7j12b2","practice_cue","5efe5fe28d99db366e780cba","5f60e3c0a3b16e07647b2ff9","5f60ee12a4095c01116ded73","false","null","<span style=""color: black; font-size: 48px"">M + N</span>","null","","","","resp_prompt","","","","","","","","","","","","","","","",""
"categorize-image","48","192006","0.0-3.0-3.0-1.0","8kezsv85n7j12b2","practice_cue","5efe5fe28d99db366e780cba","5f60e3c0a3b16e07647b2ff9","5f60ee12a4095c01116ded73","true","739.2849999996542","./Stimuli/ImagesPractice/LN4.jpg","76","","","","test","true","M + N","76","","LN","LN4.jpg","remember","old","17","2","practice_forget","right","","","",""
"html-keyboard-response","49","194013","0.0-3.0-3.0-3.0","8kezsv85n7j12b2","practice_cue","5efe5fe28d99db366e780cba","5f60e3c0a3b16e07647b2ff9","5f60ee12a4095c01116ded73","false","null","<div style=""align-items: center; display: flex; color: dodgerblue; font-size: 90px""><b>o</b></div>","null","","","","forget_cue","","","","","","","","","","","","","","","",""
"html-keyboard-response","50","194720","0.0-3.0-3.0-0.1","8kezsv85n7j12b2","practice_cue","5efe5fe28d99db366e780cba","5f60e3c0a3b16e07647b2ff9","5f60ee12a4095c01116ded73","false","null","<span style=""color: black; font-size: 48px"">M + N</span>","null","","","","resp_prompt","","","","","","","","","","","","","","","",""
"categorize-image","51","195497","0.0-3.0-3.0-1.1","8kezsv85n7j12b2","practice_cue","5efe5fe28d99db366e780cba","5f60e3c0a3b16e07647b2ff9","5f60ee12a4095c01116ded73","true","764.5249999986845","./Stimuli/ImagesPractice/LM55.jpg","83","","","","test","true","M + N","83","","LM","LM55.jpg","forget","old","18","2","practice_forget","left","","","",""
"html-keyboard-response","52","197504","0.0-3.0-3.0-3.1","8kezsv85n7j12b2","practice_cue","5efe5fe28d99db366e780cba","5f60e3c0a3b16e07647b2ff9","5f60ee12a4095c01116ded73","false","null","<div style=""align-items: center; display: flex; color: darkorange; font-size: 90px""><b>ø</b></div>","null","","","","forget_cue","","","","","","","","","","","","","","","",""
"html-keyboard-response","53","198209","0.0-3.0-3.0-0.2","8kezsv85n7j12b2","practice_cue","5efe5fe28d99db366e780cba","5f60e3c0a3b16e07647b2ff9","5f60ee12a4095c01116ded73","false","null","<span style=""color: black; font-size: 48px"">N + M</span>","null","","","","resp_prompt","","","","","","","","","","","","","","","",""
"categorize-image","54","198889","0.0-3.0-3.0-1.2","8kezsv85n7j12b2","practice_cue","5efe5fe28d99db366e780cba","5f60e3c0a3b16e07647b2ff9","5f60ee12a4095c01116ded73","true","670.0149999996938","./Stimuli/ImagesPractice/SN205.jpg","76","","","","test","false","N + M","83","","SN","SN205.jpg","forget","old","19","2","practice_forget","right","","","",""
"html-keyboard-response","55","199397","0.0-3.0-3.0-2.2-0.2","8kezsv85n7j12b2","practice_cue","5efe5fe28d99db366e780cba","5f60e3c0a3b16e07647b2ff9","5f60ee12a4095c01116ded73","false","null","<span style=""color: red; font-size: 48px"">Error!</span>","null","","","","feedback","","","","","","","","","","","","","","","",""
"html-keyboard-response","56","201402","0.0-3.0-3.0-3.2","8kezsv85n7j12b2","practice_cue","5efe5fe28d99db366e780cba","5f60e3c0a3b16e07647b2ff9","5f60ee12a4095c01116ded73","false","null","<div style=""align-items: center; display: flex; color: darkorange; font-size: 90px""><b>ø</b></div>","null","","","","forget_cue","","","","","","","","","","","","","","","",""
"html-keyboard-response","57","202106","0.0-3.0-3.0-0.3","8kezsv85n7j12b2","practice_cue","5efe5fe28d99db366e780cba","5f60e3c0a3b16e07647b2ff9","5f60ee12a4095c01116ded73","false","null","<span style=""color: black; font-size: 48px"">N + M</span>","null","","","","resp_prompt","","","","","","","","","","","","","","","",""
"categorize-image","58","202766","0.0-3.0-3.0-1.3","8kezsv85n7j12b2","practice_cue","5efe5fe28d99db366e780cba","5f60e3c0a3b16e07647b2ff9","5f60ee12a4095c01116ded73","true","649.2099999995844","./Stimuli/ImagesPractice/LM143.jpg","76","","","","test","true","N + M","76","","LM","LM143.jpg","remember","old","20","2","practice_forget","right","","","",""
"html-keyboard-response","59","204772","0.0-3.0-3.0-3.3","8kezsv85n7j12b2","practice_cue","5efe5fe28d99db366e780cba","5f60e3c0a3b16e07647b2ff9","5f60ee12a4095c01116ded73","false","null","<div style=""align-items: center; display: flex; color: dodgerblue; font-size: 90px""><b>o</b></div>","null","","","","forget_cue","","","","","","","","","","","","","","","",""
"html-keyboard-response","60","205477","0.0-3.0-3.0-0.4","8kezsv85n7j12b2","practice_cue","5efe5fe28d99db366e780cba","5f60e3c0a3b16e07647b2ff9","5f60ee12a4095c01116ded73","false","null","<span style=""color: black; font-size: 48px"">N + M</span>","null","","","","resp_prompt","","","","","","","","","","","","","","","",""
"categorize-image","61","206236","0.0-3.0-3.0-1.4","8kezsv85n7j12b2","practice_cue","5efe5fe28d99db366e780cba","5f60e3c0a3b16e07647b2ff9","5f60ee12a4095c01116ded73","true","747.6050000005052","./Stimuli/ImagesPractice/LN15.jpg","76","","","","test","false","N + M","83","","LN","LN15.jpg","remember","old","21","2","practice_forget","right","","","",""
"html-keyboard-response","62","206740","0.0-3.0-3.0-2.4-0.4","8kezsv85n7j12b2","practice_cue","5efe5fe28d99db366e780cba","5f60e3c0a3b16e07647b2ff9","5f60ee12a4095c01116ded73","false","null","<span style=""color: red; font-size: 48px"">Error!</span>","null","","","","feedback","","","","","","","","","","","","","","","",""
"html-keyboard-response","63","208746","0.0-3.0-3.0-3.4","8kezsv85n7j12b2","practice_cue","5efe5fe28d99db366e780cba","5f60e3c0a3b16e07647b2ff9","5f60ee12a4095c01116ded73","false","null","<div style=""align-items: center; display: flex; color: dodgerblue; font-size: 90px""><b>o</b></div>","null","","","","forget_cue","","","","","","","","","","","","","","","",""
"html-keyboard-response","64","209450","0.0-3.0-3.0-0.5","8kezsv85n7j12b2","practice_cue","5efe5fe28d99db366e780cba","5f60e3c0a3b16e07647b2ff9","5f60ee12a4095c01116ded73","false","null","<span style=""color: black; font-size: 48px"">M + N</span>","null","","","","resp_prompt","","","","","","","","","","","","","","","",""
"categorize-image","65","210299","0.0-3.0-3.0-1.5","8kezsv85n7j12b2","practice_cue","5efe5fe28d99db366e780cba","5f60e3c0a3b16e07647b2ff9","5f60ee12a4095c01116ded73","true","837.5849999993225","./Stimuli/ImagesPractice/SM35.jpg","83","","","","test","true","M + N","83","","SM","SM35.jpg","remember","old","22","2","practice_forget","left","","","",""
"html-keyboard-response","66","212303","0.0-3.0-3.0-3.5","8kezsv85n7j12b2","practice_cue","5efe5fe28d99db366e780cba","5f60e3c0a3b16e07647b2ff9","5f60ee12a4095c01116ded73","false","null","<div style=""align-items: center; display: flex; color: dodgerblue; font-size: 90px""><b>o</b></div>","null","","","","forget_cue","","","","","","","","","","","","","","","",""
"html-keyboard-response","67","213008","0.0-3.0-3.0-0.6","8kezsv85n7j12b2","practice_cue","5efe5fe28d99db366e780cba","5f60e3c0a3b16e07647b2ff9","5f60ee12a4095c01116ded73","false","null","<span style=""color: black; font-size: 48px"">M + N</span>","null","","","","resp_prompt","","","","","","","","","","","","","","","",""
"categorize-image","68","213831","0.0-3.0-3.0-1.6","8kezsv85n7j12b2","practice_cue","5efe5fe28d99db366e780cba","5f60e3c0a3b16e07647b2ff9","5f60ee12a4095c01116ded73","true","812.0400000007357","./Stimuli/ImagesPractice/LN72.jpg","76","","","","test","true","M + N","76","","LN","LN72.jpg","forget","old","23","2","practice_forget","right","","","",""
"html-keyboard-response","69","215836","0.0-3.0-3.0-3.6","8kezsv85n7j12b2","practice_cue","5efe5fe28d99db366e780cba","5f60e3c0a3b16e07647b2ff9","5f60ee12a4095c01116ded73","false","null","<div style=""align-items: center; display: flex; color: darkorange; font-size: 90px""><b>ø</b></div>","null","","","","forget_cue","","","","","","","","","","","","","","","",""
"html-keyboard-response","70","216540","0.0-3.0-3.0-0.7","8kezsv85n7j12b2","practice_cue","5efe5fe28d99db366e780cba","5f60e3c0a3b16e07647b2ff9","5f60ee12a4095c01116ded73","false","null","<span style=""color: black; font-size: 48px"">N + M</span>","null","","","","resp_prompt","","","","","","","","","","","","","","","",""
"categorize-image","71","217445","0.0-3.0-3.0-1.7","8kezsv85n7j12b2","practice_cue","5efe5fe28d99db366e780cba","5f60e3c0a3b16e07647b2ff9","5f60ee12a4095c01116ded73","true","895.3200000014331","./Stimuli/ImagesPractice/LN109.jpg","83","","","","test","true","N + M","83","","LN","LN109.jpg","remember","old","24","2","practice_forget","left","","","",""
"html-keyboard-response","72","219448","0.0-3.0-3.0-3.7","8kezsv85n7j12b2","practice_cue","5efe5fe28d99db366e780cba","5f60e3c0a3b16e07647b2ff9","5f60ee12a4095c01116ded73","false","null","<div style=""align-items: center; display: flex; color: dodgerblue; font-size: 90px""><b>o</b></div>","null","","","","forget_cue","","","","","","","","","","","","","","","",""
"html-keyboard-response","73","220153","0.0-3.0-3.0-0.8","8kezsv85n7j12b2","practice_cue","5efe5fe28d99db366e780cba","5f60e3c0a3b16e07647b2ff9","5f60ee12a4095c01116ded73","false","null","<span style=""color: black; font-size: 48px"">M + N</span>","null","","","","resp_prompt","","","","","","","","","","","","","","","",""
"categorize-image","74","221222","0.0-3.0-3.0-1.8","8kezsv85n7j12b2","practice_cue","5efe5fe28d99db366e780cba","5f60e3c0a3b16e07647b2ff9","5f60ee12a4095c01116ded73","true","1058.4149999995134","./Stimuli/ImagesPractice/LM147.jpg","76","","","","test","false","M + N","83","","LM","LM147.jpg","forget","old","25","2","practice_forget","right","","","",""
"html-keyboard-response","75","221726","0.0-3.0-3.0-2.8-0.8","8kezsv85n7j12b2","practice_cue","5efe5fe28d99db366e780cba","5f60e3c0a3b16e07647b2ff9","5f60ee12a4095c01116ded73","false","null","<span style=""color: red; font-size: 48px"">Error!</span>","null","","","","feedback","","","","","","","","","","","","","","","",""
"html-keyboard-response","76","223730","0.0-3.0-3.0-3.8","8kezsv85n7j12b2","practice_cue","5efe5fe28d99db366e780cba","5f60e3c0a3b16e07647b2ff9","5f60ee12a4095c01116ded73","false","null","<div style=""align-items: center; display: flex; color: darkorange; font-size: 90px""><b>ø</b></div>","null","","","","forget_cue","","","","","","","","","","","","","","","",""
"html-keyboard-response","77","224442","0.0-3.0-3.0-0.9","8kezsv85n7j12b2","practice_cue","5efe5fe28d99db366e780cba","5f60e3c0a3b16e07647b2ff9","5f60ee12a4095c01116ded73","false","null","<span style=""color: black; font-size: 48px"">N + M</span>","null","","","","resp_prompt","","","","","","","","","","","","","","","",""
"categorize-image","78","225038","0.0-3.0-3.0-1.9","8kezsv85n7j12b2","practice_cue","5efe5fe28d99db366e780cba","5f60e3c0a3b16e07647b2ff9","5f60ee12a4095c01116ded73","true","585.5099999989907","./Stimuli/ImagesPractice/LN17.jpg","76","","","","test","false","N + M","83","","LN","LN17.jpg","forget","old","26","2","practice_forget","right","","","",""
"html-keyboard-response","79","225545","0.0-3.0-3.0-2.9-0.9","8kezsv85n7j12b2","practice_cue","5efe5fe28d99db366e780cba","5f60e3c0a3b16e07647b2ff9","5f60ee12a4095c01116ded73","false","null","<span style=""color: red; font-size: 48px"">Error!</span>","null","","","","feedback","","","","","","","","","","","","","","","",""
"html-keyboard-response","80","227552","0.0-3.0-3.0-3.9","8kezsv85n7j12b2","practice_cue","5efe5fe28d99db366e780cba","5f60e3c0a3b16e07647b2ff9","5f60ee12a4095c01116ded73","false","null","<div style=""align-items: center; display: flex; color: darkorange; font-size: 90px""><b>ø</b></div>","null","","","","forget_cue","","","","","","","","","","","","","","","",""
"html-keyboard-response","81","228256","0.0-3.0-3.0-0.10","8kezsv85n7j12b2","practice_cue","5efe5fe28d99db366e780cba","5f60e3c0a3b16e07647b2ff9","5f60ee12a4095c01116ded73","false","null","<span style=""color: black; font-size: 48px"">M + N</span>","null","","","","resp_prompt","","","","","","","","","","","","","","","",""
"categorize-image","82","228783","0.0-3.0-3.0-1.10","8kezsv85n7j12b2","practice_cue","5efe5fe28d99db366e780cba","5f60e3c0a3b16e07647b2ff9","5f60ee12a4095c01116ded73","true","516.6000000008498","./Stimuli/ImagesPractice/SN221.jpg","76","","","","test","true","M + N","76","","SN","SN221.jpg","forget","old","27","2","practice_forget","right","","","",""
"html-keyboard-response","83","230787","0.0-3.0-3.0-3.10","8kezsv85n7j12b2","practice_cue","5efe5fe28d99db366e780cba","5f60e3c0a3b16e07647b2ff9","5f60ee12a4095c01116ded73","false","null","<div style=""align-items: center; display: flex; color: darkorange; font-size: 90px""><b>ø</b></div>","null","","","","forget_cue","","","","","","","","","","","","","","","",""
"html-keyboard-response","84","231496","0.0-3.0-3.0-0.11","8kezsv85n7j12b2","practice_cue","5efe5fe28d99db366e780cba","5f60e3c0a3b16e07647b2ff9","5f60ee12a4095c01116ded73","false","null","<span style=""color: black; font-size: 48px"">N + M</span>","null","","","","resp_prompt","","","","","","","","","","","","","","","",""
"categorize-image","85","232064","0.0-3.0-3.0-1.11","8kezsv85n7j12b2","practice_cue","5efe5fe28d99db366e780cba","5f60e3c0a3b16e07647b2ff9","5f60ee12a4095c01116ded73","true","554.6950000007346","./Stimuli/ImagesPractice/LN2.jpg","76","","","","test","false","N + M","83","","LN","LN2.jpg","remember","old","28","2","practice_forget","right","","","",""
"html-keyboard-response","86","232572","0.0-3.0-3.0-2.11-0.11","8kezsv85n7j12b2","practice_cue","5efe5fe28d99db366e780cba","5f60e3c0a3b16e07647b2ff9","5f60ee12a4095c01116ded73","false","null","<span style=""color: red; font-size: 48px"">Error!</span>","null","","","","feedback","","","","","","","","","","","","","","","",""
"html-keyboard-response","87","234578","0.0-3.0-3.0-3.11","8kezsv85n7j12b2","practice_cue","5efe5fe28d99db366e780cba","5f60e3c0a3b16e07647b2ff9","5f60ee12a4095c01116ded73","false","null","<div style=""align-items: center; display: flex; color: dodgerblue; font-size: 90px""><b>o</b></div>","null","","","","forget_cue","","","","","","","","","","","","","","","",""
"html-keyboard-response","88","235282","0.0-3.0-3.0-0.12","8kezsv85n7j12b2","practice_cue","5efe5fe28d99db366e780cba","5f60e3c0a3b16e07647b2ff9","5f60ee12a4095c01116ded73","false","null","<span style=""color: black; font-size: 48px"">M + N</span>","null","","","","resp_prompt","","","","","","","","","","","","","","","",""
"categorize-image","89","235778","0.0-3.0-3.0-1.12","8kezsv85n7j12b2","practice_cue","5efe5fe28d99db366e780cba","5f60e3c0a3b16e07647b2ff9","5f60ee12a4095c01116ded73","true","484.9900000008638","./Stimuli/ImagesPractice/SM98.jpg","83","","","","test","true","M + N","83","","SM","SM98.jpg","remember","old","29","2","practice_forget","left","","","",""
"html-keyboard-response","90","237782","0.0-3.0-3.0-3.12","8kezsv85n7j12b2","practice_cue","5efe5fe28d99db366e780cba","5f60e3c0a3b16e07647b2ff9","5f60ee12a4095c01116ded73","false","null","<div style=""align-items: center; display: flex; color: dodgerblue; font-size: 90px""><b>o</b></div>","null","","","","forget_cue","","","","","","","","","","","","","","","",""
"html-keyboard-response","91","238487","0.0-3.0-3.0-0.13","8kezsv85n7j12b2","practice_cue","5efe5fe28d99db366e780cba","5f60e3c0a3b16e07647b2ff9","5f60ee12a4095c01116ded73","false","null","<span style=""color: black; font-size: 48px"">M + N</span>","null","","","","resp_prompt","","","","","","","","","","","","","","","",""
"categorize-image","92","239051","0.0-3.0-3.0-1.13","8kezsv85n7j12b2","practice_cue","5efe5fe28d99db366e780cba","5f60e3c0a3b16e07647b2ff9","5f60ee12a4095c01116ded73","true","554.149999999936","./Stimuli/ImagesPractice/SN75.jpg","76","","","","test","true","M + N","76","","SN","SN75.jpg","remember","old","30","2","practice_forget","right","","","",""
"html-keyboard-response","93","241058","0.0-3.0-3.0-3.13","8kezsv85n7j12b2","practice_cue","5efe5fe28d99db366e780cba","5f60e3c0a3b16e07647b2ff9","5f60ee12a4095c01116ded73","false","null","<div style=""align-items: center; display: flex; color: dodgerblue; font-size: 90px""><b>o</b></div>","null","","","","forget_cue","","","","","","","","","","","","","","","",""
"html-keyboard-response","94","241763","0.0-3.0-3.0-0.14","8kezsv85n7j12b2","practice_cue","5efe5fe28d99db366e780cba","5f60e3c0a3b16e07647b2ff9","5f60ee12a4095c01116ded73","false","null","<span style=""color: black; font-size: 48px"">N + M</span>","null","","","","resp_prompt","","","","","","","","","","","","","","","",""
"categorize-image","95","242305","0.0-3.0-3.0-1.14","8kezsv85n7j12b2","practice_cue","5efe5fe28d99db366e780cba","5f60e3c0a3b16e07647b2ff9","5f60ee12a4095c01116ded73","true","530.5250000001106","./Stimuli/ImagesPractice/LM239.jpg","76","","","","test","true","N + M","76","","LM","LM239.jpg","forget","old","31","2","practice_forget","right","","","",""
"html-keyboard-response","96","244311","0.0-3.0-3.0-3.14","8kezsv85n7j12b2","practice_cue","5efe5fe28d99db366e780cba","5f60e3c0a3b16e07647b2ff9","5f60ee12a4095c01116ded73","false","null","<div style=""align-items: center; display: flex; color: darkorange; font-size: 90px""><b>ø</b></div>","null","","","","forget_cue","","","","","","","","","","","","","","","",""
"html-keyboard-response","97","245013","0.0-3.0-3.0-0.15","8kezsv85n7j12b2","practice_cue","5efe5fe28d99db366e780cba","5f60e3c0a3b16e07647b2ff9","5f60ee12a4095c01116ded73","false","null","<span style=""color: black; font-size: 48px"">N + M</span>","null","","","","resp_prompt","","","","","","","","","","","","","","","",""
"categorize-image","98","245480","0.0-3.0-3.0-1.15","8kezsv85n7j12b2","practice_cue","5efe5fe28d99db366e780cba","5f60e3c0a3b16e07647b2ff9","5f60ee12a4095c01116ded73","true","455.7999999996973","./Stimuli/ImagesPractice/SM97.jpg","83","","","","test","false","N + M","76","","SM","SM97.jpg","forget","old","32","2","practice_forget","left","","","",""
"html-keyboard-response","99","245985","0.0-3.0-3.0-2.15-0.15","8kezsv85n7j12b2","practice_cue","5efe5fe28d99db366e780cba","5f60e3c0a3b16e07647b2ff9","5f60ee12a4095c01116ded73","false","null","<span style=""color: red; font-size: 48px"">Error!</span>","null","","","","feedback","","","","","","","","","","","","","","","",""
"html-keyboard-response","100","247989","0.0-3.0-3.0-3.15","8kezsv85n7j12b2","practice_cue","5efe5fe28d99db366e780cba","5f60e3c0a3b16e07647b2ff9","5f60ee12a4095c01116ded73","false","null","<div style=""align-items: center; display: flex; color: darkorange; font-size: 90px""><b>ø</b></div>","null","","","","forget_cue","","","","","","","","","","","","","","","",""
"html-keyboard-response","101","254797","0.0-3.0-4.0","8kezsv85n7j12b2","break","5efe5fe28d99db366e780cba","5f60e3c0a3b16e07647b2ff9","5f60ee12a4095c01116ded73","false","6803.099999999162","<p style='font-size: 32px;'>Break</><br><br><br><br><br><p style='font-size: 24px;'>In the last block, you committed 6 errors and did not respond in time on 0 trials.
</p><p style='font-size: 24px;'>Try to respond as fast and accurately as possible in the next block as well! </p><p style='font-size: 24px;'>Press SPACE to continue.</p>","32","","","","","","","","","","","","","","","","","","","",""
"html-keyboard-response","102","261461","0.0-3.0-5.0","8kezsv85n7j12b2","instructions","5efe5fe28d99db366e780cba","5f60e3c0a3b16e07647b2ff9","5f60ee12a4095c01116ded73","false","6659.825000000594","<div align=left> Now, to practice, we kindly ask you to remember as many of the to-be-remembered pictures<br>of the previous learning phase as possible.<br><br>The pictures you were instructed to remember were the pictures followed by a <span style='color: dodgerblue; font-size: 28px'>O</span>.<br><br>In this memory test phase, you will also see some new pictures.<br>It is your task to remember whether you were presented with this specific picture in this study so far or not.<br>If you recognize an object (you have already seen it in this study), it is an OLD object. <br>If you do not recognize an object (you have NOT seen it in this study), it is a NEW object. <br><strong> Attention</strong>: As already mentioned, <span style='color: darkorange; font-size:28px'>Ø</span>-pictures will <strong>never</strong> appear in this memory test (neither as new objects). <br><br>Press SPACE to continue. </div>","32","","","","","","","","","","","","","","","","","","","",""
"html-keyboard-response","103","296759","0.0-3.0-6.0","8kezsv85n7j12b2","instructions","5efe5fe28d99db366e780cba","5f60e3c0a3b16e07647b2ff9","5f60ee12a4095c01116ded73","false","35291.41499999969","<div align=left> M and N no longer will appear on the left/right of the fixation cross. <br>Instead there will be a note at the bottom of the left or right side  <br>indicating which key you should press for an old or new object:  <br> <br>Press the <strong>right</strong> key to classify an object as <strong>old</strong> and press the <strong>left</strong>, to classify an object as <strong>new</strong>.<br>Please classify the objects as new/old by again placing your index finger on the 'S' and 'L' keys <br>and press them accordingly.<br><br><strong>Old:</strong> This object has been presented before. <br><strong>New:</strong> This object has <strong>not</strong> been presented.<br><br>Now please put your right and left index fingers on the 'S' and 'L' keys of your keyboard. <br>Please respond as fast and as accurately as possible!<br><br>Press SPACE to continue. </div>","32","","","","","","","","","","","","","","","","","","","",""
"categorize-image","104","298940","0.0-3.0-7.0-0.0","8kezsv85n7j12b2","practice_recog","5efe5fe28d99db366e780cba","5f60e3c0a3b16e07647b2ff9","5f60ee12a4095c01116ded73","true","1669.6400000000722","./Stimuli/ImagesPractice/LM230.jpg","76","","","","test","true","","76","","LM","LM230.jpg","","new","33","3","practice_recog","right","","","",""
"categorize-image","105","300101","0.0-3.0-7.0-0.1","8kezsv85n7j12b2","practice_recog","5efe5fe28d99db366e780cba","5f60e3c0a3b16e07647b2ff9","5f60ee12a4095c01116ded73","true","653.0000000002328","./Stimuli/ImagesPractice/LM224.jpg","76","","","","test","true","","76","","LM","LM224.jpg","","new","34","3","practice_recog","right","","","",""
"categorize-image","106","301270","0.0-3.0-7.0-0.2","8kezsv85n7j12b2","practice_recog","5efe5fe28d99db366e780cba","5f60e3c0a3b16e07647b2ff9","5f60ee12a4095c01116ded73","true","660.2000000002445","./Stimuli/ImagesPractice/SM37.jpg","76","","","","test","true","","76","","SM","SM37.jpg","","new","35","3","practice_recog","right","","","",""
"categorize-image","107","302299","0.0-3.0-7.0-0.3","8kezsv85n7j12b2","practice_recog","5efe5fe28d99db366e780cba","5f60e3c0a3b16e07647b2ff9","5f60ee12a4095c01116ded73","true","519.6300000007031","./Stimuli/ImagesPractice/LN4.jpg","83","","","","test","true","","83","","LN","LN4.jpg","","old","36","3","practice_recog","left","","","",""
"categorize-image","108","303519","0.0-3.0-7.0-0.4","8kezsv85n7j12b2","practice_recog","5efe5fe28d99db366e780cba","5f60e3c0a3b16e07647b2ff9","5f60ee12a4095c01116ded73","true","712.1549999992712","./Stimuli/ImagesPractice/SM62.jpg","76","","","","test","true","","76","","SM","SM62.jpg","","new","37","3","practice_recog","right","","","",""
"categorize-image","109","304635","0.0-3.0-7.0-0.5","8kezsv85n7j12b2","practice_recog","5efe5fe28d99db366e780cba","5f60e3c0a3b16e07647b2ff9","5f60ee12a4095c01116ded73","true","607.1099999990547","./Stimuli/ImagesPractice/SN75.jpg","76","","","","test","false","","83","","SN","SN75.jpg","","old","38","3","practice_recog","right","","","",""
"categorize-image","110","305711","0.0-3.0-7.0-0.6","8kezsv85n7j12b2","practice_recog","5efe5fe28d99db366e780cba","5f60e3c0a3b16e07647b2ff9","5f60ee12a4095c01116ded73","true","567.960000000312","./Stimuli/ImagesPractice/SM35.jpg","83","","","","test","true","","83","","SM","SM35.jpg","","old","39","3","practice_recog","left","","","",""
"categorize-image","111","306811","0.0-3.0-7.0-0.7","8kezsv85n7j12b2","practice_recog","5efe5fe28d99db366e780cba","5f60e3c0a3b16e07647b2ff9","5f60ee12a4095c01116ded73","true","590.0000000001164","./Stimuli/ImagesPractice/SN220.jpg","76","","","","test","true","","76","","SN","SN220.jpg","","new","40","3","practice_recog","right","","","",""
"categorize-image","112","307932","0.0-3.0-7.0-0.8","8kezsv85n7j12b2","practice_recog","5efe5fe28d99db366e780cba","5f60e3c0a3b16e07647b2ff9","5f60ee12a4095c01116ded73","true","611.6349999993108","./Stimuli/ImagesPractice/SN76.jpg","76","","","","test","true","","76","","SN","SN76.jpg","","new","41","3","practice_recog","right","","","",""
"categorize-image","113","309083","0.0-3.0-7.0-0.9","8kezsv85n7j12b2","practice_recog","5efe5fe28d99db366e780cba","5f60e3c0a3b16e07647b2ff9","5f60ee12a4095c01116ded73","true","640.7799999997369","./Stimuli/ImagesPractice/LN109.jpg","83","","","","test","true","","83","","LN","LN109.jpg","","old","42","3","practice_recog","left","","","",""
"categorize-image","114","310203","0.0-3.0-7.0-0.10","8kezsv85n7j12b2","practice_recog","5efe5fe28d99db366e780cba","5f60e3c0a3b16e07647b2ff9","5f60ee12a4095c01116ded73","true","610.2700000010082","./Stimuli/ImagesPractice/LM143.jpg","83","","","","test","true","","83","","LM","LM143.jpg","","old","43","3","practice_recog","left","","","",""
"categorize-image","115","311338","0.0-3.0-7.0-0.11","8kezsv85n7j12b2","practice_recog","5efe5fe28d99db366e780cba","5f60e3c0a3b16e07647b2ff9","5f60ee12a4095c01116ded73","true","624.8799999994226","./Stimuli/ImagesPractice/SM98.jpg","83","","","","test","true","","83","","SM","SM98.jpg","","old","44","3","practice_recog","left","","","",""
"categorize-image","116","312650","0.0-3.0-7.0-0.12","8kezsv85n7j12b2","practice_recog","5efe5fe28d99db366e780cba","5f60e3c0a3b16e07647b2ff9","5f60ee12a4095c01116ded73","true","803.920000000333","./Stimuli/ImagesPractice/SM61.jpg","76","","","","test","true","","76","","SM","SM61.jpg","","new","45","3","practice_recog","right","","","",""
"categorize-image","117","313662","0.0-3.0-7.0-0.13","8kezsv85n7j12b2","practice_recog","5efe5fe28d99db366e780cba","5f60e3c0a3b16e07647b2ff9","5f60ee12a4095c01116ded73","true","502.27499999891734","./Stimuli/ImagesPractice/LN2.jpg","83","","","","test","true","","83","","LN","LN2.jpg","","old","46","3","practice_recog","left","","","",""
"categorize-image","118","314780","0.0-3.0-7.0-0.14","8kezsv85n7j12b2","practice_recog","5efe5fe28d99db366e780cba","5f60e3c0a3b16e07647b2ff9","5f60ee12a4095c01116ded73","true","608.2249999999767","./Stimuli/ImagesPractice/SN222.jpg","76","","","","test","true","","76","","SN","SN222.jpg","","new","47","3","practice_recog","right","","","",""
"categorize-image","119","315818","0.0-3.0-7.0-0.15","8kezsv85n7j12b2","practice_recog","5efe5fe28d99db366e780cba","5f60e3c0a3b16e07647b2ff9","5f60ee12a4095c01116ded73","true","528.7950000001583","./Stimuli/ImagesPractice/LN15.jpg","83","","","","test","true","","83","","LN","LN15.jpg","","old","48","3","practice_recog","left","","","",""
"html-keyboard-response","120","318991","0.0-3.0-8.0","8kezsv85n7j12b2","instructions","5efe5fe28d99db366e780cba","5f60e3c0a3b16e07647b2ff9","5f60ee12a4095c01116ded73","false","3168.944999999483","<div align=left> Great!<br><br>Are you ready to continue?<br>If you want to reread the instructions and redo the practice trials, please <br>press „Z“.<br><br>You can proceed when you are ready.<br><br>After the presentation of each object, you will receive an instruction whether to <br>remember or to forget the object.<br>We will test your memory of the following pictures only at the very end of <br>the experiment after all learning blocks are completed. <br><br>Press SPACE to CONTINUE when you are ready. </div>","32","","","","","","","","","","","","","","","","","","","",""
"html-keyboard-response","121","325347","0.0-4.0-0.0","8kezsv85n7j12b2","instructions","5efe5fe28d99db366e780cba","5f60e3c0a3b16e07647b2ff9","5f60ee12a4095c01116ded73","false","6351.530000001716","<div align=left> The actual experiment is about to start.<br>The practice trials are over!<br><br>Please always respond both fast and accurately!<br><br>Remember: <br> <br><li> Please place your index fingers on the <strong>'S'</strong> and <strong>'L'</strong> keys <br>to respond as fast and accurately as possible.</li><li> Every picture can be classified as either mechanical or non-mechanical.</li><li> If you do not respond in time or commit an error, you will receive a corresponding feedback.<br> Please try to respond as <strong> fast </strong> and as <strong> accurately as possible </strong>.</li><li> Remember the <span style='color: dodgerblue; font-size: 28px'>O</span> pictures. <br></li><li> Please minimize distractions and stay focused. </li><br><br>Press SPACE to START.</div>","32","","","","","","","","","","","","","","","","","","","",""
"html-keyboard-response","122","326055","0.0-4.0-1.0-0.0","8kezsv85n7j12b2","prime","5efe5fe28d99db366e780cba","5f60e3c0a3b16e07647b2ff9","5f60ee12a4095c01116ded73","false","null","<span style=""color: black; font-size: 48px"">M + N</span>","null","","","","resp_prompt","","","","","","","","","","","","","","","",""
"categorize-image","123","327412","0.0-4.0-1.0-1.0","8kezsv85n7j12b2","prime","5efe5fe28d99db366e780cba","5f60e3c0a3b16e07647b2ff9","5f60ee12a4095c01116ded73","true","1344.7449999985402","./Stimuli/SelectedImages/SM/SM78.bmp","83","","","","test","true","M + N","83","switch","SM","SM78.bmp","remember","","49","3","prime1","left","","","",""
"html-keyboard-response","124","329420","0.0-4.0-1.0-3.0","8kezsv85n7j12b2","prime","5efe5fe28d99db366e780cba","5f60e3c0a3b16e07647b2ff9","5f60ee12a4095c01116ded73","false","null","<div style=""align-items: center; display: flex; color: dodgerblue; font-size: 90px""><b>o</b></div>","null","","","","forget_cue","","","","","","","","","","","","","","","",""
"html-keyboard-response","125","330124","0.0-4.0-1.0-0.1","8kezsv85n7j12b2","prime","5efe5fe28d99db366e780cba","5f60e3c0a3b16e07647b2ff9","5f60ee12a4095c01116ded73","false","null","<span style=""color: black; font-size: 48px"">M + N</span>","null","","","","resp_prompt","","","","","","","","","","","","","","","",""
"categorize-image","126","330826","0.0-4.0-1.0-1.1","8kezsv85n7j12b2","prime","5efe5fe28d99db366e780cba","5f60e3c0a3b16e07647b2ff9","5f60ee12a4095c01116ded73","true","690.2050000008312","./Stimuli/SelectedImages/SM/SM108.bmp","83","","","","test","true","M + N","83","repetition","SM","SM108.bmp","forget","","50","3","prime1","left","","","",""
"html-keyboard-response","127","332829","0.0-4.0-1.0-3.1","8kezsv85n7j12b2","prime","5efe5fe28d99db366e780cba","5f60e3c0a3b16e07647b2ff9","5f60ee12a4095c01116ded73","false","null","<div style=""align-items: center; display: flex; color: darkorange; font-size: 90px""><b>ø</b></div>","null","","","","forget_cue","","","","","","","","","","","","","","","",""
"html-keyboard-response","128","333535","0.0-4.0-1.0-0.2","8kezsv85n7j12b2","prime","5efe5fe28d99db366e780cba","5f60e3c0a3b16e07647b2ff9","5f60ee12a4095c01116ded73","false","null","<span style=""color: black; font-size: 48px"">N + M</span>","null","","","","resp_prompt","","","","","","","","","","","","","","","",""
"categorize-image","129","334066","0.0-4.0-1.0-1.2","8kezsv85n7j12b2","prime","5efe5fe28d99db366e780cba","5f60e3c0a3b16e07647b2ff9","5f60ee12a4095c01116ded73","true","520.2200000003795","./Stimuli/SelectedImages/LM/LM157.bmp","83","","","","test","false","N + M","76","switch","LM","LM157.bmp","forget","","51","3","prime1","left","","","",""
"html-keyboard-response","130","334571","0.0-4.0-1.0-2.2-0.2","8kezsv85n7j12b2","prime","5efe5fe28d99db366e780cba","5f60e3c0a3b16e07647b2ff9","5f60ee12a4095c01116ded73","false","null","<span style=""color: red; font-size: 48px"">Error!</span>","null","","","","feedback","","","","","","","","","","","","","","","",""
"html-keyboard-response","131","336578","0.0-4.0-1.0-3.2","8kezsv85n7j12b2","prime","5efe5fe28d99db366e780cba","5f60e3c0a3b16e07647b2ff9","5f60ee12a4095c01116ded73","false","null","<div style=""align-items: center; display: flex; color: darkorange; font-size: 90px""><b>ø</b></div>","null","","","","forget_cue","","","","","","","","","","","","","","","",""
"html-keyboard-response","132","337284","0.0-4.0-1.0-0.3","8kezsv85n7j12b2","prime","5efe5fe28d99db366e780cba","5f60e3c0a3b16e07647b2ff9","5f60ee12a4095c01116ded73","false","null","<span style=""color: black; font-size: 48px"">N + M</span>","null","","","","resp_prompt","","","","","","","","","","","","","","","",""
"categorize-image","133","337852","0.0-4.0-1.0-1.3","8kezsv85n7j12b2","prime","5efe5fe28d99db366e780cba","5f60e3c0a3b16e07647b2ff9","5f60ee12a4095c01116ded73","true","558.4199999994016","./Stimuli/SelectedImages/LN/LN59.bmp","83","","","","test","true","N + M","83","repetition","LN","LN59.bmp","forget","","52","3","prime1","left","","","",""
"html-keyboard-response","134","339858","0.0-4.0-1.0-3.3","8kezsv85n7j12b2","prime","5efe5fe28d99db366e780cba","5f60e3c0a3b16e07647b2ff9","5f60ee12a4095c01116ded73","false","null","<div style=""align-items: center; display: flex; color: darkorange; font-size: 90px""><b>ø</b></div>","null","","","","forget_cue","","","","","","","","","","","","","","","",""
"html-keyboard-response","135","340562","0.0-4.0-1.0-0.4","8kezsv85n7j12b2","prime","5efe5fe28d99db366e780cba","5f60e3c0a3b16e07647b2ff9","5f60ee12a4095c01116ded73","false","null","<span style=""color: black; font-size: 48px"">M + N</span>","null","","","","resp_prompt","","","","","","","","","","","","","","","",""
"categorize-image","136","341029","0.0-4.0-1.0-1.4","8kezsv85n7j12b2","prime","5efe5fe28d99db366e780cba","5f60e3c0a3b16e07647b2ff9","5f60ee12a4095c01116ded73","true","455.3350000005448","./Stimuli/SelectedImages/SN/SN187.bmp","76","","","","test","true","M + N","76","switch","SN","SN187.bmp","remember","","53","3","prime1","right","","","",""
"html-keyboard-response","137","343037","0.0-4.0-1.0-3.4","8kezsv85n7j12b2","prime","5efe5fe28d99db366e780cba","5f60e3c0a3b16e07647b2ff9","5f60ee12a4095c01116ded73","false","null","<div style=""align-items: center; display: flex; color: dodgerblue; font-size: 90px""><b>o</b></div>","null","","","","forget_cue","","","","","","","","","","","","","","","",""
"html-keyboard-response","138","343743","0.0-4.0-1.0-0.5","8kezsv85n7j12b2","prime","5efe5fe28d99db366e780cba","5f60e3c0a3b16e07647b2ff9","5f60ee12a4095c01116ded73","false","null","<span style=""color: black; font-size: 48px"">N + M</span>","null","","","","resp_prompt","","","","","","","","","","","","","","","",""
"categorize-image","139","344558","0.0-4.0-1.0-1.5","8kezsv85n7j12b2","prime","5efe5fe28d99db366e780cba","5f60e3c0a3b16e07647b2ff9","5f60ee12a4095c01116ded73","true","804.0849999997881","./Stimuli/SelectedImages/LN/LN13.bmp","76","","","","test","false","N + M","83","repetition","LN","LN13.bmp","remember","","54","3","prime1","right","","","",""
"html-keyboard-response","140","345063","0.0-4.0-1.0-2.5-0.5","8kezsv85n7j12b2","prime","5efe5fe28d99db366e780cba","5f60e3c0a3b16e07647b2ff9","5f60ee12a4095c01116ded73","false","null","<span style=""color: red; font-size: 48px"">Error!</span>","null","","","","feedback","","","","","","","","","","","","","","","",""
"html-keyboard-response","141","347069","0.0-4.0-1.0-3.5","8kezsv85n7j12b2","prime","5efe5fe28d99db366e780cba","5f60e3c0a3b16e07647b2ff9","5f60ee12a4095c01116ded73","false","null","<div style=""align-items: center; display: flex; color: dodgerblue; font-size: 90px""><b>o</b></div>","null","","","","forget_cue","","","","","","","","","","","","","","","",""
"html-keyboard-response","142","347773","0.0-4.0-1.0-0.6","8kezsv85n7j12b2","prime","5efe5fe28d99db366e780cba","5f60e3c0a3b16e07647b2ff9","5f60ee12a4095c01116ded73","false","null","<span style=""color: black; font-size: 48px"">M + N</span>","null","","","","resp_prompt","","","","","","","","","","","","","","","",""
"categorize-image","143","348421","0.0-4.0-1.0-1.6","8kezsv85n7j12b2","prime","5efe5fe28d99db366e780cba","5f60e3c0a3b16e07647b2ff9","5f60ee12a4095c01116ded73","true","636.8849999998929","./Stimuli/SelectedImages/LM/LM75.bmp","83","","","","test","true","M + N","83","switch","LM","LM75.bmp","forget","","55","3","prime1","left","","","",""
"html-keyboard-response","144","350428","0.0-4.0-1.0-3.6","8kezsv85n7j12b2","prime","5efe5fe28d99db366e780cba","5f60e3c0a3b16e07647b2ff9","5f60ee12a4095c01116ded73","false","null","<div style=""align-items: center; display: flex; color: darkorange; font-size: 90px""><b>ø</b></div>","null","","","","forget_cue","","","","","","","","","","","","","","","",""
"html-keyboard-response","145","351131","0.0-4.0-1.0-0.7","8kezsv85n7j12b2","prime","5efe5fe28d99db366e780cba","5f60e3c0a3b16e07647b2ff9","5f60ee12a4095c01116ded73","false","null","<span style=""color: black; font-size: 48px"">N + M</span>","null","","","","resp_prompt","","","","","","","","","","","","","","","",""
"categorize-image","146","351743","0.0-4.0-1.0-1.7","8kezsv85n7j12b2","prime","5efe5fe28d99db366e780cba","5f60e3c0a3b16e07647b2ff9","5f60ee12a4095c01116ded73","true","602.3100000002305","./Stimuli/SelectedImages/SM/SM148.bmp","83","","","","test","false","N + M","76","repetition","SM","SM148.bmp","forget","","56","3","prime1","left","","","",""
"html-keyboard-response","147","352248","0.0-4.0-1.0-2.7-0.7","8kezsv85n7j12b2","prime","5efe5fe28d99db366e780cba","5f60e3c0a3b16e07647b2ff9","5f60ee12a4095c01116ded73","false","null","<span style=""color: red; font-size: 48px"">Error!</span>","null","","","","feedback","","","","","","","","","","","","","","","",""
"html-keyboard-response","148","354260","0.0-4.0-1.0-3.7","8kezsv85n7j12b2","prime","5efe5fe28d99db366e780cba","5f60e3c0a3b16e07647b2ff9","5f60ee12a4095c01116ded73","false","null","<div style=""align-items: center; display: flex; color: darkorange; font-size: 90px""><b>ø</b></div>","null","","","","forget_cue","","","","","","","","","","","","","","","",""
"html-keyboard-response","149","354963","0.0-4.0-1.0-0.8","8kezsv85n7j12b2","prime","5efe5fe28d99db366e780cba","5f60e3c0a3b16e07647b2ff9","5f60ee12a4095c01116ded73","false","null","<span style=""color: black; font-size: 48px"">N + M</span>","null","","","","resp_prompt","","","","","","","","","","","","","","","",""
"categorize-image","150","355532","0.0-4.0-1.0-1.8","8kezsv85n7j12b2","prime","5efe5fe28d99db366e780cba","5f60e3c0a3b16e07647b2ff9","5f60ee12a4095c01116ded73","true","557.0850000003702","./Stimuli/SelectedImages/LM/LM150.bmp","83","","","","test","false","N + M","76","repetition","LM","LM150.bmp","remember","","57","3","prime1","left","","","",""
"html-keyboard-response","151","356036","0.0-4.0-1.0-2.8-0.8","8kezsv85n7j12b2","prime","5efe5fe28d99db366e780cba","5f60e3c0a3b16e07647b2ff9","5f60ee12a4095c01116ded73","false","null","<span style=""color: red; font-size: 48px"">Error!</span>","null","","","","feedback","","","","","","","","","","","","","","","",""
"html-keyboard-response","152","358041","0.0-4.0-1.0-3.8","8kezsv85n7j12b2","prime","5efe5fe28d99db366e780cba","5f60e3c0a3b16e07647b2ff9","5f60ee12a4095c01116ded73","false","null","<div style=""align-items: center; display: flex; color: dodgerblue; font-size: 90px""><b>o</b></div>","null","","","","forget_cue","","","","","","","","","","","","","","","",""
"html-keyboard-response","153","358745","0.0-4.0-1.0-0.9","8kezsv85n7j12b2","prime","5efe5fe28d99db366e780cba","5f60e3c0a3b16e07647b2ff9","5f60ee12a4095c01116ded73","false","null","<span style=""color: black; font-size: 48px"">M + N</span>","null","","","","resp_prompt","","","","","","","","","","","","","","","",""
"categorize-image","154","359372","0.0-4.0-1.0-1.9","8kezsv85n7j12b2","prime","5efe5fe28d99db366e780cba","5f60e3c0a3b16e07647b2ff9","5f60ee12a4095c01116ded73","true","615.9850000003353","./Stimuli/SelectedImages/SM/SM128.bmp","83","","","","test","true","M + N","83","repetition","SM","SM128.bmp","remember","","58","3","prime1","left","","","",""
"html-keyboard-response","155","361376","0.0-4.0-1.0-3.9","8kezsv85n7j12b2","prime","5efe5fe28d99db366e780cba","5f60e3c0a3b16e07647b2ff9","5f60ee12a4095c01116ded73","false","null","<div style=""align-items: center; display: flex; color: dodgerblue; font-size: 90px""><b>o</b></div>","null","","","","forget_cue","","","","","","","","","","","","","","","",""
"html-keyboard-response","156","362080","0.0-4.0-1.0-0.10","8kezsv85n7j12b2","prime","5efe5fe28d99db366e780cba","5f60e3c0a3b16e07647b2ff9","5f60ee12a4095c01116ded73","false","null","<span style=""color: black; font-size: 48px"">N + M</span>","null","","","","resp_prompt","","","","","","","","","","","","","","","",""
"categorize-image","157","362582","0.0-4.0-1.0-1.10","8kezsv85n7j12b2","prime","5efe5fe28d99db366e780cba","5f60e3c0a3b16e07647b2ff9","5f60ee12a4095c01116ded73","true","490.6900000005262","./Stimuli/SelectedImages/LM/LM179.bmp","83","","","","test","false","N + M","76","repetition","LM","LM179.bmp","remember","","59","3","prime1","left","","","",""
"html-keyboard-response","158","363087","0.0-4.0-1.0-2.10-0.10","8kezsv85n7j12b2","prime","5efe5fe28d99db366e780cba","5f60e3c0a3b16e07647b2ff9","5f60ee12a4095c01116ded73","false","null","<span style=""color: red; font-size: 48px"">Error!</span>","null","","","","feedback","","","","","","","","","","","","","","","",""
"html-keyboard-response","159","365094","0.0-4.0-1.0-3.10","8kezsv85n7j12b2","prime","5efe5fe28d99db366e780cba","5f60e3c0a3b16e07647b2ff9","5f60ee12a4095c01116ded73","false","null","<div style=""align-items: center; display: flex; color: dodgerblue; font-size: 90px""><b>o</b></div>","null","","","","forget_cue","","","","","","","","","","","","","","","",""
"html-keyboard-response","160","365801","0.0-4.0-1.0-0.11","8kezsv85n7j12b2","prime","5efe5fe28d99db366e780cba","5f60e3c0a3b16e07647b2ff9","5f60ee12a4095c01116ded73","false","null","<span style=""color: black; font-size: 48px"">M + N</span>","null","","","","resp_prompt","","","","","","","","","","","","","","","",""
"categorize-image","161","366284","0.0-4.0-1.0-1.11","8kezsv85n7j12b2","prime","5efe5fe28d99db366e780cba","5f60e3c0a3b16e07647b2ff9","5f60ee12a4095c01116ded73","true","471.70000000006985","./Stimuli/SelectedImages/SN/SN179.bmp","76","","","","test","true","M + N","76","switch","SN","SN179.bmp","remember","","60","3","prime1","right","","","",""
"html-keyboard-response","162","368288","0.0-4.0-1.0-3.11","8kezsv85n7j12b2","prime","5efe5fe28d99db366e780cba","5f60e3c0a3b16e07647b2ff9","5f60ee12a4095c01116ded73","false","null","<div style=""align-items: center; display: flex; color: dodgerblue; font-size: 90px""><b>o</b></div>","null","","","","forget_cue","","","","","","","","","","","","","","","",""
"html-keyboard-response","163","368995","0.0-4.0-1.0-0.12","8kezsv85n7j12b2","prime","5efe5fe28d99db366e780cba","5f60e3c0a3b16e07647b2ff9","5f60ee12a4095c01116ded73","false","null","<span style=""color: black; font-size: 48px"">N + M</span>","null","","","","resp_prompt","","","","","","","","","","","","","","","",""
"categorize-image","164","369891","0.0-4.0-1.0-1.12","8kezsv85n7j12b2","prime","5efe5fe28d99db366e780cba","5f60e3c0a3b16e07647b2ff9","5f60ee12a4095c01116ded73","true","886.9200000008568","./Stimuli/SelectedImages/LM/LM167.bmp","83","","","","test","false","N + M","76","repetition","LM","LM167.bmp","forget","","61","3","prime1","left","","","",""
"html-keyboard-response","165","370397","0.0-4.0-1.0-2.12-0.12","8kezsv85n7j12b2","prime","5efe5fe28d99db366e780cba","5f60e3c0a3b16e07647b2ff9","5f60ee12a4095c01116ded73","false","null","<span style=""color: red; font-size: 48px"">Error!</span>","null","","","","feedback","","","","","","","","","","","","","","","",""
"html-keyboard-response","166","372403","0.0-4.0-1.0-3.12","8kezsv85n7j12b2","prime","5efe5fe28d99db366e780cba","5f60e3c0a3b16e07647b2ff9","5f60ee12a4095c01116ded73","false","null","<div style=""align-items: center; display: flex; color: darkorange; font-size: 90px""><b>ø</b></div>","null","","","","forget_cue","","","","","","","","","","","","","","","",""
"html-keyboard-response","167","373109","0.0-4.0-1.0-0.13","8kezsv85n7j12b2","prime","5efe5fe28d99db366e780cba","5f60e3c0a3b16e07647b2ff9","5f60ee12a4095c01116ded73","false","null","<span style=""color: black; font-size: 48px"">N + M</span>","null","","","","resp_prompt","","","","","","","","","","","","","","","",""
"categorize-image","168","373660","0.0-4.0-1.0-1.13","8kezsv85n7j12b2","prime","5efe5fe28d99db366e780cba","5f60e3c0a3b16e07647b2ff9","5f60ee12a4095c01116ded73","true","540.1199999996461","./Stimuli/SelectedImages/SN/SN18.bmp","76","","","","test","false","N + M","83","switch","SN","SN18.bmp","remember","","62","3","prime1","right","","","",""
"html-keyboard-response","169","374167","0.0-4.0-1.0-2.13-0.13","8kezsv85n7j12b2","prime","5efe5fe28d99db366e780cba","5f60e3c0a3b16e07647b2ff9","5f60ee12a4095c01116ded73","false","null","<span style=""color: red; font-size: 48px"">Error!</span>","null","","","","feedback","","","","","","","","","","","","","","","",""
"html-keyboard-response","170","376173","0.0-4.0-1.0-3.13","8kezsv85n7j12b2","prime","5efe5fe28d99db366e780cba","5f60e3c0a3b16e07647b2ff9","5f60ee12a4095c01116ded73","false","null","<div style=""align-items: center; display: flex; color: dodgerblue; font-size: 90px""><b>o</b></div>","null","","","","forget_cue","","","","","","","","","","","","","","","",""
"html-keyboard-response","171","376878","0.0-4.0-1.0-0.14","8kezsv85n7j12b2","prime","5efe5fe28d99db366e780cba","5f60e3c0a3b16e07647b2ff9","5f60ee12a4095c01116ded73","false","null","<span style=""color: black; font-size: 48px"">M + N</span>","null","","","","resp_prompt","","","","","","","","","","","","","","","",""
"categorize-image","172","377481","0.0-4.0-1.0-1.14","8kezsv85n7j12b2","prime","5efe5fe28d99db366e780cba","5f60e3c0a3b16e07647b2ff9","5f60ee12a4095c01116ded73","true","592.249999999709","./Stimuli/SelectedImages/SM/SM73.bmp","83","","","","test","true","M + N","83","repetition","SM","SM73.bmp","forget","","63","3","prime1","left","","","",""
"html-keyboard-response","173","379486","0.0-4.0-1.0-3.14","8kezsv85n7j12b2","prime","5efe5fe28d99db366e780cba","5f60e3c0a3b16e07647b2ff9","5f60ee12a4095c01116ded73","false","null","<div style=""align-items: center; display: flex; color: darkorange; font-size: 90px""><b>ø</b></div>","null","","","","forget_cue","","","","","","","","","","","","","","","",""
"html-keyboard-response","174","380191","0.0-4.0-1.0-0.15","8kezsv85n7j12b2","prime","5efe5fe28d99db366e780cba","5f60e3c0a3b16e07647b2ff9","5f60ee12a4095c01116ded73","false","null","<span style=""color: black; font-size: 48px"">N + M</span>","null","","","","resp_prompt","","","","","","","","","","","","","","","",""
"categorize-image","175","380834","0.0-4.0-1.0-1.15","8kezsv85n7j12b2","prime","5efe5fe28d99db366e780cba","5f60e3c0a3b16e07647b2ff9","5f60ee12a4095c01116ded73","true","630.7899999992806","./Stimuli/SelectedImages/SM/SM74.bmp","83","","","","test","false","N + M","76","switch","SM","SM74.bmp","remember","","64","3","prime1","left","","","",""
"html-keyboard-response","176","381337","0.0-4.0-1.0-2.15-0.15","8kezsv85n7j12b2","prime","5efe5fe28d99db366e780cba","5f60e3c0a3b16e07647b2ff9","5f60ee12a4095c01116ded73","false","null","<span style=""color: red; font-size: 48px"">Error!</span>","null","","","","feedback","","","","","","","","","","","","","","","",""
"html-keyboard-response","177","383341","0.0-4.0-1.0-3.15","8kezsv85n7j12b2","prime","5efe5fe28d99db366e780cba","5f60e3c0a3b16e07647b2ff9","5f60ee12a4095c01116ded73","false","null","<div style=""align-items: center; display: flex; color: dodgerblue; font-size: 90px""><b>o</b></div>","null","","","","forget_cue","","","","","","","","","","","","","","","",""
"html-keyboard-response","178","384046","0.0-4.0-1.0-0.16","8kezsv85n7j12b2","prime","5efe5fe28d99db366e780cba","5f60e3c0a3b16e07647b2ff9","5f60ee12a4095c01116ded73","false","null","<span style=""color: black; font-size: 48px"">N + M</span>","null","","","","resp_prompt","","","","","","","","","","","","","","","",""
"categorize-image","179","384582","0.0-4.0-1.0-1.16","8kezsv85n7j12b2","prime","5efe5fe28d99db366e780cba","5f60e3c0a3b16e07647b2ff9","5f60ee12a4095c01116ded73","true","524.6000000006752","./Stimuli/SelectedImages/SN/SN27.bmp","76","","","","test","false","N + M","83","repetition","SN","SN27.bmp","remember","","65","3","prime1","right","","","",""
"html-keyboard-response","180","385089","0.0-4.0-1.0-2.16-0.16","8kezsv85n7j12b2","prime","5efe5fe28d99db366e780cba","5f60e3c0a3b16e07647b2ff9","5f60ee12a4095c01116ded73","false","null","<span style=""color: red; font-size: 48px"">Error!</span>","null","","","","feedback","","","","","","","","","","","","","","","",""
"html-keyboard-response","181","387093","0.0-4.0-1.0-3.16","8kezsv85n7j12b2","prime","5efe5fe28d99db366e780cba","5f60e3c0a3b16e07647b2ff9","5f60ee12a4095c01116ded73","false","null","<div style=""align-items: center; display: flex; color: dodgerblue; font-size: 90px""><b>o</b></div>","null","","","","forget_cue","","","","","","","","","","","","","","","",""
"html-keyboard-response","182","387799","0.0-4.0-1.0-0.17","8kezsv85n7j12b2","prime","5efe5fe28d99db366e780cba","5f60e3c0a3b16e07647b2ff9","5f60ee12a4095c01116ded73","false","null","<span style=""color: black; font-size: 48px"">M + N</span>","null","","","","resp_prompt","","","","","","","","","","","","","","","",""
"categorize-image","183","388351","0.0-4.0-1.0-1.17","8kezsv85n7j12b2","prime","5efe5fe28d99db366e780cba","5f60e3c0a3b16e07647b2ff9","5f60ee12a4095c01116ded73","true","541.1550000008428","./Stimuli/SelectedImages/SM/SM213.bmp","83","","","","test","true","M + N","83","switch","SM","SM213.bmp","forget","","66","3","prime1","left","","","",""
"html-keyboard-response","184","390356","0.0-4.0-1.0-3.17","8kezsv85n7j12b2","prime","5efe5fe28d99db366e780cba","5f60e3c0a3b16e07647b2ff9","5f60ee12a4095c01116ded73","false","null","<div style=""align-items: center; display: flex; color: darkorange; font-size: 90px""><b>ø</b></div>","null","","","","forget_cue","","","","","","","","","","","","","","","",""
"html-keyboard-response","185","391060","0.0-4.0-1.0-0.18","8kezsv85n7j12b2","prime","5efe5fe28d99db366e780cba","5f60e3c0a3b16e07647b2ff9","5f60ee12a4095c01116ded73","false","null","<span style=""color: black; font-size: 48px"">M + N</span>","null","","","","resp_prompt","","","","","","","","","","","","","","","",""
"categorize-image","186","391642","0.0-4.0-1.0-1.18","8kezsv85n7j12b2","prime","5efe5fe28d99db366e780cba","5f60e3c0a3b16e07647b2ff9","5f60ee12a4095c01116ded73","true","572.9699999992736","./Stimuli/SelectedImages/SM/SM76.bmp","83","","","","test","true","M + N","83","switch","SM","SM76.bmp","forget","","67","3","prime1","left","","","",""
"html-keyboard-response","187","393647","0.0-4.0-1.0-3.18","8kezsv85n7j12b2","prime","5efe5fe28d99db366e780cba","5f60e3c0a3b16e07647b2ff9","5f60ee12a4095c01116ded73","false","null","<div style=""align-items: center; display: flex; color: darkorange; font-size: 90px""><b>ø</b></div>","null","","","","forget_cue","","","","","","","","","","","","","","","",""
"html-keyboard-response","188","394353","0.0-4.0-1.0-0.19","8kezsv85n7j12b2","prime","5efe5fe28d99db366e780cba","5f60e3c0a3b16e07647b2ff9","5f60ee12a4095c01116ded73","false","null","<span style=""color: black; font-size: 48px"">N + M</span>","null","","","","resp_prompt","","","","","","","","","","","","","","","",""
"categorize-image","189","395148","0.0-4.0-1.0-1.19","8kezsv85n7j12b2","prime","5efe5fe28d99db366e780cba","5f60e3c0a3b16e07647b2ff9","5f60ee12a4095c01116ded73","true","782.9199999996345","./Stimuli/SelectedImages/SM/SM106.bmp","76","","","","test","true","N + M","76","repetition","SM","SM106.bmp","forget","","68","3","prime1","right","","","",""
"html-keyboard-response","190","397155","0.0-4.0-1.0-3.19","8kezsv85n7j12b2","prime","5efe5fe28d99db366e780cba","5f60e3c0a3b16e07647b2ff9","5f60ee12a4095c01116ded73","false","null","<div style=""align-items: center; display: flex; color: darkorange; font-size: 90px""><b>ø</b></div>","null","","","","forget_cue","","","","","","","","","","","","","","","",""
"html-keyboard-response","191","397860","0.0-4.0-1.0-0.20","8kezsv85n7j12b2","prime","5efe5fe28d99db366e780cba","5f60e3c0a3b16e07647b2ff9","5f60ee12a4095c01116ded73","false","null","<span style=""color: black; font-size: 48px"">M + N</span>","null","","","","resp_prompt","","","","","","","","","","","","","","","",""
"categorize-image","192","398605","0.0-4.0-1.0-1.20","8kezsv85n7j12b2","prime","5efe5fe28d99db366e780cba","5f60e3c0a3b16e07647b2ff9","5f60ee12a4095c01116ded73","true","735.0699999988428","./Stimuli/SelectedImages/SM/SM195.bmp","76","","","","test","false","M + N","83","switch","SM","SM195.bmp","remember","","69","3","prime1","right","","","",""
"html-keyboard-response","193","399109","0.0-4.0-1.0-2.20-0.20","8kezsv85n7j12b2","prime","5efe5fe28d99db366e780cba","5f60e3c0a3b16e07647b2ff9","5f60ee12a4095c01116ded73","false","null","<span style=""color: red; font-size: 48px"">Error!</span>","null","","","","feedback","","","","","","","","","","","","","","","",""
"html-keyboard-response","194","401115","0.0-4.0-1.0-3.20","8kezsv85n7j12b2","prime","5efe5fe28d99db366e780cba","5f60e3c0a3b16e07647b2ff9","5f60ee12a4095c01116ded73","false","null","<div style=""align-items: center; display: flex; color: dodgerblue; font-size: 90px""><b>o</b></div>","null","","","","forget_cue","","","","","","","","","","","","","","","",""
"html-keyboard-response","195","401821","0.0-4.0-1.0-0.21","8kezsv85n7j12b2","prime","5efe5fe28d99db366e780cba","5f60e3c0a3b16e07647b2ff9","5f60ee12a4095c01116ded73","false","null","<span style=""color: black; font-size: 48px"">N + M</span>","null","","","","resp_prompt","","","","","","","","","","","","","","","",""
"categorize-image","196","402311","0.0-4.0-1.0-1.21","8kezsv85n7j12b2","prime","5efe5fe28d99db366e780cba","5f60e3c0a3b16e07647b2ff9","5f60ee12a4095c01116ded73","true","478.6050000002724","./Stimuli/SelectedImages/SM/SM184.bmp","83","","","","test","false","N + M","76","switch","SM","SM184.bmp","forget","","70","3","prime1","left","","","",""
"html-keyboard-response","197","402818","0.0-4.0-1.0-2.21-0.21","8kezsv85n7j12b2","prime","5efe5fe28d99db366e780cba","5f60e3c0a3b16e07647b2ff9","5f60ee12a4095c01116ded73","false","null","<span style=""color: red; font-size: 48px"">Error!</span>","null","","","","feedback","","","","","","","","","","","","","","","",""
"html-keyboard-response","198","404821","0.0-4.0-1.0-3.21","8kezsv85n7j12b2","prime","5efe5fe28d99db366e780cba","5f60e3c0a3b16e07647b2ff9","5f60ee12a4095c01116ded73","false","null","<div style=""align-items: center; display: flex; color: darkorange; font-size: 90px""><b>ø</b></div>","null","","","","forget_cue","","","","","","","","","","","","","","","",""
"html-keyboard-response","199","405525","0.0-4.0-1.0-0.22","8kezsv85n7j12b2","prime","5efe5fe28d99db366e780cba","5f60e3c0a3b16e07647b2ff9","5f60ee12a4095c01116ded73","false","null","<span style=""color: black; font-size: 48px"">M + N</span>","null","","","","resp_prompt","","","","","","","","","","","","","","","",""
"categorize-image","200","406330","0.0-4.0-1.0-1.22","8kezsv85n7j12b2","prime","5efe5fe28d99db366e780cba","5f60e3c0a3b16e07647b2ff9","5f60ee12a4095c01116ded73","true","794.1500000015367","./Stimuli/SelectedImages/LM/LM48.bmp","76","","","","test","false","M + N","83","repetition","LM","LM48.bmp","remember","","71","3","prime1","right","","","",""
"html-keyboard-response","201","406835","0.0-4.0-1.0-2.22-0.22","8kezsv85n7j12b2","prime","5efe5fe28d99db366e780cba","5f60e3c0a3b16e07647b2ff9","5f60ee12a4095c01116ded73","false","null","<span style=""color: red; font-size: 48px"">Error!</span>","null","","","","feedback","","","","","","","","","","","","","","","",""
"html-keyboard-response","202","408838","0.0-4.0-1.0-3.22","8kezsv85n7j12b2","prime","5efe5fe28d99db366e780cba","5f60e3c0a3b16e07647b2ff9","5f60ee12a4095c01116ded73","false","null","<div style=""align-items: center; display: flex; color: dodgerblue; font-size: 90px""><b>o</b></div>","null","","","","forget_cue","","","","","","","","","","","","","","","",""
"html-keyboard-response","203","409544","0.0-4.0-1.0-0.23","8kezsv85n7j12b2","prime","5efe5fe28d99db366e780cba","5f60e3c0a3b16e07647b2ff9","5f60ee12a4095c01116ded73","false","null","<span style=""color: black; font-size: 48px"">N + M</span>","null","","","","resp_prompt","","","","","","","","","","","","","","","",""
"categorize-image","204","410135","0.0-4.0-1.0-1.23","8kezsv85n7j12b2","prime","5efe5fe28d99db366e780cba","5f60e3c0a3b16e07647b2ff9","5f60ee12a4095c01116ded73","true","579.9499999993714","./Stimuli/SelectedImages/SN/SN64.bmp","76","","","","test","false","N + M","83","switch","SN","SN64.bmp","remember","","72","3","prime1","right","","","",""
"html-keyboard-response","205","410642","0.0-4.0-1.0-2.23-0.23","8kezsv85n7j12b2","prime","5efe5fe28d99db366e780cba","5f60e3c0a3b16e07647b2ff9","5f60ee12a4095c01116ded73","false","null","<span style=""color: red; font-size: 48px"">Error!</span>","null","","","","feedback","","","","","","","","","","","","","","","",""
"html-keyboard-response","206","412648","0.0-4.0-1.0-3.23","8kezsv85n7j12b2","prime","5efe5fe28d99db366e780cba","5f60e3c0a3b16e07647b2ff9","5f60ee12a4095c01116ded73","false","null","<div style=""align-items: center; display: flex; color: dodgerblue; font-size: 90px""><b>o</b></div>","null","","","","forget_cue","","","","","","","","","","","","","","","",""
"html-keyboard-response","207","413353","0.0-4.0-1.0-0.24","8kezsv85n7j12b2","prime","5efe5fe28d99db366e780cba","5f60e3c0a3b16e07647b2ff9","5f60ee12a4095c01116ded73","false","null","<span style=""color: black; font-size: 48px"">M + N</span>","null","","","","resp_prompt","","","","","","","","","","","","","","","",""
"categorize-image","208","413947","0.0-4.0-1.0-1.24","8kezsv85n7j12b2","prime","5efe5fe28d99db366e780cba","5f60e3c0a3b16e07647b2ff9","5f60ee12a4095c01116ded73","true","584.1949999994249","./Stimuli/SelectedImages/LN/LN28.bmp","76","","","","test","true","M + N","76","repetition","LN","LN28.bmp","forget","","73","3","prime1","right","","","",""
"html-keyboard-response","209","415954","0.0-4.0-1.0-3.24","8kezsv85n7j12b2","prime","5efe5fe28d99db366e780cba","5f60e3c0a3b16e07647b2ff9","5f60ee12a4095c01116ded73","false","null","<div style=""align-items: center; display: flex; color: darkorange; font-size: 90px""><b>ø</b></div>","null","","","","forget_cue","","","","","","","","","","","","","","","",""
"html-keyboard-response","210","416659","0.0-4.0-1.0-0.25","8kezsv85n7j12b2","prime","5efe5fe28d99db366e780cba","5f60e3c0a3b16e07647b2ff9","5f60ee12a4095c01116ded73","false","null","<span style=""color: black; font-size: 48px"">N + M</span>","null","","","","resp_prompt","","","","","","","","","","","","","","","",""
"categorize-image","211","417079","0.0-4.0-1.0-1.25","8kezsv85n7j12b2","prime","5efe5fe28d99db366e780cba","5f60e3c0a3b16e07647b2ff9","5f60ee12a4095c01116ded73","true","408.6100000003935","./Stimuli/SelectedImages/SN/SN93.bmp","76","","","","test","false","N + M","83","repetition","SN","SN93.bmp","remember","","74","3","prime1","right","","","",""
"html-keyboard-response","212","417585","0.0-4.0-1.0-2.25-0.25","8kezsv85n7j12b2","prime","5efe5fe28d99db366e780cba","5f60e3c0a3b16e07647b2ff9","5f60ee12a4095c01116ded73","false","null","<span style=""color: red; font-size: 48px"">Error!</span>","null","","","","feedback","","","","","","","","","","","","","","","",""
"html-keyboard-response","213","419589","0.0-4.0-1.0-3.25","8kezsv85n7j12b2","prime","5efe5fe28d99db366e780cba","5f60e3c0a3b16e07647b2ff9","5f60ee12a4095c01116ded73","false","null","<div style=""align-items: center; display: flex; color: dodgerblue; font-size: 90px""><b>o</b></div>","null","","","","forget_cue","","","","","","","","","","","","","","","",""
"html-keyboard-response","214","420295","0.0-4.0-1.0-0.26","8kezsv85n7j12b2","prime","5efe5fe28d99db366e780cba","5f60e3c0a3b16e07647b2ff9","5f60ee12a4095c01116ded73","false","null","<span style=""color: black; font-size: 48px"">M + N</span>","null","","","","resp_prompt","","","","","","","","","","","","","","","",""
"categorize-image","215","421292","0.0-4.0-1.0-1.26","8kezsv85n7j12b2","prime","5efe5fe28d99db366e780cba","5f60e3c0a3b16e07647b2ff9","5f60ee12a4095c01116ded73","true","986.3949999999022","./Stimuli/SelectedImages/SN/SN181.bmp","76","","","","test","true","M + N","76","repetition","SN","SN181.bmp","forget","","75","3","prime1","right","","","",""
"html-keyboard-response","216","423298","0.0-4.0-1.0-3.26","8kezsv85n7j12b2","prime","5efe5fe28d99db366e780cba","5f60e3c0a3b16e07647b2ff9","5f60ee12a4095c01116ded73","false","null","<div style=""align-items: center; display: flex; color: darkorange; font-size: 90px""><b>ø</b></div>","null","","","","forget_cue","","","","","","","","","","","","","","","",""
"html-keyboard-response","217","424001","0.0-4.0-1.0-0.27","8kezsv85n7j12b2","prime","5efe5fe28d99db366e780cba","5f60e3c0a3b16e07647b2ff9","5f60ee12a4095c01116ded73","false","null","<span style=""color: black; font-size: 48px"">M + N</span>","null","","","","resp_prompt","","","","","","","","","","","","","","","",""
"categorize-image","218","424579","0.0-4.0-1.0-1.27","8kezsv85n7j12b2","prime","5efe5fe28d99db366e780cba","5f60e3c0a3b16e07647b2ff9","5f60ee12a4095c01116ded73","true","566.6400000008871","./Stimuli/SelectedImages/SN/SN111.bmp","76","","","","test","true","M + N","76","repetition","SN","SN111.bmp","remember","","76","3","prime1","right","","","",""
"html-keyboard-response","219","426585","0.0-4.0-1.0-3.27","8kezsv85n7j12b2","prime","5efe5fe28d99db366e780cba","5f60e3c0a3b16e07647b2ff9","5f60ee12a4095c01116ded73","false","null","<div style=""align-items: center; display: flex; color: dodgerblue; font-size: 90px""><b>o</b></div>","null","","","","forget_cue","","","","","","","","","","","","","","","",""
"html-keyboard-response","220","427292","0.0-4.0-1.0-0.28","8kezsv85n7j12b2","prime","5efe5fe28d99db366e780cba","5f60e3c0a3b16e07647b2ff9","5f60ee12a4095c01116ded73","false","null","<span style=""color: black; font-size: 48px"">N + M</span>","null","","","","resp_prompt","","","","","","","","","","","","","","","",""
"categorize-image","221","428002","0.0-4.0-1.0-1.28","8kezsv85n7j12b2","prime","5efe5fe28d99db366e780cba","5f60e3c0a3b16e07647b2ff9","5f60ee12a4095c01116ded73","true","700.6399999991409","./Stimuli/SelectedImages/LM/LM59.bmp","83","","","","test","false","N + M","76","switch","LM","LM59.bmp","remember","","77","3","prime1","left","","","",""
"html-keyboard-response","222","428508","0.0-4.0-1.0-2.28-0.28","8kezsv85n7j12b2","prime","5efe5fe28d99db366e780cba","5f60e3c0a3b16e07647b2ff9","5f60ee12a4095c01116ded73","false","null","<span style=""color: red; font-size: 48px"">Error!</span>","null","","","","feedback","","","","","","","","","","","","","","","",""
"html-keyboard-response","223","430514","0.0-4.0-1.0-3.28","8kezsv85n7j12b2","prime","5efe5fe28d99db366e780cba","5f60e3c0a3b16e07647b2ff9","5f60ee12a4095c01116ded73","false","null","<div style=""align-items: center; display: flex; color: dodgerblue; font-size: 90px""><b>o</b></div>","null","","","","forget_cue","","","","","","","","","","","","","","","",""
"html-keyboard-response","224","431221","0.0-4.0-1.0-0.29","8kezsv85n7j12b2","prime","5efe5fe28d99db366e780cba","5f60e3c0a3b16e07647b2ff9","5f60ee12a4095c01116ded73","false","null","<span style=""color: black; font-size: 48px"">N + M</span>","null","","","","resp_prompt","","","","","","","","","","","","","","","",""
"categorize-image","225","431613","0.0-4.0-1.0-1.29","8kezsv85n7j12b2","prime","5efe5fe28d99db366e780cba","5f60e3c0a3b16e07647b2ff9","5f60ee12a4095c01116ded73","true","381.24000000063097","./Stimuli/SelectedImages/LM/LM129.bmp","83","","","","test","false","N + M","76","switch","LM","LM129.bmp","remember","","78","3","prime1","left","","","",""
"html-keyboard-response","226","432123","0.0-4.0-1.0-2.29-0.29","8kezsv85n7j12b2","prime","5efe5fe28d99db366e780cba","5f60e3c0a3b16e07647b2ff9","5f60ee12a4095c01116ded73","false","null","<span style=""color: red; font-size: 48px"">Error!</span>","null","","","","feedback","","","","","","","","","","","","","","","",""
"html-keyboard-response","227","434128","0.0-4.0-1.0-3.29","8kezsv85n7j12b2","prime","5efe5fe28d99db366e780cba","5f60e3c0a3b16e07647b2ff9","5f60ee12a4095c01116ded73","false","null","<div style=""align-items: center; display: flex; color: dodgerblue; font-size: 90px""><b>o</b></div>","null","","","","forget_cue","","","","","","","","","","","","","","","",""
"html-keyboard-response","228","434832","0.0-4.0-1.0-0.30","8kezsv85n7j12b2","prime","5efe5fe28d99db366e780cba","5f60e3c0a3b16e07647b2ff9","5f60ee12a4095c01116ded73","false","null","<span style=""color: black; font-size: 48px"">M + N</span>","null","","","","resp_prompt","","","","","","","","","","","","","","","",""
"categorize-image","229","435710","0.0-4.0-1.0-1.30","8kezsv85n7j12b2","prime","5efe5fe28d99db366e780cba","5f60e3c0a3b16e07647b2ff9","5f60ee12a4095c01116ded73","true","867.2900000001537","./Stimuli/SelectedImages/LM/LM100.bmp","83","","","","test","true","M + N","83","switch","LM","LM100.bmp","remember","","79","3","prime1","left","","","",""
"html-keyboard-response","230","437717","0.0-4.0-1.0-3.30","8kezsv85n7j12b2","prime","5efe5fe28d99db366e780cba","5f60e3c0a3b16e07647b2ff9","5f60ee12a4095c01116ded73","false","null","<div style=""align-items: center; display: flex; color: dodgerblue; font-size: 90px""><b>o</b></div>","null","","","","forget_cue","","","","","","","","","","","","","","","",""
"html-keyboard-response","231","438421","0.0-4.0-1.0-0.31","8kezsv85n7j12b2","prime","5efe5fe28d99db366e780cba","5f60e3c0a3b16e07647b2ff9","5f60ee12a4095c01116ded73","false","null","<span style=""color: black; font-size: 48px"">N + M</span>","null","","","","resp_prompt","","","","","","","","","","","","","","","",""
"categorize-image","232","439113","0.0-4.0-1.0-1.31","8kezsv85n7j12b2","prime","5efe5fe28d99db366e780cba","5f60e3c0a3b16e07647b2ff9","5f60ee12a4095c01116ded73","true","680.330000001064","./Stimuli/SelectedImages/SM/SM24.bmp","76","","","","test","true","N + M","76","switch","SM","SM24.bmp","remember","","80","3","prime1","right","","","",""
"html-keyboard-response","233","441118","0.0-4.0-1.0-3.31","8kezsv85n7j12b2","prime","5efe5fe28d99db366e780cba","5f60e3c0a3b16e07647b2ff9","5f60ee12a4095c01116ded73","false","null","<div style=""align-items: center; display: flex; color: dodgerblue; font-size: 90px""><b>o</b></div>","null","","","","forget_cue","","","","","","","","","","","","","","","",""
"html-keyboard-response","234","441822","0.0-4.0-1.0-0.32","8kezsv85n7j12b2","prime","5efe5fe28d99db366e780cba","5f60e3c0a3b16e07647b2ff9","5f60ee12a4095c01116ded73","false","null","<span style=""color: black; font-size: 48px"">M + N</span>","null","","","","resp_prompt","","","","","","","","","","","","","","","",""
"categorize-image","235","442377","0.0-4.0-1.0-1.32","8kezsv85n7j12b2","prime","5efe5fe28d99db366e780cba","5f60e3c0a3b16e07647b2ff9","5f60ee12a4095c01116ded73","true","544.144999999844","./Stimuli/SelectedImages/SM/SM200.bmp","76","","","","test","false","M + N","83","repetition","SM","SM200.bmp","remember","","81","3","prime1","right","","","",""
"html-keyboard-response","236","442882","0.0-4.0-1.0-2.32-0.32","8kezsv85n7j12b2","prime","5efe5fe28d99db366e780cba","5f60e3c0a3b16e07647b2ff9","5f60ee12a4095c01116ded73","false","null","<span style=""color: red; font-size: 48px"">Error!</span>","null","","","","feedback","","","","","","","","","","","","","","","",""
"html-keyboard-response","237","444888","0.0-4.0-1.0-3.32","8kezsv85n7j12b2","prime","5efe5fe28d99db366e780cba","5f60e3c0a3b16e07647b2ff9","5f60ee12a4095c01116ded73","false","null","<div style=""align-items: center; display: flex; color: dodgerblue; font-size: 90px""><b>o</b></div>","null","","","","forget_cue","","","","","","","","","","","","","","","",""
"html-keyboard-response","238","445591","0.0-4.0-1.0-0.33","8kezsv85n7j12b2","prime","5efe5fe28d99db366e780cba","5f60e3c0a3b16e07647b2ff9","5f60ee12a4095c01116ded73","false","null","<span style=""color: black; font-size: 48px"">N + M</span>","null","","","","resp_prompt","","","","","","","","","","","","","","","",""
"categorize-image","239","446114","0.0-4.0-1.0-1.33","8kezsv85n7j12b2","prime","5efe5fe28d99db366e780cba","5f60e3c0a3b16e07647b2ff9","5f60ee12a4095c01116ded73","true","512.0050000005285","./Stimuli/SelectedImages/SN/SN52.bmp","76","","","","test","false","N + M","83","repetition","SN","SN52.bmp","forget","","82","3","prime1","right","","","",""
"html-keyboard-response","240","446619","0.0-4.0-1.0-2.33-0.33","8kezsv85n7j12b2","prime","5efe5fe28d99db366e780cba","5f60e3c0a3b16e07647b2ff9","5f60ee12a4095c01116ded73","false","null","<span style=""color: red; font-size: 48px"">Error!</span>","null","","","","feedback","","","","","","","","","","","","","","","",""
"html-keyboard-response","241","448624","0.0-4.0-1.0-3.33","8kezsv85n7j12b2","prime","5efe5fe28d99db366e780cba","5f60e3c0a3b16e07647b2ff9","5f60ee12a4095c01116ded73","false","null","<div style=""align-items: center; display: flex; color: darkorange; font-size: 90px""><b>ø</b></div>","null","","","","forget_cue","","","","","","","","","","","","","","","",""
"html-keyboard-response","242","449328","0.0-4.0-1.0-0.34","8kezsv85n7j12b2","prime","5efe5fe28d99db366e780cba","5f60e3c0a3b16e07647b2ff9","5f60ee12a4095c01116ded73","false","null","<span style=""color: black; font-size: 48px"">M + N</span>","null","","","","resp_prompt","","","","","","","","","","","","","","","",""
"categorize-image","243","449980","0.0-4.0-1.0-1.34","8kezsv85n7j12b2","prime","5efe5fe28d99db366e780cba","5f60e3c0a3b16e07647b2ff9","5f60ee12a4095c01116ded73","true","641.8699999994715","./Stimuli/SelectedImages/SN/SN128.bmp","76","","","","test","true","M + N","76","switch","SN","SN128.bmp","forget","","83","3","prime1","right","","","",""
"html-keyboard-response","244","451983","0.0-4.0-1.0-3.34","8kezsv85n7j12b2","prime","5efe5fe28d99db366e780cba","5f60e3c0a3b16e07647b2ff9","5f60ee12a4095c01116ded73","false","null","<div style=""align-items: center; display: flex; color: darkorange; font-size: 90px""><b>ø</b></div>","null","","","","forget_cue","","","","","","","","","","","","","","","",""
"html-keyboard-response","245","452690","0.0-4.0-1.0-0.35","8kezsv85n7j12b2","prime","5efe5fe28d99db366e780cba","5f60e3c0a3b16e07647b2ff9","5f60ee12a4095c01116ded73","false","null","<span style=""color: black; font-size: 48px"">M + N</span>","null","","","","resp_prompt","","","","","","","","","","","","","","","",""
"categorize-image","246","453388","0.0-4.0-1.0-1.35","8kezsv85n7j12b2","prime","5efe5fe28d99db366e780cba","5f60e3c0a3b16e07647b2ff9","5f60ee12a4095c01116ded73","true","687.0049999997718","./Stimuli/SelectedImages/LN/LN177.bmp","76","","","","test","true","M + N","76","switch","LN","LN177.bmp","forget","","84","3","prime1","right","","","",""
"html-keyboard-response","247","455396","0.0-4.0-1.0-3.35","8kezsv85n7j12b2","prime","5efe5fe28d99db366e780cba","5f60e3c0a3b16e07647b2ff9","5f60ee12a4095c01116ded73","false","null","<div style=""align-items: center; display: flex; color: darkorange; font-size: 90px""><b>ø</b></div>","null","","","","forget_cue","","","","","","","","","","","","","","","",""
"html-keyboard-response","248","456102","0.0-4.0-1.0-0.36","8kezsv85n7j12b2","prime","5efe5fe28d99db366e780cba","5f60e3c0a3b16e07647b2ff9","5f60ee12a4095c01116ded73","false","null","<span style=""color: black; font-size: 48px"">N + M</span>","null","","","","resp_prompt","","","","","","","","","","","","","","","",""
"categorize-image","249","456754","0.0-4.0-1.0-1.36","8kezsv85n7j12b2","prime","5efe5fe28d99db366e780cba","5f60e3c0a3b16e07647b2ff9","5f60ee12a4095c01116ded73","true","640.5500000000466","./Stimuli/SelectedImages/SN/SN49.bmp","76","","","","test","false","N + M","83","switch","SN","SN49.bmp","forget","","85","3","prime1","right","","","",""
"html-keyboard-response","250","457258","0.0-4.0-1.0-2.36-0.36","8kezsv85n7j12b2","prime","5efe5fe28d99db366e780cba","5f60e3c0a3b16e07647b2ff9","5f60ee12a4095c01116ded73","false","null","<span style=""color: red; font-size: 48px"">Error!</span>","null","","","","feedback","","","","","","","","","","","","","","","",""
"html-keyboard-response","251","459261","0.0-4.0-1.0-3.36","8kezsv85n7j12b2","prime","5efe5fe28d99db366e780cba","5f60e3c0a3b16e07647b2ff9","5f60ee12a4095c01116ded73","false","null","<div style=""align-items: center; display: flex; color: darkorange; font-size: 90px""><b>ø</b></div>","null","","","","forget_cue","","","","","","","","","","","","","","","",""
"html-keyboard-response","252","459965","0.0-4.0-1.0-0.37","8kezsv85n7j12b2","prime","5efe5fe28d99db366e780cba","5f60e3c0a3b16e07647b2ff9","5f60ee12a4095c01116ded73","false","null","<span style=""color: black; font-size: 48px"">M + N</span>","null","","","","resp_prompt","","","","","","","","","","","","","","","",""
"categorize-image","253","460671","0.0-4.0-1.0-1.37","8kezsv85n7j12b2","prime","5efe5fe28d99db366e780cba","5f60e3c0a3b16e07647b2ff9","5f60ee12a4095c01116ded73","true","695.625000000291","./Stimuli/SelectedImages/LM/LM216.bmp","76","","","","test","false","M + N","83","repetition","LM","LM216.bmp","forget","","86","3","prime1","right","","","",""
"html-keyboard-response","254","461177","0.0-4.0-1.0-2.37-0.37","8kezsv85n7j12b2","prime","5efe5fe28d99db366e780cba","5f60e3c0a3b16e07647b2ff9","5f60ee12a4095c01116ded73","false","null","<span style=""color: red; font-size: 48px"">Error!</span>","null","","","","feedback","","","","","","","","","","","","","","","",""
