"trial_type","trial_index","time_elapsed","internal_node_id","subject","exp_part","prolific_PID","study_ID","session_ID","use","rt","stimulus","key_press","button_pressed","responses","question_order","trial_part","correct","resp_map","correct_resp","probe_condition","category","image","forget_condition","list","trial_num","block_num","block","response","test_part","n_span","sequence","num_spaces"
"pavlovia","0","9","0.0-0.0","bxju8e4w2z0asn0","","5f5d48f1c6768e5bcae08170","5f60e3c0a3b16e07647b2ff9","5f60f01cf2abad0009cc9f60","false","","","","","","","","","","","","","","","","","","","","","","",""
"html-keyboard-response","1","19526","0.0-1.0-0.0-0.0","bxju8e4w2z0asn0","welcome","5f5d48f1c6768e5bcae08170","5f60e3c0a3b16e07647b2ff9","5f60f01cf2abad0009cc9f60","false","19513.054999988526","<div align=left>Dear participant, <br> thank you for participating in an online study of the Cognition, Action, and Sustainability Unit of the University of Freiburg! <br> <br>The aim of this study is to examine our ability to remember previously learned information. <br>Our goal is to find out, whether our memory improves, when we only remember information that is relevant to us. <br>The experiment will take about 35 minutes to complete. <br> <br>Please, note that you can only participate in this study if you are using a device with a keyboard (PC, Laptop etc.) <br>and not if you are using a mobile device such as a tablet or smartphone.<br> <br>Press 'SPACE' to proceed to the experiment. </div>","32","","","","","","","","","","","","","","","","","","","",""
"html-keyboard-response","2","41744","0.0-1.0-0.0-1.0","bxju8e4w2z0asn0","welcome","5f5d48f1c6768e5bcae08170","5f60e3c0a3b16e07647b2ff9","5f60f01cf2abad0009cc9f60","false","22213.934999948833","<div align=left><strong> Time Course of this experiment: </strong> <br><br> <strong> 1.</strong>  First, please fill in some information regarding your demographic data. <br><br> <strong> 2.</strong>  Next, your task will be to classify everyday objects. <br>In addition, you will be asked to remember certain objects and recall them later. <br>Working on these tasks requires your undivided attention and concentration.<br>It is therefore essential that you eliminate any sources of distraction in your  <br>environment and ensure that you will not be disturbed. <br><br><strong> 3.</strong>  At the end of the experiment, you will be asked to answer a few additional questions. <br> <br><strong> Important:</strong> After finishing the experiment, only close the browser window <br> by clicking on the 'end the experiment'-button when you are asked to do so. <br>Closing the browser window prematurely will make the allocation of your participation credit impossible. <br><br> Press 'SPACE' to start the experiment. </div>","32","","","","","","","","","","","","","","","","","","","",""
"html-button-response","3","43740","0.0-1.0-0.0-2.0","bxju8e4w2z0asn0","welcome","5f5d48f1c6768e5bcae08170","5f60e3c0a3b16e07647b2ff9","5f60f01cf2abad0009cc9f60","true","1990.5150000122376","<div align=left><strong> Informed consent </strong>  <br>The aim of our research is to better understand human behavior and mental processes. <br>In the following study your behavior (e.g. choices, reaction times) will be studied. <br> <br><strong> Voluntariness and Anonymity </strong> <br>Your participation in this study is  <strong> voluntary</strong>.<br>You may withdraw your consent to participate at any time without providing a reason for doing so and without fear of prejudice. <br><br>As no personal data will be collected, <strong>your data and your person cannot be connected after data collection</strong> – the data-set is anonymous. <br>Respectively, deletion of your data will not be possible after data collection has been completed, as we cannot retrace your data-set.<br>The results and anonymized data collected in this study will be published as a scientific publication. <br>This will happen in an <strong>anonymized format</strong>, so that no data can be traced back to a specific person. <br> <br>The anonymized data of this study will be made available to other researchers and/or in a data archive on the Internet as a means of transparency and to enable subsequent re-use. By doing so, this study follows the recommendations of the Deutsche Forschungsgemeinschaft (DFG, German Research Foundation) and Deutsche Gesellschaft für Psychologie (DGPS, German Psychological Society) regarding quality assurance in research.<br>If you have any questions now or after the experiment, please contact our team (experiments@cs.uni-freiburg.de).<br><br><br>I hereby declare, that I understand the above described conditions of participation and I agree to participate under these conditions. <br><br> </div>","","0","","","","","","","","","","","","","","","","","","",""
"html-keyboard-response","4","61168","0.0-1.0-0.0-3.0","bxju8e4w2z0asn0","welcome","5f5d48f1c6768e5bcae08170","5f60e3c0a3b16e07647b2ff9","5f60f01cf2abad0009cc9f60","false","17425.034999963827","<div align=left><strong> General information concerning the experiment </strong>  <br> <br>Please follow the instructions:<ol> <li><strong> Do not leave this tab (your browser window) during the experiment and do not reload this tab! </strong>  <br>If you do switch tabs/windows during the experiment (to check your mail or visit another website, for example), <br>the experiment will end automatically and you will <strong>not receive credit</strong> for your participation. <br>Repeated participation or resumption of the experiment is impossible.</li> <br><li>Please close all other programs for the duration of your participation. </li> <br><li>Please mute or turn off your phone and put it out of your reach. </li> <br><li>Please also take off any disturbing accessories (such as wristwatches, bracelets, etc.). </li> <br><li>If you have music playing in the background, please turn it off now. </li> <br></ol>Thank you! <br>Press 'SPACE' to continue. </div>","32","","","","","","","","","","","","","","","","","","","",""
"survey-text","5","64835","0.0-1.0-1.0-0.0","bxju8e4w2z0asn0","demographics","5f5d48f1c6768e5bcae08170","5f60e3c0a3b16e07647b2ff9","5f60f01cf2abad0009cc9f60","true","3656.8899999838322","","","","{""age"":""21""}","","","","","","","","","","","","","","","","","",""
"survey-multi-choice","6","91772","0.0-1.0-1.0-1.0","bxju8e4w2z0asn0","demographics","5f5d48f1c6768e5bcae08170","5f60e3c0a3b16e07647b2ff9","5f60f01cf2abad0009cc9f60","true","26929.88500004867","","","","{""gender"":""female"",""school"":""high school"",""education"":""Still in training/ university""}","[0,1,2]","","","","","","","","","","","","","","","","",""
"survey-text","7","126872","0.0-1.0-1.0-2.0-0.0","bxju8e4w2z0asn0","demographics","5f5d48f1c6768e5bcae08170","5f60e3c0a3b16e07647b2ff9","5f60f01cf2abad0009cc9f60","true","35067.960000014864","","","","{""education_text"":""Undergraduate student- working towards my B.S in Public Health Studies""}","","","","","","","","","","","","","","","","","",""
"html-keyboard-response","8","141504","0.0-1.0-2.0","bxju8e4w2z0asn0","instructions","5f5d48f1c6768e5bcae08170","5f60e3c0a3b16e07647b2ff9","5f60f01cf2abad0009cc9f60","false","14629.329999967013","<div align=left> The experiment is now about to start: <br> <br>In the following part, you will be presented pictures of everyday objects. <br>Your first task is to <strong>classify these objects. </strong> <br> <br> You will classify them either as mechanical or non-mechanical objects. <br> <br>Objects that include any kind of technical mechanism (for example, wheels, switches, levers, <br> electronic components) fall under the category of <strong>mechanical</strong> objects. <br>Only objects without any kind of technical mechanism should be classified as <strong>non-mechanical</strong>. <br><br>Press 'SPACE' to continue. </div>","32","","","","","","","","","","","","","","","","","","","",""
"html-keyboard-response","9","190376","0.0-2.0-0.0","bxju8e4w2z0asn0","instructions","5f5d48f1c6768e5bcae08170","5f60e3c0a3b16e07647b2ff9","5f60f01cf2abad0009cc9f60","false","48870.32500002533","<div align=justify>You will classify the objects using the <strong>'S'</strong> and the <strong>'L'</strong> keys on your keyboard.<br>For doing so, please place your <strong>left index finger</strong> on the <strong>'S'</strong> key and place your <strong>right index finger</strong> on the <strong>'L'</strong> key. <br><br> Each trial starts with an instruction, indicating which key ('S'/'L') you need to press to classify <br>the object as mechanical (letter M) or non-mechanical (letter N).<br>The instruction <strong>M + N</strong> indicates that, in the current trial, by pressing the left key ('S') you classify the displayed object as mechanical (M) <br> and by pressing the right key ('L') you classify the object as non-mechanical (N). <br>The instruction <strong>N + M</strong> on the other hand indicates that by pressing the left key ('S') you classify the displayed object as non-mechanical (N) <br> and by pressing the right key ('L') you classify the object as mechanical (M). <br><br>Please press the key corresponding to the correct classification as fast as possible as soon as the object is displayed and try to avoid making mistakes.<br>If you do not respond within a 2 second window, a corresponding feedback will be displayed and the next trial will start.<br> The experiment is divided into multiple blocks to give you the opportunity to take a break after each block. <br>First, you can now practice this task. <br><br>Please place your <strong>LEFT INDEX FINGER</strong> on the 'S' key and your <strong>RIGHT INDEX FINGER</strong> on the 'L' key now. <br><br>Press SPACE to continue.</div>","32","","","","","","","","","","","","","","","","","","","",""
"html-keyboard-response","10","205479","0.0-2.0-1.0","bxju8e4w2z0asn0","instructions","5f5d48f1c6768e5bcae08170","5f60e3c0a3b16e07647b2ff9","5f60f01cf2abad0009cc9f60","false","15099.050000018906","<div align=left> You will now have time to practice this task.<br><br>Remember: <br> <br><li>Please place your index fingers on the <strong>'S'</strong> and <strong>'L'</strong> keys <br>to respond as fast and accurately as possible.</li><li>Every picture can be classified as either mechanical or non-mechanical.</li><li>If you do not respond in time or commit an error, you will receive a corresponding feedback. </li><li> Please try to respond as <strong> fast </strong> and as <strong> accurately as possible </strong> .<br><li>To ensure optimal results, please minimize distractions and stay focused. </li><br><br>Press SPACE to continue.</div>","32","","","","","","","","","","","","","","","","","","","",""
"html-keyboard-response","11","206185","0.0-2.0-2.0-0.0","bxju8e4w2z0asn0","practice_no_cue","5f5d48f1c6768e5bcae08170","5f60e3c0a3b16e07647b2ff9","5f60f01cf2abad0009cc9f60","false","null","<span style=""color: black; font-size: 48px"">M + N</span>","null","","","","resp_prompt","","","","","","","","","","","","","","","",""
"categorize-image","12","208615","0.0-2.0-2.0-1.0","bxju8e4w2z0asn0","practice_no_cue","5f5d48f1c6768e5bcae08170","5f60e3c0a3b16e07647b2ff9","5f60f01cf2abad0009cc9f60","true","1922.1499999985099","./Stimuli/ImagesPractice/SM37.jpg","83","","","","test","true","M + N","83","","SM","SM37.jpg","remember","old","1","1","start","left","","","",""
"html-keyboard-response","13","209320","0.0-2.0-2.0-0.1","bxju8e4w2z0asn0","practice_no_cue","5f5d48f1c6768e5bcae08170","5f60e3c0a3b16e07647b2ff9","5f60f01cf2abad0009cc9f60","false","null","<span style=""color: black; font-size: 48px"">M + N</span>","null","","","","resp_prompt","","","","","","","","","","","","","","","",""
"categorize-image","14","210757","0.0-2.0-2.0-1.1","bxju8e4w2z0asn0","practice_no_cue","5f5d48f1c6768e5bcae08170","5f60e3c0a3b16e07647b2ff9","5f60f01cf2abad0009cc9f60","true","931.574999995064","./Stimuli/ImagesPractice/LN72.jpg","76","","","","test","true","M + N","76","","LN","LN72.jpg","forget","old","2","1","start","right","","","",""
"html-keyboard-response","15","211459","0.0-2.0-2.0-0.2","bxju8e4w2z0asn0","practice_no_cue","5f5d48f1c6768e5bcae08170","5f60e3c0a3b16e07647b2ff9","5f60f01cf2abad0009cc9f60","false","null","<span style=""color: black; font-size: 48px"">M + N</span>","null","","","","resp_prompt","","","","","","","","","","","","","","","",""
"categorize-image","16","212843","0.0-2.0-2.0-1.2","bxju8e4w2z0asn0","practice_no_cue","5f5d48f1c6768e5bcae08170","5f60e3c0a3b16e07647b2ff9","5f60f01cf2abad0009cc9f60","true","880.9199999668635","./Stimuli/ImagesPractice/LM55.jpg","83","","","","test","true","M + N","83","","LM","LM55.jpg","forget","old","3","1","start","left","","","",""
"html-keyboard-response","17","213550","0.0-2.0-2.0-0.3","bxju8e4w2z0asn0","practice_no_cue","5f5d48f1c6768e5bcae08170","5f60e3c0a3b16e07647b2ff9","5f60f01cf2abad0009cc9f60","false","null","<span style=""color: black; font-size: 48px"">N + M</span>","null","","","","resp_prompt","","","","","","","","","","","","","","","",""
"categorize-image","18","215175","0.0-2.0-2.0-1.3","bxju8e4w2z0asn0","practice_no_cue","5f5d48f1c6768e5bcae08170","5f60e3c0a3b16e07647b2ff9","5f60f01cf2abad0009cc9f60","true","1117.5100000109524","./Stimuli/ImagesPractice/LM224.jpg","76","","","","test","true","N + M","76","","LM","LM224.jpg","forget","old","4","1","start","right","","","",""
"html-keyboard-response","19","215882","0.0-2.0-2.0-0.4","bxju8e4w2z0asn0","practice_no_cue","5f5d48f1c6768e5bcae08170","5f60e3c0a3b16e07647b2ff9","5f60f01cf2abad0009cc9f60","false","null","<span style=""color: black; font-size: 48px"">N + M</span>","null","","","","resp_prompt","","","","","","","","","","","","","","","",""
"categorize-image","20","217039","0.0-2.0-2.0-1.4","bxju8e4w2z0asn0","practice_no_cue","5f5d48f1c6768e5bcae08170","5f60e3c0a3b16e07647b2ff9","5f60f01cf2abad0009cc9f60","true","653.5799999837764","./Stimuli/ImagesPractice/SM98.jpg","76","","","","test","true","N + M","76","","SM","SM98.jpg","remember","old","5","1","start","right","","","",""
"html-keyboard-response","21","217743","0.0-2.0-2.0-0.5","bxju8e4w2z0asn0","practice_no_cue","5f5d48f1c6768e5bcae08170","5f60e3c0a3b16e07647b2ff9","5f60f01cf2abad0009cc9f60","false","null","<span style=""color: black; font-size: 48px"">N + M</span>","null","","","","resp_prompt","","","","","","","","","","","","","","","",""
"categorize-image","22","219117","0.0-2.0-2.0-1.5","bxju8e4w2z0asn0","practice_no_cue","5f5d48f1c6768e5bcae08170","5f60e3c0a3b16e07647b2ff9","5f60f01cf2abad0009cc9f60","true","867.6399999530986","./Stimuli/ImagesPractice/LN2.jpg","83","","","","test","true","N + M","83","","LN","LN2.jpg","forget","old","6","1","start","left","","","",""
"html-keyboard-response","23","219819","0.0-2.0-2.0-0.6","bxju8e4w2z0asn0","practice_no_cue","5f5d48f1c6768e5bcae08170","5f60e3c0a3b16e07647b2ff9","5f60f01cf2abad0009cc9f60","false","null","<span style=""color: black; font-size: 48px"">M + N</span>","null","","","","resp_prompt","","","","","","","","","","","","","","","",""
"categorize-image","24","221350","0.0-2.0-2.0-1.6","bxju8e4w2z0asn0","practice_no_cue","5f5d48f1c6768e5bcae08170","5f60e3c0a3b16e07647b2ff9","5f60f01cf2abad0009cc9f60","true","1022.0899999840185","./Stimuli/ImagesPractice/LM143.jpg","76","","","","test","false","M + N","83","","LM","LM143.jpg","forget","old","7","1","start","right","","","",""
"html-keyboard-response","25","222054","0.0-2.0-2.0-0.7","bxju8e4w2z0asn0","practice_no_cue","5f5d48f1c6768e5bcae08170","5f60e3c0a3b16e07647b2ff9","5f60f01cf2abad0009cc9f60","false","null","<span style=""color: black; font-size: 48px"">N + M</span>","null","","","","resp_prompt","","","","","","","","","","","","","","","",""
"categorize-image","26","224039","0.0-2.0-2.0-1.7","bxju8e4w2z0asn0","practice_no_cue","5f5d48f1c6768e5bcae08170","5f60e3c0a3b16e07647b2ff9","5f60f01cf2abad0009cc9f60","true","1479.9549999879673","./Stimuli/ImagesPractice/SM35.jpg","76","","","","test","true","N + M","76","","SM","SM35.jpg","remember","old","8","1","start","right","","","",""
"html-keyboard-response","27","224742","0.0-2.0-2.0-0.8","bxju8e4w2z0asn0","practice_no_cue","5f5d48f1c6768e5bcae08170","5f60e3c0a3b16e07647b2ff9","5f60f01cf2abad0009cc9f60","false","null","<span style=""color: black; font-size: 48px"">N + M</span>","null","","","","resp_prompt","","","","","","","","","","","","","","","",""
"categorize-image","28","226419","0.0-2.0-2.0-1.8","bxju8e4w2z0asn0","practice_no_cue","5f5d48f1c6768e5bcae08170","5f60e3c0a3b16e07647b2ff9","5f60f01cf2abad0009cc9f60","true","1170.125000004191","./Stimuli/ImagesPractice/SM61.jpg","83","","","","test","false","N + M","76","","SM","SM61.jpg","forget","old","9","1","start","left","","","",""
"html-keyboard-response","29","227123","0.0-2.0-2.0-0.9","bxju8e4w2z0asn0","practice_no_cue","5f5d48f1c6768e5bcae08170","5f60e3c0a3b16e07647b2ff9","5f60f01cf2abad0009cc9f60","false","null","<span style=""color: black; font-size: 48px"">N + M</span>","null","","","","resp_prompt","","","","","","","","","","","","","","","",""
"categorize-image","30","229127","0.0-2.0-2.0-1.9","bxju8e4w2z0asn0","practice_no_cue","5f5d48f1c6768e5bcae08170","5f60e3c0a3b16e07647b2ff9","5f60f01cf2abad0009cc9f60","true","1500.014999997802","./Stimuli/ImagesPractice/SN75.jpg","83","","","","test","true","N + M","83","","SN","SN75.jpg","forget","old","10","1","start","left","","","",""
"html-keyboard-response","31","229831","0.0-2.0-2.0-0.10","bxju8e4w2z0asn0","practice_no_cue","5f5d48f1c6768e5bcae08170","5f60e3c0a3b16e07647b2ff9","5f60f01cf2abad0009cc9f60","false","null","<span style=""color: black; font-size: 48px"">M + N</span>","null","","","","resp_prompt","","","","","","","","","","","","","","","",""
"categorize-image","32","231535","0.0-2.0-2.0-1.10","bxju8e4w2z0asn0","practice_no_cue","5f5d48f1c6768e5bcae08170","5f60e3c0a3b16e07647b2ff9","5f60f01cf2abad0009cc9f60","true","1198.4949999605305","./Stimuli/ImagesPractice/LN109.jpg","76","","","","test","true","M + N","76","","LN","LN109.jpg","forget","old","11","1","start","right","","","",""
"html-keyboard-response","33","232237","0.0-2.0-2.0-0.11","bxju8e4w2z0asn0","practice_no_cue","5f5d48f1c6768e5bcae08170","5f60e3c0a3b16e07647b2ff9","5f60f01cf2abad0009cc9f60","false","null","<span style=""color: black; font-size: 48px"">M + N</span>","null","","","","resp_prompt","","","","","","","","","","","","","","","",""
"categorize-image","34","234032","0.0-2.0-2.0-1.11","bxju8e4w2z0asn0","practice_no_cue","5f5d48f1c6768e5bcae08170","5f60e3c0a3b16e07647b2ff9","5f60f01cf2abad0009cc9f60","true","1291.0200000042096","./Stimuli/ImagesPractice/SN205.jpg","76","","","","test","true","M + N","76","","SN","SN205.jpg","remember","old","12","1","start","right","","","",""
"html-keyboard-response","35","234734","0.0-2.0-2.0-0.12","bxju8e4w2z0asn0","practice_no_cue","5f5d48f1c6768e5bcae08170","5f60e3c0a3b16e07647b2ff9","5f60f01cf2abad0009cc9f60","false","null","<span style=""color: black; font-size: 48px"">N + M</span>","null","","","","resp_prompt","","","","","","","","","","","","","","","",""
"categorize-image","36","236198","0.0-2.0-2.0-1.12","bxju8e4w2z0asn0","practice_no_cue","5f5d48f1c6768e5bcae08170","5f60e3c0a3b16e07647b2ff9","5f60f01cf2abad0009cc9f60","true","958.965000056196","./Stimuli/ImagesPractice/SN222.jpg","83","","","","test","true","N + M","83","","SN","SN222.jpg","remember","old","13","1","start","left","","","",""
"html-keyboard-response","37","236902","0.0-2.0-2.0-0.13","bxju8e4w2z0asn0","practice_no_cue","5f5d48f1c6768e5bcae08170","5f60e3c0a3b16e07647b2ff9","5f60f01cf2abad0009cc9f60","false","null","<span style=""color: black; font-size: 48px"">M + N</span>","null","","","","resp_prompt","","","","","","","","","","","","","","","",""
"categorize-image","38","239324","0.0-2.0-2.0-1.13","bxju8e4w2z0asn0","practice_no_cue","5f5d48f1c6768e5bcae08170","5f60e3c0a3b16e07647b2ff9","5f60f01cf2abad0009cc9f60","true","1917.554999992717","./Stimuli/ImagesPractice/SN221.jpg","76","","","","test","true","M + N","76","","SN","SN221.jpg","remember","old","14","1","start","right","","","",""
"html-keyboard-response","39","240030","0.0-2.0-2.0-0.14","bxju8e4w2z0asn0","practice_no_cue","5f5d48f1c6768e5bcae08170","5f60e3c0a3b16e07647b2ff9","5f60f01cf2abad0009cc9f60","false","null","<span style=""color: black; font-size: 48px"">M + N</span>","null","","","","resp_prompt","","","","","","","","","","","","","","","",""
"categorize-image","40","241453","0.0-2.0-2.0-1.14","bxju8e4w2z0asn0","practice_no_cue","5f5d48f1c6768e5bcae08170","5f60e3c0a3b16e07647b2ff9","5f60f01cf2abad0009cc9f60","true","915.1399999973364","./Stimuli/ImagesPractice/LM147.jpg","83","","","","test","true","M + N","83","","LM","LM147.jpg","remember","old","15","1","start","left","","","",""
"html-keyboard-response","41","242158","0.0-2.0-2.0-0.15","bxju8e4w2z0asn0","practice_no_cue","5f5d48f1c6768e5bcae08170","5f60e3c0a3b16e07647b2ff9","5f60f01cf2abad0009cc9f60","false","null","<span style=""color: black; font-size: 48px"">N + M</span>","null","","","","resp_prompt","","","","","","","","","","","","","","","",""
"categorize-image","42","243732","0.0-2.0-2.0-1.15","bxju8e4w2z0asn0","practice_no_cue","5f5d48f1c6768e5bcae08170","5f60e3c0a3b16e07647b2ff9","5f60f01cf2abad0009cc9f60","true","1067.0650000101887","./Stimuli/ImagesPractice/LM230.jpg","83","","","","test","false","N + M","76","","LM","LM230.jpg","remember","old","16","1","start","left","","","",""
"html-keyboard-response","43","249814","0.0-2.0-3.0","bxju8e4w2z0asn0","break","5f5d48f1c6768e5bcae08170","5f60e3c0a3b16e07647b2ff9","5f60f01cf2abad0009cc9f60","false","6076.65999996243","<p style='font-size: 32px;'>Break</><br><br><br><br><br><p style='font-size: 24px;'>In the last block, you committed 3 errors and did not respond in time on 0 trials.
</p><p style='font-size: 24px;'>Try to respond as fast and accurately as possible in the next block as well! </p><p style='font-size: 24px;'>Press SPACE to continue.</p>","32","","","","","","","","","","","","","","","","","","","",""
"html-keyboard-response","44","253340","0.0-2.0-4.0","bxju8e4w2z0asn0","instructions","5f5d48f1c6768e5bcae08170","5f60e3c0a3b16e07647b2ff9","5f60f01cf2abad0009cc9f60","false","3521.7950000078417","<div align=left> Great!<br><br>Are you ready to continue?<br><br>If you want to reread the instructions and redo the practice trials, <br>please press „Z“. <br><br>Press SPACE to CONTINUE with the experiment when you are ready. </div>","32","","","","","","","","","","","","","","","","","","","",""
"html-keyboard-response","45","282758","0.0-3.0-0.0","bxju8e4w2z0asn0","instructions","5f5d48f1c6768e5bcae08170","5f60e3c0a3b16e07647b2ff9","5f60f01cf2abad0009cc9f60","false","29414.615000016056","<div align=left>Great!<br> <strong>Attention</strong>! You will now receive a second, additional task! <br><br>To this point it was you <strong>first task</strong> to correctly <strong>classify objects</strong>. <br><br>As mentioned in the beginning, we aim to examine how well humans can remember previously learned information.<br>We would like to find out whether our memory improves if we only remember information that is relevant to us. <br><br>Therefore, your <strong>second task</strong> will be to <strong>remember</strong> the pictures you are to categorize. <br> After the learning phase, there will be a memory test phase, in which you will be asked to indicate whether you have seen a picture before or not. <br>Some, but not all pictures shown in the learning phase will appear in the memory test phase.<br>After classifying a picture, you will be told whether you should remember it for the memory test phase or not. <br>Thus, some pictures can be forgotten, whereas others have to be remembered. <br><br>Note: From now on, feedback will only be displayed if you responded incorrectly or not in time.<br><br>Press SPACE to continue.</div>","32","","","","","","","","","","","","","","","","","","","",""
"html-keyboard-response","46","301210","0.0-3.0-1.0","bxju8e4w2z0asn0","instructions","5f5d48f1c6768e5bcae08170","5f60e3c0a3b16e07647b2ff9","5f60f01cf2abad0009cc9f60","false","18450.08500001859","<div align=left>In the following part, you will thus have to remember only some pictures. <br>Immediately after seeing and classifying the picture, a symbol will be displayed, indicating whether you should remember or forget the previous picture. <br><br>A <span style='color: dodgerblue; font-size: 28px'>O</span> indicates REMEMBER. That means, you have to remember this picture, because it will be tested later. <br><br>A <span style='color: darkorange; font-size:28px'>Ø</span> indicates FORGET. You do not have to remember this picture. <br><br> As you will have to remember a lot of pictures, it will be hard for you to remember all of them. <br>It will put you at an advantage if you instantly forget the pictures you are not asked to remember. <br> This will make it easier for you to remember the pictures that will be tested afterwards. <br><br>Press SPACE to continue.</div>","32","","","","","","","","","","","","","","","","","","","",""
"html-keyboard-response","47","309364","0.0-3.0-2.0","bxju8e4w2z0asn0","instructions","5f5d48f1c6768e5bcae08170","5f60e3c0a3b16e07647b2ff9","5f60f01cf2abad0009cc9f60","false","8150.339999992866","<div align=left> Now you have the chance to practice both tasks together.<br><br>Remember: <br> <br><li>Please place your index fingers on the <strong>'S'</strong> and <strong>'L'</strong> keys <br>to respond as fast and accurately as possible.</li><li>Every picture can be classified as either mechanical or non-mechanical.</li><li>If you do not respond in time or commit an error, you will receive a corresponding feedback. <br>Please try to respond as <strong> fast </strong> and as <strong> accurately as possible </strong>.</li><li> Please remember only the to-be-remembered <span style='color: dodgerblue; font-size: 28px'>O</span> pictures. <br></li><li> Please minimize distractions and stay focused. </li><br><br>Press SPACE to START</div>","32","","","","","","","","","","","","","","","","","","","",""
"html-keyboard-response","48","310070","0.0-3.0-3.0-0.0","bxju8e4w2z0asn0","practice_cue","5f5d48f1c6768e5bcae08170","5f60e3c0a3b16e07647b2ff9","5f60f01cf2abad0009cc9f60","false","null","<span style=""color: black; font-size: 48px"">N + M</span>","null","","","","resp_prompt","","","","","","","","","","","","","","","",""
"categorize-image","49","310997","0.0-3.0-3.0-1.0","bxju8e4w2z0asn0","practice_cue","5f5d48f1c6768e5bcae08170","5f60e3c0a3b16e07647b2ff9","5f60f01cf2abad0009cc9f60","true","919.9999999837019","./Stimuli/ImagesPractice/LM230.jpg","76","","","","test","true","N + M","76","","LM","LM230.jpg","remember","old","17","2","practice_forget","right","","","",""
"html-keyboard-response","50","313005","0.0-3.0-3.0-3.0","bxju8e4w2z0asn0","practice_cue","5f5d48f1c6768e5bcae08170","5f60e3c0a3b16e07647b2ff9","5f60f01cf2abad0009cc9f60","false","null","<div style=""align-items: center; display: flex; color: dodgerblue; font-size: 90px""><b>o</b></div>","null","","","","forget_cue","","","","","","","","","","","","","","","",""
"html-keyboard-response","51","313708","0.0-3.0-3.0-0.1","bxju8e4w2z0asn0","practice_cue","5f5d48f1c6768e5bcae08170","5f60e3c0a3b16e07647b2ff9","5f60f01cf2abad0009cc9f60","false","null","<span style=""color: black; font-size: 48px"">N + M</span>","null","","","","resp_prompt","","","","","","","","","","","","","","","",""
"categorize-image","52","314634","0.0-3.0-3.0-1.1","bxju8e4w2z0asn0","practice_cue","5f5d48f1c6768e5bcae08170","5f60e3c0a3b16e07647b2ff9","5f60f01cf2abad0009cc9f60","true","919.045000046026","./Stimuli/ImagesPractice/SN75.jpg","83","","","","test","true","N + M","83","","SN","SN75.jpg","forget","old","18","2","practice_forget","left","","","",""
"html-keyboard-response","53","316640","0.0-3.0-3.0-3.1","bxju8e4w2z0asn0","practice_cue","5f5d48f1c6768e5bcae08170","5f60e3c0a3b16e07647b2ff9","5f60f01cf2abad0009cc9f60","false","null","<div style=""align-items: center; display: flex; color: darkorange; font-size: 90px""><b>ø</b></div>","null","","","","forget_cue","","","","","","","","","","","","","","","",""
"html-keyboard-response","54","317346","0.0-3.0-3.0-0.2","bxju8e4w2z0asn0","practice_cue","5f5d48f1c6768e5bcae08170","5f60e3c0a3b16e07647b2ff9","5f60f01cf2abad0009cc9f60","false","null","<span style=""color: black; font-size: 48px"">M + N</span>","null","","","","resp_prompt","","","","","","","","","","","","","","","",""
"categorize-image","55","318434","0.0-3.0-3.0-1.2","bxju8e4w2z0asn0","practice_cue","5f5d48f1c6768e5bcae08170","5f60e3c0a3b16e07647b2ff9","5f60f01cf2abad0009cc9f60","true","1082.2949999710545","./Stimuli/ImagesPractice/LN72.jpg","76","","","","test","true","M + N","76","","LN","LN72.jpg","forget","old","19","2","practice_forget","right","","","",""
"html-keyboard-response","56","320439","0.0-3.0-3.0-3.2","bxju8e4w2z0asn0","practice_cue","5f5d48f1c6768e5bcae08170","5f60e3c0a3b16e07647b2ff9","5f60f01cf2abad0009cc9f60","false","null","<div style=""align-items: center; display: flex; color: darkorange; font-size: 90px""><b>ø</b></div>","null","","","","forget_cue","","","","","","","","","","","","","","","",""
"html-keyboard-response","57","321143","0.0-3.0-3.0-0.3","bxju8e4w2z0asn0","practice_cue","5f5d48f1c6768e5bcae08170","5f60e3c0a3b16e07647b2ff9","5f60f01cf2abad0009cc9f60","false","null","<span style=""color: black; font-size: 48px"">N + M</span>","null","","","","resp_prompt","","","","","","","","","","","","","","","",""
"categorize-image","58","321841","0.0-3.0-3.0-1.3","bxju8e4w2z0asn0","practice_cue","5f5d48f1c6768e5bcae08170","5f60e3c0a3b16e07647b2ff9","5f60f01cf2abad0009cc9f60","true","691.4700000197627","./Stimuli/ImagesPractice/SM98.jpg","76","","","","test","true","N + M","76","","SM","SM98.jpg","remember","old","20","2","practice_forget","right","","","",""
"html-keyboard-response","59","323844","0.0-3.0-3.0-3.3","bxju8e4w2z0asn0","practice_cue","5f5d48f1c6768e5bcae08170","5f60e3c0a3b16e07647b2ff9","5f60f01cf2abad0009cc9f60","false","null","<div style=""align-items: center; display: flex; color: dodgerblue; font-size: 90px""><b>o</b></div>","null","","","","forget_cue","","","","","","","","","","","","","","","",""
"html-keyboard-response","60","324548","0.0-3.0-3.0-0.4","bxju8e4w2z0asn0","practice_cue","5f5d48f1c6768e5bcae08170","5f60e3c0a3b16e07647b2ff9","5f60f01cf2abad0009cc9f60","false","null","<span style=""color: black; font-size: 48px"">N + M</span>","null","","","","resp_prompt","","","","","","","","","","","","","","","",""
"categorize-image","61","325421","0.0-3.0-3.0-1.4","bxju8e4w2z0asn0","practice_cue","5f5d48f1c6768e5bcae08170","5f60e3c0a3b16e07647b2ff9","5f60f01cf2abad0009cc9f60","true","865.2199999778531","./Stimuli/ImagesPractice/SN222.jpg","83","","","","test","true","N + M","83","","SN","SN222.jpg","remember","old","21","2","practice_forget","left","","","",""
"html-keyboard-response","62","327425","0.0-3.0-3.0-3.4","bxju8e4w2z0asn0","practice_cue","5f5d48f1c6768e5bcae08170","5f60e3c0a3b16e07647b2ff9","5f60f01cf2abad0009cc9f60","false","null","<div style=""align-items: center; display: flex; color: dodgerblue; font-size: 90px""><b>o</b></div>","null","","","","forget_cue","","","","","","","","","","","","","","","",""
"html-keyboard-response","63","328129","0.0-3.0-3.0-0.5","bxju8e4w2z0asn0","practice_cue","5f5d48f1c6768e5bcae08170","5f60e3c0a3b16e07647b2ff9","5f60f01cf2abad0009cc9f60","false","null","<span style=""color: black; font-size: 48px"">M + N</span>","null","","","","resp_prompt","","","","","","","","","","","","","","","",""
"categorize-image","64","329090","0.0-3.0-3.0-1.5","bxju8e4w2z0asn0","practice_cue","5f5d48f1c6768e5bcae08170","5f60e3c0a3b16e07647b2ff9","5f60f01cf2abad0009cc9f60","true","951.8150000367314","./Stimuli/ImagesPractice/LM55.jpg","83","","","","test","true","M + N","83","","LM","LM55.jpg","forget","old","22","2","practice_forget","left","","","",""
"html-keyboard-response","65","331095","0.0-3.0-3.0-3.5","bxju8e4w2z0asn0","practice_cue","5f5d48f1c6768e5bcae08170","5f60e3c0a3b16e07647b2ff9","5f60f01cf2abad0009cc9f60","false","null","<div style=""align-items: center; display: flex; color: darkorange; font-size: 90px""><b>ø</b></div>","null","","","","forget_cue","","","","","","","","","","","","","","","",""
"html-keyboard-response","66","331799","0.0-3.0-3.0-0.6","bxju8e4w2z0asn0","practice_cue","5f5d48f1c6768e5bcae08170","5f60e3c0a3b16e07647b2ff9","5f60f01cf2abad0009cc9f60","false","null","<span style=""color: black; font-size: 48px"">N + M</span>","null","","","","resp_prompt","","","","","","","","","","","","","","","",""
"categorize-image","67","332789","0.0-3.0-3.0-1.6","bxju8e4w2z0asn0","practice_cue","5f5d48f1c6768e5bcae08170","5f60e3c0a3b16e07647b2ff9","5f60f01cf2abad0009cc9f60","true","983.3149999612942","./Stimuli/ImagesPractice/LN2.jpg","83","","","","test","true","N + M","83","","LN","LN2.jpg","forget","old","23","2","practice_forget","left","","","",""
"html-keyboard-response","68","334796","0.0-3.0-3.0-3.6","bxju8e4w2z0asn0","practice_cue","5f5d48f1c6768e5bcae08170","5f60e3c0a3b16e07647b2ff9","5f60f01cf2abad0009cc9f60","false","null","<div style=""align-items: center; display: flex; color: darkorange; font-size: 90px""><b>ø</b></div>","null","","","","forget_cue","","","","","","","","","","","","","","","",""
"html-keyboard-response","69","335499","0.0-3.0-3.0-0.7","bxju8e4w2z0asn0","practice_cue","5f5d48f1c6768e5bcae08170","5f60e3c0a3b16e07647b2ff9","5f60f01cf2abad0009cc9f60","false","null","<span style=""color: black; font-size: 48px"">N + M</span>","null","","","","resp_prompt","","","","","","","","","","","","","","","",""
"categorize-image","70","336672","0.0-3.0-3.0-1.7","bxju8e4w2z0asn0","practice_cue","5f5d48f1c6768e5bcae08170","5f60e3c0a3b16e07647b2ff9","5f60f01cf2abad0009cc9f60","true","1165.175000031013","./Stimuli/ImagesPractice/LM224.jpg","76","","","","test","true","N + M","76","","LM","LM224.jpg","forget","old","24","2","practice_forget","right","","","",""
"html-keyboard-response","71","338679","0.0-3.0-3.0-3.7","bxju8e4w2z0asn0","practice_cue","5f5d48f1c6768e5bcae08170","5f60e3c0a3b16e07647b2ff9","5f60f01cf2abad0009cc9f60","false","null","<div style=""align-items: center; display: flex; color: darkorange; font-size: 90px""><b>ø</b></div>","null","","","","forget_cue","","","","","","","","","","","","","","","",""
"html-keyboard-response","72","339381","0.0-3.0-3.0-0.8","bxju8e4w2z0asn0","practice_cue","5f5d48f1c6768e5bcae08170","5f60e3c0a3b16e07647b2ff9","5f60f01cf2abad0009cc9f60","false","null","<span style=""color: black; font-size: 48px"">M + N</span>","null","","","","resp_prompt","","","","","","","","","","","","","","","",""
"categorize-image","73","339946","0.0-3.0-3.0-1.8","bxju8e4w2z0asn0","practice_cue","5f5d48f1c6768e5bcae08170","5f60e3c0a3b16e07647b2ff9","5f60f01cf2abad0009cc9f60","true","559.1249999706633","./Stimuli/ImagesPractice/LM143.jpg","83","","","","test","true","M + N","83","","LM","LM143.jpg","forget","old","25","2","practice_forget","left","","","",""
"html-keyboard-response","74","341951","0.0-3.0-3.0-3.8","bxju8e4w2z0asn0","practice_cue","5f5d48f1c6768e5bcae08170","5f60e3c0a3b16e07647b2ff9","5f60f01cf2abad0009cc9f60","false","null","<div style=""align-items: center; display: flex; color: darkorange; font-size: 90px""><b>ø</b></div>","null","","","","forget_cue","","","","","","","","","","","","","","","",""
"html-keyboard-response","75","342654","0.0-3.0-3.0-0.9","bxju8e4w2z0asn0","practice_cue","5f5d48f1c6768e5bcae08170","5f60e3c0a3b16e07647b2ff9","5f60f01cf2abad0009cc9f60","false","null","<span style=""color: black; font-size: 48px"">M + N</span>","null","","","","resp_prompt","","","","","","","","","","","","","","","",""
"categorize-image","76","343285","0.0-3.0-3.0-1.9","bxju8e4w2z0asn0","practice_cue","5f5d48f1c6768e5bcae08170","5f60e3c0a3b16e07647b2ff9","5f60f01cf2abad0009cc9f60","true","625.4450000124052","./Stimuli/ImagesPractice/LM147.jpg","83","","","","test","true","M + N","83","","LM","LM147.jpg","remember","old","26","2","practice_forget","left","","","",""
"html-keyboard-response","77","345290","0.0-3.0-3.0-3.9","bxju8e4w2z0asn0","practice_cue","5f5d48f1c6768e5bcae08170","5f60e3c0a3b16e07647b2ff9","5f60f01cf2abad0009cc9f60","false","null","<div style=""align-items: center; display: flex; color: dodgerblue; font-size: 90px""><b>o</b></div>","null","","","","forget_cue","","","","","","","","","","","","","","","",""
"html-keyboard-response","78","346000","0.0-3.0-3.0-0.10","bxju8e4w2z0asn0","practice_cue","5f5d48f1c6768e5bcae08170","5f60e3c0a3b16e07647b2ff9","5f60f01cf2abad0009cc9f60","false","null","<span style=""color: black; font-size: 48px"">M + N</span>","null","","","","resp_prompt","","","","","","","","","","","","","","","",""
"categorize-image","79","347145","0.0-3.0-3.0-1.10","bxju8e4w2z0asn0","practice_cue","5f5d48f1c6768e5bcae08170","5f60e3c0a3b16e07647b2ff9","5f60f01cf2abad0009cc9f60","true","1138.8799999840558","./Stimuli/ImagesPractice/LN109.jpg","76","","","","test","true","M + N","76","","LN","LN109.jpg","forget","old","27","2","practice_forget","right","","","",""
"html-keyboard-response","80","349151","0.0-3.0-3.0-3.10","bxju8e4w2z0asn0","practice_cue","5f5d48f1c6768e5bcae08170","5f60e3c0a3b16e07647b2ff9","5f60f01cf2abad0009cc9f60","false","null","<div style=""align-items: center; display: flex; color: darkorange; font-size: 90px""><b>ø</b></div>","null","","","","forget_cue","","","","","","","","","","","","","","","",""
"html-keyboard-response","81","349853","0.0-3.0-3.0-0.11","bxju8e4w2z0asn0","practice_cue","5f5d48f1c6768e5bcae08170","5f60e3c0a3b16e07647b2ff9","5f60f01cf2abad0009cc9f60","false","null","<span style=""color: black; font-size: 48px"">N + M</span>","null","","","","resp_prompt","","","","","","","","","","","","","","","",""
"categorize-image","82","351184","0.0-3.0-3.0-1.11","bxju8e4w2z0asn0","practice_cue","5f5d48f1c6768e5bcae08170","5f60e3c0a3b16e07647b2ff9","5f60f01cf2abad0009cc9f60","true","1321.4900000020862","./Stimuli/ImagesPractice/SM61.jpg","83","","","","test","false","N + M","76","","SM","SM61.jpg","forget","old","28","2","practice_forget","left","","","",""
"html-keyboard-response","83","351688","0.0-3.0-3.0-2.11-0.11","bxju8e4w2z0asn0","practice_cue","5f5d48f1c6768e5bcae08170","5f60e3c0a3b16e07647b2ff9","5f60f01cf2abad0009cc9f60","false","null","<span style=""color: red; font-size: 48px"">Error!</span>","null","","","","feedback","","","","","","","","","","","","","","","",""
"html-keyboard-response","84","353690","0.0-3.0-3.0-3.11","bxju8e4w2z0asn0","practice_cue","5f5d48f1c6768e5bcae08170","5f60e3c0a3b16e07647b2ff9","5f60f01cf2abad0009cc9f60","false","null","<div style=""align-items: center; display: flex; color: darkorange; font-size: 90px""><b>ø</b></div>","null","","","","forget_cue","","","","","","","","","","","","","","","",""
"html-keyboard-response","85","354393","0.0-3.0-3.0-0.12","bxju8e4w2z0asn0","practice_cue","5f5d48f1c6768e5bcae08170","5f60e3c0a3b16e07647b2ff9","5f60f01cf2abad0009cc9f60","false","null","<span style=""color: black; font-size: 48px"">N + M</span>","null","","","","resp_prompt","","","","","","","","","","","","","","","",""
"categorize-image","86","355903","0.0-3.0-3.0-1.12","bxju8e4w2z0asn0","practice_cue","5f5d48f1c6768e5bcae08170","5f60e3c0a3b16e07647b2ff9","5f60f01cf2abad0009cc9f60","true","1502.0250000525266","./Stimuli/ImagesPractice/SM35.jpg","76","","","","test","true","N + M","76","","SM","SM35.jpg","remember","old","29","2","practice_forget","right","","","",""
"html-keyboard-response","87","357906","0.0-3.0-3.0-3.12","bxju8e4w2z0asn0","practice_cue","5f5d48f1c6768e5bcae08170","5f60e3c0a3b16e07647b2ff9","5f60f01cf2abad0009cc9f60","false","null","<div style=""align-items: center; display: flex; color: dodgerblue; font-size: 90px""><b>o</b></div>","null","","","","forget_cue","","","","","","","","","","","","","","","",""
"html-keyboard-response","88","358610","0.0-3.0-3.0-0.13","bxju8e4w2z0asn0","practice_cue","5f5d48f1c6768e5bcae08170","5f60e3c0a3b16e07647b2ff9","5f60f01cf2abad0009cc9f60","false","null","<span style=""color: black; font-size: 48px"">M + N</span>","null","","","","resp_prompt","","","","","","","","","","","","","","","",""
"categorize-image","89","359686","0.0-3.0-3.0-1.13","bxju8e4w2z0asn0","practice_cue","5f5d48f1c6768e5bcae08170","5f60e3c0a3b16e07647b2ff9","5f60f01cf2abad0009cc9f60","true","1068.825000023935","./Stimuli/ImagesPractice/SN205.jpg","76","","","","test","true","M + N","76","","SN","SN205.jpg","remember","old","30","2","practice_forget","right","","","",""
"html-keyboard-response","90","361690","0.0-3.0-3.0-3.13","bxju8e4w2z0asn0","practice_cue","5f5d48f1c6768e5bcae08170","5f60e3c0a3b16e07647b2ff9","5f60f01cf2abad0009cc9f60","false","null","<div style=""align-items: center; display: flex; color: dodgerblue; font-size: 90px""><b>o</b></div>","null","","","","forget_cue","","","","","","","","","","","","","","","",""
"html-keyboard-response","91","362393","0.0-3.0-3.0-0.14","bxju8e4w2z0asn0","practice_cue","5f5d48f1c6768e5bcae08170","5f60e3c0a3b16e07647b2ff9","5f60f01cf2abad0009cc9f60","false","null","<span style=""color: black; font-size: 48px"">M + N</span>","null","","","","resp_prompt","","","","","","","","","","","","","","","",""
"categorize-image","92","363599","0.0-3.0-3.0-1.14","bxju8e4w2z0asn0","practice_cue","5f5d48f1c6768e5bcae08170","5f60e3c0a3b16e07647b2ff9","5f60f01cf2abad0009cc9f60","true","1199.564999958966","./Stimuli/ImagesPractice/SM37.jpg","83","","","","test","true","M + N","83","","SM","SM37.jpg","remember","old","31","2","practice_forget","left","","","",""
"html-keyboard-response","93","365608","0.0-3.0-3.0-3.14","bxju8e4w2z0asn0","practice_cue","5f5d48f1c6768e5bcae08170","5f60e3c0a3b16e07647b2ff9","5f60f01cf2abad0009cc9f60","false","null","<div style=""align-items: center; display: flex; color: dodgerblue; font-size: 90px""><b>o</b></div>","null","","","","forget_cue","","","","","","","","","","","","","","","",""
"html-keyboard-response","94","366310","0.0-3.0-3.0-0.15","bxju8e4w2z0asn0","practice_cue","5f5d48f1c6768e5bcae08170","5f60e3c0a3b16e07647b2ff9","5f60f01cf2abad0009cc9f60","false","null","<span style=""color: black; font-size: 48px"">M + N</span>","null","","","","resp_prompt","","","","","","","","","","","","","","","",""
"categorize-image","95","367127","0.0-3.0-3.0-1.15","bxju8e4w2z0asn0","practice_cue","5f5d48f1c6768e5bcae08170","5f60e3c0a3b16e07647b2ff9","5f60f01cf2abad0009cc9f60","true","810.3750000009313","./Stimuli/ImagesPractice/SN221.jpg","76","","","","test","true","M + N","76","","SN","SN221.jpg","remember","old","32","2","practice_forget","right","","","",""
"html-keyboard-response","96","369133","0.0-3.0-3.0-3.15","bxju8e4w2z0asn0","practice_cue","5f5d48f1c6768e5bcae08170","5f60e3c0a3b16e07647b2ff9","5f60f01cf2abad0009cc9f60","false","null","<div style=""align-items: center; display: flex; color: dodgerblue; font-size: 90px""><b>o</b></div>","null","","","","forget_cue","","","","","","","","","","","","","","","",""
"html-keyboard-response","97","372393","0.0-3.0-4.0","bxju8e4w2z0asn0","break","5f5d48f1c6768e5bcae08170","5f60e3c0a3b16e07647b2ff9","5f60f01cf2abad0009cc9f60","false","3256.5099999774247","<p style='font-size: 32px;'>Break</><br><br><br><br><br><p style='font-size: 24px;'>In the last block, you committed 1 errors and did not respond in time on 0 trials.
</p><p style='font-size: 24px;'>Try to respond as fast and accurately as possible in the next block as well! </p><p style='font-size: 24px;'>Press SPACE to continue.</p>","32","","","","","","","","","","","","","","","","","","","",""
"html-keyboard-response","98","377403","0.0-3.0-5.0","bxju8e4w2z0asn0","instructions","5f5d48f1c6768e5bcae08170","5f60e3c0a3b16e07647b2ff9","5f60f01cf2abad0009cc9f60","false","5010.21999999648","<div align=left> Now, to practice, we kindly ask you to remember as many of the to-be-remembered pictures<br>of the previous learning phase as possible.<br><br>The pictures you were instructed to remember were the pictures followed by a <span style='color: dodgerblue; font-size: 28px'>O</span>.<br><br>In this memory test phase, you will also see some new pictures.<br>It is your task to remember whether you were presented with this specific picture in this study so far or not.<br>If you recognize an object (you have already seen it in this study), it is an OLD object. <br>If you do not recognize an object (you have NOT seen it in this study), it is a NEW object. <br><strong> Attention</strong>: As already mentioned, <span style='color: darkorange; font-size:28px'>Ø</span>-pictures will <strong>never</strong> appear in this memory test (neither as new objects). <br><br>Press SPACE to continue. </div>","32","","","","","","","","","","","","","","","","","","","",""
"html-keyboard-response","99","413167","0.0-3.0-6.0","bxju8e4w2z0asn0","instructions","5f5d48f1c6768e5bcae08170","5f60e3c0a3b16e07647b2ff9","5f60f01cf2abad0009cc9f60","false","35760.115000011865","<div align=left> M and N no longer will appear on the left/right of the fixation cross. <br>Instead there will be a note at the bottom of the left or right side  <br>indicating which key you should press for an old or new object:  <br> <br>Press the <strong>right</strong> key to classify an object as <strong>old</strong> and press the <strong>left</strong>, to classify an object as <strong>new</strong>.<br>Please classify the objects as new/old by again placing your index finger on the 'S' and 'L' keys <br>and press them accordingly.<br><br><strong>Old:</strong> This object has been presented before. <br><strong>New:</strong> This object has <strong>not</strong> been presented.<br><br>Now please put your right and left index fingers on the 'S' and 'L' keys of your keyboard. <br>Please respond as fast and as accurately as possible!<br><br>Press SPACE to continue. </div>","32","","","","","","","","","","","","","","","","","","","",""
"categorize-image","100","415154","0.0-3.0-7.0-0.0","bxju8e4w2z0asn0","practice_recog","5f5d48f1c6768e5bcae08170","5f60e3c0a3b16e07647b2ff9","5f60f01cf2abad0009cc9f60","true","1479.2350000352599","./Stimuli/ImagesPractice/LN4.jpg","83","","","","test","true","","83","","LN","LN4.jpg","","new","33","3","practice_recog","left","","","",""
"categorize-image","101","417054","0.0-3.0-7.0-0.1","bxju8e4w2z0asn0","practice_recog","5f5d48f1c6768e5bcae08170","5f60e3c0a3b16e07647b2ff9","5f60f01cf2abad0009cc9f60","true","1391.8650000123307","./Stimuli/ImagesPractice/SN222.jpg","76","","","","test","true","","76","","SN","SN222.jpg","","old","34","3","practice_recog","right","","","",""
"categorize-image","102","418878","0.0-3.0-7.0-0.2","bxju8e4w2z0asn0","practice_recog","5f5d48f1c6768e5bcae08170","5f60e3c0a3b16e07647b2ff9","5f60f01cf2abad0009cc9f60","true","1319.130000018049","./Stimuli/ImagesPractice/SN76.jpg","83","","","","test","true","","83","","SN","SN76.jpg","","new","35","3","practice_recog","left","","","",""
"categorize-image","103","420365","0.0-3.0-7.0-0.3","bxju8e4w2z0asn0","practice_recog","5f5d48f1c6768e5bcae08170","5f60e3c0a3b16e07647b2ff9","5f60f01cf2abad0009cc9f60","true","982.4700000463054","./Stimuli/ImagesPractice/LM147.jpg","76","","","","test","true","","76","","LM","LM147.jpg","","old","36","3","practice_recog","right","","","",""
"categorize-image","104","421733","0.0-3.0-7.0-0.4","bxju8e4w2z0asn0","practice_recog","5f5d48f1c6768e5bcae08170","5f60e3c0a3b16e07647b2ff9","5f60f01cf2abad0009cc9f60","true","860.7400000328198","./Stimuli/ImagesPractice/SN220.jpg","83","","","","test","true","","83","","SN","SN220.jpg","","new","37","3","practice_recog","left","","","",""
"categorize-image","105","424184","0.0-3.0-7.0-0.5","bxju8e4w2z0asn0","practice_recog","5f5d48f1c6768e5bcae08170","5f60e3c0a3b16e07647b2ff9","5f60f01cf2abad0009cc9f60","true","1945.000000006985","./Stimuli/ImagesPractice/SM97.jpg","83","","","","test","true","","83","","SM","SM97.jpg","","new","38","3","practice_recog","left","","","",""
"categorize-image","106","426005","0.0-3.0-7.0-0.6","bxju8e4w2z0asn0","practice_recog","5f5d48f1c6768e5bcae08170","5f60e3c0a3b16e07647b2ff9","5f60f01cf2abad0009cc9f60","true","1315.2000000118278","./Stimuli/ImagesPractice/LN15.jpg","83","","","","test","true","","83","","LN","LN15.jpg","","new","39","3","practice_recog","left","","","",""
"categorize-image","107","427412","0.0-3.0-7.0-0.7","bxju8e4w2z0asn0","practice_recog","5f5d48f1c6768e5bcae08170","5f60e3c0a3b16e07647b2ff9","5f60f01cf2abad0009cc9f60","true","899.4500000262633","./Stimuli/ImagesPractice/SM35.jpg","76","","","","test","true","","76","","SM","SM35.jpg","","old","40","3","practice_recog","right","","","",""
"categorize-image","108","428686","0.0-3.0-7.0-0.8","bxju8e4w2z0asn0","practice_recog","5f5d48f1c6768e5bcae08170","5f60e3c0a3b16e07647b2ff9","5f60f01cf2abad0009cc9f60","true","767.5099999760278","./Stimuli/ImagesPractice/LM230.jpg","83","","","","test","false","","76","","LM","LM230.jpg","","old","41","3","practice_recog","left","","","",""
"categorize-image","109","430268","0.0-3.0-7.0-0.9","bxju8e4w2z0asn0","practice_recog","5f5d48f1c6768e5bcae08170","5f60e3c0a3b16e07647b2ff9","5f60f01cf2abad0009cc9f60","true","1076.4400000334717","./Stimuli/ImagesPractice/SM62.jpg","76","","","","test","false","","83","","SM","SM62.jpg","","new","42","3","practice_recog","right","","","",""
"categorize-image","110","432198","0.0-3.0-7.0-0.10","bxju8e4w2z0asn0","practice_recog","5f5d48f1c6768e5bcae08170","5f60e3c0a3b16e07647b2ff9","5f60f01cf2abad0009cc9f60","true","1422.679999959655","./Stimuli/ImagesPractice/LN17.jpg","83","","","","test","true","","83","","LN","LN17.jpg","","new","43","3","practice_recog","left","","","",""
"categorize-image","111","433958","0.0-3.0-7.0-0.11","bxju8e4w2z0asn0","practice_recog","5f5d48f1c6768e5bcae08170","5f60e3c0a3b16e07647b2ff9","5f60f01cf2abad0009cc9f60","true","1253.7350000347942","./Stimuli/ImagesPractice/SN205.jpg","76","","","","test","true","","76","","SN","SN205.jpg","","old","44","3","practice_recog","right","","","",""
"categorize-image","112","435797","0.0-3.0-7.0-0.12","bxju8e4w2z0asn0","practice_recog","5f5d48f1c6768e5bcae08170","5f60e3c0a3b16e07647b2ff9","5f60f01cf2abad0009cc9f60","true","1331.3600000110455","./Stimuli/ImagesPractice/SN221.jpg","76","","","","test","true","","76","","SN","SN221.jpg","","old","45","3","practice_recog","right","","","",""
"categorize-image","113","437223","0.0-3.0-7.0-0.13","bxju8e4w2z0asn0","practice_recog","5f5d48f1c6768e5bcae08170","5f60e3c0a3b16e07647b2ff9","5f60f01cf2abad0009cc9f60","true","919.7649999987334","./Stimuli/ImagesPractice/SM98.jpg","76","","","","test","true","","76","","SM","SM98.jpg","","old","46","3","practice_recog","right","","","",""
"categorize-image","114","438643","0.0-3.0-7.0-0.14","bxju8e4w2z0asn0","practice_recog","5f5d48f1c6768e5bcae08170","5f60e3c0a3b16e07647b2ff9","5f60f01cf2abad0009cc9f60","true","913.5949999908917","./Stimuli/ImagesPractice/LM239.jpg","83","","","","test","true","","83","","LM","LM239.jpg","","new","47","3","practice_recog","left","","","",""
"categorize-image","115","440232","0.0-3.0-7.0-0.15","bxju8e4w2z0asn0","practice_recog","5f5d48f1c6768e5bcae08170","5f60e3c0a3b16e07647b2ff9","5f60f01cf2abad0009cc9f60","true","1080.1250000367872","./Stimuli/ImagesPractice/SM37.jpg","76","","","","test","true","","76","","SM","SM37.jpg","","old","48","3","practice_recog","right","","","",""
"html-keyboard-response","116","443358","0.0-3.0-8.0","bxju8e4w2z0asn0","instructions","5f5d48f1c6768e5bcae08170","5f60e3c0a3b16e07647b2ff9","5f60f01cf2abad0009cc9f60","false","3124.3050000048243","<div align=left> Great!<br><br>Are you ready to continue?<br>If you want to reread the instructions and redo the practice trials, please <br>press „Z“.<br><br>You can proceed when you are ready.<br><br>After the presentation of each object, you will receive an instruction whether to <br>remember or to forget the object.<br>We will test your memory of the following pictures only at the very end of <br>the experiment after all learning blocks are completed. <br><br>Press SPACE to CONTINUE when you are ready. </div>","32","","","","","","","","","","","","","","","","","","","",""
"html-keyboard-response","117","450478","0.0-4.0-0.0","bxju8e4w2z0asn0","instructions","5f5d48f1c6768e5bcae08170","5f60e3c0a3b16e07647b2ff9","5f60f01cf2abad0009cc9f60","false","7115.935000008903","<div align=left> The actual experiment is about to start.<br>The practice trials are over!<br><br>Please always respond both fast and accurately!<br><br>Remember: <br> <br><li> Please place your index fingers on the <strong>'S'</strong> and <strong>'L'</strong> keys <br>to respond as fast and accurately as possible.</li><li> Every picture can be classified as either mechanical or non-mechanical.</li><li> If you do not respond in time or commit an error, you will receive a corresponding feedback.<br> Please try to respond as <strong> fast </strong> and as <strong> accurately as possible </strong>.</li><li> Remember the <span style='color: dodgerblue; font-size: 28px'>O</span> pictures. <br></li><li> Please minimize distractions and stay focused. </li><br><br>Press SPACE to START.</div>","32","","","","","","","","","","","","","","","","","","","",""
"html-keyboard-response","118","451182","0.0-4.0-1.0-0.0","bxju8e4w2z0asn0","prime","5f5d48f1c6768e5bcae08170","5f60e3c0a3b16e07647b2ff9","5f60f01cf2abad0009cc9f60","false","null","<span style=""color: black; font-size: 48px"">N + M</span>","null","","","","resp_prompt","","","","","","","","","","","","","","","",""
"categorize-image","119","452204","0.0-4.0-1.0-1.0","bxju8e4w2z0asn0","prime","5f5d48f1c6768e5bcae08170","5f60e3c0a3b16e07647b2ff9","5f60f01cf2abad0009cc9f60","true","1014.9449999444187","./Stimuli/SelectedImages/LN/LN150.bmp","83","","","","test","true","N + M","83","switch","LN","LN150.bmp","remember","","49","3","prime1","left","","","",""
"html-keyboard-response","120","454208","0.0-4.0-1.0-3.0","bxju8e4w2z0asn0","prime","5f5d48f1c6768e5bcae08170","5f60e3c0a3b16e07647b2ff9","5f60f01cf2abad0009cc9f60","false","null","<div style=""align-items: center; display: flex; color: dodgerblue; font-size: 90px""><b>o</b></div>","null","","","","forget_cue","","","","","","","","","","","","","","","",""
"html-keyboard-response","121","454913","0.0-4.0-1.0-0.1","bxju8e4w2z0asn0","prime","5f5d48f1c6768e5bcae08170","5f60e3c0a3b16e07647b2ff9","5f60f01cf2abad0009cc9f60","false","null","<span style=""color: black; font-size: 48px"">M + N</span>","null","","","","resp_prompt","","","","","","","","","","","","","","","",""
"categorize-image","122","456762","0.0-4.0-1.0-1.1","bxju8e4w2z0asn0","prime","5f5d48f1c6768e5bcae08170","5f60e3c0a3b16e07647b2ff9","5f60f01cf2abad0009cc9f60","true","1841.6050000232644","./Stimuli/SelectedImages/SM/SM207.bmp","83","","","","test","true","M + N","83","repetition","SM","SM207.bmp","remember","","50","3","prime1","left","","","",""
"html-keyboard-response","123","458768","0.0-4.0-1.0-3.1","bxju8e4w2z0asn0","prime","5f5d48f1c6768e5bcae08170","5f60e3c0a3b16e07647b2ff9","5f60f01cf2abad0009cc9f60","false","null","<div style=""align-items: center; display: flex; color: dodgerblue; font-size: 90px""><b>o</b></div>","null","","","","forget_cue","","","","","","","","","","","","","","","",""
"html-keyboard-response","124","459474","0.0-4.0-1.0-0.2","bxju8e4w2z0asn0","prime","5f5d48f1c6768e5bcae08170","5f60e3c0a3b16e07647b2ff9","5f60f01cf2abad0009cc9f60","false","null","<span style=""color: black; font-size: 48px"">N + M</span>","null","","","","resp_prompt","","","","","","","","","","","","","","","",""
"categorize-image","125","461487","0.0-4.0-1.0-1.2","bxju8e4w2z0asn0","prime","5f5d48f1c6768e5bcae08170","5f60e3c0a3b16e07647b2ff9","5f60f01cf2abad0009cc9f60","true","null","./Stimuli/SelectedImages/LN/LN59.bmp","null","","","","test","false","N + M","83","repetition","LN","LN59.bmp","forget","","51","3","prime1","too_slow","","","",""
"html-keyboard-response","126","461993","0.0-4.0-1.0-2.2-0.2","bxju8e4w2z0asn0","prime","5f5d48f1c6768e5bcae08170","5f60e3c0a3b16e07647b2ff9","5f60f01cf2abad0009cc9f60","false","null","<span style=""color: red; font-size: 48px"">Too slow!</span>","null","","","","feedback","","","","","","","","","","","","","","","",""
"html-keyboard-response","127","463998","0.0-4.0-1.0-3.2","bxju8e4w2z0asn0","prime","5f5d48f1c6768e5bcae08170","5f60e3c0a3b16e07647b2ff9","5f60f01cf2abad0009cc9f60","false","null","<div style=""align-items: center; display: flex; color: darkorange; font-size: 90px""><b>ø</b></div>","null","","","","forget_cue","","","","","","","","","","","","","","","",""
"html-keyboard-response","128","464703","0.0-4.0-1.0-0.3","bxju8e4w2z0asn0","prime","5f5d48f1c6768e5bcae08170","5f60e3c0a3b16e07647b2ff9","5f60f01cf2abad0009cc9f60","false","null","<span style=""color: black; font-size: 48px"">N + M</span>","null","","","","resp_prompt","","","","","","","","","","","","","","","",""
"categorize-image","129","465418","0.0-4.0-1.0-1.3","bxju8e4w2z0asn0","prime","5f5d48f1c6768e5bcae08170","5f60e3c0a3b16e07647b2ff9","5f60f01cf2abad0009cc9f60","true","708.0650000134483","./Stimuli/SelectedImages/LM/LM157.bmp","76","","","","test","true","N + M","76","switch","LM","LM157.bmp","forget","","52","3","prime1","right","","","",""
"html-keyboard-response","130","467420","0.0-4.0-1.0-3.3","bxju8e4w2z0asn0","prime","5f5d48f1c6768e5bcae08170","5f60e3c0a3b16e07647b2ff9","5f60f01cf2abad0009cc9f60","false","null","<div style=""align-items: center; display: flex; color: darkorange; font-size: 90px""><b>ø</b></div>","null","","","","forget_cue","","","","","","","","","","","","","","","",""
"html-keyboard-response","131","468126","0.0-4.0-1.0-0.4","bxju8e4w2z0asn0","prime","5f5d48f1c6768e5bcae08170","5f60e3c0a3b16e07647b2ff9","5f60f01cf2abad0009cc9f60","false","null","<span style=""color: black; font-size: 48px"">M + N</span>","null","","","","resp_prompt","","","","","","","","","","","","","","","",""
"categorize-image","132","468913","0.0-4.0-1.0-1.4","bxju8e4w2z0asn0","prime","5f5d48f1c6768e5bcae08170","5f60e3c0a3b16e07647b2ff9","5f60f01cf2abad0009cc9f60","true","780.3399999975227","./Stimuli/SelectedImages/SN/SN64.bmp","83","","","","test","false","M + N","76","repetition","SN","SN64.bmp","forget","","53","3","prime1","left","","","",""
"html-keyboard-response","133","469419","0.0-4.0-1.0-2.4-0.4","bxju8e4w2z0asn0","prime","5f5d48f1c6768e5bcae08170","5f60e3c0a3b16e07647b2ff9","5f60f01cf2abad0009cc9f60","false","null","<span style=""color: red; font-size: 48px"">Error!</span>","null","","","","feedback","","","","","","","","","","","","","","","",""
"html-keyboard-response","134","471425","0.0-4.0-1.0-3.4","bxju8e4w2z0asn0","prime","5f5d48f1c6768e5bcae08170","5f60e3c0a3b16e07647b2ff9","5f60f01cf2abad0009cc9f60","false","null","<div style=""align-items: center; display: flex; color: darkorange; font-size: 90px""><b>ø</b></div>","null","","","","forget_cue","","","","","","","","","","","","","","","",""
"html-keyboard-response","135","472128","0.0-4.0-1.0-0.5","bxju8e4w2z0asn0","prime","5f5d48f1c6768e5bcae08170","5f60e3c0a3b16e07647b2ff9","5f60f01cf2abad0009cc9f60","false","null","<span style=""color: black; font-size: 48px"">N + M</span>","null","","","","resp_prompt","","","","","","","","","","","","","","","",""
"categorize-image","136","473728","0.0-4.0-1.0-1.5","bxju8e4w2z0asn0","prime","5f5d48f1c6768e5bcae08170","5f60e3c0a3b16e07647b2ff9","5f60f01cf2abad0009cc9f60","true","1587.7949999994598","./Stimuli/SelectedImages/LN/LN28.bmp","83","","","","test","true","N + M","83","switch","LN","LN28.bmp","forget","","54","3","prime1","left","","","",""
"html-keyboard-response","137","475734","0.0-4.0-1.0-3.5","bxju8e4w2z0asn0","prime","5f5d48f1c6768e5bcae08170","5f60e3c0a3b16e07647b2ff9","5f60f01cf2abad0009cc9f60","false","null","<div style=""align-items: center; display: flex; color: darkorange; font-size: 90px""><b>ø</b></div>","null","","","","forget_cue","","","","","","","","","","","","","","","",""
"html-keyboard-response","138","476439","0.0-4.0-1.0-0.6","bxju8e4w2z0asn0","prime","5f5d48f1c6768e5bcae08170","5f60e3c0a3b16e07647b2ff9","5f60f01cf2abad0009cc9f60","false","null","<span style=""color: black; font-size: 48px"">N + M</span>","null","","","","resp_prompt","","","","","","","","","","","","","","","",""
"categorize-image","139","477299","0.0-4.0-1.0-1.6","bxju8e4w2z0asn0","prime","5f5d48f1c6768e5bcae08170","5f60e3c0a3b16e07647b2ff9","5f60f01cf2abad0009cc9f60","true","853.0250000185333","./Stimuli/SelectedImages/SM/SM73.bmp","76","","","","test","true","N + M","76","repetition","SM","SM73.bmp","remember","","55","3","prime1","right","","","",""
"html-keyboard-response","140","479303","0.0-4.0-1.0-3.6","bxju8e4w2z0asn0","prime","5f5d48f1c6768e5bcae08170","5f60e3c0a3b16e07647b2ff9","5f60f01cf2abad0009cc9f60","false","null","<div style=""align-items: center; display: flex; color: dodgerblue; font-size: 90px""><b>o</b></div>","null","","","","forget_cue","","","","","","","","","","","","","","","",""
"html-keyboard-response","141","480005","0.0-4.0-1.0-0.7","bxju8e4w2z0asn0","prime","5f5d48f1c6768e5bcae08170","5f60e3c0a3b16e07647b2ff9","5f60f01cf2abad0009cc9f60","false","null","<span style=""color: black; font-size: 48px"">M + N</span>","null","","","","resp_prompt","","","","","","","","","","","","","","","",""
"categorize-image","142","481023","0.0-4.0-1.0-1.7","bxju8e4w2z0asn0","prime","5f5d48f1c6768e5bcae08170","5f60e3c0a3b16e07647b2ff9","5f60f01cf2abad0009cc9f60","true","1010.9750000410713","./Stimuli/SelectedImages/SM/SM200.bmp","83","","","","test","true","M + N","83","switch","SM","SM200.bmp","forget","","56","3","prime1","left","","","",""
"html-keyboard-response","143","483026","0.0-4.0-1.0-3.7","bxju8e4w2z0asn0","prime","5f5d48f1c6768e5bcae08170","5f60e3c0a3b16e07647b2ff9","5f60f01cf2abad0009cc9f60","false","null","<div style=""align-items: center; display: flex; color: darkorange; font-size: 90px""><b>ø</b></div>","null","","","","forget_cue","","","","","","","","","","","","","","","",""
"html-keyboard-response","144","483732","0.0-4.0-1.0-0.8","bxju8e4w2z0asn0","prime","5f5d48f1c6768e5bcae08170","5f60e3c0a3b16e07647b2ff9","5f60f01cf2abad0009cc9f60","false","null","<span style=""color: black; font-size: 48px"">N + M</span>","null","","","","resp_prompt","","","","","","","","","","","","","","","",""
"categorize-image","145","484855","0.0-4.0-1.0-1.8","bxju8e4w2z0asn0","prime","5f5d48f1c6768e5bcae08170","5f60e3c0a3b16e07647b2ff9","5f60f01cf2abad0009cc9f60","true","1116.2400000030175","./Stimuli/SelectedImages/SM/SM78.bmp","76","","","","test","true","N + M","76","repetition","SM","SM78.bmp","forget","","57","3","prime1","right","","","",""
"html-keyboard-response","146","486859","0.0-4.0-1.0-3.8","bxju8e4w2z0asn0","prime","5f5d48f1c6768e5bcae08170","5f60e3c0a3b16e07647b2ff9","5f60f01cf2abad0009cc9f60","false","null","<div style=""align-items: center; display: flex; color: darkorange; font-size: 90px""><b>ø</b></div>","null","","","","forget_cue","","","","","","","","","","","","","","","",""
"html-keyboard-response","147","487562","0.0-4.0-1.0-0.9","bxju8e4w2z0asn0","prime","5f5d48f1c6768e5bcae08170","5f60e3c0a3b16e07647b2ff9","5f60f01cf2abad0009cc9f60","false","null","<span style=""color: black; font-size: 48px"">N + M</span>","null","","","","resp_prompt","","","","","","","","","","","","","","","",""
"categorize-image","148","488509","0.0-4.0-1.0-1.9","bxju8e4w2z0asn0","prime","5f5d48f1c6768e5bcae08170","5f60e3c0a3b16e07647b2ff9","5f60f01cf2abad0009cc9f60","true","940.7300000311807","./Stimuli/SelectedImages/SN/SN111.bmp","83","","","","test","true","N + M","83","repetition","SN","SN111.bmp","remember","","58","3","prime1","left","","","",""
"html-keyboard-response","149","490512","0.0-4.0-1.0-3.9","bxju8e4w2z0asn0","prime","5f5d48f1c6768e5bcae08170","5f60e3c0a3b16e07647b2ff9","5f60f01cf2abad0009cc9f60","false","null","<div style=""align-items: center; display: flex; color: dodgerblue; font-size: 90px""><b>o</b></div>","null","","","","forget_cue","","","","","","","","","","","","","","","",""
"html-keyboard-response","150","491215","0.0-4.0-1.0-0.10","bxju8e4w2z0asn0","prime","5f5d48f1c6768e5bcae08170","5f60e3c0a3b16e07647b2ff9","5f60f01cf2abad0009cc9f60","false","null","<span style=""color: black; font-size: 48px"">M + N</span>","null","","","","resp_prompt","","","","","","","","","","","","","","","",""
"categorize-image","151","492302","0.0-4.0-1.0-1.10","bxju8e4w2z0asn0","prime","5f5d48f1c6768e5bcae08170","5f60e3c0a3b16e07647b2ff9","5f60f01cf2abad0009cc9f60","true","1080.4950000019744","./Stimuli/SelectedImages/SM/SM74.bmp","76","","","","test","false","M + N","83","switch","SM","SM74.bmp","forget","","59","3","prime1","right","","","",""
"html-keyboard-response","152","492806","0.0-4.0-1.0-2.10-0.10","bxju8e4w2z0asn0","prime","5f5d48f1c6768e5bcae08170","5f60e3c0a3b16e07647b2ff9","5f60f01cf2abad0009cc9f60","false","null","<span style=""color: red; font-size: 48px"">Error!</span>","null","","","","feedback","","","","","","","","","","","","","","","",""
"html-keyboard-response","153","494810","0.0-4.0-1.0-3.10","bxju8e4w2z0asn0","prime","5f5d48f1c6768e5bcae08170","5f60e3c0a3b16e07647b2ff9","5f60f01cf2abad0009cc9f60","false","null","<div style=""align-items: center; display: flex; color: darkorange; font-size: 90px""><b>ø</b></div>","null","","","","forget_cue","","","","","","","","","","","","","","","",""
"html-keyboard-response","154","495512","0.0-4.0-1.0-0.11","bxju8e4w2z0asn0","prime","5f5d48f1c6768e5bcae08170","5f60e3c0a3b16e07647b2ff9","5f60f01cf2abad0009cc9f60","false","null","<span style=""color: black; font-size: 48px"">M + N</span>","null","","","","resp_prompt","","","","","","","","","","","","","","","",""
"categorize-image","155","496496","0.0-4.0-1.0-1.11","bxju8e4w2z0asn0","prime","5f5d48f1c6768e5bcae08170","5f60e3c0a3b16e07647b2ff9","5f60f01cf2abad0009cc9f60","true","977.5099999969825","./Stimuli/SelectedImages/SN/SN181.bmp","76","","","","test","true","M + N","76","switch","SN","SN181.bmp","forget","","60","3","prime1","right","","","",""
"html-keyboard-response","156","498501","0.0-4.0-1.0-3.11","bxju8e4w2z0asn0","prime","5f5d48f1c6768e5bcae08170","5f60e3c0a3b16e07647b2ff9","5f60f01cf2abad0009cc9f60","false","null","<div style=""align-items: center; display: flex; color: darkorange; font-size: 90px""><b>ø</b></div>","null","","","","forget_cue","","","","","","","","","","","","","","","",""
"html-keyboard-response","157","499203","0.0-4.0-1.0-0.12","bxju8e4w2z0asn0","prime","5f5d48f1c6768e5bcae08170","5f60e3c0a3b16e07647b2ff9","5f60f01cf2abad0009cc9f60","false","null","<span style=""color: black; font-size: 48px"">M + N</span>","null","","","","resp_prompt","","","","","","","","","","","","","","","",""
"categorize-image","158","500432","0.0-4.0-1.0-1.12","bxju8e4w2z0asn0","prime","5f5d48f1c6768e5bcae08170","5f60e3c0a3b16e07647b2ff9","5f60f01cf2abad0009cc9f60","true","1223.615000024438","./Stimuli/SelectedImages/LM/LM150.bmp","83","","","","test","true","M + N","83","repetition","LM","LM150.bmp","forget","","61","3","prime1","left","","","",""
"html-keyboard-response","159","502439","0.0-4.0-1.0-3.12","bxju8e4w2z0asn0","prime","5f5d48f1c6768e5bcae08170","5f60e3c0a3b16e07647b2ff9","5f60f01cf2abad0009cc9f60","false","null","<div style=""align-items: center; display: flex; color: darkorange; font-size: 90px""><b>ø</b></div>","null","","","","forget_cue","","","","","","","","","","","","","","","",""
"html-keyboard-response","160","503142","0.0-4.0-1.0-0.13","bxju8e4w2z0asn0","prime","5f5d48f1c6768e5bcae08170","5f60e3c0a3b16e07647b2ff9","5f60f01cf2abad0009cc9f60","false","null","<span style=""color: black; font-size: 48px"">M + N</span>","null","","","","resp_prompt","","","","","","","","","","","","","","","",""
"categorize-image","161","504435","0.0-4.0-1.0-1.13","bxju8e4w2z0asn0","prime","5f5d48f1c6768e5bcae08170","5f60e3c0a3b16e07647b2ff9","5f60f01cf2abad0009cc9f60","true","1286.9099999661557","./Stimuli/SelectedImages/LN/LN42.bmp","76","","","","test","true","M + N","76","switch","LN","LN42.bmp","remember","","62","3","prime1","right","","","",""
"html-keyboard-response","162","506439","0.0-4.0-1.0-3.13","bxju8e4w2z0asn0","prime","5f5d48f1c6768e5bcae08170","5f60e3c0a3b16e07647b2ff9","5f60f01cf2abad0009cc9f60","false","null","<div style=""align-items: center; display: flex; color: dodgerblue; font-size: 90px""><b>o</b></div>","null","","","","forget_cue","","","","","","","","","","","","","","","",""
"html-keyboard-response","163","507143","0.0-4.0-1.0-0.14","bxju8e4w2z0asn0","prime","5f5d48f1c6768e5bcae08170","5f60e3c0a3b16e07647b2ff9","5f60f01cf2abad0009cc9f60","false","null","<span style=""color: black; font-size: 48px"">M + N</span>","null","","","","resp_prompt","","","","","","","","","","","","","","","",""
"categorize-image","164","508395","0.0-4.0-1.0-1.14","bxju8e4w2z0asn0","prime","5f5d48f1c6768e5bcae08170","5f60e3c0a3b16e07647b2ff9","5f60f01cf2abad0009cc9f60","true","1246.0500000161119","./Stimuli/SelectedImages/LN/LN128.bmp","76","","","","test","true","M + N","76","repetition","LN","LN128.bmp","forget","","63","3","prime1","right","","","",""
"html-keyboard-response","165","510402","0.0-4.0-1.0-3.14","bxju8e4w2z0asn0","prime","5f5d48f1c6768e5bcae08170","5f60e3c0a3b16e07647b2ff9","5f60f01cf2abad0009cc9f60","false","null","<div style=""align-items: center; display: flex; color: darkorange; font-size: 90px""><b>ø</b></div>","null","","","","forget_cue","","","","","","","","","","","","","","","",""
"html-keyboard-response","166","511104","0.0-4.0-1.0-0.15","bxju8e4w2z0asn0","prime","5f5d48f1c6768e5bcae08170","5f60e3c0a3b16e07647b2ff9","5f60f01cf2abad0009cc9f60","false","null","<span style=""color: black; font-size: 48px"">N + M</span>","null","","","","resp_prompt","","","","","","","","","","","","","","","",""
"categorize-image","167","512504","0.0-4.0-1.0-1.15","bxju8e4w2z0asn0","prime","5f5d48f1c6768e5bcae08170","5f60e3c0a3b16e07647b2ff9","5f60f01cf2abad0009cc9f60","true","1392.4950000364333","./Stimuli/SelectedImages/LN/LN131.bmp","76","","","","test","false","N + M","83","repetition","LN","LN131.bmp","remember","","64","3","prime1","right","","","",""
"html-keyboard-response","168","513010","0.0-4.0-1.0-2.15-0.15","bxju8e4w2z0asn0","prime","5f5d48f1c6768e5bcae08170","5f60e3c0a3b16e07647b2ff9","5f60f01cf2abad0009cc9f60","false","null","<span style=""color: red; font-size: 48px"">Error!</span>","null","","","","feedback","","","","","","","","","","","","","","","",""
"html-keyboard-response","169","515016","0.0-4.0-1.0-3.15","bxju8e4w2z0asn0","prime","5f5d48f1c6768e5bcae08170","5f60e3c0a3b16e07647b2ff9","5f60f01cf2abad0009cc9f60","false","null","<div style=""align-items: center; display: flex; color: dodgerblue; font-size: 90px""><b>o</b></div>","null","","","","forget_cue","","","","","","","","","","","","","","","",""
"html-keyboard-response","170","515720","0.0-4.0-1.0-0.16","bxju8e4w2z0asn0","prime","5f5d48f1c6768e5bcae08170","5f60e3c0a3b16e07647b2ff9","5f60f01cf2abad0009cc9f60","false","null","<span style=""color: black; font-size: 48px"">N + M</span>","null","","","","resp_prompt","","","","","","","","","","","","","","","",""
"categorize-image","171","517102","0.0-4.0-1.0-1.16","bxju8e4w2z0asn0","prime","5f5d48f1c6768e5bcae08170","5f60e3c0a3b16e07647b2ff9","5f60f01cf2abad0009cc9f60","true","1375.6500000017695","./Stimuli/SelectedImages/SN/SN18.bmp","83","","","","test","true","N + M","83","switch","SN","SN18.bmp","remember","","65","3","prime1","left","","","",""
"html-keyboard-response","172","519110","0.0-4.0-1.0-3.16","bxju8e4w2z0asn0","prime","5f5d48f1c6768e5bcae08170","5f60e3c0a3b16e07647b2ff9","5f60f01cf2abad0009cc9f60","false","null","<div style=""align-items: center; display: flex; color: dodgerblue; font-size: 90px""><b>o</b></div>","null","","","","forget_cue","","","","","","","","","","","","","","","",""
"html-keyboard-response","173","519814","0.0-4.0-1.0-0.17","bxju8e4w2z0asn0","prime","5f5d48f1c6768e5bcae08170","5f60e3c0a3b16e07647b2ff9","5f60f01cf2abad0009cc9f60","false","null","<span style=""color: black; font-size: 48px"">N + M</span>","null","","","","resp_prompt","","","","","","","","","","","","","","","",""
"categorize-image","174","520885","0.0-4.0-1.0-1.17","bxju8e4w2z0asn0","prime","5f5d48f1c6768e5bcae08170","5f60e3c0a3b16e07647b2ff9","5f60f01cf2abad0009cc9f60","true","1063.5200000251643","./Stimuli/SelectedImages/LM/LM216.bmp","76","","","","test","true","N + M","76","switch","LM","LM216.bmp","remember","","66","3","prime1","right","","","",""
"html-keyboard-response","175","522890","0.0-4.0-1.0-3.17","bxju8e4w2z0asn0","prime","5f5d48f1c6768e5bcae08170","5f60e3c0a3b16e07647b2ff9","5f60f01cf2abad0009cc9f60","false","null","<div style=""align-items: center; display: flex; color: dodgerblue; font-size: 90px""><b>o</b></div>","null","","","","forget_cue","","","","","","","","","","","","","","","",""
"html-keyboard-response","176","523594","0.0-4.0-1.0-0.18","bxju8e4w2z0asn0","prime","5f5d48f1c6768e5bcae08170","5f60e3c0a3b16e07647b2ff9","5f60f01cf2abad0009cc9f60","false","null","<span style=""color: black; font-size: 48px"">M + N</span>","null","","","","resp_prompt","","","","","","","","","","","","","","","",""
"categorize-image","177","524570","0.0-4.0-1.0-1.18","bxju8e4w2z0asn0","prime","5f5d48f1c6768e5bcae08170","5f60e3c0a3b16e07647b2ff9","5f60f01cf2abad0009cc9f60","true","970.0949999969453","./Stimuli/SelectedImages/LM/LM209.bmp","83","","","","test","true","M + N","83","repetition","LM","LM209.bmp","forget","","67","3","prime1","left","","","",""
"html-keyboard-response","178","526575","0.0-4.0-1.0-3.18","bxju8e4w2z0asn0","prime","5f5d48f1c6768e5bcae08170","5f60e3c0a3b16e07647b2ff9","5f60f01cf2abad0009cc9f60","false","null","<div style=""align-items: center; display: flex; color: darkorange; font-size: 90px""><b>ø</b></div>","null","","","","forget_cue","","","","","","","","","","","","","","","",""
"html-keyboard-response","179","527277","0.0-4.0-1.0-0.19","bxju8e4w2z0asn0","prime","5f5d48f1c6768e5bcae08170","5f60e3c0a3b16e07647b2ff9","5f60f01cf2abad0009cc9f60","false","null","<span style=""color: black; font-size: 48px"">N + M</span>","null","","","","resp_prompt","","","","","","","","","","","","","","","",""
"categorize-image","180","528823","0.0-4.0-1.0-1.19","bxju8e4w2z0asn0","prime","5f5d48f1c6768e5bcae08170","5f60e3c0a3b16e07647b2ff9","5f60f01cf2abad0009cc9f60","true","1540.8000000170432","./Stimuli/SelectedImages/SN/SN60.bmp","83","","","","test","true","N + M","83","repetition","SN","SN60.bmp","remember","","68","3","prime1","left","","","",""
"html-keyboard-response","181","530830","0.0-4.0-1.0-3.19","bxju8e4w2z0asn0","prime","5f5d48f1c6768e5bcae08170","5f60e3c0a3b16e07647b2ff9","5f60f01cf2abad0009cc9f60","false","null","<div style=""align-items: center; display: flex; color: dodgerblue; font-size: 90px""><b>o</b></div>","null","","","","forget_cue","","","","","","","","","","","","","","","",""
"html-keyboard-response","182","531532","0.0-4.0-1.0-0.20","bxju8e4w2z0asn0","prime","5f5d48f1c6768e5bcae08170","5f60e3c0a3b16e07647b2ff9","5f60f01cf2abad0009cc9f60","false","null","<span style=""color: black; font-size: 48px"">M + N</span>","null","","","","resp_prompt","","","","","","","","","","","","","","","",""
"categorize-image","183","532171","0.0-4.0-1.0-1.20","bxju8e4w2z0asn0","prime","5f5d48f1c6768e5bcae08170","5f60e3c0a3b16e07647b2ff9","5f60f01cf2abad0009cc9f60","true","632.3199999751523","./Stimuli/SelectedImages/LM/LM167.bmp","83","","","","test","true","M + N","83","switch","LM","LM167.bmp","forget","","69","3","prime1","left","","","",""
"html-keyboard-response","184","534177","0.0-4.0-1.0-3.20","bxju8e4w2z0asn0","prime","5f5d48f1c6768e5bcae08170","5f60e3c0a3b16e07647b2ff9","5f60f01cf2abad0009cc9f60","false","null","<div style=""align-items: center; display: flex; color: darkorange; font-size: 90px""><b>ø</b></div>","null","","","","forget_cue","","","","","","","","","","","","","","","",""
"html-keyboard-response","185","534882","0.0-4.0-1.0-0.21","bxju8e4w2z0asn0","prime","5f5d48f1c6768e5bcae08170","5f60e3c0a3b16e07647b2ff9","5f60f01cf2abad0009cc9f60","false","null","<span style=""color: black; font-size: 48px"">M + N</span>","null","","","","resp_prompt","","","","","","","","","","","","","","","",""
"categorize-image","186","535534","0.0-4.0-1.0-1.21","bxju8e4w2z0asn0","prime","5f5d48f1c6768e5bcae08170","5f60e3c0a3b16e07647b2ff9","5f60f01cf2abad0009cc9f60","true","645.1849999721162","./Stimuli/SelectedImages/LM/LM100.bmp","83","","","","test","true","M + N","83","repetition","LM","LM100.bmp","remember","","70","3","prime1","left","","","",""
"html-keyboard-response","187","537537","0.0-4.0-1.0-3.21","bxju8e4w2z0asn0","prime","5f5d48f1c6768e5bcae08170","5f60e3c0a3b16e07647b2ff9","5f60f01cf2abad0009cc9f60","false","null","<div style=""align-items: center; display: flex; color: dodgerblue; font-size: 90px""><b>o</b></div>","null","","","","forget_cue","","","","","","","","","","","","","","","",""
"html-keyboard-response","188","538243","0.0-4.0-1.0-0.22","bxju8e4w2z0asn0","prime","5f5d48f1c6768e5bcae08170","5f60e3c0a3b16e07647b2ff9","5f60f01cf2abad0009cc9f60","false","null","<span style=""color: black; font-size: 48px"">M + N</span>","null","","","","resp_prompt","","","","","","","","","","","","","","","",""
"categorize-image","189","538969","0.0-4.0-1.0-1.22","bxju8e4w2z0asn0","prime","5f5d48f1c6768e5bcae08170","5f60e3c0a3b16e07647b2ff9","5f60f01cf2abad0009cc9f60","true","720.1200000126846","./Stimuli/SelectedImages/SN/SN155.bmp","76","","","","test","true","M + N","76","switch","SN","SN155.bmp","forget","","71","3","prime1","right","","","",""
"html-keyboard-response","190","540972","0.0-4.0-1.0-3.22","bxju8e4w2z0asn0","prime","5f5d48f1c6768e5bcae08170","5f60e3c0a3b16e07647b2ff9","5f60f01cf2abad0009cc9f60","false","null","<div style=""align-items: center; display: flex; color: darkorange; font-size: 90px""><b>ø</b></div>","null","","","","forget_cue","","","","","","","","","","","","","","","",""
"html-keyboard-response","191","541675","0.0-4.0-1.0-0.23","bxju8e4w2z0asn0","prime","5f5d48f1c6768e5bcae08170","5f60e3c0a3b16e07647b2ff9","5f60f01cf2abad0009cc9f60","false","null","<span style=""color: black; font-size: 48px"">N + M</span>","null","","","","resp_prompt","","","","","","","","","","","","","","","",""
"categorize-image","192","542848","0.0-4.0-1.0-1.23","bxju8e4w2z0asn0","prime","5f5d48f1c6768e5bcae08170","5f60e3c0a3b16e07647b2ff9","5f60f01cf2abad0009cc9f60","true","1159.1199999675155","./Stimuli/SelectedImages/LM/LM48.bmp","76","","","","test","true","N + M","76","repetition","LM","LM48.bmp","forget","","72","3","prime1","right","","","",""
"html-keyboard-response","193","544855","0.0-4.0-1.0-3.23","bxju8e4w2z0asn0","prime","5f5d48f1c6768e5bcae08170","5f60e3c0a3b16e07647b2ff9","5f60f01cf2abad0009cc9f60","false","null","<div style=""align-items: center; display: flex; color: darkorange; font-size: 90px""><b>ø</b></div>","null","","","","forget_cue","","","","","","","","","","","","","","","",""
"html-keyboard-response","194","545558","0.0-4.0-1.0-0.24","bxju8e4w2z0asn0","prime","5f5d48f1c6768e5bcae08170","5f60e3c0a3b16e07647b2ff9","5f60f01cf2abad0009cc9f60","false","null","<span style=""color: black; font-size: 48px"">M + N</span>","null","","","","resp_prompt","","","","","","","","","","","","","","","",""
"categorize-image","195","546545","0.0-4.0-1.0-1.24","bxju8e4w2z0asn0","prime","5f5d48f1c6768e5bcae08170","5f60e3c0a3b16e07647b2ff9","5f60f01cf2abad0009cc9f60","true","980.455000011716","./Stimuli/SelectedImages/SN/SN93.bmp","76","","","","test","true","M + N","76","repetition","SN","SN93.bmp","forget","","73","3","prime1","right","","","",""
"html-keyboard-response","196","548551","0.0-4.0-1.0-3.24","bxju8e4w2z0asn0","prime","5f5d48f1c6768e5bcae08170","5f60e3c0a3b16e07647b2ff9","5f60f01cf2abad0009cc9f60","false","null","<div style=""align-items: center; display: flex; color: darkorange; font-size: 90px""><b>ø</b></div>","null","","","","forget_cue","","","","","","","","","","","","","","","",""
"html-keyboard-response","197","549254","0.0-4.0-1.0-0.25","bxju8e4w2z0asn0","prime","5f5d48f1c6768e5bcae08170","5f60e3c0a3b16e07647b2ff9","5f60f01cf2abad0009cc9f60","false","null","<span style=""color: black; font-size: 48px"">N + M</span>","null","","","","resp_prompt","","","","","","","","","","","","","","","",""
"categorize-image","198","550146","0.0-4.0-1.0-1.25","bxju8e4w2z0asn0","prime","5f5d48f1c6768e5bcae08170","5f60e3c0a3b16e07647b2ff9","5f60f01cf2abad0009cc9f60","true","886.5050000022165","./Stimuli/SelectedImages/SN/SN240.bmp","83","","","","test","true","N + M","83","repetition","SN","SN240.bmp","forget","","74","3","prime1","left","","","",""
"html-keyboard-response","199","552151","0.0-4.0-1.0-3.25","bxju8e4w2z0asn0","prime","5f5d48f1c6768e5bcae08170","5f60e3c0a3b16e07647b2ff9","5f60f01cf2abad0009cc9f60","false","null","<div style=""align-items: center; display: flex; color: darkorange; font-size: 90px""><b>ø</b></div>","null","","","","forget_cue","","","","","","","","","","","","","","","",""
"html-keyboard-response","200","552854","0.0-4.0-1.0-0.26","bxju8e4w2z0asn0","prime","5f5d48f1c6768e5bcae08170","5f60e3c0a3b16e07647b2ff9","5f60f01cf2abad0009cc9f60","false","null","<span style=""color: black; font-size: 48px"">N + M</span>","null","","","","resp_prompt","","","","","","","","","","","","","","","",""
"categorize-image","201","554006","0.0-4.0-1.0-1.26","bxju8e4w2z0asn0","prime","5f5d48f1c6768e5bcae08170","5f60e3c0a3b16e07647b2ff9","5f60f01cf2abad0009cc9f60","true","1146.6249999939464","./Stimuli/SelectedImages/SM/SM195.bmp","76","","","","test","true","N + M","76","switch","SM","SM195.bmp","forget","","75","3","prime1","right","","","",""
"html-keyboard-response","202","556010","0.0-4.0-1.0-3.26","bxju8e4w2z0asn0","prime","5f5d48f1c6768e5bcae08170","5f60e3c0a3b16e07647b2ff9","5f60f01cf2abad0009cc9f60","false","null","<div style=""align-items: center; display: flex; color: darkorange; font-size: 90px""><b>ø</b></div>","null","","","","forget_cue","","","","","","","","","","","","","","","",""
"html-keyboard-response","203","556712","0.0-4.0-1.0-0.27","bxju8e4w2z0asn0","prime","5f5d48f1c6768e5bcae08170","5f60e3c0a3b16e07647b2ff9","5f60f01cf2abad0009cc9f60","false","null","<span style=""color: black; font-size: 48px"">N + M</span>","null","","","","resp_prompt","","","","","","","","","","","","","","","",""
"categorize-image","204","557549","0.0-4.0-1.0-1.27","bxju8e4w2z0asn0","prime","5f5d48f1c6768e5bcae08170","5f60e3c0a3b16e07647b2ff9","5f60f01cf2abad0009cc9f60","true","829.874999995809","./Stimuli/SelectedImages/LN/LN82.bmp","83","","","","test","true","N + M","83","switch","LN","LN82.bmp","forget","","76","3","prime1","left","","","",""
"html-keyboard-response","205","559556","0.0-4.0-1.0-3.27","bxju8e4w2z0asn0","prime","5f5d48f1c6768e5bcae08170","5f60e3c0a3b16e07647b2ff9","5f60f01cf2abad0009cc9f60","false","null","<div style=""align-items: center; display: flex; color: darkorange; font-size: 90px""><b>ø</b></div>","null","","","","forget_cue","","","","","","","","","","","","","","","",""
"html-keyboard-response","206","560261","0.0-4.0-1.0-0.28","bxju8e4w2z0asn0","prime","5f5d48f1c6768e5bcae08170","5f60e3c0a3b16e07647b2ff9","5f60f01cf2abad0009cc9f60","false","null","<span style=""color: black; font-size: 48px"">N + M</span>","null","","","","resp_prompt","","","","","","","","","","","","","","","",""
"categorize-image","207","561288","0.0-4.0-1.0-1.28","bxju8e4w2z0asn0","prime","5f5d48f1c6768e5bcae08170","5f60e3c0a3b16e07647b2ff9","5f60f01cf2abad0009cc9f60","true","1020.6900000339374","./Stimuli/SelectedImages/LN/LN111.bmp","83","","","","test","true","N + M","83","repetition","LN","LN111.bmp","remember","","77","3","prime1","left","","","",""
"html-keyboard-response","208","563295","0.0-4.0-1.0-3.28","bxju8e4w2z0asn0","prime","5f5d48f1c6768e5bcae08170","5f60e3c0a3b16e07647b2ff9","5f60f01cf2abad0009cc9f60","false","null","<div style=""align-items: center; display: flex; color: dodgerblue; font-size: 90px""><b>o</b></div>","null","","","","forget_cue","","","","","","","","","","","","","","","",""
"html-keyboard-response","209","564000","0.0-4.0-1.0-0.29","bxju8e4w2z0asn0","prime","5f5d48f1c6768e5bcae08170","5f60e3c0a3b16e07647b2ff9","5f60f01cf2abad0009cc9f60","false","null","<span style=""color: black; font-size: 48px"">M + N</span>","null","","","","resp_prompt","","","","","","","","","","","","","","","",""
"categorize-image","210","565154","0.0-4.0-1.0-1.29","bxju8e4w2z0asn0","prime","5f5d48f1c6768e5bcae08170","5f60e3c0a3b16e07647b2ff9","5f60f01cf2abad0009cc9f60","true","1147.5950000458397","./Stimuli/SelectedImages/LN/LN9.bmp","83","","","","test","false","M + N","76","switch","LN","LN9.bmp","forget","","78","3","prime1","left","","","",""
"html-keyboard-response","211","565661","0.0-4.0-1.0-2.29-0.29","bxju8e4w2z0asn0","prime","5f5d48f1c6768e5bcae08170","5f60e3c0a3b16e07647b2ff9","5f60f01cf2abad0009cc9f60","false","null","<span style=""color: red; font-size: 48px"">Error!</span>","null","","","","feedback","","","","","","","","","","","","","","","",""
"html-keyboard-response","212","567663","0.0-4.0-1.0-3.29","bxju8e4w2z0asn0","prime","5f5d48f1c6768e5bcae08170","5f60e3c0a3b16e07647b2ff9","5f60f01cf2abad0009cc9f60","false","null","<div style=""align-items: center; display: flex; color: darkorange; font-size: 90px""><b>ø</b></div>","null","","","","forget_cue","","","","","","","","","","","","","","","",""
"html-keyboard-response","213","568365","0.0-4.0-1.0-0.30","bxju8e4w2z0asn0","prime","5f5d48f1c6768e5bcae08170","5f60e3c0a3b16e07647b2ff9","5f60f01cf2abad0009cc9f60","false","null","<span style=""color: black; font-size: 48px"">M + N</span>","null","","","","resp_prompt","","","","","","","","","","","","","","","",""
"categorize-image","214","569185","0.0-4.0-1.0-1.30","bxju8e4w2z0asn0","prime","5f5d48f1c6768e5bcae08170","5f60e3c0a3b16e07647b2ff9","5f60f01cf2abad0009cc9f60","true","813.2200000109151","./Stimuli/SelectedImages/SM/SM17.bmp","83","","","","test","true","M + N","83","repetition","SM","SM17.bmp","remember","","79","3","prime1","left","","","",""
"html-keyboard-response","215","571189","0.0-4.0-1.0-3.30","bxju8e4w2z0asn0","prime","5f5d48f1c6768e5bcae08170","5f60e3c0a3b16e07647b2ff9","5f60f01cf2abad0009cc9f60","false","null","<div style=""align-items: center; display: flex; color: dodgerblue; font-size: 90px""><b>o</b></div>","null","","","","forget_cue","","","","","","","","","","","","","","","",""
"html-keyboard-response","216","571894","0.0-4.0-1.0-0.31","bxju8e4w2z0asn0","prime","5f5d48f1c6768e5bcae08170","5f60e3c0a3b16e07647b2ff9","5f60f01cf2abad0009cc9f60","false","null","<span style=""color: black; font-size: 48px"">N + M</span>","null","","","","resp_prompt","","","","","","","","","","","","","","","",""
"categorize-image","217","572690","0.0-4.0-1.0-1.31","bxju8e4w2z0asn0","prime","5f5d48f1c6768e5bcae08170","5f60e3c0a3b16e07647b2ff9","5f60f01cf2abad0009cc9f60","true","789.2850000062026","./Stimuli/SelectedImages/LM/LM75.bmp","76","","","","test","true","N + M","76","repetition","LM","LM75.bmp","forget","","80","3","prime1","right","","","",""
"html-keyboard-response","218","574695","0.0-4.0-1.0-3.31","bxju8e4w2z0asn0","prime","5f5d48f1c6768e5bcae08170","5f60e3c0a3b16e07647b2ff9","5f60f01cf2abad0009cc9f60","false","null","<div style=""align-items: center; display: flex; color: darkorange; font-size: 90px""><b>ø</b></div>","null","","","","forget_cue","","","","","","","","","","","","","","","",""
"html-keyboard-response","219","575400","0.0-4.0-1.0-0.32","bxju8e4w2z0asn0","prime","5f5d48f1c6768e5bcae08170","5f60e3c0a3b16e07647b2ff9","5f60f01cf2abad0009cc9f60","false","null","<span style=""color: black; font-size: 48px"">M + N</span>","null","","","","resp_prompt","","","","","","","","","","","","","","","",""
"categorize-image","220","576060","0.0-4.0-1.0-1.32","bxju8e4w2z0asn0","prime","5f5d48f1c6768e5bcae08170","5f60e3c0a3b16e07647b2ff9","5f60f01cf2abad0009cc9f60","true","651.6999999876134","./Stimuli/SelectedImages/SM/SM24.bmp","83","","","","test","true","M + N","83","switch","SM","SM24.bmp","remember","","81","3","prime1","left","","","",""
"html-keyboard-response","221","578064","0.0-4.0-1.0-3.32","bxju8e4w2z0asn0","prime","5f5d48f1c6768e5bcae08170","5f60e3c0a3b16e07647b2ff9","5f60f01cf2abad0009cc9f60","false","null","<div style=""align-items: center; display: flex; color: dodgerblue; font-size: 90px""><b>o</b></div>","null","","","","forget_cue","","","","","","","","","","","","","","","",""
"html-keyboard-response","222","578769","0.0-4.0-1.0-0.33","bxju8e4w2z0asn0","prime","5f5d48f1c6768e5bcae08170","5f60e3c0a3b16e07647b2ff9","5f60f01cf2abad0009cc9f60","false","null","<span style=""color: black; font-size: 48px"">M + N</span>","null","","","","resp_prompt","","","","","","","","","","","","","","","",""
"categorize-image","223","579307","0.0-4.0-1.0-1.33","bxju8e4w2z0asn0","prime","5f5d48f1c6768e5bcae08170","5f60e3c0a3b16e07647b2ff9","5f60f01cf2abad0009cc9f60","true","531.7500000237487","./Stimuli/SelectedImages/LM/LM51.bmp","83","","","","test","true","M + N","83","repetition","LM","LM51.bmp","remember","","82","3","prime1","left","","","",""
"html-keyboard-response","224","581311","0.0-4.0-1.0-3.33","bxju8e4w2z0asn0","prime","5f5d48f1c6768e5bcae08170","5f60e3c0a3b16e07647b2ff9","5f60f01cf2abad0009cc9f60","false","null","<div style=""align-items: center; display: flex; color: dodgerblue; font-size: 90px""><b>o</b></div>","null","","","","forget_cue","","","","","","","","","","","","","","","",""
"html-keyboard-response","225","582016","0.0-4.0-1.0-0.34","bxju8e4w2z0asn0","prime","5f5d48f1c6768e5bcae08170","5f60e3c0a3b16e07647b2ff9","5f60f01cf2abad0009cc9f60","false","null","<span style=""color: black; font-size: 48px"">N + M</span>","null","","","","resp_prompt","","","","","","","","","","","","","","","",""
"categorize-image","226","583069","0.0-4.0-1.0-1.34","bxju8e4w2z0asn0","prime","5f5d48f1c6768e5bcae08170","5f60e3c0a3b16e07647b2ff9","5f60f01cf2abad0009cc9f60","true","1045.9649999975227","./Stimuli/SelectedImages/LN/LN13.bmp","83","","","","test","true","N + M","83","repetition","LN","LN13.bmp","forget","","83","3","prime1","left","","","",""
"html-keyboard-response","227","585072","0.0-4.0-1.0-3.34","bxju8e4w2z0asn0","prime","5f5d48f1c6768e5bcae08170","5f60e3c0a3b16e07647b2ff9","5f60f01cf2abad0009cc9f60","false","null","<div style=""align-items: center; display: flex; color: darkorange; font-size: 90px""><b>ø</b></div>","null","","","","forget_cue","","","","","","","","","","","","","","","",""
"html-keyboard-response","228","585777","0.0-4.0-1.0-0.35","bxju8e4w2z0asn0","prime","5f5d48f1c6768e5bcae08170","5f60e3c0a3b16e07647b2ff9","5f60f01cf2abad0009cc9f60","false","null","<span style=""color: black; font-size: 48px"">M + N</span>","null","","","","resp_prompt","","","","","","","","","","","","","","","",""
"categorize-image","229","586519","0.0-4.0-1.0-1.35","bxju8e4w2z0asn0","prime","5f5d48f1c6768e5bcae08170","5f60e3c0a3b16e07647b2ff9","5f60f01cf2abad0009cc9f60","true","735.2350000292063","./Stimuli/SelectedImages/SM/SM106.bmp","83","","","","test","true","M + N","83","switch","SM","SM106.bmp","remember","","84","3","prime1","left","","","",""
"html-keyboard-response","230","588522","0.0-4.0-1.0-3.35","bxju8e4w2z0asn0","prime","5f5d48f1c6768e5bcae08170","5f60e3c0a3b16e07647b2ff9","5f60f01cf2abad0009cc9f60","false","null","<div style=""align-items: center; display: flex; color: dodgerblue; font-size: 90px""><b>o</b></div>","null","","","","forget_cue","","","","","","","","","","","","","","","",""
"html-keyboard-response","231","589227","0.0-4.0-1.0-0.36","bxju8e4w2z0asn0","prime","5f5d48f1c6768e5bcae08170","5f60e3c0a3b16e07647b2ff9","5f60f01cf2abad0009cc9f60","false","null","<span style=""color: black; font-size: 48px"">N + M</span>","null","","","","resp_prompt","","","","","","","","","","","","","","","",""
"categorize-image","232","590072","0.0-4.0-1.0-1.36","bxju8e4w2z0asn0","prime","5f5d48f1c6768e5bcae08170","5f60e3c0a3b16e07647b2ff9","5f60f01cf2abad0009cc9f60","true","839.3449999857694","./Stimuli/SelectedImages/LN/LN177.bmp","83","","","","test","true","N + M","83","switch","LN","LN177.bmp","remember","","85","3","prime1","left","","","",""
"html-keyboard-response","233","592074","0.0-4.0-1.0-3.36","bxju8e4w2z0asn0","prime","5f5d48f1c6768e5bcae08170","5f60e3c0a3b16e07647b2ff9","5f60f01cf2abad0009cc9f60","false","null","<div style=""align-items: center; display: flex; color: dodgerblue; font-size: 90px""><b>o</b></div>","null","","","","forget_cue","","","","","","","","","","","","","","","",""
"html-keyboard-response","234","592778","0.0-4.0-1.0-0.37","bxju8e4w2z0asn0","prime","5f5d48f1c6768e5bcae08170","5f60e3c0a3b16e07647b2ff9","5f60f01cf2abad0009cc9f60","false","null","<span style=""color: black; font-size: 48px"">M + N</span>","null","","","","resp_prompt","","","","","","","","","","","","","","","",""
"categorize-image","235","593558","0.0-4.0-1.0-1.37","bxju8e4w2z0asn0","prime","5f5d48f1c6768e5bcae08170","5f60e3c0a3b16e07647b2ff9","5f60f01cf2abad0009cc9f60","true","772.7500000037253","./Stimuli/SelectedImages/LN/LN101.bmp","76","","","","test","true","M + N","76","switch","LN","LN101.bmp","remember","","86","3","prime1","right","","","",""
"html-keyboard-response","236","595561","0.0-4.0-1.0-3.37","bxju8e4w2z0asn0","prime","5f5d48f1c6768e5bcae08170","5f60e3c0a3b16e07647b2ff9","5f60f01cf2abad0009cc9f60","false","null","<div style=""align-items: center; display: flex; color: dodgerblue; font-size: 90px""><b>o</b></div>","null","","","","forget_cue","","","","","","","","","","","","","","","",""
"html-keyboard-response","237","596267","0.0-4.0-1.0-0.38","bxju8e4w2z0asn0","prime","5f5d48f1c6768e5bcae08170","5f60e3c0a3b16e07647b2ff9","5f60f01cf2abad0009cc9f60","false","null","<span style=""color: black; font-size: 48px"">N + M</span>","null","","","","resp_prompt","","","","","","","","","","","","","","","",""
"categorize-image","238","597151","0.0-4.0-1.0-1.38","bxju8e4w2z0asn0","prime","5f5d48f1c6768e5bcae08170","5f60e3c0a3b16e07647b2ff9","5f60f01cf2abad0009cc9f60","true","877.8450000099838","./Stimuli/SelectedImages/SM/SM76.bmp","76","","","","test","true","N + M","76","repetition","SM","SM76.bmp","remember","","87","3","prime1","right","","","",""
"html-keyboard-response","239","599155","0.0-4.0-1.0-3.38","bxju8e4w2z0asn0","prime","5f5d48f1c6768e5bcae08170","5f60e3c0a3b16e07647b2ff9","5f60f01cf2abad0009cc9f60","false","null","<div style=""align-items: center; display: flex; color: dodgerblue; font-size: 90px""><b>o</b></div>","null","","","","forget_cue","","","","","","","","","","","","","","","",""
"html-keyboard-response","240","599860","0.0-4.0-1.0-0.39","bxju8e4w2z0asn0","prime","5f5d48f1c6768e5bcae08170","5f60e3c0a3b16e07647b2ff9","5f60f01cf2abad0009cc9f60","false","null","<span style=""color: black; font-size: 48px"">N + M</span>","null","","","","resp_prompt","","","","","","","","","","","","","","","",""
"categorize-image","241","599904","0.0-4.0-1.0-1.39","bxju8e4w2z0asn0","prime","5f5d48f1c6768e5bcae08170","5f60e3c0a3b16e07647b2ff9","5f60f01cf2abad0009cc9f60","true","37.56000002613291","./Stimuli/SelectedImages/SN/SN27.bmp","76","","","","test","false","N + M","83","repetition","SN","SN27.bmp","forget","","88","3","prime1","right","","","",""
"html-keyboard-response","242","600410","0.0-4.0-1.0-2.39-0.39","bxju8e4w2z0asn0","prime","5f5d48f1c6768e5bcae08170","5f60e3c0a3b16e07647b2ff9","5f60f01cf2abad0009cc9f60","false","null","<span style=""color: red; font-size: 48px"">Error!</span>","null","","","","feedback","","","","","","","","","","","","","","","",""
"html-keyboard-response","243","602413","0.0-4.0-1.0-3.39","bxju8e4w2z0asn0","prime","5f5d48f1c6768e5bcae08170","5f60e3c0a3b16e07647b2ff9","5f60f01cf2abad0009cc9f60","false","null","<div style=""align-items: center; display: flex; color: darkorange; font-size: 90px""><b>ø</b></div>","null","","","","forget_cue","","","","","","","","","","","","","","","",""
"html-keyboard-response","244","603118","0.0-4.0-1.0-0.40","bxju8e4w2z0asn0","prime","5f5d48f1c6768e5bcae08170","5f60e3c0a3b16e07647b2ff9","5f60f01cf2abad0009cc9f60","false","null","<span style=""color: black; font-size: 48px"">N + M</span>","null","","","","resp_prompt","","","","","","","","","","","","","","","",""
"categorize-image","245","603961","0.0-4.0-1.0-1.40","bxju8e4w2z0asn0","prime","5f5d48f1c6768e5bcae08170","5f60e3c0a3b16e07647b2ff9","5f60f01cf2abad0009cc9f60","true","837.3250000295229","./Stimuli/SelectedImages/LM/LM179.bmp","76","","","","test","true","N + M","76","repetition","LM","LM179.bmp","remember","","89","3","prime1","right","","","",""
"html-keyboard-response","246","605969","0.0-4.0-1.0-3.40","bxju8e4w2z0asn0","prime","5f5d48f1c6768e5bcae08170","5f60e3c0a3b16e07647b2ff9","5f60f01cf2abad0009cc9f60","false","null","<div style=""align-items: center; display: flex; color: dodgerblue; font-size: 90px""><b>o</b></div>","null","","","","forget_cue","","","","","","","","","","","","","","","",""
"html-keyboard-response","247","606673","0.0-4.0-1.0-0.41","bxju8e4w2z0asn0","prime","5f5d48f1c6768e5bcae08170","5f60e3c0a3b16e07647b2ff9","5f60f01cf2abad0009cc9f60","false","null","<span style=""color: black; font-size: 48px"">M + N</span>","null","","","","resp_prompt","","","","","","","","","","","","","","","",""
"categorize-image","248","607336","0.0-4.0-1.0-1.41","bxju8e4w2z0asn0","prime","5f5d48f1c6768e5bcae08170","5f60e3c0a3b16e07647b2ff9","5f60f01cf2abad0009cc9f60","true","656.2349999439903","./Stimuli/SelectedImages/LM/LM129.bmp","83","","","","test","true","M + N","83","switch","LM","LM129.bmp","forget","","90","3","prime1","left","","","",""
"html-keyboard-response","249","609340","0.0-4.0-1.0-3.41","bxju8e4w2z0asn0","prime","5f5d48f1c6768e5bcae08170","5f60e3c0a3b16e07647b2ff9","5f60f01cf2abad0009cc9f60","false","null","<div style=""align-items: center; display: flex; color: darkorange; font-size: 90px""><b>ø</b></div>","null","","","","forget_cue","","","","","","","","","","","","","","","",""
"html-keyboard-response","250","610047","0.0-4.0-1.0-0.42","bxju8e4w2z0asn0","prime","5f5d48f1c6768e5bcae08170","5f60e3c0a3b16e07647b2ff9","5f60f01cf2abad0009cc9f60","false","null","<span style=""color: black; font-size: 48px"">M + N</span>","null","","","","resp_prompt","","","","","","","","","","","","","","","",""
"categorize-image","251","610886","0.0-4.0-1.0-1.42","bxju8e4w2z0asn0","prime","5f5d48f1c6768e5bcae08170","5f60e3c0a3b16e07647b2ff9","5f60f01cf2abad0009cc9f60","true","832.2150000021793","./Stimuli/SelectedImages/SN/SN179.bmp","76","","","","test","true","M + N","76","switch","SN","SN179.bmp","remember","","91","3","prime1","right","","","",""
"html-keyboard-response","252","612894","0.0-4.0-1.0-3.42","bxju8e4w2z0asn0","prime","5f5d48f1c6768e5bcae08170","5f60e3c0a3b16e07647b2ff9","5f60f01cf2abad0009cc9f60","false","null","<div style=""align-items: center; display: flex; color: dodgerblue; font-size: 90px""><b>o</b></div>","null","","","","forget_cue","","","","","","","","","","","","","","","",""
