"trial_type","trial_index","time_elapsed","internal_node_id","subject","exp_part","prolific_PID","study_ID","session_ID","use","rt","stimulus","key_press","button_pressed","responses","question_order","trial_part","correct","resp_map","correct_resp","probe_condition","category","image","forget_condition","list","trial_num","block_num","block","response","test_part","n_span","sequence","num_spaces"
"pavlovia","0","3","0.0-0.0","o902y5uqckm6jk4","","5e94647a576588000b3d2892","5f60e3c0a3b16e07647b2ff9","5f60e9fd5de76100085800df","false","","","","","","","","","","","","","","","","","","","","","","",""
"html-keyboard-response","1","14234","0.0-1.0-0.0-0.0","o902y5uqckm6jk4","welcome","5e94647a576588000b3d2892","5f60e3c0a3b16e07647b2ff9","5f60e9fd5de76100085800df","false","14228.190000001632","<div align=left>Dear participant, <br> thank you for participating in an online study of the Cognition, Action, and Sustainability Unit of the University of Freiburg! <br> <br>The aim of this study is to examine our ability to remember previously learned information. <br>Our goal is to find out, whether our memory improves, when we only remember information that is relevant to us. <br>The experiment will take about 35 minutes to complete. <br> <br>Please, note that you can only participate in this study if you are using a device with a keyboard (PC, Laptop etc.) <br>and not if you are using a mobile device such as a tablet or smartphone.<br> <br>Press 'SPACE' to proceed to the experiment. </div>","32","","","","","","","","","","","","","","","","","","","",""
"html-keyboard-response","2","34482","0.0-1.0-0.0-1.0","o902y5uqckm6jk4","welcome","5e94647a576588000b3d2892","5f60e3c0a3b16e07647b2ff9","5f60e9fd5de76100085800df","false","20245.409999999538","<div align=left><strong> Time Course of this experiment: </strong> <br><br> <strong> 1.</strong>  First, please fill in some information regarding your demographic data. <br><br> <strong> 2.</strong>  Next, your task will be to classify everyday objects. <br>In addition, you will be asked to remember certain objects and recall them later. <br>Working on these tasks requires your undivided attention and concentration.<br>It is therefore essential that you eliminate any sources of distraction in your  <br>environment and ensure that you will not be disturbed. <br><br><strong> 3.</strong>  At the end of the experiment, you will be asked to answer a few additional questions. <br> <br><strong> Important:</strong> After finishing the experiment, only close the browser window <br> by clicking on the 'end the experiment'-button when you are asked to do so. <br>Closing the browser window prematurely will make the allocation of your participation credit impossible. <br><br> Press 'SPACE' to start the experiment. </div>","32","","","","","","","","","","","","","","","","","","","",""
"html-button-response","3","42637","0.0-1.0-0.0-2.0","o902y5uqckm6jk4","welcome","5e94647a576588000b3d2892","5f60e3c0a3b16e07647b2ff9","5f60e9fd5de76100085800df","true","8151.914999998553","<div align=left><strong> Informed consent </strong>  <br>The aim of our research is to better understand human behavior and mental processes. <br>In the following study your behavior (e.g. choices, reaction times) will be studied. <br> <br><strong> Voluntariness and Anonymity </strong> <br>Your participation in this study is  <strong> voluntary</strong>.<br>You may withdraw your consent to participate at any time without providing a reason for doing so and without fear of prejudice. <br><br>As no personal data will be collected, <strong>your data and your person cannot be connected after data collection</strong> – the data-set is anonymous. <br>Respectively, deletion of your data will not be possible after data collection has been completed, as we cannot retrace your data-set.<br>The results and anonymized data collected in this study will be published as a scientific publication. <br>This will happen in an <strong>anonymized format</strong>, so that no data can be traced back to a specific person. <br> <br>The anonymized data of this study will be made available to other researchers and/or in a data archive on the Internet as a means of transparency and to enable subsequent re-use. By doing so, this study follows the recommendations of the Deutsche Forschungsgemeinschaft (DFG, German Research Foundation) and Deutsche Gesellschaft für Psychologie (DGPS, German Psychological Society) regarding quality assurance in research.<br>If you have any questions now or after the experiment, please contact our team (experiments@cs.uni-freiburg.de).<br><br><br>I hereby declare, that I understand the above described conditions of participation and I agree to participate under these conditions. <br><br> </div>","","0","","","","","","","","","","","","","","","","","","",""
"html-keyboard-response","4","46012","0.0-1.0-0.0-3.0","o902y5uqckm6jk4","welcome","5e94647a576588000b3d2892","5f60e3c0a3b16e07647b2ff9","5f60e9fd5de76100085800df","false","3372.0350000003236","<div align=left><strong> General information concerning the experiment </strong>  <br> <br>Please follow the instructions:<ol> <li><strong> Do not leave this tab (your browser window) during the experiment and do not reload this tab! </strong>  <br>If you do switch tabs/windows during the experiment (to check your mail or visit another website, for example), <br>the experiment will end automatically and you will <strong>not receive credit</strong> for your participation. <br>Repeated participation or resumption of the experiment is impossible.</li> <br><li>Please close all other programs for the duration of your participation. </li> <br><li>Please mute or turn off your phone and put it out of your reach. </li> <br><li>Please also take off any disturbing accessories (such as wristwatches, bracelets, etc.). </li> <br><li>If you have music playing in the background, please turn it off now. </li> <br></ol>Thank you! <br>Press 'SPACE' to continue. </div>","32","","","","","","","","","","","","","","","","","","","",""
"survey-text","5","49808","0.0-1.0-1.0-0.0","o902y5uqckm6jk4","demographics","5e94647a576588000b3d2892","5f60e3c0a3b16e07647b2ff9","5f60e9fd5de76100085800df","true","3789.4650000016554","","","","{""age"":""27""}","","","","","","","","","","","","","","","","","",""
"survey-multi-choice","6","72397","0.0-1.0-1.0-1.0","o902y5uqckm6jk4","demographics","5e94647a576588000b3d2892","5f60e3c0a3b16e07647b2ff9","5f60e9fd5de76100085800df","true","22583.86000000246","","","","{""gender"":""female"",""school"":""high school"",""education"":""High school graduate, diploma or equivalent""}","[0,1,2]","","","","","","","","","","","","","","","","",""
"html-keyboard-response","7","95768","0.0-1.0-2.0","o902y5uqckm6jk4","instructions","5e94647a576588000b3d2892","5f60e3c0a3b16e07647b2ff9","5f60e9fd5de76100085800df","false","23363.46499999854","<div align=left> The experiment is now about to start: <br> <br>In the following part, you will be presented pictures of everyday objects. <br>Your first task is to <strong>classify these objects. </strong> <br> <br> You will classify them either as mechanical or non-mechanical objects. <br> <br>Objects that include any kind of technical mechanism (for example, wheels, switches, levers, <br> electronic components) fall under the category of <strong>mechanical</strong> objects. <br>Only objects without any kind of technical mechanism should be classified as <strong>non-mechanical</strong>. <br><br>Press 'SPACE' to continue. </div>","32","","","","","","","","","","","","","","","","","","","",""
"html-keyboard-response","8","183404","0.0-2.0-0.0","o902y5uqckm6jk4","instructions","5e94647a576588000b3d2892","5f60e3c0a3b16e07647b2ff9","5f60e9fd5de76100085800df","false","87633.54000000254","<div align=justify>You will classify the objects using the <strong>'S'</strong> and the <strong>'L'</strong> keys on your keyboard.<br>For doing so, please place your <strong>left index finger</strong> on the <strong>'S'</strong> key and place your <strong>right index finger</strong> on the <strong>'L'</strong> key. <br><br> Each trial starts with an instruction, indicating which key ('S'/'L') you need to press to classify <br>the object as mechanical (letter M) or non-mechanical (letter N).<br>The instruction <strong>M + N</strong> indicates that, in the current trial, by pressing the left key ('S') you classify the displayed object as mechanical (M) <br> and by pressing the right key ('L') you classify the object as non-mechanical (N). <br>The instruction <strong>N + M</strong> on the other hand indicates that by pressing the left key ('S') you classify the displayed object as non-mechanical (N) <br> and by pressing the right key ('L') you classify the object as mechanical (M). <br><br>Please press the key corresponding to the correct classification as fast as possible as soon as the object is displayed and try to avoid making mistakes.<br>If you do not respond within a 2 second window, a corresponding feedback will be displayed and the next trial will start.<br> The experiment is divided into multiple blocks to give you the opportunity to take a break after each block. <br>First, you can now practice this task. <br><br>Please place your <strong>LEFT INDEX FINGER</strong> on the 'S' key and your <strong>RIGHT INDEX FINGER</strong> on the 'L' key now. <br><br>Press SPACE to continue.</div>","32","","","","","","","","","","","","","","","","","","","",""
"html-keyboard-response","9","190196","0.0-2.0-1.0","o902y5uqckm6jk4","instructions","5e94647a576588000b3d2892","5f60e3c0a3b16e07647b2ff9","5f60e9fd5de76100085800df","false","6789.970000001631","<div align=left> You will now have time to practice this task.<br><br>Remember: <br> <br><li>Please place your index fingers on the <strong>'S'</strong> and <strong>'L'</strong> keys <br>to respond as fast and accurately as possible.</li><li>Every picture can be classified as either mechanical or non-mechanical.</li><li>If you do not respond in time or commit an error, you will receive a corresponding feedback. </li><li> Please try to respond as <strong> fast </strong> and as <strong> accurately as possible </strong> .<br><li>To ensure optimal results, please minimize distractions and stay focused. </li><br><br>Press SPACE to continue.</div>","32","","","","","","","","","","","","","","","","","","","",""
"html-keyboard-response","10","190902","0.0-2.0-2.0-0.0","o902y5uqckm6jk4","practice_no_cue","5e94647a576588000b3d2892","5f60e3c0a3b16e07647b2ff9","5f60e9fd5de76100085800df","false","null","<span style=""color: black; font-size: 48px"">M + N</span>","null","","","","resp_prompt","","","","","","","","","","","","","","","",""
"categorize-image","11","193154","0.0-2.0-2.0-1.0","o902y5uqckm6jk4","practice_no_cue","5e94647a576588000b3d2892","5f60e3c0a3b16e07647b2ff9","5f60e9fd5de76100085800df","true","1746.7649999998685","./Stimuli/ImagesPractice/SM62.jpg","83","","","","test","true","M + N","83","","SM","SM62.jpg","remember","old","1","1","start","left","","","",""
"html-keyboard-response","12","193860","0.0-2.0-2.0-0.1","o902y5uqckm6jk4","practice_no_cue","5e94647a576588000b3d2892","5f60e3c0a3b16e07647b2ff9","5f60e9fd5de76100085800df","false","null","<span style=""color: black; font-size: 48px"">M + N</span>","null","","","","resp_prompt","","","","","","","","","","","","","","","",""
"categorize-image","13","195238","0.0-2.0-2.0-1.1","o902y5uqckm6jk4","practice_no_cue","5e94647a576588000b3d2892","5f60e3c0a3b16e07647b2ff9","5f60e9fd5de76100085800df","true","871.6249999997672","./Stimuli/ImagesPractice/LN17.jpg","76","","","","test","true","M + N","76","","LN","LN17.jpg","remember","old","2","1","start","right","","","",""
"html-keyboard-response","14","195940","0.0-2.0-2.0-0.2","o902y5uqckm6jk4","practice_no_cue","5e94647a576588000b3d2892","5f60e3c0a3b16e07647b2ff9","5f60e9fd5de76100085800df","false","null","<span style=""color: black; font-size: 48px"">N + M</span>","null","","","","resp_prompt","","","","","","","","","","","","","","","",""
"categorize-image","15","198448","0.0-2.0-2.0-1.2","o902y5uqckm6jk4","practice_no_cue","5e94647a576588000b3d2892","5f60e3c0a3b16e07647b2ff9","5f60e9fd5de76100085800df","true","null","./Stimuli/ImagesPractice/LM147.jpg","null","","","","test","false","N + M","76","","LM","LM147.jpg","forget","old","3","1","start","too_slow","","","",""
"html-keyboard-response","16","199154","0.0-2.0-2.0-0.3","o902y5uqckm6jk4","practice_no_cue","5e94647a576588000b3d2892","5f60e3c0a3b16e07647b2ff9","5f60e9fd5de76100085800df","false","null","<span style=""color: black; font-size: 48px"">M + N</span>","null","","","","resp_prompt","","","","","","","","","","","","","","","",""
"categorize-image","17","200922","0.0-2.0-2.0-1.3","o902y5uqckm6jk4","practice_no_cue","5e94647a576588000b3d2892","5f60e3c0a3b16e07647b2ff9","5f60e9fd5de76100085800df","true","1264.7849999993923","./Stimuli/ImagesPractice/SM37.jpg","83","","","","test","true","M + N","83","","SM","SM37.jpg","forget","old","4","1","start","left","","","",""
"html-keyboard-response","18","201625","0.0-2.0-2.0-0.4","o902y5uqckm6jk4","practice_no_cue","5e94647a576588000b3d2892","5f60e3c0a3b16e07647b2ff9","5f60e9fd5de76100085800df","false","null","<span style=""color: black; font-size: 48px"">N + M</span>","null","","","","resp_prompt","","","","","","","","","","","","","","","",""
"categorize-image","19","203626","0.0-2.0-2.0-1.4","o902y5uqckm6jk4","practice_no_cue","5e94647a576588000b3d2892","5f60e3c0a3b16e07647b2ff9","5f60e9fd5de76100085800df","true","1498.3599999977741","./Stimuli/ImagesPractice/LN2.jpg","83","","","","test","true","N + M","83","","LN","LN2.jpg","forget","old","5","1","start","left","","","",""
"html-keyboard-response","20","204328","0.0-2.0-2.0-0.5","o902y5uqckm6jk4","practice_no_cue","5e94647a576588000b3d2892","5f60e3c0a3b16e07647b2ff9","5f60e9fd5de76100085800df","false","null","<span style=""color: black; font-size: 48px"">M + N</span>","null","","","","resp_prompt","","","","","","","","","","","","","","","",""
"categorize-image","21","206366","0.0-2.0-2.0-1.5","o902y5uqckm6jk4","practice_no_cue","5e94647a576588000b3d2892","5f60e3c0a3b16e07647b2ff9","5f60e9fd5de76100085800df","true","1535.4850000003353","./Stimuli/ImagesPractice/LM230.jpg","83","","","","test","true","M + N","83","","LM","LM230.jpg","remember","old","6","1","start","left","","","",""
"html-keyboard-response","22","207070","0.0-2.0-2.0-0.6","o902y5uqckm6jk4","practice_no_cue","5e94647a576588000b3d2892","5f60e3c0a3b16e07647b2ff9","5f60e9fd5de76100085800df","false","null","<span style=""color: black; font-size: 48px"">M + N</span>","null","","","","resp_prompt","","","","","","","","","","","","","","","",""
"categorize-image","23","208468","0.0-2.0-2.0-1.6","o902y5uqckm6jk4","practice_no_cue","5e94647a576588000b3d2892","5f60e3c0a3b16e07647b2ff9","5f60e9fd5de76100085800df","true","894.8350000027858","./Stimuli/ImagesPractice/SM61.jpg","83","","","","test","true","M + N","83","","SM","SM61.jpg","forget","old","7","1","start","left","","","",""
"html-keyboard-response","24","209171","0.0-2.0-2.0-0.7","o902y5uqckm6jk4","practice_no_cue","5e94647a576588000b3d2892","5f60e3c0a3b16e07647b2ff9","5f60e9fd5de76100085800df","false","null","<span style=""color: black; font-size: 48px"">N + M</span>","null","","","","resp_prompt","","","","","","","","","","","","","","","",""
"categorize-image","25","210999","0.0-2.0-2.0-1.7","o902y5uqckm6jk4","practice_no_cue","5e94647a576588000b3d2892","5f60e3c0a3b16e07647b2ff9","5f60e9fd5de76100085800df","true","1323.4149999989313","./Stimuli/ImagesPractice/LM143.jpg","76","","","","test","true","N + M","76","","LM","LM143.jpg","remember","old","8","1","start","right","","","",""
"html-keyboard-response","26","211706","0.0-2.0-2.0-0.8","o902y5uqckm6jk4","practice_no_cue","5e94647a576588000b3d2892","5f60e3c0a3b16e07647b2ff9","5f60e9fd5de76100085800df","false","null","<span style=""color: black; font-size: 48px"">M + N</span>","null","","","","resp_prompt","","","","","","","","","","","","","","","",""
"categorize-image","27","213311","0.0-2.0-2.0-1.8","o902y5uqckm6jk4","practice_no_cue","5e94647a576588000b3d2892","5f60e3c0a3b16e07647b2ff9","5f60e9fd5de76100085800df","true","1099.5450000009441","./Stimuli/ImagesPractice/SN205.jpg","76","","","","test","true","M + N","76","","SN","SN205.jpg","forget","old","9","1","start","right","","","",""
"html-keyboard-response","28","214017","0.0-2.0-2.0-0.9","o902y5uqckm6jk4","practice_no_cue","5e94647a576588000b3d2892","5f60e3c0a3b16e07647b2ff9","5f60e9fd5de76100085800df","false","null","<span style=""color: black; font-size: 48px"">N + M</span>","null","","","","resp_prompt","","","","","","","","","","","","","","","",""
"categorize-image","29","216229","0.0-2.0-2.0-1.9","o902y5uqckm6jk4","practice_no_cue","5e94647a576588000b3d2892","5f60e3c0a3b16e07647b2ff9","5f60e9fd5de76100085800df","true","1710.2600000034727","./Stimuli/ImagesPractice/LN72.jpg","83","","","","test","true","N + M","83","","LN","LN72.jpg","forget","old","10","1","start","left","","","",""
"html-keyboard-response","30","216930","0.0-2.0-2.0-0.10","o902y5uqckm6jk4","practice_no_cue","5e94647a576588000b3d2892","5f60e3c0a3b16e07647b2ff9","5f60e9fd5de76100085800df","false","null","<span style=""color: black; font-size: 48px"">M + N</span>","null","","","","resp_prompt","","","","","","","","","","","","","","","",""
"categorize-image","31","218505","0.0-2.0-2.0-1.10","o902y5uqckm6jk4","practice_no_cue","5e94647a576588000b3d2892","5f60e3c0a3b16e07647b2ff9","5f60e9fd5de76100085800df","true","1068.794999999227","./Stimuli/ImagesPractice/SM98.jpg","83","","","","test","true","M + N","83","","SM","SM98.jpg","forget","old","11","1","start","left","","","",""
"html-keyboard-response","32","219209","0.0-2.0-2.0-0.11","o902y5uqckm6jk4","practice_no_cue","5e94647a576588000b3d2892","5f60e3c0a3b16e07647b2ff9","5f60e9fd5de76100085800df","false","null","<span style=""color: black; font-size: 48px"">N + M</span>","null","","","","resp_prompt","","","","","","","","","","","","","","","",""
"categorize-image","33","220890","0.0-2.0-2.0-1.11","o902y5uqckm6jk4","practice_no_cue","5e94647a576588000b3d2892","5f60e3c0a3b16e07647b2ff9","5f60e9fd5de76100085800df","true","1174.009999998816","./Stimuli/ImagesPractice/LN15.jpg","83","","","","test","true","N + M","83","","LN","LN15.jpg","remember","old","12","1","start","left","","","",""
"html-keyboard-response","34","221593","0.0-2.0-2.0-0.12","o902y5uqckm6jk4","practice_no_cue","5e94647a576588000b3d2892","5f60e3c0a3b16e07647b2ff9","5f60e9fd5de76100085800df","false","null","<span style=""color: black; font-size: 48px"">N + M</span>","null","","","","resp_prompt","","","","","","","","","","","","","","","",""
"categorize-image","35","223459","0.0-2.0-2.0-1.12","o902y5uqckm6jk4","practice_no_cue","5e94647a576588000b3d2892","5f60e3c0a3b16e07647b2ff9","5f60e9fd5de76100085800df","true","1363.6049999986426","./Stimuli/ImagesPractice/SN222.jpg","83","","","","test","true","N + M","83","","SN","SN222.jpg","remember","old","13","1","start","left","","","",""
"html-keyboard-response","36","224165","0.0-2.0-2.0-0.13","o902y5uqckm6jk4","practice_no_cue","5e94647a576588000b3d2892","5f60e3c0a3b16e07647b2ff9","5f60e9fd5de76100085800df","false","null","<span style=""color: black; font-size: 48px"">N + M</span>","null","","","","resp_prompt","","","","","","","","","","","","","","","",""
"categorize-image","37","225488","0.0-2.0-2.0-1.13","o902y5uqckm6jk4","practice_no_cue","5e94647a576588000b3d2892","5f60e3c0a3b16e07647b2ff9","5f60e9fd5de76100085800df","true","817.719999999099","./Stimuli/ImagesPractice/SN221.jpg","83","","","","test","true","N + M","83","","SN","SN221.jpg","remember","old","14","1","start","left","","","",""
"html-keyboard-response","38","226192","0.0-2.0-2.0-0.14","o902y5uqckm6jk4","practice_no_cue","5e94647a576588000b3d2892","5f60e3c0a3b16e07647b2ff9","5f60e9fd5de76100085800df","false","null","<span style=""color: black; font-size: 48px"">M + N</span>","null","","","","resp_prompt","","","","","","","","","","","","","","","",""
"categorize-image","39","228076","0.0-2.0-2.0-1.14","o902y5uqckm6jk4","practice_no_cue","5e94647a576588000b3d2892","5f60e3c0a3b16e07647b2ff9","5f60e9fd5de76100085800df","true","1377.3049999981595","./Stimuli/ImagesPractice/SM35.jpg","83","","","","test","true","M + N","83","","SM","SM35.jpg","remember","old","15","1","start","left","","","",""
"html-keyboard-response","40","228782","0.0-2.0-2.0-0.15","o902y5uqckm6jk4","practice_no_cue","5e94647a576588000b3d2892","5f60e3c0a3b16e07647b2ff9","5f60e9fd5de76100085800df","false","null","<span style=""color: black; font-size: 48px"">N + M</span>","null","","","","resp_prompt","","","","","","","","","","","","","","","",""
"categorize-image","41","230585","0.0-2.0-2.0-1.15","o902y5uqckm6jk4","practice_no_cue","5e94647a576588000b3d2892","5f60e3c0a3b16e07647b2ff9","5f60e9fd5de76100085800df","true","1300.6599999971513","./Stimuli/ImagesPractice/LN4.jpg","76","","","","test","false","N + M","83","","LN","LN4.jpg","forget","old","16","1","start","right","","","",""
"html-keyboard-response","42","238182","0.0-2.0-3.0","o902y5uqckm6jk4","break","5e94647a576588000b3d2892","5f60e3c0a3b16e07647b2ff9","5f60e9fd5de76100085800df","false","7595.410000001721","<p style='font-size: 32px;'>Break</><br><br><br><br><br><p style='font-size: 24px;'>In the last block, you committed 1 errors and did not respond in time on 1 trials.
</p><p style='font-size: 24px;'>Try to respond as fast and accurately as possible in the next block as well! </p><p style='font-size: 24px;'>Press SPACE to continue.</p>","32","","","","","","","","","","","","","","","","","","","",""
"html-keyboard-response","43","250463","0.0-2.0-4.0","o902y5uqckm6jk4","instructions","5e94647a576588000b3d2892","5f60e3c0a3b16e07647b2ff9","5f60e9fd5de76100085800df","false","12278.925000002346","<div align=left> Great!<br><br>Are you ready to continue?<br><br>If you want to reread the instructions and redo the practice trials, <br>please press „Z“. <br><br>Press SPACE to CONTINUE with the experiment when you are ready. </div>","32","","","","","","","","","","","","","","","","","","","",""
"html-keyboard-response","44","288175","0.0-3.0-0.0","o902y5uqckm6jk4","instructions","5e94647a576588000b3d2892","5f60e3c0a3b16e07647b2ff9","5f60e9fd5de76100085800df","false","37709.93499999895","<div align=left>Great!<br> <strong>Attention</strong>! You will now receive a second, additional task! <br><br>To this point it was you <strong>first task</strong> to correctly <strong>classify objects</strong>. <br><br>As mentioned in the beginning, we aim to examine how well humans can remember previously learned information.<br>We would like to find out whether our memory improves if we only remember information that is relevant to us. <br><br>Therefore, your <strong>second task</strong> will be to <strong>remember</strong> the pictures you are to categorize. <br> After the learning phase, there will be a memory test phase, in which you will be asked to indicate whether you have seen a picture before or not. <br>Some, but not all pictures shown in the learning phase will appear in the memory test phase.<br>After classifying a picture, you will be told whether you should remember it for the memory test phase or not. <br>Thus, some pictures can be forgotten, whereas others have to be remembered. <br><br>Note: From now on, feedback will only be displayed if you responded incorrectly or not in time.<br><br>Press SPACE to continue.</div>","32","","","","","","","","","","","","","","","","","","","",""
"html-keyboard-response","45","309764","0.0-3.0-1.0","o902y5uqckm6jk4","instructions","5e94647a576588000b3d2892","5f60e3c0a3b16e07647b2ff9","5f60e9fd5de76100085800df","false","21587.214999999618","<div align=left>In the following part, you will thus have to remember only some pictures. <br>Immediately after seeing and classifying the picture, a symbol will be displayed, indicating whether you should remember or forget the previous picture. <br><br>A <span style='color: dodgerblue; font-size: 28px'>O</span> indicates REMEMBER. That means, you have to remember this picture, because it will be tested later. <br><br>A <span style='color: darkorange; font-size:28px'>Ø</span> indicates FORGET. You do not have to remember this picture. <br><br> As you will have to remember a lot of pictures, it will be hard for you to remember all of them. <br>It will put you at an advantage if you instantly forget the pictures you are not asked to remember. <br> This will make it easier for you to remember the pictures that will be tested afterwards. <br><br>Press SPACE to continue.</div>","32","","","","","","","","","","","","","","","","","","","",""
"html-keyboard-response","46","315986","0.0-3.0-2.0","o902y5uqckm6jk4","instructions","5e94647a576588000b3d2892","5f60e3c0a3b16e07647b2ff9","5f60e9fd5de76100085800df","false","6220.315000002331","<div align=left> Now you have the chance to practice both tasks together.<br><br>Remember: <br> <br><li>Please place your index fingers on the <strong>'S'</strong> and <strong>'L'</strong> keys <br>to respond as fast and accurately as possible.</li><li>Every picture can be classified as either mechanical or non-mechanical.</li><li>If you do not respond in time or commit an error, you will receive a corresponding feedback. <br>Please try to respond as <strong> fast </strong> and as <strong> accurately as possible </strong>.</li><li> Please remember only the to-be-remembered <span style='color: dodgerblue; font-size: 28px'>O</span> pictures. <br></li><li> Please minimize distractions and stay focused. </li><br><br>Press SPACE to START</div>","32","","","","","","","","","","","","","","","","","","","",""
"html-keyboard-response","47","316689","0.0-3.0-3.0-0.0","o902y5uqckm6jk4","practice_cue","5e94647a576588000b3d2892","5f60e3c0a3b16e07647b2ff9","5f60e9fd5de76100085800df","false","null","<span style=""color: black; font-size: 48px"">M + N</span>","null","","","","resp_prompt","","","","","","","","","","","","","","","",""
"categorize-image","48","317390","0.0-3.0-3.0-1.0","o902y5uqckm6jk4","practice_cue","5e94647a576588000b3d2892","5f60e3c0a3b16e07647b2ff9","5f60e9fd5de76100085800df","true","696.140000000014","./Stimuli/ImagesPractice/SM62.jpg","83","","","","test","true","M + N","83","","SM","SM62.jpg","remember","old","17","2","practice_forget","left","","","",""
"html-keyboard-response","49","319397","0.0-3.0-3.0-3.0","o902y5uqckm6jk4","practice_cue","5e94647a576588000b3d2892","5f60e3c0a3b16e07647b2ff9","5f60e9fd5de76100085800df","false","null","<div style=""align-items: center; display: flex; color: dodgerblue; font-size: 90px""><b>o</b></div>","null","","","","forget_cue","","","","","","","","","","","","","","","",""
"html-keyboard-response","50","320103","0.0-3.0-3.0-0.1","o902y5uqckm6jk4","practice_cue","5e94647a576588000b3d2892","5f60e3c0a3b16e07647b2ff9","5f60e9fd5de76100085800df","false","null","<span style=""color: black; font-size: 48px"">N + M</span>","null","","","","resp_prompt","","","","","","","","","","","","","","","",""
"categorize-image","51","321122","0.0-3.0-3.0-1.1","o902y5uqckm6jk4","practice_cue","5e94647a576588000b3d2892","5f60e3c0a3b16e07647b2ff9","5f60e9fd5de76100085800df","true","1014.340000001539","./Stimuli/ImagesPractice/LN2.jpg","83","","","","test","true","N + M","83","","LN","LN2.jpg","forget","old","18","2","practice_forget","left","","","",""
"html-keyboard-response","52","323127","0.0-3.0-3.0-3.1","o902y5uqckm6jk4","practice_cue","5e94647a576588000b3d2892","5f60e3c0a3b16e07647b2ff9","5f60e9fd5de76100085800df","false","null","<div style=""align-items: center; display: flex; color: darkorange; font-size: 90px""><b>ø</b></div>","null","","","","forget_cue","","","","","","","","","","","","","","","",""
"html-keyboard-response","53","323833","0.0-3.0-3.0-0.2","o902y5uqckm6jk4","practice_cue","5e94647a576588000b3d2892","5f60e3c0a3b16e07647b2ff9","5f60e9fd5de76100085800df","false","null","<span style=""color: black; font-size: 48px"">N + M</span>","null","","","","resp_prompt","","","","","","","","","","","","","","","",""
"categorize-image","54","325398","0.0-3.0-3.0-1.2","o902y5uqckm6jk4","practice_cue","5e94647a576588000b3d2892","5f60e3c0a3b16e07647b2ff9","5f60e9fd5de76100085800df","true","1560.3899999987334","./Stimuli/ImagesPractice/LM147.jpg","76","","","","test","true","N + M","76","","LM","LM147.jpg","forget","old","19","2","practice_forget","right","","","",""
"html-keyboard-response","55","327400","0.0-3.0-3.0-3.2","o902y5uqckm6jk4","practice_cue","5e94647a576588000b3d2892","5f60e3c0a3b16e07647b2ff9","5f60e9fd5de76100085800df","false","null","<div style=""align-items: center; display: flex; color: darkorange; font-size: 90px""><b>ø</b></div>","null","","","","forget_cue","","","","","","","","","","","","","","","",""
"html-keyboard-response","56","328102","0.0-3.0-3.0-0.3","o902y5uqckm6jk4","practice_cue","5e94647a576588000b3d2892","5f60e3c0a3b16e07647b2ff9","5f60e9fd5de76100085800df","false","null","<span style=""color: black; font-size: 48px"">N + M</span>","null","","","","resp_prompt","","","","","","","","","","","","","","","",""
"categorize-image","57","329376","0.0-3.0-3.0-1.3","o902y5uqckm6jk4","practice_cue","5e94647a576588000b3d2892","5f60e3c0a3b16e07647b2ff9","5f60e9fd5de76100085800df","true","1268.7800000021234","./Stimuli/ImagesPractice/LM143.jpg","76","","","","test","true","N + M","76","","LM","LM143.jpg","remember","old","20","2","practice_forget","right","","","",""
"html-keyboard-response","58","331382","0.0-3.0-3.0-3.3","o902y5uqckm6jk4","practice_cue","5e94647a576588000b3d2892","5f60e3c0a3b16e07647b2ff9","5f60e9fd5de76100085800df","false","null","<div style=""align-items: center; display: flex; color: dodgerblue; font-size: 90px""><b>o</b></div>","null","","","","forget_cue","","","","","","","","","","","","","","","",""
"html-keyboard-response","59","332088","0.0-3.0-3.0-0.4","o902y5uqckm6jk4","practice_cue","5e94647a576588000b3d2892","5f60e3c0a3b16e07647b2ff9","5f60e9fd5de76100085800df","false","null","<span style=""color: black; font-size: 48px"">M + N</span>","null","","","","resp_prompt","","","","","","","","","","","","","","","",""
"categorize-image","60","332832","0.0-3.0-3.0-1.4","o902y5uqckm6jk4","practice_cue","5e94647a576588000b3d2892","5f60e3c0a3b16e07647b2ff9","5f60e9fd5de76100085800df","true","739.2650000001304","./Stimuli/ImagesPractice/LM230.jpg","83","","","","test","true","M + N","83","","LM","LM230.jpg","remember","old","21","2","practice_forget","left","","","",""
"html-keyboard-response","61","334838","0.0-3.0-3.0-3.4","o902y5uqckm6jk4","practice_cue","5e94647a576588000b3d2892","5f60e3c0a3b16e07647b2ff9","5f60e9fd5de76100085800df","false","null","<div style=""align-items: center; display: flex; color: dodgerblue; font-size: 90px""><b>o</b></div>","null","","","","forget_cue","","","","","","","","","","","","","","","",""
"html-keyboard-response","62","335540","0.0-3.0-3.0-0.5","o902y5uqckm6jk4","practice_cue","5e94647a576588000b3d2892","5f60e3c0a3b16e07647b2ff9","5f60e9fd5de76100085800df","false","null","<span style=""color: black; font-size: 48px"">M + N</span>","null","","","","resp_prompt","","","","","","","","","","","","","","","",""
"categorize-image","63","336608","0.0-3.0-3.0-1.5","o902y5uqckm6jk4","practice_cue","5e94647a576588000b3d2892","5f60e3c0a3b16e07647b2ff9","5f60e9fd5de76100085800df","true","1064.0650000022724","./Stimuli/ImagesPractice/SM35.jpg","83","","","","test","true","M + N","83","","SM","SM35.jpg","remember","old","22","2","practice_forget","left","","","",""
"html-keyboard-response","64","338614","0.0-3.0-3.0-3.5","o902y5uqckm6jk4","practice_cue","5e94647a576588000b3d2892","5f60e3c0a3b16e07647b2ff9","5f60e9fd5de76100085800df","false","null","<div style=""align-items: center; display: flex; color: dodgerblue; font-size: 90px""><b>o</b></div>","null","","","","forget_cue","","","","","","","","","","","","","","","",""
"html-keyboard-response","65","339320","0.0-3.0-3.0-0.6","o902y5uqckm6jk4","practice_cue","5e94647a576588000b3d2892","5f60e3c0a3b16e07647b2ff9","5f60e9fd5de76100085800df","false","null","<span style=""color: black; font-size: 48px"">N + M</span>","null","","","","resp_prompt","","","","","","","","","","","","","","","",""
"categorize-image","66","340191","0.0-3.0-3.0-1.6","o902y5uqckm6jk4","practice_cue","5e94647a576588000b3d2892","5f60e3c0a3b16e07647b2ff9","5f60e9fd5de76100085800df","true","865.5299999991548","./Stimuli/ImagesPractice/SN222.jpg","83","","","","test","true","N + M","83","","SN","SN222.jpg","remember","old","23","2","practice_forget","left","","","",""
"html-keyboard-response","67","342196","0.0-3.0-3.0-3.6","o902y5uqckm6jk4","practice_cue","5e94647a576588000b3d2892","5f60e3c0a3b16e07647b2ff9","5f60e9fd5de76100085800df","false","null","<div style=""align-items: center; display: flex; color: dodgerblue; font-size: 90px""><b>o</b></div>","null","","","","forget_cue","","","","","","","","","","","","","","","",""
"html-keyboard-response","68","342899","0.0-3.0-3.0-0.7","o902y5uqckm6jk4","practice_cue","5e94647a576588000b3d2892","5f60e3c0a3b16e07647b2ff9","5f60e9fd5de76100085800df","false","null","<span style=""color: black; font-size: 48px"">M + N</span>","null","","","","resp_prompt","","","","","","","","","","","","","","","",""
"categorize-image","69","343676","0.0-3.0-3.0-1.7","o902y5uqckm6jk4","practice_cue","5e94647a576588000b3d2892","5f60e3c0a3b16e07647b2ff9","5f60e9fd5de76100085800df","true","772.9149999977672","./Stimuli/ImagesPractice/SM61.jpg","83","","","","test","true","M + N","83","","SM","SM61.jpg","forget","old","24","2","practice_forget","left","","","",""
"html-keyboard-response","70","345681","0.0-3.0-3.0-3.7","o902y5uqckm6jk4","practice_cue","5e94647a576588000b3d2892","5f60e3c0a3b16e07647b2ff9","5f60e9fd5de76100085800df","false","null","<div style=""align-items: center; display: flex; color: darkorange; font-size: 90px""><b>ø</b></div>","null","","","","forget_cue","","","","","","","","","","","","","","","",""
"html-keyboard-response","71","346382","0.0-3.0-3.0-0.8","o902y5uqckm6jk4","practice_cue","5e94647a576588000b3d2892","5f60e3c0a3b16e07647b2ff9","5f60e9fd5de76100085800df","false","null","<span style=""color: black; font-size: 48px"">N + M</span>","null","","","","resp_prompt","","","","","","","","","","","","","","","",""
"categorize-image","72","347599","0.0-3.0-3.0-1.8","o902y5uqckm6jk4","practice_cue","5e94647a576588000b3d2892","5f60e3c0a3b16e07647b2ff9","5f60e9fd5de76100085800df","true","1213.0150000011781","./Stimuli/ImagesPractice/LN15.jpg","76","","","","test","false","N + M","83","","LN","LN15.jpg","remember","old","25","2","practice_forget","right","","","",""
"html-keyboard-response","73","348101","0.0-3.0-3.0-2.8-0.8","o902y5uqckm6jk4","practice_cue","5e94647a576588000b3d2892","5f60e3c0a3b16e07647b2ff9","5f60e9fd5de76100085800df","false","null","<span style=""color: red; font-size: 48px"">Error!</span>","null","","","","feedback","","","","","","","","","","","","","","","",""
"html-keyboard-response","74","350104","0.0-3.0-3.0-3.8","o902y5uqckm6jk4","practice_cue","5e94647a576588000b3d2892","5f60e3c0a3b16e07647b2ff9","5f60e9fd5de76100085800df","false","null","<div style=""align-items: center; display: flex; color: dodgerblue; font-size: 90px""><b>o</b></div>","null","","","","forget_cue","","","","","","","","","","","","","","","",""
"html-keyboard-response","75","350807","0.0-3.0-3.0-0.9","o902y5uqckm6jk4","practice_cue","5e94647a576588000b3d2892","5f60e3c0a3b16e07647b2ff9","5f60e9fd5de76100085800df","false","null","<span style=""color: black; font-size: 48px"">N + M</span>","null","","","","resp_prompt","","","","","","","","","","","","","","","",""
"categorize-image","76","351866","0.0-3.0-3.0-1.9","o902y5uqckm6jk4","practice_cue","5e94647a576588000b3d2892","5f60e3c0a3b16e07647b2ff9","5f60e9fd5de76100085800df","true","1054.3700000016834","./Stimuli/ImagesPractice/LN72.jpg","83","","","","test","true","N + M","83","","LN","LN72.jpg","forget","old","26","2","practice_forget","left","","","",""
"html-keyboard-response","77","353871","0.0-3.0-3.0-3.9","o902y5uqckm6jk4","practice_cue","5e94647a576588000b3d2892","5f60e3c0a3b16e07647b2ff9","5f60e9fd5de76100085800df","false","null","<div style=""align-items: center; display: flex; color: darkorange; font-size: 90px""><b>ø</b></div>","null","","","","forget_cue","","","","","","","","","","","","","","","",""
"html-keyboard-response","78","354579","0.0-3.0-3.0-0.10","o902y5uqckm6jk4","practice_cue","5e94647a576588000b3d2892","5f60e3c0a3b16e07647b2ff9","5f60e9fd5de76100085800df","false","null","<span style=""color: black; font-size: 48px"">M + N</span>","null","","","","resp_prompt","","","","","","","","","","","","","","","",""
"categorize-image","79","355730","0.0-3.0-3.0-1.10","o902y5uqckm6jk4","practice_cue","5e94647a576588000b3d2892","5f60e3c0a3b16e07647b2ff9","5f60e9fd5de76100085800df","true","1145.7150000024121","./Stimuli/ImagesPractice/LN17.jpg","76","","","","test","true","M + N","76","","LN","LN17.jpg","remember","old","27","2","practice_forget","right","","","",""
"html-keyboard-response","80","357731","0.0-3.0-3.0-3.10","o902y5uqckm6jk4","practice_cue","5e94647a576588000b3d2892","5f60e3c0a3b16e07647b2ff9","5f60e9fd5de76100085800df","false","null","<div style=""align-items: center; display: flex; color: dodgerblue; font-size: 90px""><b>o</b></div>","null","","","","forget_cue","","","","","","","","","","","","","","","",""
"html-keyboard-response","81","358437","0.0-3.0-3.0-0.11","o902y5uqckm6jk4","practice_cue","5e94647a576588000b3d2892","5f60e3c0a3b16e07647b2ff9","5f60e9fd5de76100085800df","false","null","<span style=""color: black; font-size: 48px"">N + M</span>","null","","","","resp_prompt","","","","","","","","","","","","","","","",""
"categorize-image","82","359308","0.0-3.0-3.0-1.11","o902y5uqckm6jk4","practice_cue","5e94647a576588000b3d2892","5f60e3c0a3b16e07647b2ff9","5f60e9fd5de76100085800df","true","866.0999999992782","./Stimuli/ImagesPractice/LN4.jpg","83","","","","test","true","N + M","83","","LN","LN4.jpg","forget","old","28","2","practice_forget","left","","","",""
"html-keyboard-response","83","361312","0.0-3.0-3.0-3.11","o902y5uqckm6jk4","practice_cue","5e94647a576588000b3d2892","5f60e3c0a3b16e07647b2ff9","5f60e9fd5de76100085800df","false","null","<div style=""align-items: center; display: flex; color: darkorange; font-size: 90px""><b>ø</b></div>","null","","","","forget_cue","","","","","","","","","","","","","","","",""
"html-keyboard-response","84","362018","0.0-3.0-3.0-0.12","o902y5uqckm6jk4","practice_cue","5e94647a576588000b3d2892","5f60e3c0a3b16e07647b2ff9","5f60e9fd5de76100085800df","false","null","<span style=""color: black; font-size: 48px"">N + M</span>","null","","","","resp_prompt","","","","","","","","","","","","","","","",""
"categorize-image","85","362678","0.0-3.0-3.0-1.12","o902y5uqckm6jk4","practice_cue","5e94647a576588000b3d2892","5f60e3c0a3b16e07647b2ff9","5f60e9fd5de76100085800df","true","655.6100000016158","./Stimuli/ImagesPractice/SN221.jpg","83","","","","test","true","N + M","83","","SN","SN221.jpg","remember","old","29","2","practice_forget","left","","","",""
"html-keyboard-response","86","364680","0.0-3.0-3.0-3.12","o902y5uqckm6jk4","practice_cue","5e94647a576588000b3d2892","5f60e3c0a3b16e07647b2ff9","5f60e9fd5de76100085800df","false","null","<div style=""align-items: center; display: flex; color: dodgerblue; font-size: 90px""><b>o</b></div>","null","","","","forget_cue","","","","","","","","","","","","","","","",""
"html-keyboard-response","87","365386","0.0-3.0-3.0-0.13","o902y5uqckm6jk4","practice_cue","5e94647a576588000b3d2892","5f60e3c0a3b16e07647b2ff9","5f60e9fd5de76100085800df","false","null","<span style=""color: black; font-size: 48px"">M + N</span>","null","","","","resp_prompt","","","","","","","","","","","","","","","",""
"categorize-image","88","366036","0.0-3.0-3.0-1.13","o902y5uqckm6jk4","practice_cue","5e94647a576588000b3d2892","5f60e3c0a3b16e07647b2ff9","5f60e9fd5de76100085800df","true","646.4500000001863","./Stimuli/ImagesPractice/SM37.jpg","83","","","","test","true","M + N","83","","SM","SM37.jpg","forget","old","30","2","practice_forget","left","","","",""
"html-keyboard-response","89","368042","0.0-3.0-3.0-3.13","o902y5uqckm6jk4","practice_cue","5e94647a576588000b3d2892","5f60e3c0a3b16e07647b2ff9","5f60e9fd5de76100085800df","false","null","<div style=""align-items: center; display: flex; color: darkorange; font-size: 90px""><b>ø</b></div>","null","","","","forget_cue","","","","","","","","","","","","","","","",""
"html-keyboard-response","90","368743","0.0-3.0-3.0-0.14","o902y5uqckm6jk4","practice_cue","5e94647a576588000b3d2892","5f60e3c0a3b16e07647b2ff9","5f60e9fd5de76100085800df","false","null","<span style=""color: black; font-size: 48px"">M + N</span>","null","","","","resp_prompt","","","","","","","","","","","","","","","",""
"categorize-image","91","369773","0.0-3.0-3.0-1.14","o902y5uqckm6jk4","practice_cue","5e94647a576588000b3d2892","5f60e3c0a3b16e07647b2ff9","5f60e9fd5de76100085800df","true","1024.6900000020396","./Stimuli/ImagesPractice/SN205.jpg","76","","","","test","true","M + N","76","","SN","SN205.jpg","forget","old","31","2","practice_forget","right","","","",""
"html-keyboard-response","92","371774","0.0-3.0-3.0-3.14","o902y5uqckm6jk4","practice_cue","5e94647a576588000b3d2892","5f60e3c0a3b16e07647b2ff9","5f60e9fd5de76100085800df","false","null","<div style=""align-items: center; display: flex; color: darkorange; font-size: 90px""><b>ø</b></div>","null","","","","forget_cue","","","","","","","","","","","","","","","",""
"html-keyboard-response","93","372479","0.0-3.0-3.0-0.15","o902y5uqckm6jk4","practice_cue","5e94647a576588000b3d2892","5f60e3c0a3b16e07647b2ff9","5f60e9fd5de76100085800df","false","null","<span style=""color: black; font-size: 48px"">M + N</span>","null","","","","resp_prompt","","","","","","","","","","","","","","","",""
"categorize-image","94","373407","0.0-3.0-3.0-1.15","o902y5uqckm6jk4","practice_cue","5e94647a576588000b3d2892","5f60e3c0a3b16e07647b2ff9","5f60e9fd5de76100085800df","true","924.0000000026776","./Stimuli/ImagesPractice/SM98.jpg","83","","","","test","true","M + N","83","","SM","SM98.jpg","forget","old","32","2","practice_forget","left","","","",""
"html-keyboard-response","95","375408","0.0-3.0-3.0-3.15","o902y5uqckm6jk4","practice_cue","5e94647a576588000b3d2892","5f60e3c0a3b16e07647b2ff9","5f60e9fd5de76100085800df","false","null","<div style=""align-items: center; display: flex; color: darkorange; font-size: 90px""><b>ø</b></div>","null","","","","forget_cue","","","","","","","","","","","","","","","",""
"html-keyboard-response","96","378287","0.0-3.0-4.0","o902y5uqckm6jk4","break","5e94647a576588000b3d2892","5f60e3c0a3b16e07647b2ff9","5f60e9fd5de76100085800df","false","2877.6450000004843","<p style='font-size: 32px;'>Break</><br><br><br><br><br><p style='font-size: 24px;'>In the last block, you committed 1 errors and did not respond in time on 0 trials.
</p><p style='font-size: 24px;'>Try to respond as fast and accurately as possible in the next block as well! </p><p style='font-size: 24px;'>Press SPACE to continue.</p>","32","","","","","","","","","","","","","","","","","","","",""
"html-keyboard-response","97","398061","0.0-3.0-5.0","o902y5uqckm6jk4","instructions","5e94647a576588000b3d2892","5f60e3c0a3b16e07647b2ff9","5f60e9fd5de76100085800df","false","19771.76999999938","<div align=left> Now, to practice, we kindly ask you to remember as many of the to-be-remembered pictures<br>of the previous learning phase as possible.<br><br>The pictures you were instructed to remember were the pictures followed by a <span style='color: dodgerblue; font-size: 28px'>O</span>.<br><br>In this memory test phase, you will also see some new pictures.<br>It is your task to remember whether you were presented with this specific picture in this study so far or not.<br>If you recognize an object (you have already seen it in this study), it is an OLD object. <br>If you do not recognize an object (you have NOT seen it in this study), it is a NEW object. <br><strong> Attention</strong>: As already mentioned, <span style='color: darkorange; font-size:28px'>Ø</span>-pictures will <strong>never</strong> appear in this memory test (neither as new objects). <br><br>Press SPACE to continue. </div>","32","","","","","","","","","","","","","","","","","","","",""
"html-keyboard-response","98","435971","0.0-3.0-6.0","o902y5uqckm6jk4","instructions","5e94647a576588000b3d2892","5f60e3c0a3b16e07647b2ff9","5f60e9fd5de76100085800df","false","37907.99500000139","<div align=left> M and N no longer will appear on the left/right of the fixation cross. <br>Instead there will be a note at the bottom of the left or right side  <br>indicating which key you should press for an old or new object:  <br> <br>Press the <strong>right</strong> key to classify an object as <strong>old</strong> and press the <strong>left</strong>, to classify an object as <strong>new</strong>.<br>Please classify the objects as new/old by again placing your index finger on the 'S' and 'L' keys <br>and press them accordingly.<br><br><strong>Old:</strong> This object has been presented before. <br><strong>New:</strong> This object has <strong>not</strong> been presented.<br><br>Now please put your right and left index fingers on the 'S' and 'L' keys of your keyboard. <br>Please respond as fast and as accurately as possible!<br><br>Press SPACE to continue. </div>","32","","","","","","","","","","","","","","","","","","","",""
"categorize-image","99","439446","0.0-3.0-7.0-0.0","o902y5uqckm6jk4","practice_recog","5e94647a576588000b3d2892","5f60e3c0a3b16e07647b2ff9","5f60e9fd5de76100085800df","true","2967.115000003134","./Stimuli/ImagesPractice/SN220.jpg","76","","","","test","true","","76","","SN","SN220.jpg","","new","33","3","practice_recog","right","","","",""
"categorize-image","100","442222","0.0-3.0-7.0-0.1","o902y5uqckm6jk4","practice_recog","5e94647a576588000b3d2892","5f60e3c0a3b16e07647b2ff9","5f60e9fd5de76100085800df","true","2268.5200000014156","./Stimuli/ImagesPractice/LN15.jpg","83","","","","test","true","","83","","LN","LN15.jpg","","old","34","3","practice_recog","left","","","",""
"categorize-image","101","444160","0.0-3.0-7.0-0.2","o902y5uqckm6jk4","practice_recog","5e94647a576588000b3d2892","5f60e3c0a3b16e07647b2ff9","5f60e9fd5de76100085800df","true","1431.5299999980489","./Stimuli/ImagesPractice/LN109.jpg","76","","","","test","true","","76","","LN","LN109.jpg","","new","35","3","practice_recog","right","","","",""
"categorize-image","102","446019","0.0-3.0-7.0-0.3","o902y5uqckm6jk4","practice_recog","5e94647a576588000b3d2892","5f60e3c0a3b16e07647b2ff9","5f60e9fd5de76100085800df","true","1354.800000000978","./Stimuli/ImagesPractice/LM143.jpg","83","","","","test","true","","83","","LM","LM143.jpg","","old","36","3","practice_recog","left","","","",""
"categorize-image","103","447782","0.0-3.0-7.0-0.4","o902y5uqckm6jk4","practice_recog","5e94647a576588000b3d2892","5f60e3c0a3b16e07647b2ff9","5f60e9fd5de76100085800df","true","1256.3200000004144","./Stimuli/ImagesPractice/SN222.jpg","83","","","","test","true","","83","","SN","SN222.jpg","","old","37","3","practice_recog","left","","","",""
"categorize-image","104","449107","0.0-3.0-7.0-0.5","o902y5uqckm6jk4","practice_recog","5e94647a576588000b3d2892","5f60e3c0a3b16e07647b2ff9","5f60e9fd5de76100085800df","true","818.9349999993574","./Stimuli/ImagesPractice/SN221.jpg","83","","","","test","true","","83","","SN","SN221.jpg","","old","38","3","practice_recog","left","","","",""
"categorize-image","105","450544","0.0-3.0-7.0-0.6","o902y5uqckm6jk4","practice_recog","5e94647a576588000b3d2892","5f60e3c0a3b16e07647b2ff9","5f60e9fd5de76100085800df","true","929.6099999992293","./Stimuli/ImagesPractice/LM239.jpg","76","","","","test","true","","76","","LM","LM239.jpg","","new","39","3","practice_recog","right","","","",""
"categorize-image","106","451972","0.0-3.0-7.0-0.7","o902y5uqckm6jk4","practice_recog","5e94647a576588000b3d2892","5f60e3c0a3b16e07647b2ff9","5f60e9fd5de76100085800df","true","921.8850000033854","./Stimuli/ImagesPractice/LM224.jpg","83","","","","test","false","","76","","LM","LM224.jpg","","new","40","3","practice_recog","left","","","",""
"categorize-image","107","454259","0.0-3.0-7.0-0.8","o902y5uqckm6jk4","practice_recog","5e94647a576588000b3d2892","5f60e3c0a3b16e07647b2ff9","5f60e9fd5de76100085800df","true","1779.8600000023725","./Stimuli/ImagesPractice/LN17.jpg","83","","","","test","true","","83","","LN","LN17.jpg","","old","41","3","practice_recog","left","","","",""
"categorize-image","108","455852","0.0-3.0-7.0-0.9","o902y5uqckm6jk4","practice_recog","5e94647a576588000b3d2892","5f60e3c0a3b16e07647b2ff9","5f60e9fd5de76100085800df","true","1087.6850000022678","./Stimuli/ImagesPractice/SN75.jpg","76","","","","test","true","","76","","SN","SN75.jpg","","new","42","3","practice_recog","right","","","",""
"categorize-image","109","457415","0.0-3.0-7.0-0.10","o902y5uqckm6jk4","practice_recog","5e94647a576588000b3d2892","5f60e3c0a3b16e07647b2ff9","5f60e9fd5de76100085800df","true","1057.5500000013271","./Stimuli/ImagesPractice/LM230.jpg","83","","","","test","true","","83","","LM","LM230.jpg","","old","43","3","practice_recog","left","","","",""
"categorize-image","110","459613","0.0-3.0-7.0-0.11","o902y5uqckm6jk4","practice_recog","5e94647a576588000b3d2892","5f60e3c0a3b16e07647b2ff9","5f60e9fd5de76100085800df","true","1693.7500000021537","./Stimuli/ImagesPractice/SM35.jpg","83","","","","test","true","","83","","SM","SM35.jpg","","old","44","3","practice_recog","left","","","",""
"categorize-image","111","461468","0.0-3.0-7.0-0.12","o902y5uqckm6jk4","practice_recog","5e94647a576588000b3d2892","5f60e3c0a3b16e07647b2ff9","5f60e9fd5de76100085800df","true","1352.3849999983213","./Stimuli/ImagesPractice/SM62.jpg","83","","","","test","true","","83","","SM","SM62.jpg","","old","45","3","practice_recog","left","","","",""
"categorize-image","112","462697","0.0-3.0-7.0-0.13","o902y5uqckm6jk4","practice_recog","5e94647a576588000b3d2892","5f60e3c0a3b16e07647b2ff9","5f60e9fd5de76100085800df","true","722.0650000016904","./Stimuli/ImagesPractice/SM97.jpg","76","","","","test","true","","76","","SM","SM97.jpg","","new","46","3","practice_recog","right","","","",""
"categorize-image","113","465567","0.0-3.0-7.0-0.14","o902y5uqckm6jk4","practice_recog","5e94647a576588000b3d2892","5f60e3c0a3b16e07647b2ff9","5f60e9fd5de76100085800df","true","2363.0899999989197","./Stimuli/ImagesPractice/SN76.jpg","76","","","","test","true","","76","","SN","SN76.jpg","","new","47","3","practice_recog","right","","","",""
"categorize-image","114","467447","0.0-3.0-7.0-0.15","o902y5uqckm6jk4","practice_recog","5e94647a576588000b3d2892","5f60e3c0a3b16e07647b2ff9","5f60e9fd5de76100085800df","true","1373.1899999984307","./Stimuli/ImagesPractice/LM55.jpg","76","","","","test","true","","76","","LM","LM55.jpg","","new","48","3","practice_recog","right","","","",""
"html-keyboard-response","115","482420","0.0-3.0-8.0","o902y5uqckm6jk4","instructions","5e94647a576588000b3d2892","5f60e3c0a3b16e07647b2ff9","5f60e9fd5de76100085800df","false","14971.97999999841","<div align=left> Great!<br><br>Are you ready to continue?<br>If you want to reread the instructions and redo the practice trials, please <br>press „Z“.<br><br>You can proceed when you are ready.<br><br>After the presentation of each object, you will receive an instruction whether to <br>remember or to forget the object.<br>We will test your memory of the following pictures only at the very end of <br>the experiment after all learning blocks are completed. <br><br>Press SPACE to CONTINUE when you are ready. </div>","32","","","","","","","","","","","","","","","","","","","",""
"html-keyboard-response","116","501213","0.0-4.0-0.0","o902y5uqckm6jk4","instructions","5e94647a576588000b3d2892","5f60e3c0a3b16e07647b2ff9","5f60e9fd5de76100085800df","false","18790.795000000857","<div align=left> The actual experiment is about to start.<br>The practice trials are over!<br><br>Please always respond both fast and accurately!<br><br>Remember: <br> <br><li> Please place your index fingers on the <strong>'S'</strong> and <strong>'L'</strong> keys <br>to respond as fast and accurately as possible.</li><li> Every picture can be classified as either mechanical or non-mechanical.</li><li> If you do not respond in time or commit an error, you will receive a corresponding feedback.<br> Please try to respond as <strong> fast </strong> and as <strong> accurately as possible </strong>.</li><li> Remember the <span style='color: dodgerblue; font-size: 28px'>O</span> pictures. <br></li><li> Please minimize distractions and stay focused. </li><br><br>Press SPACE to START.</div>","32","","","","","","","","","","","","","","","","","","","",""
"html-keyboard-response","117","501917","0.0-4.0-1.0-0.0","o902y5uqckm6jk4","prime","5e94647a576588000b3d2892","5f60e3c0a3b16e07647b2ff9","5f60e9fd5de76100085800df","false","null","<span style=""color: black; font-size: 48px"">M + N</span>","null","","","","resp_prompt","","","","","","","","","","","","","","","",""
"categorize-image","118","503222","0.0-4.0-1.0-1.0","o902y5uqckm6jk4","prime","5e94647a576588000b3d2892","5f60e3c0a3b16e07647b2ff9","5f60e9fd5de76100085800df","true","1301.12999999983","./Stimuli/SelectedImages/SN/SN182.bmp","76","","","","test","true","M + N","76","repetition","SN","SN182.bmp","forget","","49","3","prime1","right","","","",""
"html-keyboard-response","119","505225","0.0-4.0-1.0-3.0","o902y5uqckm6jk4","prime","5e94647a576588000b3d2892","5f60e3c0a3b16e07647b2ff9","5f60e9fd5de76100085800df","false","null","<div style=""align-items: center; display: flex; color: darkorange; font-size: 90px""><b>ø</b></div>","null","","","","forget_cue","","","","","","","","","","","","","","","",""
"html-keyboard-response","120","505927","0.0-4.0-1.0-0.1","o902y5uqckm6jk4","prime","5e94647a576588000b3d2892","5f60e3c0a3b16e07647b2ff9","5f60e9fd5de76100085800df","false","null","<span style=""color: black; font-size: 48px"">M + N</span>","null","","","","resp_prompt","","","","","","","","","","","","","","","",""
"categorize-image","121","506711","0.0-4.0-1.0-1.1","o902y5uqckm6jk4","prime","5e94647a576588000b3d2892","5f60e3c0a3b16e07647b2ff9","5f60e9fd5de76100085800df","true","779.8149999980233","./Stimuli/SelectedImages/SM/SM108.bmp","83","","","","test","true","M + N","83","repetition","SM","SM108.bmp","forget","","50","3","prime1","left","","","",""
"html-keyboard-response","122","508714","0.0-4.0-1.0-3.1","o902y5uqckm6jk4","prime","5e94647a576588000b3d2892","5f60e3c0a3b16e07647b2ff9","5f60e9fd5de76100085800df","false","null","<div style=""align-items: center; display: flex; color: darkorange; font-size: 90px""><b>ø</b></div>","null","","","","forget_cue","","","","","","","","","","","","","","","",""
"html-keyboard-response","123","509419","0.0-4.0-1.0-0.2","o902y5uqckm6jk4","prime","5e94647a576588000b3d2892","5f60e3c0a3b16e07647b2ff9","5f60e9fd5de76100085800df","false","null","<span style=""color: black; font-size: 48px"">M + N</span>","null","","","","resp_prompt","","","","","","","","","","","","","","","",""
"categorize-image","124","510251","0.0-4.0-1.0-1.2","o902y5uqckm6jk4","prime","5e94647a576588000b3d2892","5f60e3c0a3b16e07647b2ff9","5f60e9fd5de76100085800df","true","827.5850000026985","./Stimuli/SelectedImages/SN/SN128.bmp","76","","","","test","true","M + N","76","switch","SN","SN128.bmp","remember","","51","3","prime1","right","","","",""
"html-keyboard-response","125","512254","0.0-4.0-1.0-3.2","o902y5uqckm6jk4","prime","5e94647a576588000b3d2892","5f60e3c0a3b16e07647b2ff9","5f60e9fd5de76100085800df","false","null","<div style=""align-items: center; display: flex; color: dodgerblue; font-size: 90px""><b>o</b></div>","null","","","","forget_cue","","","","","","","","","","","","","","","",""
"html-keyboard-response","126","512960","0.0-4.0-1.0-0.3","o902y5uqckm6jk4","prime","5e94647a576588000b3d2892","5f60e3c0a3b16e07647b2ff9","5f60e9fd5de76100085800df","false","null","<span style=""color: black; font-size: 48px"">M + N</span>","null","","","","resp_prompt","","","","","","","","","","","","","","","",""
"categorize-image","127","514719","0.0-4.0-1.0-1.3","o902y5uqckm6jk4","prime","5e94647a576588000b3d2892","5f60e3c0a3b16e07647b2ff9","5f60e9fd5de76100085800df","true","1755.1049999965471","./Stimuli/SelectedImages/LM/LM216.bmp","83","","","","test","true","M + N","83","repetition","LM","LM216.bmp","remember","","52","3","prime1","left","","","",""
"html-keyboard-response","128","516723","0.0-4.0-1.0-3.3","o902y5uqckm6jk4","prime","5e94647a576588000b3d2892","5f60e3c0a3b16e07647b2ff9","5f60e9fd5de76100085800df","false","null","<div style=""align-items: center; display: flex; color: dodgerblue; font-size: 90px""><b>o</b></div>","null","","","","forget_cue","","","","","","","","","","","","","","","",""
"html-keyboard-response","129","517429","0.0-4.0-1.0-0.4","o902y5uqckm6jk4","prime","5e94647a576588000b3d2892","5f60e3c0a3b16e07647b2ff9","5f60e9fd5de76100085800df","false","null","<span style=""color: black; font-size: 48px"">M + N</span>","null","","","","resp_prompt","","","","","","","","","","","","","","","",""
"categorize-image","130","518366","0.0-4.0-1.0-1.4","o902y5uqckm6jk4","prime","5e94647a576588000b3d2892","5f60e3c0a3b16e07647b2ff9","5f60e9fd5de76100085800df","true","932.0249999982188","./Stimuli/SelectedImages/LM/LM59.bmp","83","","","","test","true","M + N","83","repetition","LM","LM59.bmp","remember","","53","3","prime1","left","","","",""
"html-keyboard-response","131","520369","0.0-4.0-1.0-3.4","o902y5uqckm6jk4","prime","5e94647a576588000b3d2892","5f60e3c0a3b16e07647b2ff9","5f60e9fd5de76100085800df","false","null","<div style=""align-items: center; display: flex; color: dodgerblue; font-size: 90px""><b>o</b></div>","null","","","","forget_cue","","","","","","","","","","","","","","","",""
"html-keyboard-response","132","521072","0.0-4.0-1.0-0.5","o902y5uqckm6jk4","prime","5e94647a576588000b3d2892","5f60e3c0a3b16e07647b2ff9","5f60e9fd5de76100085800df","false","null","<span style=""color: black; font-size: 48px"">N + M</span>","null","","","","resp_prompt","","","","","","","","","","","","","","","",""
"categorize-image","133","522014","0.0-4.0-1.0-1.5","o902y5uqckm6jk4","prime","5e94647a576588000b3d2892","5f60e3c0a3b16e07647b2ff9","5f60e9fd5de76100085800df","true","936.9000000006636","./Stimuli/SelectedImages/LN/LN101.bmp","83","","","","test","true","N + M","83","repetition","LN","LN101.bmp","remember","","54","3","prime1","left","","","",""
"html-keyboard-response","134","524018","0.0-4.0-1.0-3.5","o902y5uqckm6jk4","prime","5e94647a576588000b3d2892","5f60e3c0a3b16e07647b2ff9","5f60e9fd5de76100085800df","false","null","<div style=""align-items: center; display: flex; color: dodgerblue; font-size: 90px""><b>o</b></div>","null","","","","forget_cue","","","","","","","","","","","","","","","",""
"html-keyboard-response","135","524724","0.0-4.0-1.0-0.6","o902y5uqckm6jk4","prime","5e94647a576588000b3d2892","5f60e3c0a3b16e07647b2ff9","5f60e9fd5de76100085800df","false","null","<span style=""color: black; font-size: 48px"">N + M</span>","null","","","","resp_prompt","","","","","","","","","","","","","","","",""
"categorize-image","136","525973","0.0-4.0-1.0-1.6","o902y5uqckm6jk4","prime","5e94647a576588000b3d2892","5f60e3c0a3b16e07647b2ff9","5f60e9fd5de76100085800df","true","1244.3849999981467","./Stimuli/SelectedImages/LM/LM167.bmp","76","","","","test","true","N + M","76","repetition","LM","LM167.bmp","forget","","55","3","prime1","right","","","",""
"html-keyboard-response","137","527974","0.0-4.0-1.0-3.6","o902y5uqckm6jk4","prime","5e94647a576588000b3d2892","5f60e3c0a3b16e07647b2ff9","5f60e9fd5de76100085800df","false","null","<div style=""align-items: center; display: flex; color: darkorange; font-size: 90px""><b>ø</b></div>","null","","","","forget_cue","","","","","","","","","","","","","","","",""
"html-keyboard-response","138","528680","0.0-4.0-1.0-0.7","o902y5uqckm6jk4","prime","5e94647a576588000b3d2892","5f60e3c0a3b16e07647b2ff9","5f60e9fd5de76100085800df","false","null","<span style=""color: black; font-size: 48px"">M + N</span>","null","","","","resp_prompt","","","","","","","","","","","","","","","",""
"categorize-image","139","530396","0.0-4.0-1.0-1.7","o902y5uqckm6jk4","prime","5e94647a576588000b3d2892","5f60e3c0a3b16e07647b2ff9","5f60e9fd5de76100085800df","true","1711.2749999979278","./Stimuli/SelectedImages/LN/LN59.bmp","76","","","","test","true","M + N","76","switch","LN","LN59.bmp","remember","","56","3","prime1","right","","","",""
"html-keyboard-response","140","532401","0.0-4.0-1.0-3.7","o902y5uqckm6jk4","prime","5e94647a576588000b3d2892","5f60e3c0a3b16e07647b2ff9","5f60e9fd5de76100085800df","false","null","<div style=""align-items: center; display: flex; color: dodgerblue; font-size: 90px""><b>o</b></div>","null","","","","forget_cue","","","","","","","","","","","","","","","",""
"html-keyboard-response","141","533106","0.0-4.0-1.0-0.8","o902y5uqckm6jk4","prime","5e94647a576588000b3d2892","5f60e3c0a3b16e07647b2ff9","5f60e9fd5de76100085800df","false","null","<span style=""color: black; font-size: 48px"">N + M</span>","null","","","","resp_prompt","","","","","","","","","","","","","","","",""
"categorize-image","142","535024","0.0-4.0-1.0-1.8","o902y5uqckm6jk4","prime","5e94647a576588000b3d2892","5f60e3c0a3b16e07647b2ff9","5f60e9fd5de76100085800df","true","1913.0499999992317","./Stimuli/SelectedImages/SN/SN179.bmp","83","","","","test","true","N + M","83","switch","SN","SN179.bmp","forget","","57","3","prime1","left","","","",""
"html-keyboard-response","143","537029","0.0-4.0-1.0-3.8","o902y5uqckm6jk4","prime","5e94647a576588000b3d2892","5f60e3c0a3b16e07647b2ff9","5f60e9fd5de76100085800df","false","null","<div style=""align-items: center; display: flex; color: darkorange; font-size: 90px""><b>ø</b></div>","null","","","","forget_cue","","","","","","","","","","","","","","","",""
"html-keyboard-response","144","537730","0.0-4.0-1.0-0.9","o902y5uqckm6jk4","prime","5e94647a576588000b3d2892","5f60e3c0a3b16e07647b2ff9","5f60e9fd5de76100085800df","false","null","<span style=""color: black; font-size: 48px"">N + M</span>","null","","","","resp_prompt","","","","","","","","","","","","","","","",""
"categorize-image","145","538504","0.0-4.0-1.0-1.9","o902y5uqckm6jk4","prime","5e94647a576588000b3d2892","5f60e3c0a3b16e07647b2ff9","5f60e9fd5de76100085800df","true","769.0799999982119","./Stimuli/SelectedImages/SN/SN140.bmp","83","","","","test","true","N + M","83","repetition","SN","SN140.bmp","remember","","58","3","prime1","left","","","",""
"html-keyboard-response","146","540506","0.0-4.0-1.0-3.9","o902y5uqckm6jk4","prime","5e94647a576588000b3d2892","5f60e3c0a3b16e07647b2ff9","5f60e9fd5de76100085800df","false","null","<div style=""align-items: center; display: flex; color: dodgerblue; font-size: 90px""><b>o</b></div>","null","","","","forget_cue","","","","","","","","","","","","","","","",""
"html-keyboard-response","147","541209","0.0-4.0-1.0-0.10","o902y5uqckm6jk4","prime","5e94647a576588000b3d2892","5f60e3c0a3b16e07647b2ff9","5f60e9fd5de76100085800df","false","null","<span style=""color: black; font-size: 48px"">M + N</span>","null","","","","resp_prompt","","","","","","","","","","","","","","","",""
"categorize-image","148","541998","0.0-4.0-1.0-1.10","o902y5uqckm6jk4","prime","5e94647a576588000b3d2892","5f60e3c0a3b16e07647b2ff9","5f60e9fd5de76100085800df","true","784.7750000000233","./Stimuli/SelectedImages/SM/SM78.bmp","83","","","","test","true","M + N","83","switch","SM","SM78.bmp","forget","","59","3","prime1","left","","","",""
"html-keyboard-response","149","544004","0.0-4.0-1.0-3.10","o902y5uqckm6jk4","prime","5e94647a576588000b3d2892","5f60e3c0a3b16e07647b2ff9","5f60e9fd5de76100085800df","false","null","<div style=""align-items: center; display: flex; color: darkorange; font-size: 90px""><b>ø</b></div>","null","","","","forget_cue","","","","","","","","","","","","","","","",""
"html-keyboard-response","150","544705","0.0-4.0-1.0-0.11","o902y5uqckm6jk4","prime","5e94647a576588000b3d2892","5f60e3c0a3b16e07647b2ff9","5f60e9fd5de76100085800df","false","null","<span style=""color: black; font-size: 48px"">N + M</span>","null","","","","resp_prompt","","","","","","","","","","","","","","","",""
"categorize-image","151","545599","0.0-4.0-1.0-1.11","o902y5uqckm6jk4","prime","5e94647a576588000b3d2892","5f60e3c0a3b16e07647b2ff9","5f60e9fd5de76100085800df","true","889.3449999996228","./Stimuli/SelectedImages/LM/LM179.bmp","76","","","","test","true","N + M","76","repetition","LM","LM179.bmp","remember","","60","3","prime1","right","","","",""
"html-keyboard-response","152","547601","0.0-4.0-1.0-3.11","o902y5uqckm6jk4","prime","5e94647a576588000b3d2892","5f60e3c0a3b16e07647b2ff9","5f60e9fd5de76100085800df","false","null","<div style=""align-items: center; display: flex; color: dodgerblue; font-size: 90px""><b>o</b></div>","null","","","","forget_cue","","","","","","","","","","","","","","","",""
"html-keyboard-response","153","548304","0.0-4.0-1.0-0.12","o902y5uqckm6jk4","prime","5e94647a576588000b3d2892","5f60e3c0a3b16e07647b2ff9","5f60e9fd5de76100085800df","false","null","<span style=""color: black; font-size: 48px"">M + N</span>","null","","","","resp_prompt","","","","","","","","","","","","","","","",""
"categorize-image","154","549275","0.0-4.0-1.0-1.12","o902y5uqckm6jk4","prime","5e94647a576588000b3d2892","5f60e3c0a3b16e07647b2ff9","5f60e9fd5de76100085800df","true","966.1000000013737","./Stimuli/SelectedImages/LM/LM157.bmp","83","","","","test","true","M + N","83","repetition","LM","LM157.bmp","forget","","61","3","prime1","left","","","",""
"html-keyboard-response","155","551279","0.0-4.0-1.0-3.12","o902y5uqckm6jk4","prime","5e94647a576588000b3d2892","5f60e3c0a3b16e07647b2ff9","5f60e9fd5de76100085800df","false","null","<div style=""align-items: center; display: flex; color: darkorange; font-size: 90px""><b>ø</b></div>","null","","","","forget_cue","","","","","","","","","","","","","","","",""
"html-keyboard-response","156","551983","0.0-4.0-1.0-0.13","o902y5uqckm6jk4","prime","5e94647a576588000b3d2892","5f60e3c0a3b16e07647b2ff9","5f60e9fd5de76100085800df","false","null","<span style=""color: black; font-size: 48px"">N + M</span>","null","","","","resp_prompt","","","","","","","","","","","","","","","",""
"categorize-image","157","552916","0.0-4.0-1.0-1.13","o902y5uqckm6jk4","prime","5e94647a576588000b3d2892","5f60e3c0a3b16e07647b2ff9","5f60e9fd5de76100085800df","true","928.3299999989104","./Stimuli/SelectedImages/SN/SN240.bmp","83","","","","test","true","N + M","83","repetition","SN","SN240.bmp","forget","","62","3","prime1","left","","","",""
"html-keyboard-response","158","554921","0.0-4.0-1.0-3.13","o902y5uqckm6jk4","prime","5e94647a576588000b3d2892","5f60e3c0a3b16e07647b2ff9","5f60e9fd5de76100085800df","false","null","<div style=""align-items: center; display: flex; color: darkorange; font-size: 90px""><b>ø</b></div>","null","","","","forget_cue","","","","","","","","","","","","","","","",""
"html-keyboard-response","159","555627","0.0-4.0-1.0-0.14","o902y5uqckm6jk4","prime","5e94647a576588000b3d2892","5f60e3c0a3b16e07647b2ff9","5f60e9fd5de76100085800df","false","null","<span style=""color: black; font-size: 48px"">N + M</span>","null","","","","resp_prompt","","","","","","","","","","","","","","","",""
"categorize-image","160","556257","0.0-4.0-1.0-1.14","o902y5uqckm6jk4","prime","5e94647a576588000b3d2892","5f60e3c0a3b16e07647b2ff9","5f60e9fd5de76100085800df","true","625.0350000009639","./Stimuli/SelectedImages/SN/SN49.bmp","83","","","","test","true","N + M","83","switch","SN","SN49.bmp","remember","","63","3","prime1","left","","","",""
"html-keyboard-response","161","558262","0.0-4.0-1.0-3.14","o902y5uqckm6jk4","prime","5e94647a576588000b3d2892","5f60e3c0a3b16e07647b2ff9","5f60e9fd5de76100085800df","false","null","<div style=""align-items: center; display: flex; color: dodgerblue; font-size: 90px""><b>o</b></div>","null","","","","forget_cue","","","","","","","","","","","","","","","",""
"html-keyboard-response","162","558969","0.0-4.0-1.0-0.15","o902y5uqckm6jk4","prime","5e94647a576588000b3d2892","5f60e3c0a3b16e07647b2ff9","5f60e9fd5de76100085800df","false","null","<span style=""color: black; font-size: 48px"">N + M</span>","null","","","","resp_prompt","","","","","","","","","","","","","","","",""
"categorize-image","163","559766","0.0-4.0-1.0-1.15","o902y5uqckm6jk4","prime","5e94647a576588000b3d2892","5f60e3c0a3b16e07647b2ff9","5f60e9fd5de76100085800df","true","793.5749999997206","./Stimuli/SelectedImages/LM/LM57.bmp","76","","","","test","true","N + M","76","switch","LM","LM57.bmp","forget","","64","3","prime1","right","","","",""
"html-keyboard-response","164","561771","0.0-4.0-1.0-3.15","o902y5uqckm6jk4","prime","5e94647a576588000b3d2892","5f60e3c0a3b16e07647b2ff9","5f60e9fd5de76100085800df","false","null","<div style=""align-items: center; display: flex; color: darkorange; font-size: 90px""><b>ø</b></div>","null","","","","forget_cue","","","","","","","","","","","","","","","",""
"html-keyboard-response","165","562473","0.0-4.0-1.0-0.16","o902y5uqckm6jk4","prime","5e94647a576588000b3d2892","5f60e3c0a3b16e07647b2ff9","5f60e9fd5de76100085800df","false","null","<span style=""color: black; font-size: 48px"">M + N</span>","null","","","","resp_prompt","","","","","","","","","","","","","","","",""
"categorize-image","166","563585","0.0-4.0-1.0-1.16","o902y5uqckm6jk4","prime","5e94647a576588000b3d2892","5f60e3c0a3b16e07647b2ff9","5f60e9fd5de76100085800df","true","1107.0399999989895","./Stimuli/SelectedImages/SN/SN181.bmp","76","","","","test","true","M + N","76","switch","SN","SN181.bmp","remember","","65","3","prime1","right","","","",""
"html-keyboard-response","167","565589","0.0-4.0-1.0-3.16","o902y5uqckm6jk4","prime","5e94647a576588000b3d2892","5f60e3c0a3b16e07647b2ff9","5f60e9fd5de76100085800df","false","null","<div style=""align-items: center; display: flex; color: dodgerblue; font-size: 90px""><b>o</b></div>","null","","","","forget_cue","","","","","","","","","","","","","","","",""
"html-keyboard-response","168","566295","0.0-4.0-1.0-0.17","o902y5uqckm6jk4","prime","5e94647a576588000b3d2892","5f60e3c0a3b16e07647b2ff9","5f60e9fd5de76100085800df","false","null","<span style=""color: black; font-size: 48px"">N + M</span>","null","","","","resp_prompt","","","","","","","","","","","","","","","",""
"categorize-image","169","567633","0.0-4.0-1.0-1.17","o902y5uqckm6jk4","prime","5e94647a576588000b3d2892","5f60e3c0a3b16e07647b2ff9","5f60e9fd5de76100085800df","true","1332.540000003064","./Stimuli/SelectedImages/LN/LN92.bmp","83","","","","test","true","N + M","83","switch","LN","LN92.bmp","forget","","66","3","prime1","left","","","",""
"html-keyboard-response","170","569637","0.0-4.0-1.0-3.17","o902y5uqckm6jk4","prime","5e94647a576588000b3d2892","5f60e3c0a3b16e07647b2ff9","5f60e9fd5de76100085800df","false","null","<div style=""align-items: center; display: flex; color: darkorange; font-size: 90px""><b>ø</b></div>","null","","","","forget_cue","","","","","","","","","","","","","","","",""
"html-keyboard-response","171","570339","0.0-4.0-1.0-0.18","o902y5uqckm6jk4","prime","5e94647a576588000b3d2892","5f60e3c0a3b16e07647b2ff9","5f60e9fd5de76100085800df","false","null","<span style=""color: black; font-size: 48px"">N + M</span>","null","","","","resp_prompt","","","","","","","","","","","","","","","",""
"categorize-image","172","570940","0.0-4.0-1.0-1.18","o902y5uqckm6jk4","prime","5e94647a576588000b3d2892","5f60e3c0a3b16e07647b2ff9","5f60e9fd5de76100085800df","true","596.6100000004517","./Stimuli/SelectedImages/LN/LN82.bmp","83","","","","test","true","N + M","83","repetition","LN","LN82.bmp","forget","","67","3","prime1","left","","","",""
"html-keyboard-response","173","572946","0.0-4.0-1.0-3.18","o902y5uqckm6jk4","prime","5e94647a576588000b3d2892","5f60e3c0a3b16e07647b2ff9","5f60e9fd5de76100085800df","false","null","<div style=""align-items: center; display: flex; color: darkorange; font-size: 90px""><b>ø</b></div>","null","","","","forget_cue","","","","","","","","","","","","","","","",""
"html-keyboard-response","174","573648","0.0-4.0-1.0-0.19","o902y5uqckm6jk4","prime","5e94647a576588000b3d2892","5f60e3c0a3b16e07647b2ff9","5f60e9fd5de76100085800df","false","null","<span style=""color: black; font-size: 48px"">N + M</span>","null","","","","resp_prompt","","","","","","","","","","","","","","","",""
"categorize-image","175","574659","0.0-4.0-1.0-1.19","o902y5uqckm6jk4","prime","5e94647a576588000b3d2892","5f60e3c0a3b16e07647b2ff9","5f60e9fd5de76100085800df","true","1005.2399999985937","./Stimuli/SelectedImages/SM/SM73.bmp","76","","","","test","true","N + M","76","repetition","SM","SM73.bmp","forget","","68","3","prime1","right","","","",""
"html-keyboard-response","176","576661","0.0-4.0-1.0-3.19","o902y5uqckm6jk4","prime","5e94647a576588000b3d2892","5f60e3c0a3b16e07647b2ff9","5f60e9fd5de76100085800df","false","null","<div style=""align-items: center; display: flex; color: darkorange; font-size: 90px""><b>ø</b></div>","null","","","","forget_cue","","","","","","","","","","","","","","","",""
"html-keyboard-response","177","577366","0.0-4.0-1.0-0.20","o902y5uqckm6jk4","prime","5e94647a576588000b3d2892","5f60e3c0a3b16e07647b2ff9","5f60e9fd5de76100085800df","false","null","<span style=""color: black; font-size: 48px"">M + N</span>","null","","","","resp_prompt","","","","","","","","","","","","","","","",""
"categorize-image","178","578463","0.0-4.0-1.0-1.20","o902y5uqckm6jk4","prime","5e94647a576588000b3d2892","5f60e3c0a3b16e07647b2ff9","5f60e9fd5de76100085800df","true","1091.1899999991292","./Stimuli/SelectedImages/SM/SM213.bmp","83","","","","test","true","M + N","83","repetition","SM","SM213.bmp","forget","","69","3","prime1","left","","","",""
"html-keyboard-response","179","580470","0.0-4.0-1.0-3.20","o902y5uqckm6jk4","prime","5e94647a576588000b3d2892","5f60e3c0a3b16e07647b2ff9","5f60e9fd5de76100085800df","false","null","<div style=""align-items: center; display: flex; color: darkorange; font-size: 90px""><b>ø</b></div>","null","","","","forget_cue","","","","","","","","","","","","","","","",""
"html-keyboard-response","180","581171","0.0-4.0-1.0-0.21","o902y5uqckm6jk4","prime","5e94647a576588000b3d2892","5f60e3c0a3b16e07647b2ff9","5f60e9fd5de76100085800df","false","null","<span style=""color: black; font-size: 48px"">M + N</span>","null","","","","resp_prompt","","","","","","","","","","","","","","","",""
"categorize-image","181","582013","0.0-4.0-1.0-1.21","o902y5uqckm6jk4","prime","5e94647a576588000b3d2892","5f60e3c0a3b16e07647b2ff9","5f60e9fd5de76100085800df","true","836.9300000013318","./Stimuli/SelectedImages/LN/LN42.bmp","76","","","","test","true","M + N","76","repetition","LN","LN42.bmp","forget","","70","3","prime1","right","","","",""
"html-keyboard-response","182","584016","0.0-4.0-1.0-3.21","o902y5uqckm6jk4","prime","5e94647a576588000b3d2892","5f60e3c0a3b16e07647b2ff9","5f60e9fd5de76100085800df","false","null","<div style=""align-items: center; display: flex; color: darkorange; font-size: 90px""><b>ø</b></div>","null","","","","forget_cue","","","","","","","","","","","","","","","",""
"html-keyboard-response","183","584723","0.0-4.0-1.0-0.22","o902y5uqckm6jk4","prime","5e94647a576588000b3d2892","5f60e3c0a3b16e07647b2ff9","5f60e9fd5de76100085800df","false","null","<span style=""color: black; font-size: 48px"">M + N</span>","null","","","","resp_prompt","","","","","","","","","","","","","","","",""
"categorize-image","184","585713","0.0-4.0-1.0-1.22","o902y5uqckm6jk4","prime","5e94647a576588000b3d2892","5f60e3c0a3b16e07647b2ff9","5f60e9fd5de76100085800df","true","985.8400000011316","./Stimuli/SelectedImages/SN/SN60.bmp","76","","","","test","true","M + N","76","switch","SN","SN60.bmp","forget","","71","3","prime1","right","","","",""
"html-keyboard-response","185","587718","0.0-4.0-1.0-3.22","o902y5uqckm6jk4","prime","5e94647a576588000b3d2892","5f60e3c0a3b16e07647b2ff9","5f60e9fd5de76100085800df","false","null","<div style=""align-items: center; display: flex; color: darkorange; font-size: 90px""><b>ø</b></div>","null","","","","forget_cue","","","","","","","","","","","","","","","",""
"html-keyboard-response","186","588424","0.0-4.0-1.0-0.23","o902y5uqckm6jk4","prime","5e94647a576588000b3d2892","5f60e3c0a3b16e07647b2ff9","5f60e9fd5de76100085800df","false","null","<span style=""color: black; font-size: 48px"">N + M</span>","null","","","","resp_prompt","","","","","","","","","","","","","","","",""
"categorize-image","187","589604","0.0-4.0-1.0-1.23","o902y5uqckm6jk4","prime","5e94647a576588000b3d2892","5f60e3c0a3b16e07647b2ff9","5f60e9fd5de76100085800df","true","1175.3850000022212","./Stimuli/SelectedImages/LM/LM75.bmp","76","","","","test","true","N + M","76","repetition","LM","LM75.bmp","forget","","72","3","prime1","right","","","",""
"html-keyboard-response","188","591608","0.0-4.0-1.0-3.23","o902y5uqckm6jk4","prime","5e94647a576588000b3d2892","5f60e3c0a3b16e07647b2ff9","5f60e9fd5de76100085800df","false","null","<div style=""align-items: center; display: flex; color: darkorange; font-size: 90px""><b>ø</b></div>","null","","","","forget_cue","","","","","","","","","","","","","","","",""
"html-keyboard-response","189","592310","0.0-4.0-1.0-0.24","o902y5uqckm6jk4","prime","5e94647a576588000b3d2892","5f60e3c0a3b16e07647b2ff9","5f60e9fd5de76100085800df","false","null","<span style=""color: black; font-size: 48px"">M + N</span>","null","","","","resp_prompt","","","","","","","","","","","","","","","",""
"categorize-image","190","593745","0.0-4.0-1.0-1.24","o902y5uqckm6jk4","prime","5e94647a576588000b3d2892","5f60e3c0a3b16e07647b2ff9","5f60e9fd5de76100085800df","true","1429.4049999988638","./Stimuli/SelectedImages/LN/LN150.bmp","76","","","","test","true","M + N","76","switch","LN","LN150.bmp","forget","","73","3","prime1","right","","","",""
"html-keyboard-response","191","595750","0.0-4.0-1.0-3.24","o902y5uqckm6jk4","prime","5e94647a576588000b3d2892","5f60e3c0a3b16e07647b2ff9","5f60e9fd5de76100085800df","false","null","<div style=""align-items: center; display: flex; color: darkorange; font-size: 90px""><b>ø</b></div>","null","","","","forget_cue","","","","","","","","","","","","","","","",""
"html-keyboard-response","192","596456","0.0-4.0-1.0-0.25","o902y5uqckm6jk4","prime","5e94647a576588000b3d2892","5f60e3c0a3b16e07647b2ff9","5f60e9fd5de76100085800df","false","null","<span style=""color: black; font-size: 48px"">N + M</span>","null","","","","resp_prompt","","","","","","","","","","","","","","","",""
"categorize-image","193","597128","0.0-4.0-1.0-1.25","o902y5uqckm6jk4","prime","5e94647a576588000b3d2892","5f60e3c0a3b16e07647b2ff9","5f60e9fd5de76100085800df","true","666.5150000008289","./Stimuli/SelectedImages/SN/SN52.bmp","83","","","","test","true","N + M","83","repetition","SN","SN52.bmp","forget","","74","3","prime1","left","","","",""
"html-keyboard-response","194","599132","0.0-4.0-1.0-3.25","o902y5uqckm6jk4","prime","5e94647a576588000b3d2892","5f60e3c0a3b16e07647b2ff9","5f60e9fd5de76100085800df","false","null","<div style=""align-items: center; display: flex; color: darkorange; font-size: 90px""><b>ø</b></div>","null","","","","forget_cue","","","","","","","","","","","","","","","",""
"html-keyboard-response","195","599839","0.0-4.0-1.0-0.26","o902y5uqckm6jk4","prime","5e94647a576588000b3d2892","5f60e3c0a3b16e07647b2ff9","5f60e9fd5de76100085800df","false","null","<span style=""color: black; font-size: 48px"">N + M</span>","null","","","","resp_prompt","","","","","","","","","","","","","","","",""
"categorize-image","196","601548","0.0-4.0-1.0-1.26","o902y5uqckm6jk4","prime","5e94647a576588000b3d2892","5f60e3c0a3b16e07647b2ff9","5f60e9fd5de76100085800df","true","1704.5199999993201","./Stimuli/SelectedImages/LM/LM51.bmp","76","","","","test","true","N + M","76","repetition","LM","LM51.bmp","remember","","75","3","prime1","right","","","",""
"html-keyboard-response","197","603552","0.0-4.0-1.0-3.26","o902y5uqckm6jk4","prime","5e94647a576588000b3d2892","5f60e3c0a3b16e07647b2ff9","5f60e9fd5de76100085800df","false","null","<div style=""align-items: center; display: flex; color: dodgerblue; font-size: 90px""><b>o</b></div>","null","","","","forget_cue","","","","","","","","","","","","","","","",""
"html-keyboard-response","198","604259","0.0-4.0-1.0-0.27","o902y5uqckm6jk4","prime","5e94647a576588000b3d2892","5f60e3c0a3b16e07647b2ff9","5f60e9fd5de76100085800df","false","null","<span style=""color: black; font-size: 48px"">N + M</span>","null","","","","resp_prompt","","","","","","","","","","","","","","","",""
"categorize-image","199","605349","0.0-4.0-1.0-1.27","o902y5uqckm6jk4","prime","5e94647a576588000b3d2892","5f60e3c0a3b16e07647b2ff9","5f60e9fd5de76100085800df","true","1085.6300000014016","./Stimuli/SelectedImages/SM/SM148.bmp","76","","","","test","true","N + M","76","switch","SM","SM148.bmp","forget","","76","3","prime1","right","","","",""
"html-keyboard-response","200","607351","0.0-4.0-1.0-3.27","o902y5uqckm6jk4","prime","5e94647a576588000b3d2892","5f60e3c0a3b16e07647b2ff9","5f60e9fd5de76100085800df","false","null","<div style=""align-items: center; display: flex; color: darkorange; font-size: 90px""><b>ø</b></div>","null","","","","forget_cue","","","","","","","","","","","","","","","",""
"html-keyboard-response","201","608056","0.0-4.0-1.0-0.28","o902y5uqckm6jk4","prime","5e94647a576588000b3d2892","5f60e3c0a3b16e07647b2ff9","5f60e9fd5de76100085800df","false","null","<span style=""color: black; font-size: 48px"">N + M</span>","null","","","","resp_prompt","","","","","","","","","","","","","","","",""
"categorize-image","202","608913","0.0-4.0-1.0-1.28","o902y5uqckm6jk4","prime","5e94647a576588000b3d2892","5f60e3c0a3b16e07647b2ff9","5f60e9fd5de76100085800df","true","852.6200000015087","./Stimuli/SelectedImages/SM/SM207.bmp","76","","","","test","true","N + M","76","repetition","SM","SM207.bmp","forget","","77","3","prime1","right","","","",""
"html-keyboard-response","203","610916","0.0-4.0-1.0-3.28","o902y5uqckm6jk4","prime","5e94647a576588000b3d2892","5f60e3c0a3b16e07647b2ff9","5f60e9fd5de76100085800df","false","null","<div style=""align-items: center; display: flex; color: darkorange; font-size: 90px""><b>ø</b></div>","null","","","","forget_cue","","","","","","","","","","","","","","","",""
"html-keyboard-response","204","611623","0.0-4.0-1.0-0.29","o902y5uqckm6jk4","prime","5e94647a576588000b3d2892","5f60e3c0a3b16e07647b2ff9","5f60e9fd5de76100085800df","false","null","<span style=""color: black; font-size: 48px"">N + M</span>","null","","","","resp_prompt","","","","","","","","","","","","","","","",""
"categorize-image","205","612999","0.0-4.0-1.0-1.29","o902y5uqckm6jk4","prime","5e94647a576588000b3d2892","5f60e3c0a3b16e07647b2ff9","5f60e9fd5de76100085800df","true","1371.950000000652","./Stimuli/SelectedImages/LM/LM58.bmp","76","","","","test","true","N + M","76","switch","LM","LM58.bmp","forget","","78","3","prime1","right","","","",""
"html-keyboard-response","206","615002","0.0-4.0-1.0-3.29","o902y5uqckm6jk4","prime","5e94647a576588000b3d2892","5f60e3c0a3b16e07647b2ff9","5f60e9fd5de76100085800df","false","null","<div style=""align-items: center; display: flex; color: darkorange; font-size: 90px""><b>ø</b></div>","null","","","","forget_cue","","","","","","","","","","","","","","","",""
"html-keyboard-response","207","615703","0.0-4.0-1.0-0.30","o902y5uqckm6jk4","prime","5e94647a576588000b3d2892","5f60e3c0a3b16e07647b2ff9","5f60e9fd5de76100085800df","false","null","<span style=""color: black; font-size: 48px"">M + N</span>","null","","","","resp_prompt","","","","","","","","","","","","","","","",""
"categorize-image","208","617015","0.0-4.0-1.0-1.30","o902y5uqckm6jk4","prime","5e94647a576588000b3d2892","5f60e3c0a3b16e07647b2ff9","5f60e9fd5de76100085800df","true","1307.3900000017602","./Stimuli/SelectedImages/LM/LM209.bmp","83","","","","test","true","M + N","83","switch","LM","LM209.bmp","forget","","79","3","prime1","left","","","",""
"html-keyboard-response","209","619018","0.0-4.0-1.0-3.30","o902y5uqckm6jk4","prime","5e94647a576588000b3d2892","5f60e3c0a3b16e07647b2ff9","5f60e9fd5de76100085800df","false","null","<div style=""align-items: center; display: flex; color: darkorange; font-size: 90px""><b>ø</b></div>","null","","","","forget_cue","","","","","","","","","","","","","","","",""
"html-keyboard-response","210","619724","0.0-4.0-1.0-0.31","o902y5uqckm6jk4","prime","5e94647a576588000b3d2892","5f60e3c0a3b16e07647b2ff9","5f60e9fd5de76100085800df","false","null","<span style=""color: black; font-size: 48px"">M + N</span>","null","","","","resp_prompt","","","","","","","","","","","","","","","",""
"categorize-image","211","620648","0.0-4.0-1.0-1.31","o902y5uqckm6jk4","prime","5e94647a576588000b3d2892","5f60e3c0a3b16e07647b2ff9","5f60e9fd5de76100085800df","true","918.5700000015786","./Stimuli/SelectedImages/SN/SN187.bmp","76","","","","test","true","M + N","76","repetition","SN","SN187.bmp","forget","","80","3","prime1","right","","","",""
"html-keyboard-response","212","622653","0.0-4.0-1.0-3.31","o902y5uqckm6jk4","prime","5e94647a576588000b3d2892","5f60e3c0a3b16e07647b2ff9","5f60e9fd5de76100085800df","false","null","<div style=""align-items: center; display: flex; color: darkorange; font-size: 90px""><b>ø</b></div>","null","","","","forget_cue","","","","","","","","","","","","","","","",""
"html-keyboard-response","213","623355","0.0-4.0-1.0-0.32","o902y5uqckm6jk4","prime","5e94647a576588000b3d2892","5f60e3c0a3b16e07647b2ff9","5f60e9fd5de76100085800df","false","null","<span style=""color: black; font-size: 48px"">N + M</span>","null","","","","resp_prompt","","","","","","","","","","","","","","","",""
"categorize-image","214","624010","0.0-4.0-1.0-1.32","o902y5uqckm6jk4","prime","5e94647a576588000b3d2892","5f60e3c0a3b16e07647b2ff9","5f60e9fd5de76100085800df","true","651.6100000008009","./Stimuli/SelectedImages/SN/SN155.bmp","83","","","","test","true","N + M","83","switch","SN","SN155.bmp","remember","","81","3","prime1","left","","","",""
"html-keyboard-response","215","626017","0.0-4.0-1.0-3.32","o902y5uqckm6jk4","prime","5e94647a576588000b3d2892","5f60e3c0a3b16e07647b2ff9","5f60e9fd5de76100085800df","false","null","<div style=""align-items: center; display: flex; color: dodgerblue; font-size: 90px""><b>o</b></div>","null","","","","forget_cue","","","","","","","","","","","","","","","",""
"html-keyboard-response","216","626723","0.0-4.0-1.0-0.33","o902y5uqckm6jk4","prime","5e94647a576588000b3d2892","5f60e3c0a3b16e07647b2ff9","5f60e9fd5de76100085800df","false","null","<span style=""color: black; font-size: 48px"">M + N</span>","null","","","","resp_prompt","","","","","","","","","","","","","","","",""
"categorize-image","217","628082","0.0-4.0-1.0-1.33","o902y5uqckm6jk4","prime","5e94647a576588000b3d2892","5f60e3c0a3b16e07647b2ff9","5f60e9fd5de76100085800df","true","1354.6299999979092","./Stimuli/SelectedImages/LN/LN166.bmp","76","","","","test","true","M + N","76","switch","LN","LN166.bmp","forget","","82","3","prime1","right","","","",""
"html-keyboard-response","218","630084","0.0-4.0-1.0-3.33","o902y5uqckm6jk4","prime","5e94647a576588000b3d2892","5f60e3c0a3b16e07647b2ff9","5f60e9fd5de76100085800df","false","null","<div style=""align-items: center; display: flex; color: darkorange; font-size: 90px""><b>ø</b></div>","null","","","","forget_cue","","","","","","","","","","","","","","","",""
"html-keyboard-response","219","630790","0.0-4.0-1.0-0.34","o902y5uqckm6jk4","prime","5e94647a576588000b3d2892","5f60e3c0a3b16e07647b2ff9","5f60e9fd5de76100085800df","false","null","<span style=""color: black; font-size: 48px"">M + N</span>","null","","","","resp_prompt","","","","","","","","","","","","","","","",""
"categorize-image","220","631604","0.0-4.0-1.0-1.34","o902y5uqckm6jk4","prime","5e94647a576588000b3d2892","5f60e3c0a3b16e07647b2ff9","5f60e9fd5de76100085800df","true","809.8900000004796","./Stimuli/SelectedImages/LN/LN12.bmp","76","","","","test","true","M + N","76","switch","LN","LN12.bmp","remember","","83","3","prime1","right","","","",""
"html-keyboard-response","221","633609","0.0-4.0-1.0-3.34","o902y5uqckm6jk4","prime","5e94647a576588000b3d2892","5f60e3c0a3b16e07647b2ff9","5f60e9fd5de76100085800df","false","null","<div style=""align-items: center; display: flex; color: dodgerblue; font-size: 90px""><b>o</b></div>","null","","","","forget_cue","","","","","","","","","","","","","","","",""
"html-keyboard-response","222","634312","0.0-4.0-1.0-0.35","o902y5uqckm6jk4","prime","5e94647a576588000b3d2892","5f60e3c0a3b16e07647b2ff9","5f60e9fd5de76100085800df","false","null","<span style=""color: black; font-size: 48px"">N + M</span>","null","","","","resp_prompt","","","","","","","","","","","","","","","",""
"categorize-image","223","635124","0.0-4.0-1.0-1.35","o902y5uqckm6jk4","prime","5e94647a576588000b3d2892","5f60e3c0a3b16e07647b2ff9","5f60e9fd5de76100085800df","true","808.2850000028266","./Stimuli/SelectedImages/SN/SN111.bmp","83","","","","test","true","N + M","83","switch","SN","SN111.bmp","forget","","84","3","prime1","left","","","",""
"html-keyboard-response","224","637130","0.0-4.0-1.0-3.35","o902y5uqckm6jk4","prime","5e94647a576588000b3d2892","5f60e3c0a3b16e07647b2ff9","5f60e9fd5de76100085800df","false","null","<div style=""align-items: center; display: flex; color: darkorange; font-size: 90px""><b>ø</b></div>","null","","","","forget_cue","","","","","","","","","","","","","","","",""
"html-keyboard-response","225","637832","0.0-4.0-1.0-0.36","o902y5uqckm6jk4","prime","5e94647a576588000b3d2892","5f60e3c0a3b16e07647b2ff9","5f60e9fd5de76100085800df","false","null","<span style=""color: black; font-size: 48px"">M + N</span>","null","","","","resp_prompt","","","","","","","","","","","","","","","",""
"categorize-image","226","638851","0.0-4.0-1.0-1.36","o902y5uqckm6jk4","prime","5e94647a576588000b3d2892","5f60e3c0a3b16e07647b2ff9","5f60e9fd5de76100085800df","true","1014.4849999996368","./Stimuli/SelectedImages/SN/SN64.bmp","76","","","","test","true","M + N","76","switch","SN","SN64.bmp","forget","","85","3","prime1","right","","","",""
"html-keyboard-response","227","640856","0.0-4.0-1.0-3.36","o902y5uqckm6jk4","prime","5e94647a576588000b3d2892","5f60e3c0a3b16e07647b2ff9","5f60e9fd5de76100085800df","false","null","<div style=""align-items: center; display: flex; color: darkorange; font-size: 90px""><b>ø</b></div>","null","","","","forget_cue","","","","","","","","","","","","","","","",""
"html-keyboard-response","228","641559","0.0-4.0-1.0-0.37","o902y5uqckm6jk4","prime","5e94647a576588000b3d2892","5f60e3c0a3b16e07647b2ff9","5f60e9fd5de76100085800df","false","null","<span style=""color: black; font-size: 48px"">M + N</span>","null","","","","resp_prompt","","","","","","","","","","","","","","","",""
"categorize-image","229","643568","0.0-4.0-1.0-1.37","o902y5uqckm6jk4","prime","5e94647a576588000b3d2892","5f60e3c0a3b16e07647b2ff9","5f60e9fd5de76100085800df","true","null","./Stimuli/SelectedImages/SM/SM24.bmp","null","","","","test","false","M + N","83","switch","SM","SM24.bmp","remember","","86","3","prime1","too_slow","","","",""
"html-keyboard-response","230","644073","0.0-4.0-1.0-2.37-0.37","o902y5uqckm6jk4","prime","5e94647a576588000b3d2892","5f60e3c0a3b16e07647b2ff9","5f60e9fd5de76100085800df","false","null","<span style=""color: red; font-size: 48px"">Too slow!</span>","null","","","","feedback","","","","","","","","","","","","","","","",""
"html-keyboard-response","231","646075","0.0-4.0-1.0-3.37","o902y5uqckm6jk4","prime","5e94647a576588000b3d2892","5f60e3c0a3b16e07647b2ff9","5f60e9fd5de76100085800df","false","null","<div style=""align-items: center; display: flex; color: dodgerblue; font-size: 90px""><b>o</b></div>","null","","","","forget_cue","","","","","","","","","","","","","","","",""
"html-keyboard-response","232","646779","0.0-4.0-1.0-0.38","o902y5uqckm6jk4","prime","5e94647a576588000b3d2892","5f60e3c0a3b16e07647b2ff9","5f60e9fd5de76100085800df","false","null","<span style=""color: black; font-size: 48px"">N + M</span>","null","","","","resp_prompt","","","","","","","","","","","","","","","",""
"categorize-image","233","647574","0.0-4.0-1.0-1.38","o902y5uqckm6jk4","prime","5e94647a576588000b3d2892","5f60e3c0a3b16e07647b2ff9","5f60e9fd5de76100085800df","true","790.5100000025705","./Stimuli/SelectedImages/SN/SN18.bmp","83","","","","test","true","N + M","83","repetition","SN","SN18.bmp","remember","","87","3","prime1","left","","","",""
"html-keyboard-response","234","649578","0.0-4.0-1.0-3.38","o902y5uqckm6jk4","prime","5e94647a576588000b3d2892","5f60e3c0a3b16e07647b2ff9","5f60e9fd5de76100085800df","false","null","<div style=""align-items: center; display: flex; color: dodgerblue; font-size: 90px""><b>o</b></div>","null","","","","forget_cue","","","","","","","","","","","","","","","",""
"html-keyboard-response","235","650284","0.0-4.0-1.0-0.39","o902y5uqckm6jk4","prime","5e94647a576588000b3d2892","5f60e3c0a3b16e07647b2ff9","5f60e9fd5de76100085800df","false","null","<span style=""color: black; font-size: 48px"">M + N</span>","null","","","","resp_prompt","","","","","","","","","","","","","","","",""
"categorize-image","236","651418","0.0-4.0-1.0-1.39","o902y5uqckm6jk4","prime","5e94647a576588000b3d2892","5f60e3c0a3b16e07647b2ff9","5f60e9fd5de76100085800df","true","1129.3200000000652","./Stimuli/SelectedImages/LN/LN128.bmp","76","","","","test","true","M + N","76","repetition","LN","LN128.bmp","remember","","88","3","prime1","right","","","",""
"html-keyboard-response","237","653420","0.0-4.0-1.0-3.39","o902y5uqckm6jk4","prime","5e94647a576588000b3d2892","5f60e3c0a3b16e07647b2ff9","5f60e9fd5de76100085800df","false","null","<div style=""align-items: center; display: flex; color: dodgerblue; font-size: 90px""><b>o</b></div>","null","","","","forget_cue","","","","","","","","","","","","","","","",""
"html-keyboard-response","238","654125","0.0-4.0-1.0-0.40","o902y5uqckm6jk4","prime","5e94647a576588000b3d2892","5f60e3c0a3b16e07647b2ff9","5f60e9fd5de76100085800df","false","null","<span style=""color: black; font-size: 48px"">M + N</span>","null","","","","resp_prompt","","","","","","","","","","","","","","","",""
"categorize-image","239","655062","0.0-4.0-1.0-1.40","o902y5uqckm6jk4","prime","5e94647a576588000b3d2892","5f60e3c0a3b16e07647b2ff9","5f60e9fd5de76100085800df","true","932.5649999991292","./Stimuli/SelectedImages/SN/SN93.bmp","76","","","","test","true","M + N","76","repetition","SN","SN93.bmp","remember","","89","3","prime1","right","","","",""
"html-keyboard-response","240","657064","0.0-4.0-1.0-3.40","o902y5uqckm6jk4","prime","5e94647a576588000b3d2892","5f60e3c0a3b16e07647b2ff9","5f60e9fd5de76100085800df","false","null","<div style=""align-items: center; display: flex; color: dodgerblue; font-size: 90px""><b>o</b></div>","null","","","","forget_cue","","","","","","","","","","","","","","","",""
"html-keyboard-response","241","657770","0.0-4.0-1.0-0.41","o902y5uqckm6jk4","prime","5e94647a576588000b3d2892","5f60e3c0a3b16e07647b2ff9","5f60e9fd5de76100085800df","false","null","<span style=""color: black; font-size: 48px"">M + N</span>","null","","","","resp_prompt","","","","","","","","","","","","","","","",""
"categorize-image","242","658509","0.0-4.0-1.0-1.41","o902y5uqckm6jk4","prime","5e94647a576588000b3d2892","5f60e3c0a3b16e07647b2ff9","5f60e9fd5de76100085800df","true","733.3500000021886","./Stimuli/SelectedImages/LM/LM129.bmp","83","","","","test","true","M + N","83","switch","LM","LM129.bmp","remember","","90","3","prime1","left","","","",""
"html-keyboard-response","243","660514","0.0-4.0-1.0-3.41","o902y5uqckm6jk4","prime","5e94647a576588000b3d2892","5f60e3c0a3b16e07647b2ff9","5f60e9fd5de76100085800df","false","null","<div style=""align-items: center; display: flex; color: dodgerblue; font-size: 90px""><b>o</b></div>","null","","","","forget_cue","","","","","","","","","","","","","","","",""
"html-keyboard-response","244","661220","0.0-4.0-1.0-0.42","o902y5uqckm6jk4","prime","5e94647a576588000b3d2892","5f60e3c0a3b16e07647b2ff9","5f60e9fd5de76100085800df","false","null","<span style=""color: black; font-size: 48px"">N + M</span>","null","","","","resp_prompt","","","","","","","","","","","","","","","",""
"categorize-image","245","662261","0.0-4.0-1.0-1.42","o902y5uqckm6jk4","prime","5e94647a576588000b3d2892","5f60e3c0a3b16e07647b2ff9","5f60e9fd5de76100085800df","true","1036.5400000009686","./Stimuli/SelectedImages/LN/LN9.bmp","83","","","","test","true","N + M","83","repetition","LN","LN9.bmp","forget","","91","3","prime1","left","","","",""
"html-keyboard-response","246","664264","0.0-4.0-1.0-3.42","o902y5uqckm6jk4","prime","5e94647a576588000b3d2892","5f60e3c0a3b16e07647b2ff9","5f60e9fd5de76100085800df","false","null","<div style=""align-items: center; display: flex; color: darkorange; font-size: 90px""><b>ø</b></div>","null","","","","forget_cue","","","","","","","","","","","","","","","",""
"html-keyboard-response","247","664967","0.0-4.0-1.0-0.43","o902y5uqckm6jk4","prime","5e94647a576588000b3d2892","5f60e3c0a3b16e07647b2ff9","5f60e9fd5de76100085800df","false","null","<span style=""color: black; font-size: 48px"">M + N</span>","null","","","","resp_prompt","","","","","","","","","","","","","","","",""
"categorize-image","248","665779","0.0-4.0-1.0-1.43","o902y5uqckm6jk4","prime","5e94647a576588000b3d2892","5f60e3c0a3b16e07647b2ff9","5f60e9fd5de76100085800df","true","807.4199999973644","./Stimuli/SelectedImages/LN/LN149.bmp","76","","","","test","true","M + N","76","repetition","LN","LN149.bmp","forget","","92","3","prime1","right","","","",""
"html-keyboard-response","249","667782","0.0-4.0-1.0-3.43","o902y5uqckm6jk4","prime","5e94647a576588000b3d2892","5f60e3c0a3b16e07647b2ff9","5f60e9fd5de76100085800df","false","null","<div style=""align-items: center; display: flex; color: darkorange; font-size: 90px""><b>ø</b></div>","null","","","","forget_cue","","","","","","","","","","","","","","","",""
"html-keyboard-response","250","668488","0.0-4.0-1.0-0.44","o902y5uqckm6jk4","prime","5e94647a576588000b3d2892","5f60e3c0a3b16e07647b2ff9","5f60e9fd5de76100085800df","false","null","<span style=""color: black; font-size: 48px"">M + N</span>","null","","","","resp_prompt","","","","","","","","","","","","","","","",""
"categorize-image","251","669220","0.0-4.0-1.0-1.44","o902y5uqckm6jk4","prime","5e94647a576588000b3d2892","5f60e3c0a3b16e07647b2ff9","5f60e9fd5de76100085800df","true","726.0999999998603","./Stimuli/SelectedImages/SN/SN27.bmp","76","","","","test","true","M + N","76","repetition","SN","SN27.bmp","remember","","93","3","prime1","right","","","",""
"html-keyboard-response","252","671225","0.0-4.0-1.0-3.44","o902y5uqckm6jk4","prime","5e94647a576588000b3d2892","5f60e3c0a3b16e07647b2ff9","5f60e9fd5de76100085800df","false","null","<div style=""align-items: center; display: flex; color: dodgerblue; font-size: 90px""><b>o</b></div>","null","","","","forget_cue","","","","","","","","","","","","","","","",""
