"trial_type","trial_index","time_elapsed","internal_node_id","subject","exp_part","prolific_PID","study_ID","session_ID","use","rt","stimulus","key_press","button_pressed","responses","question_order","trial_part","correct","resp_map","correct_resp","probe_condition","category","image","forget_condition","list","trial_num","block_num","block","response","test_part","n_span","sequence","num_spaces"
"pavlovia","0","5","0.0-0.0","vbzrnbl0wy3zsna","","5f19ad917bbdf2021cafbedc","5f60e3c0a3b16e07647b2ff9","5f63801ff85e180641bda2d8","false","","","","","","","","","","","","","","","","","","","","","","",""
"html-keyboard-response","1","149187","0.0-1.0-0.0-0.0","vbzrnbl0wy3zsna","welcome","5f19ad917bbdf2021cafbedc","5f60e3c0a3b16e07647b2ff9","5f63801ff85e180641bda2d8","false","149178.71499998728","<div align=left>Dear participant, <br> thank you for participating in an online study of the Cognition, Action, and Sustainability Unit of the University of Freiburg! <br> <br>The aim of this study is to examine our ability to remember previously learned information. <br>Our goal is to find out, whether our memory improves, when we only remember information that is relevant to us. <br>The experiment will take about 35 minutes to complete. <br> <br>Please, note that you can only participate in this study if you are using a device with a keyboard (PC, Laptop etc.) <br>and not if you are using a mobile device such as a tablet or smartphone.<br> <br>Press 'SPACE' to proceed to the experiment. </div>","32","","","","","","","","","","","","","","","","","","","",""
"html-keyboard-response","2","321558","0.0-1.0-0.0-1.0","vbzrnbl0wy3zsna","welcome","5f19ad917bbdf2021cafbedc","5f60e3c0a3b16e07647b2ff9","5f63801ff85e180641bda2d8","false","172369.44500001846","<div align=left><strong> Time Course of this experiment: </strong> <br><br> <strong> 1.</strong>  First, please fill in some information regarding your demographic data. <br><br> <strong> 2.</strong>  Next, your task will be to classify everyday objects. <br>In addition, you will be asked to remember certain objects and recall them later. <br>Working on these tasks requires your undivided attention and concentration.<br>It is therefore essential that you eliminate any sources of distraction in your  <br>environment and ensure that you will not be disturbed. <br><br><strong> 3.</strong>  At the end of the experiment, you will be asked to answer a few additional questions. <br> <br><strong> Important:</strong> After finishing the experiment, only close the browser window <br> by clicking on the 'end the experiment'-button when you are asked to do so. <br>Closing the browser window prematurely will make the allocation of your participation credit impossible. <br><br> Press 'SPACE' to start the experiment. </div>","32","","","","","","","","","","","","","","","","","","","",""
"html-button-response","3","344225","0.0-1.0-0.0-2.0","vbzrnbl0wy3zsna","welcome","5f19ad917bbdf2021cafbedc","5f60e3c0a3b16e07647b2ff9","5f63801ff85e180641bda2d8","true","22665.20499996841","<div align=left><strong> Informed consent </strong>  <br>The aim of our research is to better understand human behavior and mental processes. <br>In the following study your behavior (e.g. choices, reaction times) will be studied. <br> <br><strong> Voluntariness and Anonymity </strong> <br>Your participation in this study is  <strong> voluntary</strong>.<br>You may withdraw your consent to participate at any time without providing a reason for doing so and without fear of prejudice. <br><br>As no personal data will be collected, <strong>your data and your person cannot be connected after data collection</strong> – the data-set is anonymous. <br>Respectively, deletion of your data will not be possible after data collection has been completed, as we cannot retrace your data-set.<br>The results and anonymized data collected in this study will be published as a scientific publication. <br>This will happen in an <strong>anonymized format</strong>, so that no data can be traced back to a specific person. <br> <br>The anonymized data of this study will be made available to other researchers and/or in a data archive on the Internet as a means of transparency and to enable subsequent re-use. By doing so, this study follows the recommendations of the Deutsche Forschungsgemeinschaft (DFG, German Research Foundation) and Deutsche Gesellschaft für Psychologie (DGPS, German Psychological Society) regarding quality assurance in research.<br>If you have any questions now or after the experiment, please contact our team (experiments@cs.uni-freiburg.de).<br><br><br>I hereby declare, that I understand the above described conditions of participation and I agree to participate under these conditions. <br><br> </div>","","0","","","","","","","","","","","","","","","","","","",""
"html-keyboard-response","4","366441","0.0-1.0-0.0-3.0","vbzrnbl0wy3zsna","welcome","5f19ad917bbdf2021cafbedc","5f60e3c0a3b16e07647b2ff9","5f63801ff85e180641bda2d8","false","22213.965000002645","<div align=left><strong> General information concerning the experiment </strong>  <br> <br>Please follow the instructions:<ol> <li><strong> Do not leave this tab (your browser window) during the experiment and do not reload this tab! </strong>  <br>If you do switch tabs/windows during the experiment (to check your mail or visit another website, for example), <br>the experiment will end automatically and you will <strong>not receive credit</strong> for your participation. <br>Repeated participation or resumption of the experiment is impossible.</li> <br><li>Please close all other programs for the duration of your participation. </li> <br><li>Please mute or turn off your phone and put it out of your reach. </li> <br><li>Please also take off any disturbing accessories (such as wristwatches, bracelets, etc.). </li> <br><li>If you have music playing in the background, please turn it off now. </li> <br></ol>Thank you! <br>Press 'SPACE' to continue. </div>","32","","","","","","","","","","","","","","","","","","","",""
"survey-text","5","372301","0.0-1.0-1.0-0.0","vbzrnbl0wy3zsna","demographics","5f19ad917bbdf2021cafbedc","5f60e3c0a3b16e07647b2ff9","5f63801ff85e180641bda2d8","true","5854.2100000195205","","","","{""age"":""35""}","","","","","","","","","","","","","","","","","",""
"survey-multi-choice","6","410682","0.0-1.0-1.0-1.0","vbzrnbl0wy3zsna","demographics","5f19ad917bbdf2021cafbedc","5f60e3c0a3b16e07647b2ff9","5f63801ff85e180641bda2d8","true","38377.3649999639","","","","{""gender"":""female"",""school"":""high school"",""education"":""other""}","[0,1,2]","","","","","","","","","","","","","","","","",""
"html-keyboard-response","7","431738","0.0-1.0-2.0","vbzrnbl0wy3zsna","instructions","5f19ad917bbdf2021cafbedc","5f60e3c0a3b16e07647b2ff9","5f63801ff85e180641bda2d8","false","21053.599999984726","<div align=left> The experiment is now about to start: <br> <br>In the following part, you will be presented pictures of everyday objects. <br>Your first task is to <strong>classify these objects. </strong> <br> <br> You will classify them either as mechanical or non-mechanical objects. <br> <br>Objects that include any kind of technical mechanism (for example, wheels, switches, levers, <br> electronic components) fall under the category of <strong>mechanical</strong> objects. <br>Only objects without any kind of technical mechanism should be classified as <strong>non-mechanical</strong>. <br><br>Press 'SPACE' to continue. </div>","32","","","","","","","","","","","","","","","","","","","",""
"html-keyboard-response","8","548606","0.0-2.0-0.0","vbzrnbl0wy3zsna","instructions","5f19ad917bbdf2021cafbedc","5f60e3c0a3b16e07647b2ff9","5f63801ff85e180641bda2d8","false","116866.64500000188","<div align=justify>You will classify the objects using the <strong>'S'</strong> and the <strong>'L'</strong> keys on your keyboard.<br>For doing so, please place your <strong>left index finger</strong> on the <strong>'S'</strong> key and place your <strong>right index finger</strong> on the <strong>'L'</strong> key. <br><br> Each trial starts with an instruction, indicating which key ('S'/'L') you need to press to classify <br>the object as mechanical (letter M) or non-mechanical (letter N).<br>The instruction <strong>M + N</strong> indicates that, in the current trial, by pressing the left key ('S') you classify the displayed object as mechanical (M) <br> and by pressing the right key ('L') you classify the object as non-mechanical (N). <br>The instruction <strong>N + M</strong> on the other hand indicates that by pressing the left key ('S') you classify the displayed object as non-mechanical (N) <br> and by pressing the right key ('L') you classify the object as mechanical (M). <br><br>Please press the key corresponding to the correct classification as fast as possible as soon as the object is displayed and try to avoid making mistakes.<br>If you do not respond within a 2 second window, a corresponding feedback will be displayed and the next trial will start.<br> The experiment is divided into multiple blocks to give you the opportunity to take a break after each block. <br>First, you can now practice this task. <br><br>Please place your <strong>LEFT INDEX FINGER</strong> on the 'S' key and your <strong>RIGHT INDEX FINGER</strong> on the 'L' key now. <br><br>Press SPACE to continue.</div>","32","","","","","","","","","","","","","","","","","","","",""
"html-keyboard-response","9","558153","0.0-2.0-1.0","vbzrnbl0wy3zsna","instructions","5f19ad917bbdf2021cafbedc","5f60e3c0a3b16e07647b2ff9","5f63801ff85e180641bda2d8","false","9545.370000007097","<div align=left> You will now have time to practice this task.<br><br>Remember: <br> <br><li>Please place your index fingers on the <strong>'S'</strong> and <strong>'L'</strong> keys <br>to respond as fast and accurately as possible.</li><li>Every picture can be classified as either mechanical or non-mechanical.</li><li>If you do not respond in time or commit an error, you will receive a corresponding feedback. </li><li> Please try to respond as <strong> fast </strong> and as <strong> accurately as possible </strong> .<br><li>To ensure optimal results, please minimize distractions and stay focused. </li><br><br>Press SPACE to continue.</div>","32","","","","","","","","","","","","","","","","","","","",""
"html-keyboard-response","10","558855","0.0-2.0-2.0-0.0","vbzrnbl0wy3zsna","practice_no_cue","5f19ad917bbdf2021cafbedc","5f60e3c0a3b16e07647b2ff9","5f63801ff85e180641bda2d8","false","null","<span style=""color: black; font-size: 48px"">M + N</span>","null","","","","resp_prompt","","","","","","","","","","","","","","","",""
"categorize-image","11","561341","0.0-2.0-2.0-1.0","vbzrnbl0wy3zsna","practice_no_cue","5f19ad917bbdf2021cafbedc","5f60e3c0a3b16e07647b2ff9","5f63801ff85e180641bda2d8","true","1983.4200000041164","./Stimuli/ImagesPractice/SN75.jpg","76","","","","test","true","M + N","76","","SN","SN75.jpg","remember","old","1","1","start","right","","","",""
"html-keyboard-response","12","562043","0.0-2.0-2.0-0.1","vbzrnbl0wy3zsna","practice_no_cue","5f19ad917bbdf2021cafbedc","5f60e3c0a3b16e07647b2ff9","5f63801ff85e180641bda2d8","false","null","<span style=""color: black; font-size: 48px"">N + M</span>","null","","","","resp_prompt","","","","","","","","","","","","","","","",""
"categorize-image","13","563714","0.0-2.0-2.0-1.1","vbzrnbl0wy3zsna","practice_no_cue","5f19ad917bbdf2021cafbedc","5f60e3c0a3b16e07647b2ff9","5f63801ff85e180641bda2d8","true","1168.7399999937043","./Stimuli/ImagesPractice/LN2.jpg","76","","","","test","false","N + M","83","","LN","LN2.jpg","forget","old","2","1","start","right","","","",""
"html-keyboard-response","14","564416","0.0-2.0-2.0-0.2","vbzrnbl0wy3zsna","practice_no_cue","5f19ad917bbdf2021cafbedc","5f60e3c0a3b16e07647b2ff9","5f63801ff85e180641bda2d8","false","null","<span style=""color: black; font-size: 48px"">N + M</span>","null","","","","resp_prompt","","","","","","","","","","","","","","","",""
"categorize-image","15","566070","0.0-2.0-2.0-1.2","vbzrnbl0wy3zsna","practice_no_cue","5f19ad917bbdf2021cafbedc","5f60e3c0a3b16e07647b2ff9","5f63801ff85e180641bda2d8","true","1151.7149999854155","./Stimuli/ImagesPractice/SN76.jpg","76","","","","test","false","N + M","83","","SN","SN76.jpg","remember","old","3","1","start","right","","","",""
"html-keyboard-response","16","566772","0.0-2.0-2.0-0.3","vbzrnbl0wy3zsna","practice_no_cue","5f19ad917bbdf2021cafbedc","5f60e3c0a3b16e07647b2ff9","5f63801ff85e180641bda2d8","false","null","<span style=""color: black; font-size: 48px"">N + M</span>","null","","","","resp_prompt","","","","","","","","","","","","","","","",""
"categorize-image","17","568185","0.0-2.0-2.0-1.3","vbzrnbl0wy3zsna","practice_no_cue","5f19ad917bbdf2021cafbedc","5f60e3c0a3b16e07647b2ff9","5f63801ff85e180641bda2d8","true","909.8000000230968","./Stimuli/ImagesPractice/LM147.jpg","83","","","","test","false","N + M","76","","LM","LM147.jpg","remember","old","4","1","start","left","","","",""
"html-keyboard-response","18","568887","0.0-2.0-2.0-0.4","vbzrnbl0wy3zsna","practice_no_cue","5f19ad917bbdf2021cafbedc","5f60e3c0a3b16e07647b2ff9","5f63801ff85e180641bda2d8","false","null","<span style=""color: black; font-size: 48px"">M + N</span>","null","","","","resp_prompt","","","","","","","","","","","","","","","",""
"categorize-image","19","570170","0.0-2.0-2.0-1.4","vbzrnbl0wy3zsna","practice_no_cue","5f19ad917bbdf2021cafbedc","5f60e3c0a3b16e07647b2ff9","5f63801ff85e180641bda2d8","true","781.3099999912083","./Stimuli/ImagesPractice/LM224.jpg","83","","","","test","true","M + N","83","","LM","LM224.jpg","forget","old","5","1","start","left","","","",""
"html-keyboard-response","20","570872","0.0-2.0-2.0-0.5","vbzrnbl0wy3zsna","practice_no_cue","5f19ad917bbdf2021cafbedc","5f60e3c0a3b16e07647b2ff9","5f63801ff85e180641bda2d8","false","null","<span style=""color: black; font-size: 48px"">M + N</span>","null","","","","resp_prompt","","","","","","","","","","","","","","","",""
"categorize-image","21","572314","0.0-2.0-2.0-1.5","vbzrnbl0wy3zsna","practice_no_cue","5f19ad917bbdf2021cafbedc","5f60e3c0a3b16e07647b2ff9","5f63801ff85e180641bda2d8","true","940.0599999935366","./Stimuli/ImagesPractice/SN222.jpg","76","","","","test","true","M + N","76","","SN","SN222.jpg","forget","old","6","1","start","right","","","",""
"html-keyboard-response","22","573016","0.0-2.0-2.0-0.6","vbzrnbl0wy3zsna","practice_no_cue","5f19ad917bbdf2021cafbedc","5f60e3c0a3b16e07647b2ff9","5f63801ff85e180641bda2d8","false","null","<span style=""color: black; font-size: 48px"">M + N</span>","null","","","","resp_prompt","","","","","","","","","","","","","","","",""
"categorize-image","23","574281","0.0-2.0-2.0-1.6","vbzrnbl0wy3zsna","practice_no_cue","5f19ad917bbdf2021cafbedc","5f60e3c0a3b16e07647b2ff9","5f63801ff85e180641bda2d8","true","762.7600000123493","./Stimuli/ImagesPractice/SN220.jpg","76","","","","test","true","M + N","76","","SN","SN220.jpg","forget","old","7","1","start","right","","","",""
"html-keyboard-response","24","574983","0.0-2.0-2.0-0.7","vbzrnbl0wy3zsna","practice_no_cue","5f19ad917bbdf2021cafbedc","5f60e3c0a3b16e07647b2ff9","5f63801ff85e180641bda2d8","false","null","<span style=""color: black; font-size: 48px"">N + M</span>","null","","","","resp_prompt","","","","","","","","","","","","","","","",""
"categorize-image","25","576191","0.0-2.0-2.0-1.7","vbzrnbl0wy3zsna","practice_no_cue","5f19ad917bbdf2021cafbedc","5f60e3c0a3b16e07647b2ff9","5f63801ff85e180641bda2d8","true","705.4650000063702","./Stimuli/ImagesPractice/LM239.jpg","83","","","","test","false","N + M","76","","LM","LM239.jpg","forget","old","8","1","start","left","","","",""
"html-keyboard-response","26","576893","0.0-2.0-2.0-0.8","vbzrnbl0wy3zsna","practice_no_cue","5f19ad917bbdf2021cafbedc","5f60e3c0a3b16e07647b2ff9","5f63801ff85e180641bda2d8","false","null","<span style=""color: black; font-size: 48px"">N + M</span>","null","","","","resp_prompt","","","","","","","","","","","","","","","",""
"categorize-image","27","578443","0.0-2.0-2.0-1.8","vbzrnbl0wy3zsna","practice_no_cue","5f19ad917bbdf2021cafbedc","5f60e3c0a3b16e07647b2ff9","5f63801ff85e180641bda2d8","true","1047.469999990426","./Stimuli/ImagesPractice/SM61.jpg","83","","","","test","false","N + M","76","","SM","SM61.jpg","forget","old","9","1","start","left","","","",""
"html-keyboard-response","28","579145","0.0-2.0-2.0-0.9","vbzrnbl0wy3zsna","practice_no_cue","5f19ad917bbdf2021cafbedc","5f60e3c0a3b16e07647b2ff9","5f63801ff85e180641bda2d8","false","null","<span style=""color: black; font-size: 48px"">M + N</span>","null","","","","resp_prompt","","","","","","","","","","","","","","","",""
"categorize-image","29","581139","0.0-2.0-2.0-1.9","vbzrnbl0wy3zsna","practice_no_cue","5f19ad917bbdf2021cafbedc","5f60e3c0a3b16e07647b2ff9","5f63801ff85e180641bda2d8","true","1492.1000000322238","./Stimuli/ImagesPractice/LN72.jpg","76","","","","test","true","M + N","76","","LN","LN72.jpg","remember","old","10","1","start","right","","","",""
"html-keyboard-response","30","581840","0.0-2.0-2.0-0.10","vbzrnbl0wy3zsna","practice_no_cue","5f19ad917bbdf2021cafbedc","5f60e3c0a3b16e07647b2ff9","5f63801ff85e180641bda2d8","false","null","<span style=""color: black; font-size: 48px"">M + N</span>","null","","","","resp_prompt","","","","","","","","","","","","","","","",""
"categorize-image","31","583324","0.0-2.0-2.0-1.10","vbzrnbl0wy3zsna","practice_no_cue","5f19ad917bbdf2021cafbedc","5f60e3c0a3b16e07647b2ff9","5f63801ff85e180641bda2d8","true","982.3050000122748","./Stimuli/ImagesPractice/LN109.jpg","83","","","","test","false","M + N","76","","LN","LN109.jpg","remember","old","11","1","start","left","","","",""
"html-keyboard-response","32","584025","0.0-2.0-2.0-0.11","vbzrnbl0wy3zsna","practice_no_cue","5f19ad917bbdf2021cafbedc","5f60e3c0a3b16e07647b2ff9","5f63801ff85e180641bda2d8","false","null","<span style=""color: black; font-size: 48px"">N + M</span>","null","","","","resp_prompt","","","","","","","","","","","","","","","",""
"categorize-image","33","585398","0.0-2.0-2.0-1.11","vbzrnbl0wy3zsna","practice_no_cue","5f19ad917bbdf2021cafbedc","5f60e3c0a3b16e07647b2ff9","5f63801ff85e180641bda2d8","true","870.9950000047684","./Stimuli/ImagesPractice/SM62.jpg","83","","","","test","false","N + M","76","","SM","SM62.jpg","remember","old","12","1","start","left","","","",""
"html-keyboard-response","34","586100","0.0-2.0-2.0-0.12","vbzrnbl0wy3zsna","practice_no_cue","5f19ad917bbdf2021cafbedc","5f60e3c0a3b16e07647b2ff9","5f63801ff85e180641bda2d8","false","null","<span style=""color: black; font-size: 48px"">N + M</span>","null","","","","resp_prompt","","","","","","","","","","","","","","","",""
"categorize-image","35","587298","0.0-2.0-2.0-1.12","vbzrnbl0wy3zsna","practice_no_cue","5f19ad917bbdf2021cafbedc","5f60e3c0a3b16e07647b2ff9","5f63801ff85e180641bda2d8","true","696.4799999841489","./Stimuli/ImagesPractice/LM143.jpg","83","","","","test","false","N + M","76","","LM","LM143.jpg","remember","old","13","1","start","left","","","",""
"html-keyboard-response","36","588000","0.0-2.0-2.0-0.13","vbzrnbl0wy3zsna","practice_no_cue","5f19ad917bbdf2021cafbedc","5f60e3c0a3b16e07647b2ff9","5f63801ff85e180641bda2d8","false","null","<span style=""color: black; font-size: 48px"">N + M</span>","null","","","","resp_prompt","","","","","","","","","","","","","","","",""
"categorize-image","37","588989","0.0-2.0-2.0-1.13","vbzrnbl0wy3zsna","practice_no_cue","5f19ad917bbdf2021cafbedc","5f60e3c0a3b16e07647b2ff9","5f63801ff85e180641bda2d8","true","486.78999999538064","./Stimuli/ImagesPractice/SM97.jpg","83","","","","test","false","N + M","76","","SM","SM97.jpg","forget","old","14","1","start","left","","","",""
"html-keyboard-response","38","589691","0.0-2.0-2.0-0.14","vbzrnbl0wy3zsna","practice_no_cue","5f19ad917bbdf2021cafbedc","5f60e3c0a3b16e07647b2ff9","5f63801ff85e180641bda2d8","false","null","<span style=""color: black; font-size: 48px"">M + N</span>","null","","","","resp_prompt","","","","","","","","","","","","","","","",""
"categorize-image","39","590828","0.0-2.0-2.0-1.14","vbzrnbl0wy3zsna","practice_no_cue","5f19ad917bbdf2021cafbedc","5f60e3c0a3b16e07647b2ff9","5f63801ff85e180641bda2d8","true","634.7249999525957","./Stimuli/ImagesPractice/LM230.jpg","83","","","","test","true","M + N","83","","LM","LM230.jpg","forget","old","15","1","start","left","","","",""
"html-keyboard-response","40","591529","0.0-2.0-2.0-0.15","vbzrnbl0wy3zsna","practice_no_cue","5f19ad917bbdf2021cafbedc","5f60e3c0a3b16e07647b2ff9","5f63801ff85e180641bda2d8","false","null","<span style=""color: black; font-size: 48px"">M + N</span>","null","","","","resp_prompt","","","","","","","","","","","","","","","",""
"categorize-image","41","592678","0.0-2.0-2.0-1.15","vbzrnbl0wy3zsna","practice_no_cue","5f19ad917bbdf2021cafbedc","5f60e3c0a3b16e07647b2ff9","5f63801ff85e180641bda2d8","true","647.1800000290386","./Stimuli/ImagesPractice/LM55.jpg","83","","","","test","true","M + N","83","","LM","LM55.jpg","remember","old","16","1","start","left","","","",""
"html-keyboard-response","42","598098","0.0-2.0-3.0","vbzrnbl0wy3zsna","break","5f19ad917bbdf2021cafbedc","5f60e3c0a3b16e07647b2ff9","5f63801ff85e180641bda2d8","false","5417.4350000103","<p style='font-size: 32px;'>Break</><br><br><br><br><br><p style='font-size: 24px;'>In the last block, you committed 9 errors and did not respond in time on 0 trials.
</p><p style='font-size: 24px;'>Try to respond as fast and accurately as possible in the next block as well! </p><p style='font-size: 24px;'>Press SPACE to continue.</p>","32","","","","","","","","","","","","","","","","","","","",""
"html-keyboard-response","43","602508","0.0-2.0-4.0","vbzrnbl0wy3zsna","instructions","5f19ad917bbdf2021cafbedc","5f60e3c0a3b16e07647b2ff9","5f63801ff85e180641bda2d8","false","4409.570000017993","<div align=left> Great!<br><br>Are you ready to continue?<br><br>If you want to reread the instructions and redo the practice trials, <br>please press „Z“. <br><br>Press SPACE to CONTINUE with the experiment when you are ready. </div>","90","","","","","","","","","","","","","","","","","","","",""
"html-keyboard-response","44","643795","0.0-2.1-0.1","vbzrnbl0wy3zsna","instructions","5f19ad917bbdf2021cafbedc","5f60e3c0a3b16e07647b2ff9","5f63801ff85e180641bda2d8","false","41285.76499997871","<div align=justify>You will classify the objects using the <strong>'S'</strong> and the <strong>'L'</strong> keys on your keyboard.<br>For doing so, please place your <strong>left index finger</strong> on the <strong>'S'</strong> key and place your <strong>right index finger</strong> on the <strong>'L'</strong> key. <br><br> Each trial starts with an instruction, indicating which key ('S'/'L') you need to press to classify <br>the object as mechanical (letter M) or non-mechanical (letter N).<br>The instruction <strong>M + N</strong> indicates that, in the current trial, by pressing the left key ('S') you classify the displayed object as mechanical (M) <br> and by pressing the right key ('L') you classify the object as non-mechanical (N). <br>The instruction <strong>N + M</strong> on the other hand indicates that by pressing the left key ('S') you classify the displayed object as non-mechanical (N) <br> and by pressing the right key ('L') you classify the object as mechanical (M). <br><br>Please press the key corresponding to the correct classification as fast as possible as soon as the object is displayed and try to avoid making mistakes.<br>If you do not respond within a 2 second window, a corresponding feedback will be displayed and the next trial will start.<br> The experiment is divided into multiple blocks to give you the opportunity to take a break after each block. <br>First, you can now practice this task. <br><br>Please place your <strong>LEFT INDEX FINGER</strong> on the 'S' key and your <strong>RIGHT INDEX FINGER</strong> on the 'L' key now. <br><br>Press SPACE to continue.</div>","32","","","","","","","","","","","","","","","","","","","",""
"html-keyboard-response","45","647379","0.0-2.1-1.1","vbzrnbl0wy3zsna","instructions","5f19ad917bbdf2021cafbedc","5f60e3c0a3b16e07647b2ff9","5f63801ff85e180641bda2d8","false","3583.3099999581464","<div align=left> You will now have time to practice this task.<br><br>Remember: <br> <br><li>Please place your index fingers on the <strong>'S'</strong> and <strong>'L'</strong> keys <br>to respond as fast and accurately as possible.</li><li>Every picture can be classified as either mechanical or non-mechanical.</li><li>If you do not respond in time or commit an error, you will receive a corresponding feedback. </li><li> Please try to respond as <strong> fast </strong> and as <strong> accurately as possible </strong> .<br><li>To ensure optimal results, please minimize distractions and stay focused. </li><br><br>Press SPACE to continue.</div>","32","","","","","","","","","","","","","","","","","","","",""
"html-keyboard-response","46","648080","0.0-2.1-2.1-0.16","vbzrnbl0wy3zsna","practice_no_cue","5f19ad917bbdf2021cafbedc","5f60e3c0a3b16e07647b2ff9","5f63801ff85e180641bda2d8","false","null","<span style=""color: black; font-size: 48px"">N + M</span>","null","","","","resp_prompt","","","","","","","","","","","","","","","",""
"categorize-image","47","650468","0.0-2.1-2.1-1.16","vbzrnbl0wy3zsna","practice_no_cue","5f19ad917bbdf2021cafbedc","5f60e3c0a3b16e07647b2ff9","5f63801ff85e180641bda2d8","true","1884.7050000331365","./Stimuli/ImagesPractice/LM147.jpg","76","","","","test","true","N + M","76","","LM","LM147.jpg","remember","old","17","2","practice_forget","right","","","",""
"html-keyboard-response","48","651170","0.0-2.1-2.1-0.17","vbzrnbl0wy3zsna","practice_no_cue","5f19ad917bbdf2021cafbedc","5f60e3c0a3b16e07647b2ff9","5f63801ff85e180641bda2d8","false","null","<span style=""color: black; font-size: 48px"">M + N</span>","null","","","","resp_prompt","","","","","","","","","","","","","","","",""
"categorize-image","49","653096","0.0-2.1-2.1-1.17","vbzrnbl0wy3zsna","practice_no_cue","5f19ad917bbdf2021cafbedc","5f60e3c0a3b16e07647b2ff9","5f63801ff85e180641bda2d8","true","1424.715000030119","./Stimuli/ImagesPractice/LN72.jpg","76","","","","test","true","M + N","76","","LN","LN72.jpg","remember","old","18","2","practice_forget","right","","","",""
"html-keyboard-response","50","653797","0.0-2.1-2.1-0.18","vbzrnbl0wy3zsna","practice_no_cue","5f19ad917bbdf2021cafbedc","5f60e3c0a3b16e07647b2ff9","5f63801ff85e180641bda2d8","false","null","<span style=""color: black; font-size: 48px"">N + M</span>","null","","","","resp_prompt","","","","","","","","","","","","","","","",""
"categorize-image","51","655397","0.0-2.1-2.1-1.18","vbzrnbl0wy3zsna","practice_no_cue","5f19ad917bbdf2021cafbedc","5f60e3c0a3b16e07647b2ff9","5f63801ff85e180641bda2d8","true","1098.1099999626167","./Stimuli/ImagesPractice/SM97.jpg","76","","","","test","true","N + M","76","","SM","SM97.jpg","forget","old","19","2","practice_forget","right","","","",""
"html-keyboard-response","52","656098","0.0-2.1-2.1-0.19","vbzrnbl0wy3zsna","practice_no_cue","5f19ad917bbdf2021cafbedc","5f60e3c0a3b16e07647b2ff9","5f63801ff85e180641bda2d8","false","null","<span style=""color: black; font-size: 48px"">M + N</span>","null","","","","resp_prompt","","","","","","","","","","","","","","","",""
"categorize-image","53","657399","0.0-2.1-2.1-1.19","vbzrnbl0wy3zsna","practice_no_cue","5f19ad917bbdf2021cafbedc","5f60e3c0a3b16e07647b2ff9","5f63801ff85e180641bda2d8","true","798.0600000009872","./Stimuli/ImagesPractice/LM224.jpg","83","","","","test","true","M + N","83","","LM","LM224.jpg","forget","old","20","2","practice_forget","left","","","",""
"html-keyboard-response","54","658100","0.0-2.1-2.1-0.20","vbzrnbl0wy3zsna","practice_no_cue","5f19ad917bbdf2021cafbedc","5f60e3c0a3b16e07647b2ff9","5f63801ff85e180641bda2d8","false","null","<span style=""color: black; font-size: 48px"">N + M</span>","null","","","","resp_prompt","","","","","","","","","","","","","","","",""
"categorize-image","55","659735","0.0-2.1-2.1-1.20","vbzrnbl0wy3zsna","practice_no_cue","5f19ad917bbdf2021cafbedc","5f60e3c0a3b16e07647b2ff9","5f63801ff85e180641bda2d8","true","1132.1549999993294","./Stimuli/ImagesPractice/LM239.jpg","76","","","","test","true","N + M","76","","LM","LM239.jpg","forget","old","21","2","practice_forget","right","","","",""
"html-keyboard-response","56","660437","0.0-2.1-2.1-0.21","vbzrnbl0wy3zsna","practice_no_cue","5f19ad917bbdf2021cafbedc","5f60e3c0a3b16e07647b2ff9","5f63801ff85e180641bda2d8","false","null","<span style=""color: black; font-size: 48px"">N + M</span>","null","","","","resp_prompt","","","","","","","","","","","","","","","",""
"categorize-image","57","661732","0.0-2.1-2.1-1.21","vbzrnbl0wy3zsna","practice_no_cue","5f19ad917bbdf2021cafbedc","5f60e3c0a3b16e07647b2ff9","5f63801ff85e180641bda2d8","true","793.3349999948405","./Stimuli/ImagesPractice/SN76.jpg","83","","","","test","true","N + M","83","","SN","SN76.jpg","remember","old","22","2","practice_forget","left","","","",""
"html-keyboard-response","58","662433","0.0-2.1-2.1-0.22","vbzrnbl0wy3zsna","practice_no_cue","5f19ad917bbdf2021cafbedc","5f60e3c0a3b16e07647b2ff9","5f63801ff85e180641bda2d8","false","null","<span style=""color: black; font-size: 48px"">N + M</span>","null","","","","resp_prompt","","","","","","","","","","","","","","","",""
"categorize-image","59","664258","0.0-2.1-2.1-1.22","vbzrnbl0wy3zsna","practice_no_cue","5f19ad917bbdf2021cafbedc","5f60e3c0a3b16e07647b2ff9","5f63801ff85e180641bda2d8","true","1323.355000000447","./Stimuli/ImagesPractice/SM61.jpg","76","","","","test","true","N + M","76","","SM","SM61.jpg","forget","old","23","2","practice_forget","right","","","",""
"html-keyboard-response","60","664960","0.0-2.1-2.1-0.23","vbzrnbl0wy3zsna","practice_no_cue","5f19ad917bbdf2021cafbedc","5f60e3c0a3b16e07647b2ff9","5f63801ff85e180641bda2d8","false","null","<span style=""color: black; font-size: 48px"">M + N</span>","null","","","","resp_prompt","","","","","","","","","","","","","","","",""
"categorize-image","61","666708","0.0-2.1-2.1-1.23","vbzrnbl0wy3zsna","practice_no_cue","5f19ad917bbdf2021cafbedc","5f60e3c0a3b16e07647b2ff9","5f63801ff85e180641bda2d8","true","1246.2549999472685","./Stimuli/ImagesPractice/SN75.jpg","83","","","","test","false","M + N","76","","SN","SN75.jpg","remember","old","24","2","practice_forget","left","","","",""
"html-keyboard-response","62","667409","0.0-2.1-2.1-0.24","vbzrnbl0wy3zsna","practice_no_cue","5f19ad917bbdf2021cafbedc","5f60e3c0a3b16e07647b2ff9","5f63801ff85e180641bda2d8","false","null","<span style=""color: black; font-size: 48px"">N + M</span>","null","","","","resp_prompt","","","","","","","","","","","","","","","",""
"categorize-image","63","668862","0.0-2.1-2.1-1.24","vbzrnbl0wy3zsna","practice_no_cue","5f19ad917bbdf2021cafbedc","5f60e3c0a3b16e07647b2ff9","5f63801ff85e180641bda2d8","true","951.3399999705143","./Stimuli/ImagesPractice/SM62.jpg","76","","","","test","true","N + M","76","","SM","SM62.jpg","remember","old","25","2","practice_forget","right","","","",""
"html-keyboard-response","64","669564","0.0-2.1-2.1-0.25","vbzrnbl0wy3zsna","practice_no_cue","5f19ad917bbdf2021cafbedc","5f60e3c0a3b16e07647b2ff9","5f63801ff85e180641bda2d8","false","null","<span style=""color: black; font-size: 48px"">M + N</span>","null","","","","resp_prompt","","","","","","","","","","","","","","","",""
"categorize-image","65","670638","0.0-2.1-2.1-1.25","vbzrnbl0wy3zsna","practice_no_cue","5f19ad917bbdf2021cafbedc","5f60e3c0a3b16e07647b2ff9","5f63801ff85e180641bda2d8","true","572.5300000049174","./Stimuli/ImagesPractice/LM230.jpg","83","","","","test","true","M + N","83","","LM","LM230.jpg","forget","old","26","2","practice_forget","left","","","",""
"html-keyboard-response","66","671340","0.0-2.1-2.1-0.26","vbzrnbl0wy3zsna","practice_no_cue","5f19ad917bbdf2021cafbedc","5f60e3c0a3b16e07647b2ff9","5f63801ff85e180641bda2d8","false","null","<span style=""color: black; font-size: 48px"">M + N</span>","null","","","","resp_prompt","","","","","","","","","","","","","","","",""
"categorize-image","67","672716","0.0-2.1-2.1-1.26","vbzrnbl0wy3zsna","practice_no_cue","5f19ad917bbdf2021cafbedc","5f60e3c0a3b16e07647b2ff9","5f63801ff85e180641bda2d8","true","873.7899999832734","./Stimuli/ImagesPractice/LN109.jpg","83","","","","test","false","M + N","76","","LN","LN109.jpg","remember","old","27","2","practice_forget","left","","","",""
"html-keyboard-response","68","673417","0.0-2.1-2.1-0.27","vbzrnbl0wy3zsna","practice_no_cue","5f19ad917bbdf2021cafbedc","5f60e3c0a3b16e07647b2ff9","5f63801ff85e180641bda2d8","false","null","<span style=""color: black; font-size: 48px"">N + M</span>","null","","","","resp_prompt","","","","","","","","","","","","","","","",""
"categorize-image","69","674731","0.0-2.1-2.1-1.27","vbzrnbl0wy3zsna","practice_no_cue","5f19ad917bbdf2021cafbedc","5f60e3c0a3b16e07647b2ff9","5f63801ff85e180641bda2d8","true","812.4550000065938","./Stimuli/ImagesPractice/LN2.jpg","76","","","","test","false","N + M","83","","LN","LN2.jpg","forget","old","28","2","practice_forget","right","","","",""
"html-keyboard-response","70","675433","0.0-2.1-2.1-0.28","vbzrnbl0wy3zsna","practice_no_cue","5f19ad917bbdf2021cafbedc","5f60e3c0a3b16e07647b2ff9","5f63801ff85e180641bda2d8","false","null","<span style=""color: black; font-size: 48px"">M + N</span>","null","","","","resp_prompt","","","","","","","","","","","","","","","",""
"categorize-image","71","677307","0.0-2.1-2.1-1.28","vbzrnbl0wy3zsna","practice_no_cue","5f19ad917bbdf2021cafbedc","5f60e3c0a3b16e07647b2ff9","5f63801ff85e180641bda2d8","true","1372.2700000507757","./Stimuli/ImagesPractice/SN222.jpg","76","","","","test","true","M + N","76","","SN","SN222.jpg","forget","old","29","2","practice_forget","right","","","",""
"html-keyboard-response","72","678009","0.0-2.1-2.1-0.29","vbzrnbl0wy3zsna","practice_no_cue","5f19ad917bbdf2021cafbedc","5f60e3c0a3b16e07647b2ff9","5f63801ff85e180641bda2d8","false","null","<span style=""color: black; font-size: 48px"">M + N</span>","null","","","","resp_prompt","","","","","","","","","","","","","","","",""
"categorize-image","73","679389","0.0-2.1-2.1-1.29","vbzrnbl0wy3zsna","practice_no_cue","5f19ad917bbdf2021cafbedc","5f60e3c0a3b16e07647b2ff9","5f63801ff85e180641bda2d8","true","877.1199999609962","./Stimuli/ImagesPractice/SN220.jpg","76","","","","test","true","M + N","76","","SN","SN220.jpg","forget","old","30","2","practice_forget","right","","","",""
"html-keyboard-response","74","680091","0.0-2.1-2.1-0.30","vbzrnbl0wy3zsna","practice_no_cue","5f19ad917bbdf2021cafbedc","5f60e3c0a3b16e07647b2ff9","5f63801ff85e180641bda2d8","false","null","<span style=""color: black; font-size: 48px"">N + M</span>","null","","","","resp_prompt","","","","","","","","","","","","","","","",""
"categorize-image","75","681287","0.0-2.1-2.1-1.30","vbzrnbl0wy3zsna","practice_no_cue","5f19ad917bbdf2021cafbedc","5f60e3c0a3b16e07647b2ff9","5f63801ff85e180641bda2d8","true","694.9000000022352","./Stimuli/ImagesPractice/LM143.jpg","76","","","","test","true","N + M","76","","LM","LM143.jpg","remember","old","31","2","practice_forget","right","","","",""
"html-keyboard-response","76","681989","0.0-2.1-2.1-0.31","vbzrnbl0wy3zsna","practice_no_cue","5f19ad917bbdf2021cafbedc","5f60e3c0a3b16e07647b2ff9","5f63801ff85e180641bda2d8","false","null","<span style=""color: black; font-size: 48px"">M + N</span>","null","","","","resp_prompt","","","","","","","","","","","","","","","",""
"categorize-image","77","683365","0.0-2.1-2.1-1.31","vbzrnbl0wy3zsna","practice_no_cue","5f19ad917bbdf2021cafbedc","5f60e3c0a3b16e07647b2ff9","5f63801ff85e180641bda2d8","true","873.2250000466593","./Stimuli/ImagesPractice/LM55.jpg","83","","","","test","true","M + N","83","","LM","LM55.jpg","remember","old","32","2","practice_forget","left","","","",""
"html-keyboard-response","78","685841","0.0-2.1-3.1","vbzrnbl0wy3zsna","break","5f19ad917bbdf2021cafbedc","5f60e3c0a3b16e07647b2ff9","5f63801ff85e180641bda2d8","false","2473.360000003595","<p style='font-size: 32px;'>Break</><br><br><br><br><br><p style='font-size: 24px;'>In the last block, you committed 3 errors and did not respond in time on 0 trials.
</p><p style='font-size: 24px;'>Try to respond as fast and accurately as possible in the next block as well! </p><p style='font-size: 24px;'>Press SPACE to continue.</p>","32","","","","","","","","","","","","","","","","","","","",""
"html-keyboard-response","79","688017","0.0-2.1-4.1","vbzrnbl0wy3zsna","instructions","5f19ad917bbdf2021cafbedc","5f60e3c0a3b16e07647b2ff9","5f63801ff85e180641bda2d8","false","2175.83999998169","<div align=left> Great!<br><br>Are you ready to continue?<br><br>If you want to reread the instructions and redo the practice trials, <br>please press „Z“. <br><br>Press SPACE to CONTINUE with the experiment when you are ready. </div>","32","","","","","","","","","","","","","","","","","","","",""
"html-keyboard-response","80","716630","0.0-3.0-0.0","vbzrnbl0wy3zsna","instructions","5f19ad917bbdf2021cafbedc","5f60e3c0a3b16e07647b2ff9","5f63801ff85e180641bda2d8","false","28611.175000027288","<div align=left>Great!<br> <strong>Attention</strong>! You will now receive a second, additional task! <br><br>To this point it was you <strong>first task</strong> to correctly <strong>classify objects</strong>. <br><br>As mentioned in the beginning, we aim to examine how well humans can remember previously learned information.<br>We would like to find out whether our memory improves if we only remember information that is relevant to us. <br><br>Therefore, your <strong>second task</strong> will be to <strong>remember</strong> the pictures you are to categorize. <br> After the learning phase, there will be a memory test phase, in which you will be asked to indicate whether you have seen a picture before or not. <br>Some, but not all pictures shown in the learning phase will appear in the memory test phase.<br>After classifying a picture, you will be told whether you should remember it for the memory test phase or not. <br>Thus, some pictures can be forgotten, whereas others have to be remembered. <br><br>Note: From now on, feedback will only be displayed if you responded incorrectly or not in time.<br><br>Press SPACE to continue.</div>","32","","","","","","","","","","","","","","","","","","","",""
"html-keyboard-response","81","740445","0.0-3.0-1.0","vbzrnbl0wy3zsna","instructions","5f19ad917bbdf2021cafbedc","5f60e3c0a3b16e07647b2ff9","5f63801ff85e180641bda2d8","false","23814.369999978226","<div align=left>In the following part, you will thus have to remember only some pictures. <br>Immediately after seeing and classifying the picture, a symbol will be displayed, indicating whether you should remember or forget the previous picture. <br><br>A <span style='color: dodgerblue; font-size: 28px'>O</span> indicates REMEMBER. That means, you have to remember this picture, because it will be tested later. <br><br>A <span style='color: darkorange; font-size:28px'>Ø</span> indicates FORGET. You do not have to remember this picture. <br><br> As you will have to remember a lot of pictures, it will be hard for you to remember all of them. <br>It will put you at an advantage if you instantly forget the pictures you are not asked to remember. <br> This will make it easier for you to remember the pictures that will be tested afterwards. <br><br>Press SPACE to continue.</div>","32","","","","","","","","","","","","","","","","","","","",""
"html-keyboard-response","82","757345","0.0-3.0-2.0","vbzrnbl0wy3zsna","instructions","5f19ad917bbdf2021cafbedc","5f60e3c0a3b16e07647b2ff9","5f63801ff85e180641bda2d8","false","16899.184999987483","<div align=left> Now you have the chance to practice both tasks together.<br><br>Remember: <br> <br><li>Please place your index fingers on the <strong>'S'</strong> and <strong>'L'</strong> keys <br>to respond as fast and accurately as possible.</li><li>Every picture can be classified as either mechanical or non-mechanical.</li><li>If you do not respond in time or commit an error, you will receive a corresponding feedback. <br>Please try to respond as <strong> fast </strong> and as <strong> accurately as possible </strong>.</li><li> Please remember only the to-be-remembered <span style='color: dodgerblue; font-size: 28px'>O</span> pictures. <br></li><li> Please minimize distractions and stay focused. </li><br><br>Press SPACE to START</div>","32","","","","","","","","","","","","","","","","","","","",""
"html-keyboard-response","83","758047","0.0-3.0-3.0-0.0","vbzrnbl0wy3zsna","practice_cue","5f19ad917bbdf2021cafbedc","5f60e3c0a3b16e07647b2ff9","5f63801ff85e180641bda2d8","false","null","<span style=""color: black; font-size: 48px"">N + M</span>","null","","","","resp_prompt","","","","","","","","","","","","","","","",""
"categorize-image","84","758900","0.0-3.0-3.0-1.0","vbzrnbl0wy3zsna","practice_cue","5f19ad917bbdf2021cafbedc","5f60e3c0a3b16e07647b2ff9","5f63801ff85e180641bda2d8","true","845.7199999829754","./Stimuli/ImagesPractice/SM61.jpg","76","","","","test","true","N + M","76","","SM","SM61.jpg","forget","old","33","3","practice_forget","right","","","",""
"html-keyboard-response","85","760903","0.0-3.0-3.0-3.0","vbzrnbl0wy3zsna","practice_cue","5f19ad917bbdf2021cafbedc","5f60e3c0a3b16e07647b2ff9","5f63801ff85e180641bda2d8","false","null","<div style=""align-items: center; display: flex; color: darkorange; font-size: 90px""><b>ø</b></div>","null","","","","forget_cue","","","","","","","","","","","","","","","",""
"html-keyboard-response","86","761605","0.0-3.0-3.0-0.1","vbzrnbl0wy3zsna","practice_cue","5f19ad917bbdf2021cafbedc","5f60e3c0a3b16e07647b2ff9","5f63801ff85e180641bda2d8","false","null","<span style=""color: black; font-size: 48px"">M + N</span>","null","","","","resp_prompt","","","","","","","","","","","","","","","",""
"categorize-image","87","762639","0.0-3.0-3.0-1.1","vbzrnbl0wy3zsna","practice_cue","5f19ad917bbdf2021cafbedc","5f60e3c0a3b16e07647b2ff9","5f63801ff85e180641bda2d8","true","1031.380000000354","./Stimuli/ImagesPractice/LM55.jpg","83","","","","test","true","M + N","83","","LM","LM55.jpg","remember","old","34","3","practice_forget","left","","","",""
"html-keyboard-response","88","764641","0.0-3.0-3.0-3.1","vbzrnbl0wy3zsna","practice_cue","5f19ad917bbdf2021cafbedc","5f60e3c0a3b16e07647b2ff9","5f63801ff85e180641bda2d8","false","null","<div style=""align-items: center; display: flex; color: dodgerblue; font-size: 90px""><b>o</b></div>","null","","","","forget_cue","","","","","","","","","","","","","","","",""
"html-keyboard-response","89","765343","0.0-3.0-3.0-0.2","vbzrnbl0wy3zsna","practice_cue","5f19ad917bbdf2021cafbedc","5f60e3c0a3b16e07647b2ff9","5f63801ff85e180641bda2d8","false","null","<span style=""color: black; font-size: 48px"">N + M</span>","null","","","","resp_prompt","","","","","","","","","","","","","","","",""
"categorize-image","90","766588","0.0-3.0-3.0-1.2","vbzrnbl0wy3zsna","practice_cue","5f19ad917bbdf2021cafbedc","5f60e3c0a3b16e07647b2ff9","5f63801ff85e180641bda2d8","true","1239.3649999867193","./Stimuli/ImagesPractice/LM239.jpg","76","","","","test","true","N + M","76","","LM","LM239.jpg","forget","old","35","3","practice_forget","right","","","",""
"html-keyboard-response","91","768590","0.0-3.0-3.0-3.2","vbzrnbl0wy3zsna","practice_cue","5f19ad917bbdf2021cafbedc","5f60e3c0a3b16e07647b2ff9","5f63801ff85e180641bda2d8","false","null","<div style=""align-items: center; display: flex; color: darkorange; font-size: 90px""><b>ø</b></div>","null","","","","forget_cue","","","","","","","","","","","","","","","",""
"html-keyboard-response","92","769291","0.0-3.0-3.0-0.3","vbzrnbl0wy3zsna","practice_cue","5f19ad917bbdf2021cafbedc","5f60e3c0a3b16e07647b2ff9","5f63801ff85e180641bda2d8","false","null","<span style=""color: black; font-size: 48px"">M + N</span>","null","","","","resp_prompt","","","","","","","","","","","","","","","",""
"categorize-image","93","769870","0.0-3.0-3.0-1.3","vbzrnbl0wy3zsna","practice_cue","5f19ad917bbdf2021cafbedc","5f60e3c0a3b16e07647b2ff9","5f63801ff85e180641bda2d8","true","576.0199999785982","./Stimuli/ImagesPractice/LM224.jpg","83","","","","test","true","M + N","83","","LM","LM224.jpg","forget","old","36","3","practice_forget","left","","","",""
"html-keyboard-response","94","771871","0.0-3.0-3.0-3.3","vbzrnbl0wy3zsna","practice_cue","5f19ad917bbdf2021cafbedc","5f60e3c0a3b16e07647b2ff9","5f63801ff85e180641bda2d8","false","null","<div style=""align-items: center; display: flex; color: darkorange; font-size: 90px""><b>ø</b></div>","null","","","","forget_cue","","","","","","","","","","","","","","","",""
"html-keyboard-response","95","772573","0.0-3.0-3.0-0.4","vbzrnbl0wy3zsna","practice_cue","5f19ad917bbdf2021cafbedc","5f60e3c0a3b16e07647b2ff9","5f63801ff85e180641bda2d8","false","null","<span style=""color: black; font-size: 48px"">M + N</span>","null","","","","resp_prompt","","","","","","","","","","","","","","","",""
"categorize-image","96","773348","0.0-3.0-3.0-1.4","vbzrnbl0wy3zsna","practice_cue","5f19ad917bbdf2021cafbedc","5f60e3c0a3b16e07647b2ff9","5f63801ff85e180641bda2d8","true","772.4900000030175","./Stimuli/ImagesPractice/SN75.jpg","76","","","","test","true","M + N","76","","SN","SN75.jpg","remember","old","37","3","practice_forget","right","","","",""
"html-keyboard-response","97","775350","0.0-3.0-3.0-3.4","vbzrnbl0wy3zsna","practice_cue","5f19ad917bbdf2021cafbedc","5f60e3c0a3b16e07647b2ff9","5f63801ff85e180641bda2d8","false","null","<div style=""align-items: center; display: flex; color: dodgerblue; font-size: 90px""><b>o</b></div>","null","","","","forget_cue","","","","","","","","","","","","","","","",""
"html-keyboard-response","98","776051","0.0-3.0-3.0-0.5","vbzrnbl0wy3zsna","practice_cue","5f19ad917bbdf2021cafbedc","5f60e3c0a3b16e07647b2ff9","5f63801ff85e180641bda2d8","false","null","<span style=""color: black; font-size: 48px"">N + M</span>","null","","","","resp_prompt","","","","","","","","","","","","","","","",""
"categorize-image","99","776715","0.0-3.0-3.0-1.5","vbzrnbl0wy3zsna","practice_cue","5f19ad917bbdf2021cafbedc","5f60e3c0a3b16e07647b2ff9","5f63801ff85e180641bda2d8","true","661.420000018552","./Stimuli/ImagesPractice/SN76.jpg","83","","","","test","true","N + M","83","","SN","SN76.jpg","remember","old","38","3","practice_forget","left","","","",""
"html-keyboard-response","100","778717","0.0-3.0-3.0-3.5","vbzrnbl0wy3zsna","practice_cue","5f19ad917bbdf2021cafbedc","5f60e3c0a3b16e07647b2ff9","5f63801ff85e180641bda2d8","false","null","<div style=""align-items: center; display: flex; color: dodgerblue; font-size: 90px""><b>o</b></div>","null","","","","forget_cue","","","","","","","","","","","","","","","",""
"html-keyboard-response","101","779418","0.0-3.0-3.0-0.6","vbzrnbl0wy3zsna","practice_cue","5f19ad917bbdf2021cafbedc","5f60e3c0a3b16e07647b2ff9","5f63801ff85e180641bda2d8","false","null","<span style=""color: black; font-size: 48px"">M + N</span>","null","","","","resp_prompt","","","","","","","","","","","","","","","",""
"categorize-image","102","780779","0.0-3.0-3.0-1.6","vbzrnbl0wy3zsna","practice_cue","5f19ad917bbdf2021cafbedc","5f60e3c0a3b16e07647b2ff9","5f63801ff85e180641bda2d8","true","1357.8649999690242","./Stimuli/ImagesPractice/SN220.jpg","83","","","","test","false","M + N","76","","SN","SN220.jpg","forget","old","39","3","practice_forget","left","","","",""
"html-keyboard-response","103","781281","0.0-3.0-3.0-2.6-0.6","vbzrnbl0wy3zsna","practice_cue","5f19ad917bbdf2021cafbedc","5f60e3c0a3b16e07647b2ff9","5f63801ff85e180641bda2d8","false","null","<span style=""color: red; font-size: 48px"">Error!</span>","null","","","","feedback","","","","","","","","","","","","","","","",""
"html-keyboard-response","104","783282","0.0-3.0-3.0-3.6","vbzrnbl0wy3zsna","practice_cue","5f19ad917bbdf2021cafbedc","5f60e3c0a3b16e07647b2ff9","5f63801ff85e180641bda2d8","false","null","<div style=""align-items: center; display: flex; color: darkorange; font-size: 90px""><b>ø</b></div>","null","","","","forget_cue","","","","","","","","","","","","","","","",""
"html-keyboard-response","105","783983","0.0-3.0-3.0-0.7","vbzrnbl0wy3zsna","practice_cue","5f19ad917bbdf2021cafbedc","5f60e3c0a3b16e07647b2ff9","5f63801ff85e180641bda2d8","false","null","<span style=""color: black; font-size: 48px"">N + M</span>","null","","","","resp_prompt","","","","","","","","","","","","","","","",""
"categorize-image","106","784691","0.0-3.0-3.0-1.7","vbzrnbl0wy3zsna","practice_cue","5f19ad917bbdf2021cafbedc","5f60e3c0a3b16e07647b2ff9","5f63801ff85e180641bda2d8","true","704.859999998007","./Stimuli/ImagesPractice/SM97.jpg","76","","","","test","true","N + M","76","","SM","SM97.jpg","forget","old","40","3","practice_forget","right","","","",""
"html-keyboard-response","107","786693","0.0-3.0-3.0-3.7","vbzrnbl0wy3zsna","practice_cue","5f19ad917bbdf2021cafbedc","5f60e3c0a3b16e07647b2ff9","5f63801ff85e180641bda2d8","false","null","<div style=""align-items: center; display: flex; color: darkorange; font-size: 90px""><b>ø</b></div>","null","","","","forget_cue","","","","","","","","","","","","","","","",""
"html-keyboard-response","108","787394","0.0-3.0-3.0-0.8","vbzrnbl0wy3zsna","practice_cue","5f19ad917bbdf2021cafbedc","5f60e3c0a3b16e07647b2ff9","5f63801ff85e180641bda2d8","false","null","<span style=""color: black; font-size: 48px"">N + M</span>","null","","","","resp_prompt","","","","","","","","","","","","","","","",""
"categorize-image","109","788643","0.0-3.0-3.0-1.8","vbzrnbl0wy3zsna","practice_cue","5f19ad917bbdf2021cafbedc","5f60e3c0a3b16e07647b2ff9","5f63801ff85e180641bda2d8","true","1246.114999987185","./Stimuli/ImagesPractice/SM62.jpg","76","","","","test","true","N + M","76","","SM","SM62.jpg","remember","old","41","3","practice_forget","right","","","",""
"html-keyboard-response","110","790646","0.0-3.0-3.0-3.8","vbzrnbl0wy3zsna","practice_cue","5f19ad917bbdf2021cafbedc","5f60e3c0a3b16e07647b2ff9","5f63801ff85e180641bda2d8","false","null","<div style=""align-items: center; display: flex; color: dodgerblue; font-size: 90px""><b>o</b></div>","null","","","","forget_cue","","","","","","","","","","","","","","","",""
"html-keyboard-response","111","791347","0.0-3.0-3.0-0.9","vbzrnbl0wy3zsna","practice_cue","5f19ad917bbdf2021cafbedc","5f60e3c0a3b16e07647b2ff9","5f63801ff85e180641bda2d8","false","null","<span style=""color: black; font-size: 48px"">M + N</span>","null","","","","resp_prompt","","","","","","","","","","","","","","","",""
"categorize-image","112","792582","0.0-3.0-3.0-1.9","vbzrnbl0wy3zsna","practice_cue","5f19ad917bbdf2021cafbedc","5f60e3c0a3b16e07647b2ff9","5f63801ff85e180641bda2d8","true","1231.9949999800883","./Stimuli/ImagesPractice/LN72.jpg","76","","","","test","true","M + N","76","","LN","LN72.jpg","remember","old","42","3","practice_forget","right","","","",""
"html-keyboard-response","113","794583","0.0-3.0-3.0-3.9","vbzrnbl0wy3zsna","practice_cue","5f19ad917bbdf2021cafbedc","5f60e3c0a3b16e07647b2ff9","5f63801ff85e180641bda2d8","false","null","<div style=""align-items: center; display: flex; color: dodgerblue; font-size: 90px""><b>o</b></div>","null","","","","forget_cue","","","","","","","","","","","","","","","",""
"html-keyboard-response","114","795284","0.0-3.0-3.0-0.10","vbzrnbl0wy3zsna","practice_cue","5f19ad917bbdf2021cafbedc","5f60e3c0a3b16e07647b2ff9","5f63801ff85e180641bda2d8","false","null","<span style=""color: black; font-size: 48px"">N + M</span>","null","","","","resp_prompt","","","","","","","","","","","","","","","",""
"categorize-image","115","796288","0.0-3.0-3.0-1.10","vbzrnbl0wy3zsna","practice_cue","5f19ad917bbdf2021cafbedc","5f60e3c0a3b16e07647b2ff9","5f63801ff85e180641bda2d8","true","1000.6249999860302","./Stimuli/ImagesPractice/LM147.jpg","76","","","","test","true","N + M","76","","LM","LM147.jpg","remember","old","43","3","practice_forget","right","","","",""
"html-keyboard-response","116","798290","0.0-3.0-3.0-3.10","vbzrnbl0wy3zsna","practice_cue","5f19ad917bbdf2021cafbedc","5f60e3c0a3b16e07647b2ff9","5f63801ff85e180641bda2d8","false","null","<div style=""align-items: center; display: flex; color: dodgerblue; font-size: 90px""><b>o</b></div>","null","","","","forget_cue","","","","","","","","","","","","","","","",""
"html-keyboard-response","117","798992","0.0-3.0-3.0-0.11","vbzrnbl0wy3zsna","practice_cue","5f19ad917bbdf2021cafbedc","5f60e3c0a3b16e07647b2ff9","5f63801ff85e180641bda2d8","false","null","<span style=""color: black; font-size: 48px"">N + M</span>","null","","","","resp_prompt","","","","","","","","","","","","","","","",""
"categorize-image","118","799849","0.0-3.0-3.0-1.11","vbzrnbl0wy3zsna","practice_cue","5f19ad917bbdf2021cafbedc","5f60e3c0a3b16e07647b2ff9","5f63801ff85e180641bda2d8","true","854.0450000436977","./Stimuli/ImagesPractice/LM143.jpg","76","","","","test","true","N + M","76","","LM","LM143.jpg","remember","old","44","3","practice_forget","right","","","",""
"html-keyboard-response","119","801851","0.0-3.0-3.0-3.11","vbzrnbl0wy3zsna","practice_cue","5f19ad917bbdf2021cafbedc","5f60e3c0a3b16e07647b2ff9","5f63801ff85e180641bda2d8","false","null","<div style=""align-items: center; display: flex; color: dodgerblue; font-size: 90px""><b>o</b></div>","null","","","","forget_cue","","","","","","","","","","","","","","","",""
"html-keyboard-response","120","802553","0.0-3.0-3.0-0.12","vbzrnbl0wy3zsna","practice_cue","5f19ad917bbdf2021cafbedc","5f60e3c0a3b16e07647b2ff9","5f63801ff85e180641bda2d8","false","null","<span style=""color: black; font-size: 48px"">M + N</span>","null","","","","resp_prompt","","","","","","","","","","","","","","","",""
"categorize-image","121","803235","0.0-3.0-3.0-1.12","vbzrnbl0wy3zsna","practice_cue","5f19ad917bbdf2021cafbedc","5f60e3c0a3b16e07647b2ff9","5f63801ff85e180641bda2d8","true","679.0699999546632","./Stimuli/ImagesPractice/SN222.jpg","76","","","","test","true","M + N","76","","SN","SN222.jpg","forget","old","45","3","practice_forget","right","","","",""
"html-keyboard-response","122","805237","0.0-3.0-3.0-3.12","vbzrnbl0wy3zsna","practice_cue","5f19ad917bbdf2021cafbedc","5f60e3c0a3b16e07647b2ff9","5f63801ff85e180641bda2d8","false","null","<div style=""align-items: center; display: flex; color: darkorange; font-size: 90px""><b>ø</b></div>","null","","","","forget_cue","","","","","","","","","","","","","","","",""
"html-keyboard-response","123","805938","0.0-3.0-3.0-0.13","vbzrnbl0wy3zsna","practice_cue","5f19ad917bbdf2021cafbedc","5f60e3c0a3b16e07647b2ff9","5f63801ff85e180641bda2d8","false","null","<span style=""color: black; font-size: 48px"">N + M</span>","null","","","","resp_prompt","","","","","","","","","","","","","","","",""
"categorize-image","124","807174","0.0-3.0-3.0-1.13","vbzrnbl0wy3zsna","practice_cue","5f19ad917bbdf2021cafbedc","5f60e3c0a3b16e07647b2ff9","5f63801ff85e180641bda2d8","true","1232.5050000217743","./Stimuli/ImagesPractice/LN2.jpg","83","","","","test","true","N + M","83","","LN","LN2.jpg","forget","old","46","3","practice_forget","left","","","",""
"html-keyboard-response","125","809176","0.0-3.0-3.0-3.13","vbzrnbl0wy3zsna","practice_cue","5f19ad917bbdf2021cafbedc","5f60e3c0a3b16e07647b2ff9","5f63801ff85e180641bda2d8","false","null","<div style=""align-items: center; display: flex; color: darkorange; font-size: 90px""><b>ø</b></div>","null","","","","forget_cue","","","","","","","","","","","","","","","",""
"html-keyboard-response","126","809878","0.0-3.0-3.0-0.14","vbzrnbl0wy3zsna","practice_cue","5f19ad917bbdf2021cafbedc","5f60e3c0a3b16e07647b2ff9","5f63801ff85e180641bda2d8","false","null","<span style=""color: black; font-size: 48px"">M + N</span>","null","","","","resp_prompt","","","","","","","","","","","","","","","",""
"categorize-image","127","810914","0.0-3.0-3.0-1.14","vbzrnbl0wy3zsna","practice_cue","5f19ad917bbdf2021cafbedc","5f60e3c0a3b16e07647b2ff9","5f63801ff85e180641bda2d8","true","1033.2649999763817","./Stimuli/ImagesPractice/LN109.jpg","76","","","","test","true","M + N","76","","LN","LN109.jpg","remember","old","47","3","practice_forget","right","","","",""
"html-keyboard-response","128","812916","0.0-3.0-3.0-3.14","vbzrnbl0wy3zsna","practice_cue","5f19ad917bbdf2021cafbedc","5f60e3c0a3b16e07647b2ff9","5f63801ff85e180641bda2d8","false","null","<div style=""align-items: center; display: flex; color: dodgerblue; font-size: 90px""><b>o</b></div>","null","","","","forget_cue","","","","","","","","","","","","","","","",""
"html-keyboard-response","129","813617","0.0-3.0-3.0-0.15","vbzrnbl0wy3zsna","practice_cue","5f19ad917bbdf2021cafbedc","5f60e3c0a3b16e07647b2ff9","5f63801ff85e180641bda2d8","false","null","<span style=""color: black; font-size: 48px"">M + N</span>","null","","","","resp_prompt","","","","","","","","","","","","","","","",""
"categorize-image","130","814177","0.0-3.0-3.0-1.15","vbzrnbl0wy3zsna","practice_cue","5f19ad917bbdf2021cafbedc","5f60e3c0a3b16e07647b2ff9","5f63801ff85e180641bda2d8","true","556.5000000060536","./Stimuli/ImagesPractice/LM230.jpg","83","","","","test","true","M + N","83","","LM","LM230.jpg","forget","old","48","3","practice_forget","left","","","",""
"html-keyboard-response","131","816178","0.0-3.0-3.0-3.15","vbzrnbl0wy3zsna","practice_cue","5f19ad917bbdf2021cafbedc","5f60e3c0a3b16e07647b2ff9","5f63801ff85e180641bda2d8","false","null","<div style=""align-items: center; display: flex; color: darkorange; font-size: 90px""><b>ø</b></div>","null","","","","forget_cue","","","","","","","","","","","","","","","",""
"html-keyboard-response","132","819509","0.0-3.0-4.0","vbzrnbl0wy3zsna","break","5f19ad917bbdf2021cafbedc","5f60e3c0a3b16e07647b2ff9","5f63801ff85e180641bda2d8","false","3329.799999948591","<p style='font-size: 32px;'>Break</><br><br><br><br><br><p style='font-size: 24px;'>In the last block, you committed 1 errors and did not respond in time on 0 trials.
</p><p style='font-size: 24px;'>Try to respond as fast and accurately as possible in the next block as well! </p><p style='font-size: 24px;'>Press SPACE to continue.</p>","32","","","","","","","","","","","","","","","","","","","",""
"html-keyboard-response","133","837953","0.0-3.0-5.0","vbzrnbl0wy3zsna","instructions","5f19ad917bbdf2021cafbedc","5f60e3c0a3b16e07647b2ff9","5f63801ff85e180641bda2d8","false","18441.985000041313","<div align=left> Now, to practice, we kindly ask you to remember as many of the to-be-remembered pictures<br>of the previous learning phase as possible.<br><br>The pictures you were instructed to remember were the pictures followed by a <span style='color: dodgerblue; font-size: 28px'>O</span>.<br><br>In this memory test phase, you will also see some new pictures.<br>It is your task to remember whether you were presented with this specific picture in this study so far or not.<br>If you recognize an object (you have already seen it in this study), it is an OLD object. <br>If you do not recognize an object (you have NOT seen it in this study), it is a NEW object. <br><strong> Attention</strong>: As already mentioned, <span style='color: darkorange; font-size:28px'>Ø</span>-pictures will <strong>never</strong> appear in this memory test (neither as new objects). <br><br>Press SPACE to continue. </div>","32","","","","","","","","","","","","","","","","","","","",""
"html-keyboard-response","134","873980","0.0-3.0-6.0","vbzrnbl0wy3zsna","instructions","5f19ad917bbdf2021cafbedc","5f60e3c0a3b16e07647b2ff9","5f63801ff85e180641bda2d8","false","36026.14500001073","<div align=left> M and N no longer will appear on the left/right of the fixation cross. <br>Instead there will be a note at the bottom of the left or right side  <br>indicating which key you should press for an old or new object:  <br> <br>Press the <strong>right</strong> key to classify an object as <strong>old</strong> and press the <strong>left</strong>, to classify an object as <strong>new</strong>.<br>Please classify the objects as new/old by again placing your index finger on the 'S' and 'L' keys <br>and press them accordingly.<br><br><strong>Old:</strong> This object has been presented before. <br><strong>New:</strong> This object has <strong>not</strong> been presented.<br><br>Now please put your right and left index fingers on the 'S' and 'L' keys of your keyboard. <br>Please respond as fast and as accurately as possible!<br><br>Press SPACE to continue. </div>","32","","","","","","","","","","","","","","","","","","","",""
"categorize-image","135","876294","0.0-3.0-7.0-0.0","vbzrnbl0wy3zsna","practice_recog","5f19ad917bbdf2021cafbedc","5f60e3c0a3b16e07647b2ff9","5f63801ff85e180641bda2d8","true","1811.3500000326894","./Stimuli/ImagesPractice/SM62.jpg","76","","","","test","true","","76","","SM","SM62.jpg","","old","49","4","practice_recog","right","","","",""
"categorize-image","136","877703","0.0-3.0-7.0-0.1","vbzrnbl0wy3zsna","practice_recog","5f19ad917bbdf2021cafbedc","5f60e3c0a3b16e07647b2ff9","5f63801ff85e180641bda2d8","true","904.1500000166707","./Stimuli/ImagesPractice/LN72.jpg","76","","","","test","true","","76","","LN","LN72.jpg","","old","50","4","practice_recog","right","","","",""
"categorize-image","137","879300","0.0-3.0-7.0-0.2","vbzrnbl0wy3zsna","practice_recog","5f19ad917bbdf2021cafbedc","5f60e3c0a3b16e07647b2ff9","5f63801ff85e180641bda2d8","true","1095.180000003893","./Stimuli/ImagesPractice/LM143.jpg","76","","","","test","true","","76","","LM","LM143.jpg","","old","51","4","practice_recog","right","","","",""
"categorize-image","138","881545","0.0-3.0-7.0-0.3","vbzrnbl0wy3zsna","practice_recog","5f19ad917bbdf2021cafbedc","5f60e3c0a3b16e07647b2ff9","5f63801ff85e180641bda2d8","true","1742.4149999860674","./Stimuli/ImagesPractice/SM98.jpg","83","","","","test","true","","83","","SM","SM98.jpg","","new","52","4","practice_recog","left","","","",""
"categorize-image","139","883384","0.0-3.0-7.0-0.4","vbzrnbl0wy3zsna","practice_recog","5f19ad917bbdf2021cafbedc","5f60e3c0a3b16e07647b2ff9","5f63801ff85e180641bda2d8","true","1336.79500001017","./Stimuli/ImagesPractice/LN109.jpg","76","","","","test","true","","76","","LN","LN109.jpg","","old","53","4","practice_recog","right","","","",""
"categorize-image","140","885563","0.0-3.0-7.0-0.5","vbzrnbl0wy3zsna","practice_recog","5f19ad917bbdf2021cafbedc","5f60e3c0a3b16e07647b2ff9","5f63801ff85e180641bda2d8","true","1676.9400000339374","./Stimuli/ImagesPractice/LN17.jpg","83","","","","test","true","","83","","LN","LN17.jpg","","new","54","4","practice_recog","left","","","",""
"categorize-image","141","887469","0.0-3.0-7.0-0.6","vbzrnbl0wy3zsna","practice_recog","5f19ad917bbdf2021cafbedc","5f60e3c0a3b16e07647b2ff9","5f63801ff85e180641bda2d8","true","1403.0450000427663","./Stimuli/ImagesPractice/SN205.jpg","83","","","","test","true","","83","","SN","SN205.jpg","","new","55","4","practice_recog","left","","","",""
"categorize-image","142","888993","0.0-3.0-7.0-0.7","vbzrnbl0wy3zsna","practice_recog","5f19ad917bbdf2021cafbedc","5f60e3c0a3b16e07647b2ff9","5f63801ff85e180641bda2d8","true","1021.6350000118837","./Stimuli/ImagesPractice/LN4.jpg","83","","","","test","true","","83","","LN","LN4.jpg","","new","56","4","practice_recog","left","","","",""
"categorize-image","143","890928","0.0-3.0-7.0-0.8","vbzrnbl0wy3zsna","practice_recog","5f19ad917bbdf2021cafbedc","5f60e3c0a3b16e07647b2ff9","5f63801ff85e180641bda2d8","true","1432.9699999652803","./Stimuli/ImagesPractice/SM37.jpg","83","","","","test","true","","83","","SM","SM37.jpg","","new","57","4","practice_recog","left","","","",""
"categorize-image","144","892384","0.0-3.0-7.0-0.9","vbzrnbl0wy3zsna","practice_recog","5f19ad917bbdf2021cafbedc","5f60e3c0a3b16e07647b2ff9","5f63801ff85e180641bda2d8","true","953.9450000156648","./Stimuli/ImagesPractice/SN76.jpg","76","","","","test","true","","76","","SN","SN76.jpg","","old","58","4","practice_recog","right","","","",""
"categorize-image","145","893981","0.0-3.0-7.0-0.10","vbzrnbl0wy3zsna","practice_recog","5f19ad917bbdf2021cafbedc","5f60e3c0a3b16e07647b2ff9","5f63801ff85e180641bda2d8","true","1095.6149999983609","./Stimuli/ImagesPractice/LN15.jpg","83","","","","test","true","","83","","LN","LN15.jpg","","new","59","4","practice_recog","left","","","",""
"categorize-image","146","896165","0.0-3.0-7.0-0.11","vbzrnbl0wy3zsna","practice_recog","5f19ad917bbdf2021cafbedc","5f60e3c0a3b16e07647b2ff9","5f63801ff85e180641bda2d8","true","1681.9350000005215","./Stimuli/ImagesPractice/SN75.jpg","76","","","","test","true","","76","","SN","SN75.jpg","","old","60","4","practice_recog","right","","","",""
"categorize-image","147","898191","0.0-3.0-7.0-0.12","vbzrnbl0wy3zsna","practice_recog","5f19ad917bbdf2021cafbedc","5f60e3c0a3b16e07647b2ff9","5f63801ff85e180641bda2d8","true","1522.7000000304542","./Stimuli/ImagesPractice/LM55.jpg","76","","","","test","true","","76","","LM","LM55.jpg","","old","61","4","practice_recog","right","","","",""
"categorize-image","148","899948","0.0-3.0-7.0-0.13","vbzrnbl0wy3zsna","practice_recog","5f19ad917bbdf2021cafbedc","5f60e3c0a3b16e07647b2ff9","5f63801ff85e180641bda2d8","true","1254.88000002224","./Stimuli/ImagesPractice/SM35.jpg","83","","","","test","true","","83","","SM","SM35.jpg","","new","62","4","practice_recog","left","","","",""
"categorize-image","149","902142","0.0-3.0-7.0-0.14","vbzrnbl0wy3zsna","practice_recog","5f19ad917bbdf2021cafbedc","5f60e3c0a3b16e07647b2ff9","5f63801ff85e180641bda2d8","true","1691.7399999802","./Stimuli/ImagesPractice/SN221.jpg","83","","","","test","true","","83","","SN","SN221.jpg","","new","63","4","practice_recog","left","","","",""
"categorize-image","150","904019","0.0-3.0-7.0-0.15","vbzrnbl0wy3zsna","practice_recog","5f19ad917bbdf2021cafbedc","5f60e3c0a3b16e07647b2ff9","5f63801ff85e180641bda2d8","true","1374.6800000080839","./Stimuli/ImagesPractice/LM147.jpg","76","","","","test","true","","76","","LM","LM147.jpg","","old","64","4","practice_recog","right","","","",""
"html-keyboard-response","151","914158","0.0-3.0-8.0","vbzrnbl0wy3zsna","instructions","5f19ad917bbdf2021cafbedc","5f60e3c0a3b16e07647b2ff9","5f63801ff85e180641bda2d8","false","10138.540000014473","<div align=left> Great!<br><br>Are you ready to continue?<br>If you want to reread the instructions and redo the practice trials, please <br>press „Z“.<br><br>You can proceed when you are ready.<br><br>After the presentation of each object, you will receive an instruction whether to <br>remember or to forget the object.<br>We will test your memory of the following pictures only at the very end of <br>the experiment after all learning blocks are completed. <br><br>Press SPACE to CONTINUE when you are ready. </div>","32","","","","","","","","","","","","","","","","","","","",""
"html-keyboard-response","152","929870","0.0-4.0-0.0","vbzrnbl0wy3zsna","instructions","5f19ad917bbdf2021cafbedc","5f60e3c0a3b16e07647b2ff9","5f63801ff85e180641bda2d8","false","15710.689999978058","<div align=left> The actual experiment is about to start.<br>The practice trials are over!<br><br>Please always respond both fast and accurately!<br><br>Remember: <br> <br><li> Please place your index fingers on the <strong>'S'</strong> and <strong>'L'</strong> keys <br>to respond as fast and accurately as possible.</li><li> Every picture can be classified as either mechanical or non-mechanical.</li><li> If you do not respond in time or commit an error, you will receive a corresponding feedback.<br> Please try to respond as <strong> fast </strong> and as <strong> accurately as possible </strong>.</li><li> Remember the <span style='color: dodgerblue; font-size: 28px'>O</span> pictures. <br></li><li> Please minimize distractions and stay focused. </li><br><br>Press SPACE to START.</div>","32","","","","","","","","","","","","","","","","","","","",""
"html-keyboard-response","153","930572","0.0-4.0-1.0-0.0","vbzrnbl0wy3zsna","prime","5f19ad917bbdf2021cafbedc","5f60e3c0a3b16e07647b2ff9","5f63801ff85e180641bda2d8","false","null","<span style=""color: black; font-size: 48px"">N + M</span>","null","","","","resp_prompt","","","","","","","","","","","","","","","",""
"categorize-image","154","931260","0.0-4.0-1.0-1.0","vbzrnbl0wy3zsna","prime","5f19ad917bbdf2021cafbedc","5f60e3c0a3b16e07647b2ff9","5f63801ff85e180641bda2d8","true","682.874999998603","./Stimuli/SelectedImages/SN/SN52.bmp","83","","","","test","true","N + M","83","switch","SN","SN52.bmp","forget","","65","4","prime1","left","","","",""
"html-keyboard-response","155","933262","0.0-4.0-1.0-3.0","vbzrnbl0wy3zsna","prime","5f19ad917bbdf2021cafbedc","5f60e3c0a3b16e07647b2ff9","5f63801ff85e180641bda2d8","false","null","<div style=""align-items: center; display: flex; color: darkorange; font-size: 90px""><b>ø</b></div>","null","","","","forget_cue","","","","","","","","","","","","","","","",""
"html-keyboard-response","156","933964","0.0-4.0-1.0-0.1","vbzrnbl0wy3zsna","prime","5f19ad917bbdf2021cafbedc","5f60e3c0a3b16e07647b2ff9","5f63801ff85e180641bda2d8","false","null","<span style=""color: black; font-size: 48px"">N + M</span>","null","","","","resp_prompt","","","","","","","","","","","","","","","",""
"categorize-image","157","934699","0.0-4.0-1.0-1.1","vbzrnbl0wy3zsna","prime","5f19ad917bbdf2021cafbedc","5f60e3c0a3b16e07647b2ff9","5f63801ff85e180641bda2d8","true","730.4700000095181","./Stimuli/SelectedImages/LN/LN128.bmp","83","","","","test","true","N + M","83","repetition","LN","LN128.bmp","remember","","66","4","prime1","left","","","",""
"html-keyboard-response","158","936701","0.0-4.0-1.0-3.1","vbzrnbl0wy3zsna","prime","5f19ad917bbdf2021cafbedc","5f60e3c0a3b16e07647b2ff9","5f63801ff85e180641bda2d8","false","null","<div style=""align-items: center; display: flex; color: dodgerblue; font-size: 90px""><b>o</b></div>","null","","","","forget_cue","","","","","","","","","","","","","","","",""
"html-keyboard-response","159","937404","0.0-4.0-1.0-0.2","vbzrnbl0wy3zsna","prime","5f19ad917bbdf2021cafbedc","5f60e3c0a3b16e07647b2ff9","5f63801ff85e180641bda2d8","false","null","<span style=""color: black; font-size: 48px"">M + N</span>","null","","","","resp_prompt","","","","","","","","","","","","","","","",""
"categorize-image","160","938359","0.0-4.0-1.0-1.2","vbzrnbl0wy3zsna","prime","5f19ad917bbdf2021cafbedc","5f60e3c0a3b16e07647b2ff9","5f63801ff85e180641bda2d8","true","951.5400000382215","./Stimuli/SelectedImages/SN/SN140.bmp","76","","","","test","true","M + N","76","repetition","SN","SN140.bmp","forget","","67","4","prime1","right","","","",""
"html-keyboard-response","161","940360","0.0-4.0-1.0-3.2","vbzrnbl0wy3zsna","prime","5f19ad917bbdf2021cafbedc","5f60e3c0a3b16e07647b2ff9","5f63801ff85e180641bda2d8","false","null","<div style=""align-items: center; display: flex; color: darkorange; font-size: 90px""><b>ø</b></div>","null","","","","forget_cue","","","","","","","","","","","","","","","",""
"html-keyboard-response","162","941062","0.0-4.0-1.0-0.3","vbzrnbl0wy3zsna","prime","5f19ad917bbdf2021cafbedc","5f60e3c0a3b16e07647b2ff9","5f63801ff85e180641bda2d8","false","null","<span style=""color: black; font-size: 48px"">M + N</span>","null","","","","resp_prompt","","","","","","","","","","","","","","","",""
"categorize-image","163","941947","0.0-4.0-1.0-1.3","vbzrnbl0wy3zsna","prime","5f19ad917bbdf2021cafbedc","5f60e3c0a3b16e07647b2ff9","5f63801ff85e180641bda2d8","true","879.8649999662302","./Stimuli/SelectedImages/LM/LM216.bmp","83","","","","test","true","M + N","83","switch","LM","LM216.bmp","forget","","68","4","prime1","left","","","",""
"html-keyboard-response","164","943949","0.0-4.0-1.0-3.3","vbzrnbl0wy3zsna","prime","5f19ad917bbdf2021cafbedc","5f60e3c0a3b16e07647b2ff9","5f63801ff85e180641bda2d8","false","null","<div style=""align-items: center; display: flex; color: darkorange; font-size: 90px""><b>ø</b></div>","null","","","","forget_cue","","","","","","","","","","","","","","","",""
"html-keyboard-response","165","944650","0.0-4.0-1.0-0.4","vbzrnbl0wy3zsna","prime","5f19ad917bbdf2021cafbedc","5f60e3c0a3b16e07647b2ff9","5f63801ff85e180641bda2d8","false","null","<span style=""color: black; font-size: 48px"">M + N</span>","null","","","","resp_prompt","","","","","","","","","","","","","","","",""
"categorize-image","166","945677","0.0-4.0-1.0-1.4","vbzrnbl0wy3zsna","prime","5f19ad917bbdf2021cafbedc","5f60e3c0a3b16e07647b2ff9","5f63801ff85e180641bda2d8","true","1023.940000042785","./Stimuli/SelectedImages/SN/SN111.bmp","76","","","","test","true","M + N","76","switch","SN","SN111.bmp","remember","","69","4","prime1","right","","","",""
"html-keyboard-response","167","947678","0.0-4.0-1.0-3.4","vbzrnbl0wy3zsna","prime","5f19ad917bbdf2021cafbedc","5f60e3c0a3b16e07647b2ff9","5f63801ff85e180641bda2d8","false","null","<div style=""align-items: center; display: flex; color: dodgerblue; font-size: 90px""><b>o</b></div>","null","","","","forget_cue","","","","","","","","","","","","","","","",""
"html-keyboard-response","168","948381","0.0-4.0-1.0-0.5","vbzrnbl0wy3zsna","prime","5f19ad917bbdf2021cafbedc","5f60e3c0a3b16e07647b2ff9","5f63801ff85e180641bda2d8","false","null","<span style=""color: black; font-size: 48px"">N + M</span>","null","","","","resp_prompt","","","","","","","","","","","","","","","",""
"categorize-image","169","949445","0.0-4.0-1.0-1.5","vbzrnbl0wy3zsna","prime","5f19ad917bbdf2021cafbedc","5f60e3c0a3b16e07647b2ff9","5f63801ff85e180641bda2d8","true","1061.394999967888","./Stimuli/SelectedImages/SM/SM200.bmp","76","","","","test","true","N + M","76","switch","SM","SM200.bmp","forget","","70","4","prime1","right","","","",""
"html-keyboard-response","170","951447","0.0-4.0-1.0-3.5","vbzrnbl0wy3zsna","prime","5f19ad917bbdf2021cafbedc","5f60e3c0a3b16e07647b2ff9","5f63801ff85e180641bda2d8","false","null","<div style=""align-items: center; display: flex; color: darkorange; font-size: 90px""><b>ø</b></div>","null","","","","forget_cue","","","","","","","","","","","","","","","",""
"html-keyboard-response","171","952149","0.0-4.0-1.0-0.6","vbzrnbl0wy3zsna","prime","5f19ad917bbdf2021cafbedc","5f60e3c0a3b16e07647b2ff9","5f63801ff85e180641bda2d8","false","null","<span style=""color: black; font-size: 48px"">M + N</span>","null","","","","resp_prompt","","","","","","","","","","","","","","","",""
"categorize-image","172","952856","0.0-4.0-1.0-1.6","vbzrnbl0wy3zsna","prime","5f19ad917bbdf2021cafbedc","5f60e3c0a3b16e07647b2ff9","5f63801ff85e180641bda2d8","true","703.7250000284985","./Stimuli/SelectedImages/LM/LM167.bmp","83","","","","test","true","M + N","83","repetition","LM","LM167.bmp","forget","","71","4","prime1","left","","","",""
"html-keyboard-response","173","954857","0.0-4.0-1.0-3.6","vbzrnbl0wy3zsna","prime","5f19ad917bbdf2021cafbedc","5f60e3c0a3b16e07647b2ff9","5f63801ff85e180641bda2d8","false","null","<div style=""align-items: center; display: flex; color: darkorange; font-size: 90px""><b>ø</b></div>","null","","","","forget_cue","","","","","","","","","","","","","","","",""
"html-keyboard-response","174","955558","0.0-4.0-1.0-0.7","vbzrnbl0wy3zsna","prime","5f19ad917bbdf2021cafbedc","5f60e3c0a3b16e07647b2ff9","5f63801ff85e180641bda2d8","false","null","<span style=""color: black; font-size: 48px"">M + N</span>","null","","","","resp_prompt","","","","","","","","","","","","","","","",""
"categorize-image","175","956131","0.0-4.0-1.0-1.7","vbzrnbl0wy3zsna","prime","5f19ad917bbdf2021cafbedc","5f60e3c0a3b16e07647b2ff9","5f63801ff85e180641bda2d8","true","568.1099999928847","./Stimuli/SelectedImages/LM/LM235.bmp","83","","","","test","true","M + N","83","repetition","LM","LM235.bmp","remember","","72","4","prime1","left","","","",""
"html-keyboard-response","176","958132","0.0-4.0-1.0-3.7","vbzrnbl0wy3zsna","prime","5f19ad917bbdf2021cafbedc","5f60e3c0a3b16e07647b2ff9","5f63801ff85e180641bda2d8","false","null","<div style=""align-items: center; display: flex; color: dodgerblue; font-size: 90px""><b>o</b></div>","null","","","","forget_cue","","","","","","","","","","","","","","","",""
"html-keyboard-response","177","958834","0.0-4.0-1.0-0.8","vbzrnbl0wy3zsna","prime","5f19ad917bbdf2021cafbedc","5f60e3c0a3b16e07647b2ff9","5f63801ff85e180641bda2d8","false","null","<span style=""color: black; font-size: 48px"">N + M</span>","null","","","","resp_prompt","","","","","","","","","","","","","","","",""
"categorize-image","178","959635","0.0-4.0-1.0-1.8","vbzrnbl0wy3zsna","prime","5f19ad917bbdf2021cafbedc","5f60e3c0a3b16e07647b2ff9","5f63801ff85e180641bda2d8","true","796.9349999912083","./Stimuli/SelectedImages/SM/SM213.bmp","76","","","","test","true","N + M","76","repetition","SM","SM213.bmp","forget","","73","4","prime1","right","","","",""
"html-keyboard-response","179","961637","0.0-4.0-1.0-3.8","vbzrnbl0wy3zsna","prime","5f19ad917bbdf2021cafbedc","5f60e3c0a3b16e07647b2ff9","5f63801ff85e180641bda2d8","false","null","<div style=""align-items: center; display: flex; color: darkorange; font-size: 90px""><b>ø</b></div>","null","","","","forget_cue","","","","","","","","","","","","","","","",""
"html-keyboard-response","180","962339","0.0-4.0-1.0-0.9","vbzrnbl0wy3zsna","prime","5f19ad917bbdf2021cafbedc","5f60e3c0a3b16e07647b2ff9","5f63801ff85e180641bda2d8","false","null","<span style=""color: black; font-size: 48px"">M + N</span>","null","","","","resp_prompt","","","","","","","","","","","","","","","",""
"categorize-image","181","963202","0.0-4.0-1.0-1.9","vbzrnbl0wy3zsna","prime","5f19ad917bbdf2021cafbedc","5f60e3c0a3b16e07647b2ff9","5f63801ff85e180641bda2d8","true","859.8650000058115","./Stimuli/SelectedImages/LM/LM150.bmp","83","","","","test","true","M + N","83","switch","LM","LM150.bmp","remember","","74","4","prime1","left","","","",""
"html-keyboard-response","182","965205","0.0-4.0-1.0-3.9","vbzrnbl0wy3zsna","prime","5f19ad917bbdf2021cafbedc","5f60e3c0a3b16e07647b2ff9","5f63801ff85e180641bda2d8","false","null","<div style=""align-items: center; display: flex; color: dodgerblue; font-size: 90px""><b>o</b></div>","null","","","","forget_cue","","","","","","","","","","","","","","","",""
"html-keyboard-response","183","965907","0.0-4.0-1.0-0.10","vbzrnbl0wy3zsna","prime","5f19ad917bbdf2021cafbedc","5f60e3c0a3b16e07647b2ff9","5f63801ff85e180641bda2d8","false","null","<span style=""color: black; font-size: 48px"">M + N</span>","null","","","","resp_prompt","","","","","","","","","","","","","","","",""
"categorize-image","184","966445","0.0-4.0-1.0-1.10","vbzrnbl0wy3zsna","prime","5f19ad917bbdf2021cafbedc","5f60e3c0a3b16e07647b2ff9","5f63801ff85e180641bda2d8","true","533.3749999990687","./Stimuli/SelectedImages/LM/LM51.bmp","83","","","","test","true","M + N","83","repetition","LM","LM51.bmp","remember","","75","4","prime1","left","","","",""
"html-keyboard-response","185","968447","0.0-4.0-1.0-3.10","vbzrnbl0wy3zsna","prime","5f19ad917bbdf2021cafbedc","5f60e3c0a3b16e07647b2ff9","5f63801ff85e180641bda2d8","false","null","<div style=""align-items: center; display: flex; color: dodgerblue; font-size: 90px""><b>o</b></div>","null","","","","forget_cue","","","","","","","","","","","","","","","",""
"html-keyboard-response","186","969149","0.0-4.0-1.0-0.11","vbzrnbl0wy3zsna","prime","5f19ad917bbdf2021cafbedc","5f60e3c0a3b16e07647b2ff9","5f63801ff85e180641bda2d8","false","null","<span style=""color: black; font-size: 48px"">N + M</span>","null","","","","resp_prompt","","","","","","","","","","","","","","","",""
"categorize-image","187","970003","0.0-4.0-1.0-1.11","vbzrnbl0wy3zsna","prime","5f19ad917bbdf2021cafbedc","5f60e3c0a3b16e07647b2ff9","5f63801ff85e180641bda2d8","true","851.8749999930151","./Stimuli/SelectedImages/SN/SN27.bmp","83","","","","test","true","N + M","83","repetition","SN","SN27.bmp","forget","","76","4","prime1","left","","","",""
"html-keyboard-response","188","972005","0.0-4.0-1.0-3.11","vbzrnbl0wy3zsna","prime","5f19ad917bbdf2021cafbedc","5f60e3c0a3b16e07647b2ff9","5f63801ff85e180641bda2d8","false","null","<div style=""align-items: center; display: flex; color: darkorange; font-size: 90px""><b>ø</b></div>","null","","","","forget_cue","","","","","","","","","","","","","","","",""
"html-keyboard-response","189","972706","0.0-4.0-1.0-0.12","vbzrnbl0wy3zsna","prime","5f19ad917bbdf2021cafbedc","5f60e3c0a3b16e07647b2ff9","5f63801ff85e180641bda2d8","false","null","<span style=""color: black; font-size: 48px"">M + N</span>","null","","","","resp_prompt","","","","","","","","","","","","","","","",""
"categorize-image","190","973481","0.0-4.0-1.0-1.12","vbzrnbl0wy3zsna","prime","5f19ad917bbdf2021cafbedc","5f60e3c0a3b16e07647b2ff9","5f63801ff85e180641bda2d8","true","771.9550000037998","./Stimuli/SelectedImages/SM/SM74.bmp","76","","","","test","false","M + N","83","repetition","SM","SM74.bmp","remember","","77","4","prime1","right","","","",""
"html-keyboard-response","191","973982","0.0-4.0-1.0-2.12-0.12","vbzrnbl0wy3zsna","prime","5f19ad917bbdf2021cafbedc","5f60e3c0a3b16e07647b2ff9","5f63801ff85e180641bda2d8","false","null","<span style=""color: red; font-size: 48px"">Error!</span>","null","","","","feedback","","","","","","","","","","","","","","","",""
"html-keyboard-response","192","975983","0.0-4.0-1.0-3.12","vbzrnbl0wy3zsna","prime","5f19ad917bbdf2021cafbedc","5f60e3c0a3b16e07647b2ff9","5f63801ff85e180641bda2d8","false","null","<div style=""align-items: center; display: flex; color: dodgerblue; font-size: 90px""><b>o</b></div>","null","","","","forget_cue","","","","","","","","","","","","","","","",""
"html-keyboard-response","193","976686","0.0-4.0-1.0-0.13","vbzrnbl0wy3zsna","prime","5f19ad917bbdf2021cafbedc","5f60e3c0a3b16e07647b2ff9","5f63801ff85e180641bda2d8","false","null","<span style=""color: black; font-size: 48px"">M + N</span>","null","","","","resp_prompt","","","","","","","","","","","","","","","",""
"categorize-image","194","978325","0.0-4.0-1.0-1.13","vbzrnbl0wy3zsna","prime","5f19ad917bbdf2021cafbedc","5f60e3c0a3b16e07647b2ff9","5f63801ff85e180641bda2d8","true","1634.4950000056997","./Stimuli/SelectedImages/LN/LN111.bmp","76","","","","test","true","M + N","76","repetition","LN","LN111.bmp","forget","","78","4","prime1","right","","","",""
"html-keyboard-response","195","980326","0.0-4.0-1.0-3.13","vbzrnbl0wy3zsna","prime","5f19ad917bbdf2021cafbedc","5f60e3c0a3b16e07647b2ff9","5f63801ff85e180641bda2d8","false","null","<div style=""align-items: center; display: flex; color: darkorange; font-size: 90px""><b>ø</b></div>","null","","","","forget_cue","","","","","","","","","","","","","","","",""
"html-keyboard-response","196","981028","0.0-4.0-1.0-0.14","vbzrnbl0wy3zsna","prime","5f19ad917bbdf2021cafbedc","5f60e3c0a3b16e07647b2ff9","5f63801ff85e180641bda2d8","false","null","<span style=""color: black; font-size: 48px"">M + N</span>","null","","","","resp_prompt","","","","","","","","","","","","","","","",""
"categorize-image","197","981724","0.0-4.0-1.0-1.14","vbzrnbl0wy3zsna","prime","5f19ad917bbdf2021cafbedc","5f60e3c0a3b16e07647b2ff9","5f63801ff85e180641bda2d8","true","690.6749999616295","./Stimuli/SelectedImages/SM/SM195.bmp","83","","","","test","true","M + N","83","repetition","SM","SM195.bmp","remember","","79","4","prime1","left","","","",""
"html-keyboard-response","198","983726","0.0-4.0-1.0-3.14","vbzrnbl0wy3zsna","prime","5f19ad917bbdf2021cafbedc","5f60e3c0a3b16e07647b2ff9","5f63801ff85e180641bda2d8","false","null","<div style=""align-items: center; display: flex; color: dodgerblue; font-size: 90px""><b>o</b></div>","null","","","","forget_cue","","","","","","","","","","","","","","","",""
"html-keyboard-response","199","984427","0.0-4.0-1.0-0.15","vbzrnbl0wy3zsna","prime","5f19ad917bbdf2021cafbedc","5f60e3c0a3b16e07647b2ff9","5f63801ff85e180641bda2d8","false","null","<span style=""color: black; font-size: 48px"">M + N</span>","null","","","","resp_prompt","","","","","","","","","","","","","","","",""
"categorize-image","200","985371","0.0-4.0-1.0-1.15","vbzrnbl0wy3zsna","prime","5f19ad917bbdf2021cafbedc","5f60e3c0a3b16e07647b2ff9","5f63801ff85e180641bda2d8","true","940.3999999631196","./Stimuli/SelectedImages/LN/LN150.bmp","76","","","","test","true","M + N","76","switch","LN","LN150.bmp","forget","","80","4","prime1","right","","","",""
"html-keyboard-response","201","987372","0.0-4.0-1.0-3.15","vbzrnbl0wy3zsna","prime","5f19ad917bbdf2021cafbedc","5f60e3c0a3b16e07647b2ff9","5f63801ff85e180641bda2d8","false","null","<div style=""align-items: center; display: flex; color: darkorange; font-size: 90px""><b>ø</b></div>","null","","","","forget_cue","","","","","","","","","","","","","","","",""
"html-keyboard-response","202","988073","0.0-4.0-1.0-0.16","vbzrnbl0wy3zsna","prime","5f19ad917bbdf2021cafbedc","5f60e3c0a3b16e07647b2ff9","5f63801ff85e180641bda2d8","false","null","<span style=""color: black; font-size: 48px"">M + N</span>","null","","","","resp_prompt","","","","","","","","","","","","","","","",""
"categorize-image","203","989054","0.0-4.0-1.0-1.16","vbzrnbl0wy3zsna","prime","5f19ad917bbdf2021cafbedc","5f60e3c0a3b16e07647b2ff9","5f63801ff85e180641bda2d8","true","977.6900000288151","./Stimuli/SelectedImages/LN/LN82.bmp","76","","","","test","true","M + N","76","switch","LN","LN82.bmp","remember","","81","4","prime1","right","","","",""
"html-keyboard-response","204","991056","0.0-4.0-1.0-3.16","vbzrnbl0wy3zsna","prime","5f19ad917bbdf2021cafbedc","5f60e3c0a3b16e07647b2ff9","5f63801ff85e180641bda2d8","false","null","<div style=""align-items: center; display: flex; color: dodgerblue; font-size: 90px""><b>o</b></div>","null","","","","forget_cue","","","","","","","","","","","","","","","",""
"html-keyboard-response","205","991758","0.0-4.0-1.0-0.17","vbzrnbl0wy3zsna","prime","5f19ad917bbdf2021cafbedc","5f60e3c0a3b16e07647b2ff9","5f63801ff85e180641bda2d8","false","null","<span style=""color: black; font-size: 48px"">N + M</span>","null","","","","resp_prompt","","","","","","","","","","","","","","","",""
"categorize-image","206","992680","0.0-4.0-1.0-1.17","vbzrnbl0wy3zsna","prime","5f19ad917bbdf2021cafbedc","5f60e3c0a3b16e07647b2ff9","5f63801ff85e180641bda2d8","true","920.1100000063889","./Stimuli/SelectedImages/LN/LN12.bmp","83","","","","test","true","N + M","83","switch","LN","LN12.bmp","forget","","82","4","prime1","left","","","",""
"html-keyboard-response","207","994682","0.0-4.0-1.0-3.17","vbzrnbl0wy3zsna","prime","5f19ad917bbdf2021cafbedc","5f60e3c0a3b16e07647b2ff9","5f63801ff85e180641bda2d8","false","null","<div style=""align-items: center; display: flex; color: darkorange; font-size: 90px""><b>ø</b></div>","null","","","","forget_cue","","","","","","","","","","","","","","","",""
"html-keyboard-response","208","995384","0.0-4.0-1.0-0.18","vbzrnbl0wy3zsna","prime","5f19ad917bbdf2021cafbedc","5f60e3c0a3b16e07647b2ff9","5f63801ff85e180641bda2d8","false","null","<span style=""color: black; font-size: 48px"">N + M</span>","null","","","","resp_prompt","","","","","","","","","","","","","","","",""
"categorize-image","209","995986","0.0-4.0-1.0-1.18","vbzrnbl0wy3zsna","prime","5f19ad917bbdf2021cafbedc","5f60e3c0a3b16e07647b2ff9","5f63801ff85e180641bda2d8","true","598.6250000423752","./Stimuli/SelectedImages/SN/SN93.bmp","83","","","","test","true","N + M","83","switch","SN","SN93.bmp","forget","","83","4","prime1","left","","","",""
"html-keyboard-response","210","997987","0.0-4.0-1.0-3.18","vbzrnbl0wy3zsna","prime","5f19ad917bbdf2021cafbedc","5f60e3c0a3b16e07647b2ff9","5f63801ff85e180641bda2d8","false","null","<div style=""align-items: center; display: flex; color: darkorange; font-size: 90px""><b>ø</b></div>","null","","","","forget_cue","","","","","","","","","","","","","","","",""
"html-keyboard-response","211","998688","0.0-4.0-1.0-0.19","vbzrnbl0wy3zsna","prime","5f19ad917bbdf2021cafbedc","5f60e3c0a3b16e07647b2ff9","5f63801ff85e180641bda2d8","false","null","<span style=""color: black; font-size: 48px"">M + N</span>","null","","","","resp_prompt","","","","","","","","","","","","","","","",""
"categorize-image","212","1000549","0.0-4.0-1.0-1.19","vbzrnbl0wy3zsna","prime","5f19ad917bbdf2021cafbedc","5f60e3c0a3b16e07647b2ff9","5f63801ff85e180641bda2d8","true","1858.3199999993667","./Stimuli/SelectedImages/SN/SN240.bmp","76","","","","test","true","M + N","76","repetition","SN","SN240.bmp","forget","","84","4","prime1","right","","","",""
"html-keyboard-response","213","1002551","0.0-4.0-1.0-3.19","vbzrnbl0wy3zsna","prime","5f19ad917bbdf2021cafbedc","5f60e3c0a3b16e07647b2ff9","5f63801ff85e180641bda2d8","false","null","<div style=""align-items: center; display: flex; color: darkorange; font-size: 90px""><b>ø</b></div>","null","","","","forget_cue","","","","","","","","","","","","","","","",""
"html-keyboard-response","214","1003253","0.0-4.0-1.0-0.20","vbzrnbl0wy3zsna","prime","5f19ad917bbdf2021cafbedc","5f60e3c0a3b16e07647b2ff9","5f63801ff85e180641bda2d8","false","null","<span style=""color: black; font-size: 48px"">M + N</span>","null","","","","resp_prompt","","","","","","","","","","","","","","","",""
"categorize-image","215","1004135","0.0-4.0-1.0-1.20","vbzrnbl0wy3zsna","prime","5f19ad917bbdf2021cafbedc","5f60e3c0a3b16e07647b2ff9","5f63801ff85e180641bda2d8","true","878.9749999996275","./Stimuli/SelectedImages/LN/LN166.bmp","76","","","","test","true","M + N","76","repetition","LN","LN166.bmp","remember","","85","4","prime1","right","","","",""
"html-keyboard-response","216","1006139","0.0-4.0-1.0-3.20","vbzrnbl0wy3zsna","prime","5f19ad917bbdf2021cafbedc","5f60e3c0a3b16e07647b2ff9","5f63801ff85e180641bda2d8","false","null","<div style=""align-items: center; display: flex; color: dodgerblue; font-size: 90px""><b>o</b></div>","null","","","","forget_cue","","","","","","","","","","","","","","","",""
"html-keyboard-response","217","1006840","0.0-4.0-1.0-0.21","vbzrnbl0wy3zsna","prime","5f19ad917bbdf2021cafbedc","5f60e3c0a3b16e07647b2ff9","5f63801ff85e180641bda2d8","false","null","<span style=""color: black; font-size: 48px"">M + N</span>","null","","","","resp_prompt","","","","","","","","","","","","","","","",""
"categorize-image","218","1007463","0.0-4.0-1.0-1.21","vbzrnbl0wy3zsna","prime","5f19ad917bbdf2021cafbedc","5f60e3c0a3b16e07647b2ff9","5f63801ff85e180641bda2d8","true","619.5450000232086","./Stimuli/SelectedImages/SM/SM106.bmp","83","","","","test","true","M + N","83","switch","SM","SM106.bmp","forget","","86","4","prime1","left","","","",""
"html-keyboard-response","219","1009465","0.0-4.0-1.0-3.21","vbzrnbl0wy3zsna","prime","5f19ad917bbdf2021cafbedc","5f60e3c0a3b16e07647b2ff9","5f63801ff85e180641bda2d8","false","null","<div style=""align-items: center; display: flex; color: darkorange; font-size: 90px""><b>ø</b></div>","null","","","","forget_cue","","","","","","","","","","","","","","","",""
"html-keyboard-response","220","1010167","0.0-4.0-1.0-0.22","vbzrnbl0wy3zsna","prime","5f19ad917bbdf2021cafbedc","5f60e3c0a3b16e07647b2ff9","5f63801ff85e180641bda2d8","false","null","<span style=""color: black; font-size: 48px"">M + N</span>","null","","","","resp_prompt","","","","","","","","","","","","","","","",""
"categorize-image","221","1011482","0.0-4.0-1.0-1.22","vbzrnbl0wy3zsna","prime","5f19ad917bbdf2021cafbedc","5f60e3c0a3b16e07647b2ff9","5f63801ff85e180641bda2d8","true","1311.6749999462627","./Stimuli/SelectedImages/SN/SN64.bmp","76","","","","test","true","M + N","76","switch","SN","SN64.bmp","remember","","87","4","prime1","right","","","",""
"html-keyboard-response","222","1013484","0.0-4.0-1.0-3.22","vbzrnbl0wy3zsna","prime","5f19ad917bbdf2021cafbedc","5f60e3c0a3b16e07647b2ff9","5f63801ff85e180641bda2d8","false","null","<div style=""align-items: center; display: flex; color: dodgerblue; font-size: 90px""><b>o</b></div>","null","","","","forget_cue","","","","","","","","","","","","","","","",""
"html-keyboard-response","223","1014186","0.0-4.0-1.0-0.23","vbzrnbl0wy3zsna","prime","5f19ad917bbdf2021cafbedc","5f60e3c0a3b16e07647b2ff9","5f63801ff85e180641bda2d8","false","null","<span style=""color: black; font-size: 48px"">M + N</span>","null","","","","resp_prompt","","","","","","","","","","","","","","","",""
"categorize-image","224","1015233","0.0-4.0-1.0-1.23","vbzrnbl0wy3zsna","prime","5f19ad917bbdf2021cafbedc","5f60e3c0a3b16e07647b2ff9","5f63801ff85e180641bda2d8","true","1044.0900000394322","./Stimuli/SelectedImages/LN/LN9.bmp","76","","","","test","true","M + N","76","repetition","LN","LN9.bmp","remember","","88","4","prime1","right","","","",""
"html-keyboard-response","225","1017235","0.0-4.0-1.0-3.23","vbzrnbl0wy3zsna","prime","5f19ad917bbdf2021cafbedc","5f60e3c0a3b16e07647b2ff9","5f63801ff85e180641bda2d8","false","null","<div style=""align-items: center; display: flex; color: dodgerblue; font-size: 90px""><b>o</b></div>","null","","","","forget_cue","","","","","","","","","","","","","","","",""
"html-keyboard-response","226","1017936","0.0-4.0-1.0-0.24","vbzrnbl0wy3zsna","prime","5f19ad917bbdf2021cafbedc","5f60e3c0a3b16e07647b2ff9","5f63801ff85e180641bda2d8","false","null","<span style=""color: black; font-size: 48px"">N + M</span>","null","","","","resp_prompt","","","","","","","","","","","","","","","",""
"categorize-image","227","1019151","0.0-4.0-1.0-1.24","vbzrnbl0wy3zsna","prime","5f19ad917bbdf2021cafbedc","5f60e3c0a3b16e07647b2ff9","5f63801ff85e180641bda2d8","true","1212.6200000056997","./Stimuli/SelectedImages/LM/LM100.bmp","76","","","","test","true","N + M","76","switch","LM","LM100.bmp","remember","","89","4","prime1","right","","","",""
"html-keyboard-response","228","1021153","0.0-4.0-1.0-3.24","vbzrnbl0wy3zsna","prime","5f19ad917bbdf2021cafbedc","5f60e3c0a3b16e07647b2ff9","5f63801ff85e180641bda2d8","false","null","<div style=""align-items: center; display: flex; color: dodgerblue; font-size: 90px""><b>o</b></div>","null","","","","forget_cue","","","","","","","","","","","","","","","",""
"html-keyboard-response","229","1021855","0.0-4.0-1.0-0.25","vbzrnbl0wy3zsna","prime","5f19ad917bbdf2021cafbedc","5f60e3c0a3b16e07647b2ff9","5f63801ff85e180641bda2d8","false","null","<span style=""color: black; font-size: 48px"">M + N</span>","null","","","","resp_prompt","","","","","","","","","","","","","","","",""
"categorize-image","230","1022558","0.0-4.0-1.0-1.25","vbzrnbl0wy3zsna","prime","5f19ad917bbdf2021cafbedc","5f60e3c0a3b16e07647b2ff9","5f63801ff85e180641bda2d8","true","700.1900000032037","./Stimuli/SelectedImages/SN/SN155.bmp","76","","","","test","true","M + N","76","repetition","SN","SN155.bmp","remember","","90","4","prime1","right","","","",""
"html-keyboard-response","231","1024559","0.0-4.0-1.0-3.25","vbzrnbl0wy3zsna","prime","5f19ad917bbdf2021cafbedc","5f60e3c0a3b16e07647b2ff9","5f63801ff85e180641bda2d8","false","null","<div style=""align-items: center; display: flex; color: dodgerblue; font-size: 90px""><b>o</b></div>","null","","","","forget_cue","","","","","","","","","","","","","","","",""
"html-keyboard-response","232","1025260","0.0-4.0-1.0-0.26","vbzrnbl0wy3zsna","prime","5f19ad917bbdf2021cafbedc","5f60e3c0a3b16e07647b2ff9","5f63801ff85e180641bda2d8","false","null","<span style=""color: black; font-size: 48px"">N + M</span>","null","","","","resp_prompt","","","","","","","","","","","","","","","",""
"categorize-image","233","1027275","0.0-4.0-1.0-1.26","vbzrnbl0wy3zsna","prime","5f19ad917bbdf2021cafbedc","5f60e3c0a3b16e07647b2ff9","5f63801ff85e180641bda2d8","true","null","./Stimuli/SelectedImages/SN/SN179.bmp","null","","","","test","false","N + M","83","repetition","SN","SN179.bmp","remember","","91","4","prime1","too_slow","","","",""
"html-keyboard-response","234","1027776","0.0-4.0-1.0-2.26-0.26","vbzrnbl0wy3zsna","prime","5f19ad917bbdf2021cafbedc","5f60e3c0a3b16e07647b2ff9","5f63801ff85e180641bda2d8","false","null","<span style=""color: red; font-size: 48px"">Too slow!</span>","null","","","","feedback","","","","","","","","","","","","","","","",""
"html-keyboard-response","235","1029778","0.0-4.0-1.0-3.26","vbzrnbl0wy3zsna","prime","5f19ad917bbdf2021cafbedc","5f60e3c0a3b16e07647b2ff9","5f63801ff85e180641bda2d8","false","null","<div style=""align-items: center; display: flex; color: dodgerblue; font-size: 90px""><b>o</b></div>","null","","","","forget_cue","","","","","","","","","","","","","","","",""
"html-keyboard-response","236","1030480","0.0-4.0-1.0-0.27","vbzrnbl0wy3zsna","prime","5f19ad917bbdf2021cafbedc","5f60e3c0a3b16e07647b2ff9","5f63801ff85e180641bda2d8","false","null","<span style=""color: black; font-size: 48px"">N + M</span>","null","","","","resp_prompt","","","","","","","","","","","","","","","",""
"categorize-image","237","1031071","0.0-4.0-1.0-1.27","vbzrnbl0wy3zsna","prime","5f19ad917bbdf2021cafbedc","5f60e3c0a3b16e07647b2ff9","5f63801ff85e180641bda2d8","true","587.7450000261888","./Stimuli/SelectedImages/SN/SN187.bmp","83","","","","test","true","N + M","83","repetition","SN","SN187.bmp","remember","","92","4","prime1","left","","","",""
"html-keyboard-response","238","1033072","0.0-4.0-1.0-3.27","vbzrnbl0wy3zsna","prime","5f19ad917bbdf2021cafbedc","5f60e3c0a3b16e07647b2ff9","5f63801ff85e180641bda2d8","false","null","<div style=""align-items: center; display: flex; color: dodgerblue; font-size: 90px""><b>o</b></div>","null","","","","forget_cue","","","","","","","","","","","","","","","",""
"html-keyboard-response","239","1033773","0.0-4.0-1.0-0.28","vbzrnbl0wy3zsna","prime","5f19ad917bbdf2021cafbedc","5f60e3c0a3b16e07647b2ff9","5f63801ff85e180641bda2d8","false","null","<span style=""color: black; font-size: 48px"">N + M</span>","null","","","","resp_prompt","","","","","","","","","","","","","","","",""
"categorize-image","240","1034432","0.0-4.0-1.0-1.28","vbzrnbl0wy3zsna","prime","5f19ad917bbdf2021cafbedc","5f60e3c0a3b16e07647b2ff9","5f63801ff85e180641bda2d8","true","655.8899999945424","./Stimuli/SelectedImages/SM/SM108.bmp","76","","","","test","true","N + M","76","repetition","SM","SM108.bmp","remember","","93","4","prime1","right","","","",""
"html-keyboard-response","241","1036433","0.0-4.0-1.0-3.28","vbzrnbl0wy3zsna","prime","5f19ad917bbdf2021cafbedc","5f60e3c0a3b16e07647b2ff9","5f63801ff85e180641bda2d8","false","null","<div style=""align-items: center; display: flex; color: dodgerblue; font-size: 90px""><b>o</b></div>","null","","","","forget_cue","","","","","","","","","","","","","","","",""
"html-keyboard-response","242","1037134","0.0-4.0-1.0-0.29","vbzrnbl0wy3zsna","prime","5f19ad917bbdf2021cafbedc","5f60e3c0a3b16e07647b2ff9","5f63801ff85e180641bda2d8","false","null","<span style=""color: black; font-size: 48px"">M + N</span>","null","","","","resp_prompt","","","","","","","","","","","","","","","",""
"categorize-image","243","1038171","0.0-4.0-1.0-1.29","vbzrnbl0wy3zsna","prime","5f19ad917bbdf2021cafbedc","5f60e3c0a3b16e07647b2ff9","5f63801ff85e180641bda2d8","true","1033.8800000026822","./Stimuli/SelectedImages/SN/SN18.bmp","76","","","","test","true","M + N","76","repetition","SN","SN18.bmp","remember","","94","4","prime1","right","","","",""
"html-keyboard-response","244","1040173","0.0-4.0-1.0-3.29","vbzrnbl0wy3zsna","prime","5f19ad917bbdf2021cafbedc","5f60e3c0a3b16e07647b2ff9","5f63801ff85e180641bda2d8","false","null","<div style=""align-items: center; display: flex; color: dodgerblue; font-size: 90px""><b>o</b></div>","null","","","","forget_cue","","","","","","","","","","","","","","","",""
"html-keyboard-response","245","1040874","0.0-4.0-1.0-0.30","vbzrnbl0wy3zsna","prime","5f19ad917bbdf2021cafbedc","5f60e3c0a3b16e07647b2ff9","5f63801ff85e180641bda2d8","false","null","<span style=""color: black; font-size: 48px"">N + M</span>","null","","","","resp_prompt","","","","","","","","","","","","","","","",""
