"trial_type","trial_index","time_elapsed","internal_node_id","subject","exp_part","prolific_PID","study_ID","session_ID","use","rt","stimulus","key_press","button_pressed","responses","question_order","trial_part","correct","resp_map","correct_resp","probe_condition","category","image","forget_condition","list","trial_num","block_num","block","response","test_part","n_span","sequence","num_spaces"
"pavlovia","0","6","0.0-0.0","wjfocy943rg8kkw","","5c5c88f4bf54e100015e0393","5f60e3c0a3b16e07647b2ff9","5f61dc05a7f97c04746a0c13","false","","","","","","","","","","","","","","","","","","","","","","",""
"html-keyboard-response","1","8567","0.0-1.0-0.0-0.0","wjfocy943rg8kkw","welcome","5c5c88f4bf54e100015e0393","5f60e3c0a3b16e07647b2ff9","5f61dc05a7f97c04746a0c13","false","8557","<div align=left>Dear participant, <br> thank you for participating in an online study of the Cognition, Action, and Sustainability Unit of the University of Freiburg! <br> <br>The aim of this study is to examine our ability to remember previously learned information. <br>Our goal is to find out, whether our memory improves, when we only remember information that is relevant to us. <br>The experiment will take about 35 minutes to complete. <br> <br>Please, note that you can only participate in this study if you are using a device with a keyboard (PC, Laptop etc.) <br>and not if you are using a mobile device such as a tablet or smartphone.<br> <br>Press 'SPACE' to proceed to the experiment. </div>","32","","","","","","","","","","","","","","","","","","","",""
"html-keyboard-response","2","19981","0.0-1.0-0.0-1.0","wjfocy943rg8kkw","welcome","5c5c88f4bf54e100015e0393","5f60e3c0a3b16e07647b2ff9","5f61dc05a7f97c04746a0c13","false","11411","<div align=left><strong> Time Course of this experiment: </strong> <br><br> <strong> 1.</strong>  First, please fill in some information regarding your demographic data. <br><br> <strong> 2.</strong>  Next, your task will be to classify everyday objects. <br>In addition, you will be asked to remember certain objects and recall them later. <br>Working on these tasks requires your undivided attention and concentration.<br>It is therefore essential that you eliminate any sources of distraction in your  <br>environment and ensure that you will not be disturbed. <br><br><strong> 3.</strong>  At the end of the experiment, you will be asked to answer a few additional questions. <br> <br><strong> Important:</strong> After finishing the experiment, only close the browser window <br> by clicking on the 'end the experiment'-button when you are asked to do so. <br>Closing the browser window prematurely will make the allocation of your participation credit impossible. <br><br> Press 'SPACE' to start the experiment. </div>","32","","","","","","","","","","","","","","","","","","","",""
"html-button-response","3","23358","0.0-1.0-0.0-2.0","wjfocy943rg8kkw","welcome","5c5c88f4bf54e100015e0393","5f60e3c0a3b16e07647b2ff9","5f61dc05a7f97c04746a0c13","true","3374","<div align=left><strong> Informed consent </strong>  <br>The aim of our research is to better understand human behavior and mental processes. <br>In the following study your behavior (e.g. choices, reaction times) will be studied. <br> <br><strong> Voluntariness and Anonymity </strong> <br>Your participation in this study is  <strong> voluntary</strong>.<br>You may withdraw your consent to participate at any time without providing a reason for doing so and without fear of prejudice. <br><br>As no personal data will be collected, <strong>your data and your person cannot be connected after data collection</strong> – the data-set is anonymous. <br>Respectively, deletion of your data will not be possible after data collection has been completed, as we cannot retrace your data-set.<br>The results and anonymized data collected in this study will be published as a scientific publication. <br>This will happen in an <strong>anonymized format</strong>, so that no data can be traced back to a specific person. <br> <br>The anonymized data of this study will be made available to other researchers and/or in a data archive on the Internet as a means of transparency and to enable subsequent re-use. By doing so, this study follows the recommendations of the Deutsche Forschungsgemeinschaft (DFG, German Research Foundation) and Deutsche Gesellschaft für Psychologie (DGPS, German Psychological Society) regarding quality assurance in research.<br>If you have any questions now or after the experiment, please contact our team (experiments@cs.uni-freiburg.de).<br><br><br>I hereby declare, that I understand the above described conditions of participation and I agree to participate under these conditions. <br><br> </div>","","0","","","","","","","","","","","","","","","","","","",""
"html-keyboard-response","4","40192","0.0-1.0-0.0-3.0","wjfocy943rg8kkw","welcome","5c5c88f4bf54e100015e0393","5f60e3c0a3b16e07647b2ff9","5f61dc05a7f97c04746a0c13","false","16831","<div align=left><strong> General information concerning the experiment </strong>  <br> <br>Please follow the instructions:<ol> <li><strong> Do not leave this tab (your browser window) during the experiment and do not reload this tab! </strong>  <br>If you do switch tabs/windows during the experiment (to check your mail or visit another website, for example), <br>the experiment will end automatically and you will <strong>not receive credit</strong> for your participation. <br>Repeated participation or resumption of the experiment is impossible.</li> <br><li>Please close all other programs for the duration of your participation. </li> <br><li>Please mute or turn off your phone and put it out of your reach. </li> <br><li>Please also take off any disturbing accessories (such as wristwatches, bracelets, etc.). </li> <br><li>If you have music playing in the background, please turn it off now. </li> <br></ol>Thank you! <br>Press 'SPACE' to continue. </div>","32","","","","","","","","","","","","","","","","","","","",""
"survey-text","5","43446","0.0-1.0-1.0-0.0","wjfocy943rg8kkw","demographics","5c5c88f4bf54e100015e0393","5f60e3c0a3b16e07647b2ff9","5f61dc05a7f97c04746a0c13","true","3251","","","","{""age"":""31""}","","","","","","","","","","","","","","","","","",""
"survey-multi-choice","6","68904","0.0-1.0-1.0-1.0","wjfocy943rg8kkw","demographics","5c5c88f4bf54e100015e0393","5f60e3c0a3b16e07647b2ff9","5f61dc05a7f97c04746a0c13","true","25454","","","","{""gender"":""female"",""school"":""others"",""education"":""Doctorate degree""}","[0,1,2]","","","","","","","","","","","","","","","","",""
"html-keyboard-response","7","75914","0.0-1.0-2.0","wjfocy943rg8kkw","instructions","5c5c88f4bf54e100015e0393","5f60e3c0a3b16e07647b2ff9","5f61dc05a7f97c04746a0c13","false","7006","<div align=left> The experiment is now about to start: <br> <br>In the following part, you will be presented pictures of everyday objects. <br>Your first task is to <strong>classify these objects. </strong> <br> <br> You will classify them either as mechanical or non-mechanical objects. <br> <br>Objects that include any kind of technical mechanism (for example, wheels, switches, levers, <br> electronic components) fall under the category of <strong>mechanical</strong> objects. <br>Only objects without any kind of technical mechanism should be classified as <strong>non-mechanical</strong>. <br><br>Press 'SPACE' to continue. </div>","32","","","","","","","","","","","","","","","","","","","",""
"html-keyboard-response","8","108090","0.0-2.0-0.0","wjfocy943rg8kkw","instructions","5c5c88f4bf54e100015e0393","5f60e3c0a3b16e07647b2ff9","5f61dc05a7f97c04746a0c13","false","32173","<div align=justify>You will classify the objects using the <strong>'S'</strong> and the <strong>'L'</strong> keys on your keyboard.<br>For doing so, please place your <strong>left index finger</strong> on the <strong>'S'</strong> key and place your <strong>right index finger</strong> on the <strong>'L'</strong> key. <br><br> Each trial starts with an instruction, indicating which key ('S'/'L') you need to press to classify <br>the object as mechanical (letter M) or non-mechanical (letter N).<br>The instruction <strong>M + N</strong> indicates that, in the current trial, by pressing the left key ('S') you classify the displayed object as mechanical (M) <br> and by pressing the right key ('L') you classify the object as non-mechanical (N). <br>The instruction <strong>N + M</strong> on the other hand indicates that by pressing the left key ('S') you classify the displayed object as non-mechanical (N) <br> and by pressing the right key ('L') you classify the object as mechanical (M). <br><br>Please press the key corresponding to the correct classification as fast as possible as soon as the object is displayed and try to avoid making mistakes.<br>If you do not respond within a 2 second window, a corresponding feedback will be displayed and the next trial will start.<br> The experiment is divided into multiple blocks to give you the opportunity to take a break after each block. <br>First, you can now practice this task. <br><br>Please place your <strong>LEFT INDEX FINGER</strong> on the 'S' key and your <strong>RIGHT INDEX FINGER</strong> on the 'L' key now. <br><br>Press SPACE to continue.</div>","32","","","","","","","","","","","","","","","","","","","",""
"html-keyboard-response","9","113319","0.0-2.0-1.0","wjfocy943rg8kkw","instructions","5c5c88f4bf54e100015e0393","5f60e3c0a3b16e07647b2ff9","5f61dc05a7f97c04746a0c13","false","5226","<div align=left> You will now have time to practice this task.<br><br>Remember: <br> <br><li>Please place your index fingers on the <strong>'S'</strong> and <strong>'L'</strong> keys <br>to respond as fast and accurately as possible.</li><li>Every picture can be classified as either mechanical or non-mechanical.</li><li>If you do not respond in time or commit an error, you will receive a corresponding feedback. </li><li> Please try to respond as <strong> fast </strong> and as <strong> accurately as possible </strong> .<br><li>To ensure optimal results, please minimize distractions and stay focused. </li><br><br>Press SPACE to continue.</div>","32","","","","","","","","","","","","","","","","","","","",""
"html-keyboard-response","10","114023","0.0-2.0-2.0-0.0","wjfocy943rg8kkw","practice_no_cue","5c5c88f4bf54e100015e0393","5f60e3c0a3b16e07647b2ff9","5f61dc05a7f97c04746a0c13","false","null","<span style=""color: black; font-size: 48px"">N + M</span>","null","","","","resp_prompt","","","","","","","","","","","","","","","",""
"categorize-image","11","116488","0.0-2.0-2.0-1.0","wjfocy943rg8kkw","practice_no_cue","5c5c88f4bf54e100015e0393","5f60e3c0a3b16e07647b2ff9","5f61dc05a7f97c04746a0c13","true","1958","./Stimuli/ImagesPractice/SN76.jpg","83","","","","test","true","N + M","83","","SN","SN76.jpg","forget","old","1","1","start","left","","","",""
"html-keyboard-response","12","117191","0.0-2.0-2.0-0.1","wjfocy943rg8kkw","practice_no_cue","5c5c88f4bf54e100015e0393","5f60e3c0a3b16e07647b2ff9","5f61dc05a7f97c04746a0c13","false","null","<span style=""color: black; font-size: 48px"">M + N</span>","null","","","","resp_prompt","","","","","","","","","","","","","","","",""
"categorize-image","13","119020","0.0-2.0-2.0-1.1","wjfocy943rg8kkw","practice_no_cue","5c5c88f4bf54e100015e0393","5f60e3c0a3b16e07647b2ff9","5f61dc05a7f97c04746a0c13","true","1327","./Stimuli/ImagesPractice/LN2.jpg","76","","","","test","true","M + N","76","","LN","LN2.jpg","forget","old","2","1","start","right","","","",""
"html-keyboard-response","14","119721","0.0-2.0-2.0-0.2","wjfocy943rg8kkw","practice_no_cue","5c5c88f4bf54e100015e0393","5f60e3c0a3b16e07647b2ff9","5f61dc05a7f97c04746a0c13","false","null","<span style=""color: black; font-size: 48px"">M + N</span>","null","","","","resp_prompt","","","","","","","","","","","","","","","",""
"categorize-image","15","121454","0.0-2.0-2.0-1.2","wjfocy943rg8kkw","practice_no_cue","5c5c88f4bf54e100015e0393","5f60e3c0a3b16e07647b2ff9","5f61dc05a7f97c04746a0c13","true","1227","./Stimuli/ImagesPractice/SM98.jpg","83","","","","test","true","M + N","83","","SM","SM98.jpg","remember","old","3","1","start","left","","","",""
"html-keyboard-response","16","122157","0.0-2.0-2.0-0.3","wjfocy943rg8kkw","practice_no_cue","5c5c88f4bf54e100015e0393","5f60e3c0a3b16e07647b2ff9","5f61dc05a7f97c04746a0c13","false","null","<span style=""color: black; font-size: 48px"">M + N</span>","null","","","","resp_prompt","","","","","","","","","","","","","","","",""
"categorize-image","17","123591","0.0-2.0-2.0-1.3","wjfocy943rg8kkw","practice_no_cue","5c5c88f4bf54e100015e0393","5f60e3c0a3b16e07647b2ff9","5f61dc05a7f97c04746a0c13","true","931","./Stimuli/ImagesPractice/LM230.jpg","83","","","","test","true","M + N","83","","LM","LM230.jpg","remember","old","4","1","start","left","","","",""
"html-keyboard-response","18","124292","0.0-2.0-2.0-0.4","wjfocy943rg8kkw","practice_no_cue","5c5c88f4bf54e100015e0393","5f60e3c0a3b16e07647b2ff9","5f61dc05a7f97c04746a0c13","false","null","<span style=""color: black; font-size: 48px"">N + M</span>","null","","","","resp_prompt","","","","","","","","","","","","","","","",""
"categorize-image","19","125901","0.0-2.0-2.0-1.4","wjfocy943rg8kkw","practice_no_cue","5c5c88f4bf54e100015e0393","5f60e3c0a3b16e07647b2ff9","5f61dc05a7f97c04746a0c13","true","1104","./Stimuli/ImagesPractice/LN109.jpg","83","","","","test","true","N + M","83","","LN","LN109.jpg","forget","old","5","1","start","left","","","",""
"html-keyboard-response","20","126606","0.0-2.0-2.0-0.5","wjfocy943rg8kkw","practice_no_cue","5c5c88f4bf54e100015e0393","5f60e3c0a3b16e07647b2ff9","5f61dc05a7f97c04746a0c13","false","null","<span style=""color: black; font-size: 48px"">M + N</span>","null","","","","resp_prompt","","","","","","","","","","","","","","","",""
"categorize-image","21","127934","0.0-2.0-2.0-1.5","wjfocy943rg8kkw","practice_no_cue","5c5c88f4bf54e100015e0393","5f60e3c0a3b16e07647b2ff9","5f61dc05a7f97c04746a0c13","true","825","./Stimuli/ImagesPractice/LM143.jpg","83","","","","test","true","M + N","83","","LM","LM143.jpg","remember","old","6","1","start","left","","","",""
"html-keyboard-response","22","128639","0.0-2.0-2.0-0.6","wjfocy943rg8kkw","practice_no_cue","5c5c88f4bf54e100015e0393","5f60e3c0a3b16e07647b2ff9","5f61dc05a7f97c04746a0c13","false","null","<span style=""color: black; font-size: 48px"">N + M</span>","null","","","","resp_prompt","","","","","","","","","","","","","","","",""
"categorize-image","23","129732","0.0-2.0-2.0-1.6","wjfocy943rg8kkw","practice_no_cue","5c5c88f4bf54e100015e0393","5f60e3c0a3b16e07647b2ff9","5f61dc05a7f97c04746a0c13","true","592","./Stimuli/ImagesPractice/LM224.jpg","76","","","","test","true","N + M","76","","LM","LM224.jpg","remember","old","7","1","start","right","","","",""
"html-keyboard-response","24","130435","0.0-2.0-2.0-0.7","wjfocy943rg8kkw","practice_no_cue","5c5c88f4bf54e100015e0393","5f60e3c0a3b16e07647b2ff9","5f61dc05a7f97c04746a0c13","false","null","<span style=""color: black; font-size: 48px"">M + N</span>","null","","","","resp_prompt","","","","","","","","","","","","","","","",""
"categorize-image","25","131950","0.0-2.0-2.0-1.7","wjfocy943rg8kkw","practice_no_cue","5c5c88f4bf54e100015e0393","5f60e3c0a3b16e07647b2ff9","5f61dc05a7f97c04746a0c13","true","1013","./Stimuli/ImagesPractice/LN4.jpg","76","","","","test","true","M + N","76","","LN","LN4.jpg","forget","old","8","1","start","right","","","",""
"html-keyboard-response","26","132653","0.0-2.0-2.0-0.8","wjfocy943rg8kkw","practice_no_cue","5c5c88f4bf54e100015e0393","5f60e3c0a3b16e07647b2ff9","5f61dc05a7f97c04746a0c13","false","null","<span style=""color: black; font-size: 48px"">N + M</span>","null","","","","resp_prompt","","","","","","","","","","","","","","","",""
"categorize-image","27","133868","0.0-2.0-2.0-1.8","wjfocy943rg8kkw","practice_no_cue","5c5c88f4bf54e100015e0393","5f60e3c0a3b16e07647b2ff9","5f61dc05a7f97c04746a0c13","true","713","./Stimuli/ImagesPractice/LN15.jpg","83","","","","test","true","N + M","83","","LN","LN15.jpg","remember","old","9","1","start","left","","","",""
"html-keyboard-response","28","134570","0.0-2.0-2.0-0.9","wjfocy943rg8kkw","practice_no_cue","5c5c88f4bf54e100015e0393","5f60e3c0a3b16e07647b2ff9","5f61dc05a7f97c04746a0c13","false","null","<span style=""color: black; font-size: 48px"">N + M</span>","null","","","","resp_prompt","","","","","","","","","","","","","","","",""
"categorize-image","29","135895","0.0-2.0-2.0-1.9","wjfocy943rg8kkw","practice_no_cue","5c5c88f4bf54e100015e0393","5f60e3c0a3b16e07647b2ff9","5f61dc05a7f97c04746a0c13","true","823","./Stimuli/ImagesPractice/LM239.jpg","83","","","","test","false","N + M","76","","LM","LM239.jpg","forget","old","10","1","start","left","","","",""
"html-keyboard-response","30","136598","0.0-2.0-2.0-0.10","wjfocy943rg8kkw","practice_no_cue","5c5c88f4bf54e100015e0393","5f60e3c0a3b16e07647b2ff9","5f61dc05a7f97c04746a0c13","false","null","<span style=""color: black; font-size: 48px"">M + N</span>","null","","","","resp_prompt","","","","","","","","","","","","","","","",""
"categorize-image","31","137723","0.0-2.0-2.0-1.10","wjfocy943rg8kkw","practice_no_cue","5c5c88f4bf54e100015e0393","5f60e3c0a3b16e07647b2ff9","5f61dc05a7f97c04746a0c13","true","624","./Stimuli/ImagesPractice/LM55.jpg","83","","","","test","true","M + N","83","","LM","LM55.jpg","forget","old","11","1","start","left","","","",""
"html-keyboard-response","32","138426","0.0-2.0-2.0-0.11","wjfocy943rg8kkw","practice_no_cue","5c5c88f4bf54e100015e0393","5f60e3c0a3b16e07647b2ff9","5f61dc05a7f97c04746a0c13","false","null","<span style=""color: black; font-size: 48px"">N + M</span>","null","","","","resp_prompt","","","","","","","","","","","","","","","",""
"categorize-image","33","139575","0.0-2.0-2.0-1.11","wjfocy943rg8kkw","practice_no_cue","5c5c88f4bf54e100015e0393","5f60e3c0a3b16e07647b2ff9","5f61dc05a7f97c04746a0c13","true","646","./Stimuli/ImagesPractice/SN222.jpg","83","","","","test","true","N + M","83","","SN","SN222.jpg","remember","old","12","1","start","left","","","",""
"html-keyboard-response","34","140278","0.0-2.0-2.0-0.12","wjfocy943rg8kkw","practice_no_cue","5c5c88f4bf54e100015e0393","5f60e3c0a3b16e07647b2ff9","5f61dc05a7f97c04746a0c13","false","null","<span style=""color: black; font-size: 48px"">N + M</span>","null","","","","resp_prompt","","","","","","","","","","","","","","","",""
"categorize-image","35","141411","0.0-2.0-2.0-1.12","wjfocy943rg8kkw","practice_no_cue","5c5c88f4bf54e100015e0393","5f60e3c0a3b16e07647b2ff9","5f61dc05a7f97c04746a0c13","true","632","./Stimuli/ImagesPractice/LN17.jpg","83","","","","test","true","N + M","83","","LN","LN17.jpg","forget","old","13","1","start","left","","","",""
"html-keyboard-response","36","142115","0.0-2.0-2.0-0.13","wjfocy943rg8kkw","practice_no_cue","5c5c88f4bf54e100015e0393","5f60e3c0a3b16e07647b2ff9","5f61dc05a7f97c04746a0c13","false","null","<span style=""color: black; font-size: 48px"">M + N</span>","null","","","","resp_prompt","","","","","","","","","","","","","","","",""
"categorize-image","37","143819","0.0-2.0-2.0-1.13","wjfocy943rg8kkw","practice_no_cue","5c5c88f4bf54e100015e0393","5f60e3c0a3b16e07647b2ff9","5f61dc05a7f97c04746a0c13","true","1203","./Stimuli/ImagesPractice/SM35.jpg","76","","","","test","false","M + N","83","","SM","SM35.jpg","forget","old","14","1","start","right","","","",""
"html-keyboard-response","38","144522","0.0-2.0-2.0-0.14","wjfocy943rg8kkw","practice_no_cue","5c5c88f4bf54e100015e0393","5f60e3c0a3b16e07647b2ff9","5f61dc05a7f97c04746a0c13","false","null","<span style=""color: black; font-size: 48px"">N + M</span>","null","","","","resp_prompt","","","","","","","","","","","","","","","",""
"categorize-image","39","146198","0.0-2.0-2.0-1.14","wjfocy943rg8kkw","practice_no_cue","5c5c88f4bf54e100015e0393","5f60e3c0a3b16e07647b2ff9","5f61dc05a7f97c04746a0c13","true","1175","./Stimuli/ImagesPractice/SN221.jpg","76","","","","test","false","N + M","83","","SN","SN221.jpg","remember","old","15","1","start","right","","","",""
"html-keyboard-response","40","146898","0.0-2.0-2.0-0.15","wjfocy943rg8kkw","practice_no_cue","5c5c88f4bf54e100015e0393","5f60e3c0a3b16e07647b2ff9","5f61dc05a7f97c04746a0c13","false","null","<span style=""color: black; font-size: 48px"">M + N</span>","null","","","","resp_prompt","","","","","","","","","","","","","","","",""
"categorize-image","41","148308","0.0-2.0-2.0-1.15","wjfocy943rg8kkw","practice_no_cue","5c5c88f4bf54e100015e0393","5f60e3c0a3b16e07647b2ff9","5f61dc05a7f97c04746a0c13","true","908","./Stimuli/ImagesPractice/SN75.jpg","83","","","","test","false","M + N","76","","SN","SN75.jpg","remember","old","16","1","start","left","","","",""
"html-keyboard-response","42","151184","0.0-2.0-3.0","wjfocy943rg8kkw","break","5c5c88f4bf54e100015e0393","5f60e3c0a3b16e07647b2ff9","5f61dc05a7f97c04746a0c13","false","2872","<p style='font-size: 32px;'>Break</><br><br><br><br><br><p style='font-size: 24px;'>In the last block, you committed 4 errors and did not respond in time on 0 trials.
</p><p style='font-size: 24px;'>Try to respond as fast and accurately as possible in the next block as well! </p><p style='font-size: 24px;'>Press SPACE to continue.</p>","32","","","","","","","","","","","","","","","","","","","",""
"html-keyboard-response","43","154625","0.0-2.0-4.0","wjfocy943rg8kkw","instructions","5c5c88f4bf54e100015e0393","5f60e3c0a3b16e07647b2ff9","5f61dc05a7f97c04746a0c13","false","3440","<div align=left> Great!<br><br>Are you ready to continue?<br><br>If you want to reread the instructions and redo the practice trials, <br>please press „Z“. <br><br>Press SPACE to CONTINUE with the experiment when you are ready. </div>","32","","","","","","","","","","","","","","","","","","","",""
"html-keyboard-response","44","165997","0.0-3.0-0.0","wjfocy943rg8kkw","instructions","5c5c88f4bf54e100015e0393","5f60e3c0a3b16e07647b2ff9","5f61dc05a7f97c04746a0c13","false","11372","<div align=left>Great!<br> <strong>Attention</strong>! You will now receive a second, additional task! <br><br>To this point it was you <strong>first task</strong> to correctly <strong>classify objects</strong>. <br><br>As mentioned in the beginning, we aim to examine how well humans can remember previously learned information.<br>We would like to find out whether our memory improves if we only remember information that is relevant to us. <br><br>Therefore, your <strong>second task</strong> will be to <strong>remember</strong> the pictures you are to categorize. <br> After the learning phase, there will be a memory test phase, in which you will be asked to indicate whether you have seen a picture before or not. <br>Some, but not all pictures shown in the learning phase will appear in the memory test phase.<br>After classifying a picture, you will be told whether you should remember it for the memory test phase or not. <br>Thus, some pictures can be forgotten, whereas others have to be remembered. <br><br>Note: From now on, feedback will only be displayed if you responded incorrectly or not in time.<br><br>Press SPACE to continue.</div>","32","","","","","","","","","","","","","","","","","","","",""
"html-keyboard-response","45","179480","0.0-3.0-1.0","wjfocy943rg8kkw","instructions","5c5c88f4bf54e100015e0393","5f60e3c0a3b16e07647b2ff9","5f61dc05a7f97c04746a0c13","false","13480","<div align=left>In the following part, you will thus have to remember only some pictures. <br>Immediately after seeing and classifying the picture, a symbol will be displayed, indicating whether you should remember or forget the previous picture. <br><br>A <span style='color: dodgerblue; font-size: 28px'>O</span> indicates REMEMBER. That means, you have to remember this picture, because it will be tested later. <br><br>A <span style='color: darkorange; font-size:28px'>Ø</span> indicates FORGET. You do not have to remember this picture. <br><br> As you will have to remember a lot of pictures, it will be hard for you to remember all of them. <br>It will put you at an advantage if you instantly forget the pictures you are not asked to remember. <br> This will make it easier for you to remember the pictures that will be tested afterwards. <br><br>Press SPACE to continue.</div>","32","","","","","","","","","","","","","","","","","","","",""
"html-keyboard-response","46","183405","0.0-3.0-2.0","wjfocy943rg8kkw","instructions","5c5c88f4bf54e100015e0393","5f60e3c0a3b16e07647b2ff9","5f61dc05a7f97c04746a0c13","false","3924","<div align=left> Now you have the chance to practice both tasks together.<br><br>Remember: <br> <br><li>Please place your index fingers on the <strong>'S'</strong> and <strong>'L'</strong> keys <br>to respond as fast and accurately as possible.</li><li>Every picture can be classified as either mechanical or non-mechanical.</li><li>If you do not respond in time or commit an error, you will receive a corresponding feedback. <br>Please try to respond as <strong> fast </strong> and as <strong> accurately as possible </strong>.</li><li> Please remember only the to-be-remembered <span style='color: dodgerblue; font-size: 28px'>O</span> pictures. <br></li><li> Please minimize distractions and stay focused. </li><br><br>Press SPACE to START</div>","32","","","","","","","","","","","","","","","","","","","",""
"html-keyboard-response","47","184109","0.0-3.0-3.0-0.0","wjfocy943rg8kkw","practice_cue","5c5c88f4bf54e100015e0393","5f60e3c0a3b16e07647b2ff9","5f61dc05a7f97c04746a0c13","false","null","<span style=""color: black; font-size: 48px"">M + N</span>","null","","","","resp_prompt","","","","","","","","","","","","","","","",""
"categorize-image","48","184901","0.0-3.0-3.0-1.0","wjfocy943rg8kkw","practice_cue","5c5c88f4bf54e100015e0393","5f60e3c0a3b16e07647b2ff9","5f61dc05a7f97c04746a0c13","true","791","./Stimuli/ImagesPractice/LN2.jpg","76","","","","test","true","M + N","76","","LN","LN2.jpg","forget","old","17","2","practice_forget","right","","","",""
"html-keyboard-response","49","186902","0.0-3.0-3.0-3.0","wjfocy943rg8kkw","practice_cue","5c5c88f4bf54e100015e0393","5f60e3c0a3b16e07647b2ff9","5f61dc05a7f97c04746a0c13","false","null","<div style=""align-items: center; display: flex; color: darkorange; font-size: 90px""><b>ø</b></div>","null","","","","forget_cue","","","","","","","","","","","","","","","",""
"html-keyboard-response","50","187604","0.0-3.0-3.0-0.1","wjfocy943rg8kkw","practice_cue","5c5c88f4bf54e100015e0393","5f60e3c0a3b16e07647b2ff9","5f61dc05a7f97c04746a0c13","false","null","<span style=""color: black; font-size: 48px"">M + N</span>","null","","","","resp_prompt","","","","","","","","","","","","","","","",""
"categorize-image","51","188645","0.0-3.0-3.0-1.1","wjfocy943rg8kkw","practice_cue","5c5c88f4bf54e100015e0393","5f60e3c0a3b16e07647b2ff9","5f61dc05a7f97c04746a0c13","true","1039","./Stimuli/ImagesPractice/LM55.jpg","83","","","","test","true","M + N","83","","LM","LM55.jpg","forget","old","18","2","practice_forget","left","","","",""
"html-keyboard-response","52","190646","0.0-3.0-3.0-3.1","wjfocy943rg8kkw","practice_cue","5c5c88f4bf54e100015e0393","5f60e3c0a3b16e07647b2ff9","5f61dc05a7f97c04746a0c13","false","null","<div style=""align-items: center; display: flex; color: darkorange; font-size: 90px""><b>ø</b></div>","null","","","","forget_cue","","","","","","","","","","","","","","","",""
"html-keyboard-response","53","191349","0.0-3.0-3.0-0.2","wjfocy943rg8kkw","practice_cue","5c5c88f4bf54e100015e0393","5f60e3c0a3b16e07647b2ff9","5f61dc05a7f97c04746a0c13","false","null","<span style=""color: black; font-size: 48px"">M + N</span>","null","","","","resp_prompt","","","","","","","","","","","","","","","",""
"categorize-image","54","192016","0.0-3.0-3.0-1.2","wjfocy943rg8kkw","practice_cue","5c5c88f4bf54e100015e0393","5f60e3c0a3b16e07647b2ff9","5f61dc05a7f97c04746a0c13","true","666","./Stimuli/ImagesPractice/SM98.jpg","83","","","","test","true","M + N","83","","SM","SM98.jpg","remember","old","19","2","practice_forget","left","","","",""
"html-keyboard-response","55","194017","0.0-3.0-3.0-3.2","wjfocy943rg8kkw","practice_cue","5c5c88f4bf54e100015e0393","5f60e3c0a3b16e07647b2ff9","5f61dc05a7f97c04746a0c13","false","null","<div style=""align-items: center; display: flex; color: dodgerblue; font-size: 90px""><b>o</b></div>","null","","","","forget_cue","","","","","","","","","","","","","","","",""
"html-keyboard-response","56","194719","0.0-3.0-3.0-0.3","wjfocy943rg8kkw","practice_cue","5c5c88f4bf54e100015e0393","5f60e3c0a3b16e07647b2ff9","5f61dc05a7f97c04746a0c13","false","null","<span style=""color: black; font-size: 48px"">N + M</span>","null","","","","resp_prompt","","","","","","","","","","","","","","","",""
"categorize-image","57","195357","0.0-3.0-3.0-1.3","wjfocy943rg8kkw","practice_cue","5c5c88f4bf54e100015e0393","5f60e3c0a3b16e07647b2ff9","5f61dc05a7f97c04746a0c13","true","638","./Stimuli/ImagesPractice/SN221.jpg","83","","","","test","true","N + M","83","","SN","SN221.jpg","remember","old","20","2","practice_forget","left","","","",""
"html-keyboard-response","58","197360","0.0-3.0-3.0-3.3","wjfocy943rg8kkw","practice_cue","5c5c88f4bf54e100015e0393","5f60e3c0a3b16e07647b2ff9","5f61dc05a7f97c04746a0c13","false","null","<div style=""align-items: center; display: flex; color: dodgerblue; font-size: 90px""><b>o</b></div>","null","","","","forget_cue","","","","","","","","","","","","","","","",""
"html-keyboard-response","59","198062","0.0-3.0-3.0-0.4","wjfocy943rg8kkw","practice_cue","5c5c88f4bf54e100015e0393","5f60e3c0a3b16e07647b2ff9","5f61dc05a7f97c04746a0c13","false","null","<span style=""color: black; font-size: 48px"">N + M</span>","null","","","","resp_prompt","","","","","","","","","","","","","","","",""
"categorize-image","60","199422","0.0-3.0-3.0-1.4","wjfocy943rg8kkw","practice_cue","5c5c88f4bf54e100015e0393","5f60e3c0a3b16e07647b2ff9","5f61dc05a7f97c04746a0c13","true","1358","./Stimuli/ImagesPractice/SN222.jpg","83","","","","test","true","N + M","83","","SN","SN222.jpg","remember","old","21","2","practice_forget","left","","","",""
"html-keyboard-response","61","201424","0.0-3.0-3.0-3.4","wjfocy943rg8kkw","practice_cue","5c5c88f4bf54e100015e0393","5f60e3c0a3b16e07647b2ff9","5f61dc05a7f97c04746a0c13","false","null","<div style=""align-items: center; display: flex; color: dodgerblue; font-size: 90px""><b>o</b></div>","null","","","","forget_cue","","","","","","","","","","","","","","","",""
"html-keyboard-response","62","202126","0.0-3.0-3.0-0.5","wjfocy943rg8kkw","practice_cue","5c5c88f4bf54e100015e0393","5f60e3c0a3b16e07647b2ff9","5f61dc05a7f97c04746a0c13","false","null","<span style=""color: black; font-size: 48px"">N + M</span>","null","","","","resp_prompt","","","","","","","","","","","","","","","",""
"categorize-image","63","203158","0.0-3.0-3.0-1.5","wjfocy943rg8kkw","practice_cue","5c5c88f4bf54e100015e0393","5f60e3c0a3b16e07647b2ff9","5f61dc05a7f97c04746a0c13","true","1030","./Stimuli/ImagesPractice/LN109.jpg","83","","","","test","true","N + M","83","","LN","LN109.jpg","forget","old","22","2","practice_forget","left","","","",""
"html-keyboard-response","64","205162","0.0-3.0-3.0-3.5","wjfocy943rg8kkw","practice_cue","5c5c88f4bf54e100015e0393","5f60e3c0a3b16e07647b2ff9","5f61dc05a7f97c04746a0c13","false","null","<div style=""align-items: center; display: flex; color: darkorange; font-size: 90px""><b>ø</b></div>","null","","","","forget_cue","","","","","","","","","","","","","","","",""
"html-keyboard-response","65","205865","0.0-3.0-3.0-0.6","wjfocy943rg8kkw","practice_cue","5c5c88f4bf54e100015e0393","5f60e3c0a3b16e07647b2ff9","5f61dc05a7f97c04746a0c13","false","null","<span style=""color: black; font-size: 48px"">N + M</span>","null","","","","resp_prompt","","","","","","","","","","","","","","","",""
"categorize-image","66","206501","0.0-3.0-3.0-1.6","wjfocy943rg8kkw","practice_cue","5c5c88f4bf54e100015e0393","5f60e3c0a3b16e07647b2ff9","5f61dc05a7f97c04746a0c13","true","636","./Stimuli/ImagesPractice/LN17.jpg","83","","","","test","true","N + M","83","","LN","LN17.jpg","forget","old","23","2","practice_forget","left","","","",""
"html-keyboard-response","67","208503","0.0-3.0-3.0-3.6","wjfocy943rg8kkw","practice_cue","5c5c88f4bf54e100015e0393","5f60e3c0a3b16e07647b2ff9","5f61dc05a7f97c04746a0c13","false","null","<div style=""align-items: center; display: flex; color: darkorange; font-size: 90px""><b>ø</b></div>","null","","","","forget_cue","","","","","","","","","","","","","","","",""
"html-keyboard-response","68","209205","0.0-3.0-3.0-0.7","wjfocy943rg8kkw","practice_cue","5c5c88f4bf54e100015e0393","5f60e3c0a3b16e07647b2ff9","5f61dc05a7f97c04746a0c13","false","null","<span style=""color: black; font-size: 48px"">M + N</span>","null","","","","resp_prompt","","","","","","","","","","","","","","","",""
"categorize-image","69","209715","0.0-3.0-3.0-1.7","wjfocy943rg8kkw","practice_cue","5c5c88f4bf54e100015e0393","5f60e3c0a3b16e07647b2ff9","5f61dc05a7f97c04746a0c13","true","508","./Stimuli/ImagesPractice/LM143.jpg","83","","","","test","true","M + N","83","","LM","LM143.jpg","remember","old","24","2","practice_forget","left","","","",""
"html-keyboard-response","70","211716","0.0-3.0-3.0-3.7","wjfocy943rg8kkw","practice_cue","5c5c88f4bf54e100015e0393","5f60e3c0a3b16e07647b2ff9","5f61dc05a7f97c04746a0c13","false","null","<div style=""align-items: center; display: flex; color: dodgerblue; font-size: 90px""><b>o</b></div>","null","","","","forget_cue","","","","","","","","","","","","","","","",""
"html-keyboard-response","71","212420","0.0-3.0-3.0-0.8","wjfocy943rg8kkw","practice_cue","5c5c88f4bf54e100015e0393","5f60e3c0a3b16e07647b2ff9","5f61dc05a7f97c04746a0c13","false","null","<span style=""color: black; font-size: 48px"">M + N</span>","null","","","","resp_prompt","","","","","","","","","","","","","","","",""
"categorize-image","72","213307","0.0-3.0-3.0-1.8","wjfocy943rg8kkw","practice_cue","5c5c88f4bf54e100015e0393","5f60e3c0a3b16e07647b2ff9","5f61dc05a7f97c04746a0c13","true","885","./Stimuli/ImagesPractice/LN4.jpg","76","","","","test","true","M + N","76","","LN","LN4.jpg","forget","old","25","2","practice_forget","right","","","",""
"html-keyboard-response","73","215309","0.0-3.0-3.0-3.8","wjfocy943rg8kkw","practice_cue","5c5c88f4bf54e100015e0393","5f60e3c0a3b16e07647b2ff9","5f61dc05a7f97c04746a0c13","false","null","<div style=""align-items: center; display: flex; color: darkorange; font-size: 90px""><b>ø</b></div>","null","","","","forget_cue","","","","","","","","","","","","","","","",""
"html-keyboard-response","74","216015","0.0-3.0-3.0-0.9","wjfocy943rg8kkw","practice_cue","5c5c88f4bf54e100015e0393","5f60e3c0a3b16e07647b2ff9","5f61dc05a7f97c04746a0c13","false","null","<span style=""color: black; font-size: 48px"">M + N</span>","null","","","","resp_prompt","","","","","","","","","","","","","","","",""
"categorize-image","75","217073","0.0-3.0-3.0-1.9","wjfocy943rg8kkw","practice_cue","5c5c88f4bf54e100015e0393","5f60e3c0a3b16e07647b2ff9","5f61dc05a7f97c04746a0c13","true","1056","./Stimuli/ImagesPractice/SM35.jpg","76","","","","test","false","M + N","83","","SM","SM35.jpg","forget","old","26","2","practice_forget","right","","","",""
"html-keyboard-response","76","217577","0.0-3.0-3.0-2.9-0.9","wjfocy943rg8kkw","practice_cue","5c5c88f4bf54e100015e0393","5f60e3c0a3b16e07647b2ff9","5f61dc05a7f97c04746a0c13","false","null","<span style=""color: red; font-size: 48px"">Error!</span>","null","","","","feedback","","","","","","","","","","","","","","","",""
"html-keyboard-response","77","219579","0.0-3.0-3.0-3.9","wjfocy943rg8kkw","practice_cue","5c5c88f4bf54e100015e0393","5f60e3c0a3b16e07647b2ff9","5f61dc05a7f97c04746a0c13","false","null","<div style=""align-items: center; display: flex; color: darkorange; font-size: 90px""><b>ø</b></div>","null","","","","forget_cue","","","","","","","","","","","","","","","",""
"html-keyboard-response","78","220281","0.0-3.0-3.0-0.10","wjfocy943rg8kkw","practice_cue","5c5c88f4bf54e100015e0393","5f60e3c0a3b16e07647b2ff9","5f61dc05a7f97c04746a0c13","false","null","<span style=""color: black; font-size: 48px"">N + M</span>","null","","","","resp_prompt","","","","","","","","","","","","","","","",""
"categorize-image","79","221011","0.0-3.0-3.0-1.10","wjfocy943rg8kkw","practice_cue","5c5c88f4bf54e100015e0393","5f60e3c0a3b16e07647b2ff9","5f61dc05a7f97c04746a0c13","true","728","./Stimuli/ImagesPractice/LM239.jpg","83","","","","test","false","N + M","76","","LM","LM239.jpg","forget","old","27","2","practice_forget","left","","","",""
"html-keyboard-response","80","221512","0.0-3.0-3.0-2.10-0.10","wjfocy943rg8kkw","practice_cue","5c5c88f4bf54e100015e0393","5f60e3c0a3b16e07647b2ff9","5f61dc05a7f97c04746a0c13","false","null","<span style=""color: red; font-size: 48px"">Error!</span>","null","","","","feedback","","","","","","","","","","","","","","","",""
"html-keyboard-response","81","223515","0.0-3.0-3.0-3.10","wjfocy943rg8kkw","practice_cue","5c5c88f4bf54e100015e0393","5f60e3c0a3b16e07647b2ff9","5f61dc05a7f97c04746a0c13","false","null","<div style=""align-items: center; display: flex; color: darkorange; font-size: 90px""><b>ø</b></div>","null","","","","forget_cue","","","","","","","","","","","","","","","",""
"html-keyboard-response","82","224216","0.0-3.0-3.0-0.11","wjfocy943rg8kkw","practice_cue","5c5c88f4bf54e100015e0393","5f60e3c0a3b16e07647b2ff9","5f61dc05a7f97c04746a0c13","false","null","<span style=""color: black; font-size: 48px"">M + N</span>","null","","","","resp_prompt","","","","","","","","","","","","","","","",""
"categorize-image","83","225190","0.0-3.0-3.0-1.11","wjfocy943rg8kkw","practice_cue","5c5c88f4bf54e100015e0393","5f60e3c0a3b16e07647b2ff9","5f61dc05a7f97c04746a0c13","true","973","./Stimuli/ImagesPractice/LM230.jpg","83","","","","test","true","M + N","83","","LM","LM230.jpg","remember","old","28","2","practice_forget","left","","","",""
"html-keyboard-response","84","227192","0.0-3.0-3.0-3.11","wjfocy943rg8kkw","practice_cue","5c5c88f4bf54e100015e0393","5f60e3c0a3b16e07647b2ff9","5f61dc05a7f97c04746a0c13","false","null","<div style=""align-items: center; display: flex; color: dodgerblue; font-size: 90px""><b>o</b></div>","null","","","","forget_cue","","","","","","","","","","","","","","","",""
"html-keyboard-response","85","227895","0.0-3.0-3.0-0.12","wjfocy943rg8kkw","practice_cue","5c5c88f4bf54e100015e0393","5f60e3c0a3b16e07647b2ff9","5f61dc05a7f97c04746a0c13","false","null","<span style=""color: black; font-size: 48px"">M + N</span>","null","","","","resp_prompt","","","","","","","","","","","","","","","",""
"categorize-image","86","228515","0.0-3.0-3.0-1.12","wjfocy943rg8kkw","practice_cue","5c5c88f4bf54e100015e0393","5f60e3c0a3b16e07647b2ff9","5f61dc05a7f97c04746a0c13","true","620","./Stimuli/ImagesPractice/SN75.jpg","76","","","","test","true","M + N","76","","SN","SN75.jpg","remember","old","29","2","practice_forget","right","","","",""
"html-keyboard-response","87","230519","0.0-3.0-3.0-3.12","wjfocy943rg8kkw","practice_cue","5c5c88f4bf54e100015e0393","5f60e3c0a3b16e07647b2ff9","5f61dc05a7f97c04746a0c13","false","null","<div style=""align-items: center; display: flex; color: dodgerblue; font-size: 90px""><b>o</b></div>","null","","","","forget_cue","","","","","","","","","","","","","","","",""
"html-keyboard-response","88","231225","0.0-3.0-3.0-0.13","wjfocy943rg8kkw","practice_cue","5c5c88f4bf54e100015e0393","5f60e3c0a3b16e07647b2ff9","5f61dc05a7f97c04746a0c13","false","null","<span style=""color: black; font-size: 48px"">N + M</span>","null","","","","resp_prompt","","","","","","","","","","","","","","","",""
"categorize-image","89","232481","0.0-3.0-3.0-1.13","wjfocy943rg8kkw","practice_cue","5c5c88f4bf54e100015e0393","5f60e3c0a3b16e07647b2ff9","5f61dc05a7f97c04746a0c13","true","1256","./Stimuli/ImagesPractice/LM224.jpg","83","","","","test","false","N + M","76","","LM","LM224.jpg","remember","old","30","2","practice_forget","left","","","",""
"html-keyboard-response","90","232983","0.0-3.0-3.0-2.13-0.13","wjfocy943rg8kkw","practice_cue","5c5c88f4bf54e100015e0393","5f60e3c0a3b16e07647b2ff9","5f61dc05a7f97c04746a0c13","false","null","<span style=""color: red; font-size: 48px"">Error!</span>","null","","","","feedback","","","","","","","","","","","","","","","",""
"html-keyboard-response","91","234986","0.0-3.0-3.0-3.13","wjfocy943rg8kkw","practice_cue","5c5c88f4bf54e100015e0393","5f60e3c0a3b16e07647b2ff9","5f61dc05a7f97c04746a0c13","false","null","<div style=""align-items: center; display: flex; color: dodgerblue; font-size: 90px""><b>o</b></div>","null","","","","forget_cue","","","","","","","","","","","","","","","",""
"html-keyboard-response","92","235691","0.0-3.0-3.0-0.14","wjfocy943rg8kkw","practice_cue","5c5c88f4bf54e100015e0393","5f60e3c0a3b16e07647b2ff9","5f61dc05a7f97c04746a0c13","false","null","<span style=""color: black; font-size: 48px"">N + M</span>","null","","","","resp_prompt","","","","","","","","","","","","","","","",""
"categorize-image","93","236302","0.0-3.0-3.0-1.14","wjfocy943rg8kkw","practice_cue","5c5c88f4bf54e100015e0393","5f60e3c0a3b16e07647b2ff9","5f61dc05a7f97c04746a0c13","true","609","./Stimuli/ImagesPractice/LN15.jpg","83","","","","test","true","N + M","83","","LN","LN15.jpg","remember","old","31","2","practice_forget","left","","","",""
"html-keyboard-response","94","238303","0.0-3.0-3.0-3.14","wjfocy943rg8kkw","practice_cue","5c5c88f4bf54e100015e0393","5f60e3c0a3b16e07647b2ff9","5f61dc05a7f97c04746a0c13","false","null","<div style=""align-items: center; display: flex; color: dodgerblue; font-size: 90px""><b>o</b></div>","null","","","","forget_cue","","","","","","","","","","","","","","","",""
"html-keyboard-response","95","239004","0.0-3.0-3.0-0.15","wjfocy943rg8kkw","practice_cue","5c5c88f4bf54e100015e0393","5f60e3c0a3b16e07647b2ff9","5f61dc05a7f97c04746a0c13","false","null","<span style=""color: black; font-size: 48px"">N + M</span>","null","","","","resp_prompt","","","","","","","","","","","","","","","",""
"categorize-image","96","239939","0.0-3.0-3.0-1.15","wjfocy943rg8kkw","practice_cue","5c5c88f4bf54e100015e0393","5f60e3c0a3b16e07647b2ff9","5f61dc05a7f97c04746a0c13","true","933","./Stimuli/ImagesPractice/SN76.jpg","83","","","","test","true","N + M","83","","SN","SN76.jpg","forget","old","32","2","practice_forget","left","","","",""
"html-keyboard-response","97","241940","0.0-3.0-3.0-3.15","wjfocy943rg8kkw","practice_cue","5c5c88f4bf54e100015e0393","5f60e3c0a3b16e07647b2ff9","5f61dc05a7f97c04746a0c13","false","null","<div style=""align-items: center; display: flex; color: darkorange; font-size: 90px""><b>ø</b></div>","null","","","","forget_cue","","","","","","","","","","","","","","","",""
"html-keyboard-response","98","244420","0.0-3.0-4.0","wjfocy943rg8kkw","break","5c5c88f4bf54e100015e0393","5f60e3c0a3b16e07647b2ff9","5f61dc05a7f97c04746a0c13","false","2477","<p style='font-size: 32px;'>Break</><br><br><br><br><br><p style='font-size: 24px;'>In the last block, you committed 3 errors and did not respond in time on 0 trials.
</p><p style='font-size: 24px;'>Try to respond as fast and accurately as possible in the next block as well! </p><p style='font-size: 24px;'>Press SPACE to continue.</p>","32","","","","","","","","","","","","","","","","","","","",""
"html-keyboard-response","99","254557","0.0-3.0-5.0","wjfocy943rg8kkw","instructions","5c5c88f4bf54e100015e0393","5f60e3c0a3b16e07647b2ff9","5f61dc05a7f97c04746a0c13","false","10137","<div align=left> Now, to practice, we kindly ask you to remember as many of the to-be-remembered pictures<br>of the previous learning phase as possible.<br><br>The pictures you were instructed to remember were the pictures followed by a <span style='color: dodgerblue; font-size: 28px'>O</span>.<br><br>In this memory test phase, you will also see some new pictures.<br>It is your task to remember whether you were presented with this specific picture in this study so far or not.<br>If you recognize an object (you have already seen it in this study), it is an OLD object. <br>If you do not recognize an object (you have NOT seen it in this study), it is a NEW object. <br><strong> Attention</strong>: As already mentioned, <span style='color: darkorange; font-size:28px'>Ø</span>-pictures will <strong>never</strong> appear in this memory test (neither as new objects). <br><br>Press SPACE to continue. </div>","32","","","","","","","","","","","","","","","","","","","",""
"html-keyboard-response","100","269765","0.0-3.0-6.0","wjfocy943rg8kkw","instructions","5c5c88f4bf54e100015e0393","5f60e3c0a3b16e07647b2ff9","5f61dc05a7f97c04746a0c13","false","15205","<div align=left> M and N no longer will appear on the left/right of the fixation cross. <br>Instead there will be a note at the bottom of the left or right side  <br>indicating which key you should press for an old or new object:  <br> <br>Press the <strong>right</strong> key to classify an object as <strong>old</strong> and press the <strong>left</strong>, to classify an object as <strong>new</strong>.<br>Please classify the objects as new/old by again placing your index finger on the 'S' and 'L' keys <br>and press them accordingly.<br><br><strong>Old:</strong> This object has been presented before. <br><strong>New:</strong> This object has <strong>not</strong> been presented.<br><br>Now please put your right and left index fingers on the 'S' and 'L' keys of your keyboard. <br>Please respond as fast and as accurately as possible!<br><br>Press SPACE to continue. </div>","32","","","","","","","","","","","","","","","","","","","",""
"categorize-image","101","272322","0.0-3.0-7.0-0.0","wjfocy943rg8kkw","practice_recog","5c5c88f4bf54e100015e0393","5f60e3c0a3b16e07647b2ff9","5f61dc05a7f97c04746a0c13","true","2054","./Stimuli/ImagesPractice/SM61.jpg","76","","","","test","true","","76","","SM","SM61.jpg","","new","33","3","practice_recog","right","","","",""
"categorize-image","102","273924","0.0-3.0-7.0-0.1","wjfocy943rg8kkw","practice_recog","5c5c88f4bf54e100015e0393","5f60e3c0a3b16e07647b2ff9","5f61dc05a7f97c04746a0c13","true","1099","./Stimuli/ImagesPractice/SN220.jpg","76","","","","test","true","","76","","SN","SN220.jpg","","new","34","3","practice_recog","right","","","",""
"categorize-image","103","275393","0.0-3.0-7.0-0.2","wjfocy943rg8kkw","practice_recog","5c5c88f4bf54e100015e0393","5f60e3c0a3b16e07647b2ff9","5f61dc05a7f97c04746a0c13","true","967","./Stimuli/ImagesPractice/SN205.jpg","76","","","","test","true","","76","","SN","SN205.jpg","","new","35","3","practice_recog","right","","","",""
"categorize-image","104","276943","0.0-3.0-7.0-0.3","wjfocy943rg8kkw","practice_recog","5c5c88f4bf54e100015e0393","5f60e3c0a3b16e07647b2ff9","5f61dc05a7f97c04746a0c13","true","1045","./Stimuli/ImagesPractice/SM62.jpg","76","","","","test","true","","76","","SM","SM62.jpg","","new","36","3","practice_recog","right","","","",""
"categorize-image","105","278208","0.0-3.0-7.0-0.4","wjfocy943rg8kkw","practice_recog","5c5c88f4bf54e100015e0393","5f60e3c0a3b16e07647b2ff9","5f61dc05a7f97c04746a0c13","true","765","./Stimuli/ImagesPractice/SM37.jpg","76","","","","test","true","","76","","SM","SM37.jpg","","new","37","3","practice_recog","right","","","",""
"categorize-image","106","279714","0.0-3.0-7.0-0.5","wjfocy943rg8kkw","practice_recog","5c5c88f4bf54e100015e0393","5f60e3c0a3b16e07647b2ff9","5f61dc05a7f97c04746a0c13","true","1004","./Stimuli/ImagesPractice/SN222.jpg","83","","","","test","true","","83","","SN","SN222.jpg","","old","38","3","practice_recog","left","","","",""
"categorize-image","107","281143","0.0-3.0-7.0-0.6","wjfocy943rg8kkw","practice_recog","5c5c88f4bf54e100015e0393","5f60e3c0a3b16e07647b2ff9","5f61dc05a7f97c04746a0c13","true","924","./Stimuli/ImagesPractice/SM98.jpg","83","","","","test","true","","83","","SM","SM98.jpg","","old","39","3","practice_recog","left","","","",""
"categorize-image","108","282444","0.0-3.0-7.0-0.7","wjfocy943rg8kkw","practice_recog","5c5c88f4bf54e100015e0393","5f60e3c0a3b16e07647b2ff9","5f61dc05a7f97c04746a0c13","true","797","./Stimuli/ImagesPractice/LN15.jpg","83","","","","test","true","","83","","LN","LN15.jpg","","old","40","3","practice_recog","left","","","",""
"categorize-image","109","283755","0.0-3.0-7.0-0.8","wjfocy943rg8kkw","practice_recog","5c5c88f4bf54e100015e0393","5f60e3c0a3b16e07647b2ff9","5f61dc05a7f97c04746a0c13","true","810","./Stimuli/ImagesPractice/LM143.jpg","83","","","","test","true","","83","","LM","LM143.jpg","","old","41","3","practice_recog","left","","","",""
"categorize-image","110","285073","0.0-3.0-7.0-0.9","wjfocy943rg8kkw","practice_recog","5c5c88f4bf54e100015e0393","5f60e3c0a3b16e07647b2ff9","5f61dc05a7f97c04746a0c13","true","816","./Stimuli/ImagesPractice/SM97.jpg","76","","","","test","true","","76","","SM","SM97.jpg","","new","42","3","practice_recog","right","","","",""
"categorize-image","111","286469","0.0-3.0-7.0-0.10","wjfocy943rg8kkw","practice_recog","5c5c88f4bf54e100015e0393","5f60e3c0a3b16e07647b2ff9","5f61dc05a7f97c04746a0c13","true","892","./Stimuli/ImagesPractice/LN72.jpg","76","","","","test","true","","76","","LN","LN72.jpg","","new","43","3","practice_recog","right","","","",""
"categorize-image","112","287636","0.0-3.0-7.0-0.11","wjfocy943rg8kkw","practice_recog","5c5c88f4bf54e100015e0393","5f60e3c0a3b16e07647b2ff9","5f61dc05a7f97c04746a0c13","true","664","./Stimuli/ImagesPractice/LM230.jpg","83","","","","test","true","","83","","LM","LM230.jpg","","old","44","3","practice_recog","left","","","",""
"categorize-image","113","288870","0.0-3.0-7.0-0.12","wjfocy943rg8kkw","practice_recog","5c5c88f4bf54e100015e0393","5f60e3c0a3b16e07647b2ff9","5f61dc05a7f97c04746a0c13","true","730","./Stimuli/ImagesPractice/LM224.jpg","83","","","","test","true","","83","","LM","LM224.jpg","","old","45","3","practice_recog","left","","","",""
"categorize-image","114","290237","0.0-3.0-7.0-0.13","wjfocy943rg8kkw","practice_recog","5c5c88f4bf54e100015e0393","5f60e3c0a3b16e07647b2ff9","5f61dc05a7f97c04746a0c13","true","862","./Stimuli/ImagesPractice/LM147.jpg","76","","","","test","true","","76","","LM","LM147.jpg","","new","46","3","practice_recog","right","","","",""
"categorize-image","115","291459","0.0-3.0-7.0-0.14","wjfocy943rg8kkw","practice_recog","5c5c88f4bf54e100015e0393","5f60e3c0a3b16e07647b2ff9","5f61dc05a7f97c04746a0c13","true","719","./Stimuli/ImagesPractice/SN221.jpg","83","","","","test","true","","83","","SN","SN221.jpg","","old","47","3","practice_recog","left","","","",""
"categorize-image","116","292727","0.0-3.0-7.0-0.15","wjfocy943rg8kkw","practice_recog","5c5c88f4bf54e100015e0393","5f60e3c0a3b16e07647b2ff9","5f61dc05a7f97c04746a0c13","true","763","./Stimuli/ImagesPractice/SN75.jpg","83","","","","test","true","","83","","SN","SN75.jpg","","old","48","3","practice_recog","left","","","",""
"html-keyboard-response","117","296159","0.0-3.0-8.0","wjfocy943rg8kkw","instructions","5c5c88f4bf54e100015e0393","5f60e3c0a3b16e07647b2ff9","5f61dc05a7f97c04746a0c13","false","3431","<div align=left> Great!<br><br>Are you ready to continue?<br>If you want to reread the instructions and redo the practice trials, please <br>press „Z“.<br><br>You can proceed when you are ready.<br><br>After the presentation of each object, you will receive an instruction whether to <br>remember or to forget the object.<br>We will test your memory of the following pictures only at the very end of <br>the experiment after all learning blocks are completed. <br><br>Press SPACE to CONTINUE when you are ready. </div>","32","","","","","","","","","","","","","","","","","","","",""
"html-keyboard-response","118","301315","0.0-4.0-0.0","wjfocy943rg8kkw","instructions","5c5c88f4bf54e100015e0393","5f60e3c0a3b16e07647b2ff9","5f61dc05a7f97c04746a0c13","false","5155","<div align=left> The actual experiment is about to start.<br>The practice trials are over!<br><br>Please always respond both fast and accurately!<br><br>Remember: <br> <br><li> Please place your index fingers on the <strong>'S'</strong> and <strong>'L'</strong> keys <br>to respond as fast and accurately as possible.</li><li> Every picture can be classified as either mechanical or non-mechanical.</li><li> If you do not respond in time or commit an error, you will receive a corresponding feedback.<br> Please try to respond as <strong> fast </strong> and as <strong> accurately as possible </strong>.</li><li> Remember the <span style='color: dodgerblue; font-size: 28px'>O</span> pictures. <br></li><li> Please minimize distractions and stay focused. </li><br><br>Press SPACE to START.</div>","32","","","","","","","","","","","","","","","","","","","",""
"html-keyboard-response","119","302016","0.0-4.0-1.0-0.0","wjfocy943rg8kkw","prime","5c5c88f4bf54e100015e0393","5f60e3c0a3b16e07647b2ff9","5f61dc05a7f97c04746a0c13","false","null","<span style=""color: black; font-size: 48px"">N + M</span>","null","","","","resp_prompt","","","","","","","","","","","","","","","",""
"categorize-image","120","302809","0.0-4.0-1.0-1.0","wjfocy943rg8kkw","prime","5c5c88f4bf54e100015e0393","5f60e3c0a3b16e07647b2ff9","5f61dc05a7f97c04746a0c13","true","792","./Stimuli/SelectedImages/LN/LN82.bmp","83","","","","test","true","N + M","83","repetition","LN","LN82.bmp","remember","","49","3","prime1","left","","","",""
"html-keyboard-response","121","304811","0.0-4.0-1.0-3.0","wjfocy943rg8kkw","prime","5c5c88f4bf54e100015e0393","5f60e3c0a3b16e07647b2ff9","5f61dc05a7f97c04746a0c13","false","null","<div style=""align-items: center; display: flex; color: dodgerblue; font-size: 90px""><b>o</b></div>","null","","","","forget_cue","","","","","","","","","","","","","","","",""
"html-keyboard-response","122","305516","0.0-4.0-1.0-0.1","wjfocy943rg8kkw","prime","5c5c88f4bf54e100015e0393","5f60e3c0a3b16e07647b2ff9","5f61dc05a7f97c04746a0c13","false","null","<span style=""color: black; font-size: 48px"">M + N</span>","null","","","","resp_prompt","","","","","","","","","","","","","","","",""
"categorize-image","123","306730","0.0-4.0-1.0-1.1","wjfocy943rg8kkw","prime","5c5c88f4bf54e100015e0393","5f60e3c0a3b16e07647b2ff9","5f61dc05a7f97c04746a0c13","true","1213","./Stimuli/SelectedImages/SN/SN49.bmp","76","","","","test","true","M + N","76","repetition","SN","SN49.bmp","remember","","50","3","prime1","right","","","",""
"html-keyboard-response","124","308732","0.0-4.0-1.0-3.1","wjfocy943rg8kkw","prime","5c5c88f4bf54e100015e0393","5f60e3c0a3b16e07647b2ff9","5f61dc05a7f97c04746a0c13","false","null","<div style=""align-items: center; display: flex; color: dodgerblue; font-size: 90px""><b>o</b></div>","null","","","","forget_cue","","","","","","","","","","","","","","","",""
"html-keyboard-response","125","309437","0.0-4.0-1.0-0.2","wjfocy943rg8kkw","prime","5c5c88f4bf54e100015e0393","5f60e3c0a3b16e07647b2ff9","5f61dc05a7f97c04746a0c13","false","null","<span style=""color: black; font-size: 48px"">N + M</span>","null","","","","resp_prompt","","","","","","","","","","","","","","","",""
"categorize-image","126","310097","0.0-4.0-1.0-1.2","wjfocy943rg8kkw","prime","5c5c88f4bf54e100015e0393","5f60e3c0a3b16e07647b2ff9","5f61dc05a7f97c04746a0c13","true","660","./Stimuli/SelectedImages/LN/LN128.bmp","83","","","","test","true","N + M","83","switch","LN","LN128.bmp","remember","","51","3","prime1","left","","","",""
"html-keyboard-response","127","312099","0.0-4.0-1.0-3.2","wjfocy943rg8kkw","prime","5c5c88f4bf54e100015e0393","5f60e3c0a3b16e07647b2ff9","5f61dc05a7f97c04746a0c13","false","null","<div style=""align-items: center; display: flex; color: dodgerblue; font-size: 90px""><b>o</b></div>","null","","","","forget_cue","","","","","","","","","","","","","","","",""
"html-keyboard-response","128","312804","0.0-4.0-1.0-0.3","wjfocy943rg8kkw","prime","5c5c88f4bf54e100015e0393","5f60e3c0a3b16e07647b2ff9","5f61dc05a7f97c04746a0c13","false","null","<span style=""color: black; font-size: 48px"">M + N</span>","null","","","","resp_prompt","","","","","","","","","","","","","","","",""
"categorize-image","129","313434","0.0-4.0-1.0-1.3","wjfocy943rg8kkw","prime","5c5c88f4bf54e100015e0393","5f60e3c0a3b16e07647b2ff9","5f61dc05a7f97c04746a0c13","true","628","./Stimuli/SelectedImages/LN/LN177.bmp","76","","","","test","true","M + N","76","repetition","LN","LN177.bmp","forget","","52","3","prime1","right","","","",""
"html-keyboard-response","130","315436","0.0-4.0-1.0-3.3","wjfocy943rg8kkw","prime","5c5c88f4bf54e100015e0393","5f60e3c0a3b16e07647b2ff9","5f61dc05a7f97c04746a0c13","false","null","<div style=""align-items: center; display: flex; color: darkorange; font-size: 90px""><b>ø</b></div>","null","","","","forget_cue","","","","","","","","","","","","","","","",""
"html-keyboard-response","131","316139","0.0-4.0-1.0-0.4","wjfocy943rg8kkw","prime","5c5c88f4bf54e100015e0393","5f60e3c0a3b16e07647b2ff9","5f61dc05a7f97c04746a0c13","false","null","<span style=""color: black; font-size: 48px"">N + M</span>","null","","","","resp_prompt","","","","","","","","","","","","","","","",""
"categorize-image","132","316812","0.0-4.0-1.0-1.4","wjfocy943rg8kkw","prime","5c5c88f4bf54e100015e0393","5f60e3c0a3b16e07647b2ff9","5f61dc05a7f97c04746a0c13","true","672","./Stimuli/SelectedImages/SN/SN52.bmp","83","","","","test","true","N + M","83","repetition","SN","SN52.bmp","remember","","53","3","prime1","left","","","",""
"html-keyboard-response","133","318815","0.0-4.0-1.0-3.4","wjfocy943rg8kkw","prime","5c5c88f4bf54e100015e0393","5f60e3c0a3b16e07647b2ff9","5f61dc05a7f97c04746a0c13","false","null","<div style=""align-items: center; display: flex; color: dodgerblue; font-size: 90px""><b>o</b></div>","null","","","","forget_cue","","","","","","","","","","","","","","","",""
"html-keyboard-response","134","319520","0.0-4.0-1.0-0.5","wjfocy943rg8kkw","prime","5c5c88f4bf54e100015e0393","5f60e3c0a3b16e07647b2ff9","5f61dc05a7f97c04746a0c13","false","null","<span style=""color: black; font-size: 48px"">N + M</span>","null","","","","resp_prompt","","","","","","","","","","","","","","","",""
"categorize-image","135","320167","0.0-4.0-1.0-1.5","wjfocy943rg8kkw","prime","5c5c88f4bf54e100015e0393","5f60e3c0a3b16e07647b2ff9","5f61dc05a7f97c04746a0c13","true","645","./Stimuli/SelectedImages/SM/SM200.bmp","76","","","","test","true","N + M","76","repetition","SM","SM200.bmp","forget","","54","3","prime1","right","","","",""
"html-keyboard-response","136","322168","0.0-4.0-1.0-3.5","wjfocy943rg8kkw","prime","5c5c88f4bf54e100015e0393","5f60e3c0a3b16e07647b2ff9","5f61dc05a7f97c04746a0c13","false","null","<div style=""align-items: center; display: flex; color: darkorange; font-size: 90px""><b>ø</b></div>","null","","","","forget_cue","","","","","","","","","","","","","","","",""
"html-keyboard-response","137","322869","0.0-4.0-1.0-0.6","wjfocy943rg8kkw","prime","5c5c88f4bf54e100015e0393","5f60e3c0a3b16e07647b2ff9","5f61dc05a7f97c04746a0c13","false","null","<span style=""color: black; font-size: 48px"">N + M</span>","null","","","","resp_prompt","","","","","","","","","","","","","","","",""
"categorize-image","138","323479","0.0-4.0-1.0-1.6","wjfocy943rg8kkw","prime","5c5c88f4bf54e100015e0393","5f60e3c0a3b16e07647b2ff9","5f61dc05a7f97c04746a0c13","true","609","./Stimuli/SelectedImages/LN/LN59.bmp","83","","","","test","true","N + M","83","switch","LN","LN59.bmp","remember","","55","3","prime1","left","","","",""
"html-keyboard-response","139","325482","0.0-4.0-1.0-3.6","wjfocy943rg8kkw","prime","5c5c88f4bf54e100015e0393","5f60e3c0a3b16e07647b2ff9","5f61dc05a7f97c04746a0c13","false","null","<div style=""align-items: center; display: flex; color: dodgerblue; font-size: 90px""><b>o</b></div>","null","","","","forget_cue","","","","","","","","","","","","","","","",""
"html-keyboard-response","140","326185","0.0-4.0-1.0-0.7","wjfocy943rg8kkw","prime","5c5c88f4bf54e100015e0393","5f60e3c0a3b16e07647b2ff9","5f61dc05a7f97c04746a0c13","false","null","<span style=""color: black; font-size: 48px"">N + M</span>","null","","","","resp_prompt","","","","","","","","","","","","","","","",""
"categorize-image","141","326695","0.0-4.0-1.0-1.7","wjfocy943rg8kkw","prime","5c5c88f4bf54e100015e0393","5f60e3c0a3b16e07647b2ff9","5f61dc05a7f97c04746a0c13","true","509","./Stimuli/SelectedImages/SM/SM195.bmp","76","","","","test","true","N + M","76","repetition","SM","SM195.bmp","remember","","56","3","prime1","right","","","",""
"html-keyboard-response","142","328696","0.0-4.0-1.0-3.7","wjfocy943rg8kkw","prime","5c5c88f4bf54e100015e0393","5f60e3c0a3b16e07647b2ff9","5f61dc05a7f97c04746a0c13","false","null","<div style=""align-items: center; display: flex; color: dodgerblue; font-size: 90px""><b>o</b></div>","null","","","","forget_cue","","","","","","","","","","","","","","","",""
"html-keyboard-response","143","329399","0.0-4.0-1.0-0.8","wjfocy943rg8kkw","prime","5c5c88f4bf54e100015e0393","5f60e3c0a3b16e07647b2ff9","5f61dc05a7f97c04746a0c13","false","null","<span style=""color: black; font-size: 48px"">M + N</span>","null","","","","resp_prompt","","","","","","","","","","","","","","","",""
"categorize-image","144","330269","0.0-4.0-1.0-1.8","wjfocy943rg8kkw","prime","5c5c88f4bf54e100015e0393","5f60e3c0a3b16e07647b2ff9","5f61dc05a7f97c04746a0c13","true","870","./Stimuli/SelectedImages/LM/LM235.bmp","83","","","","test","true","M + N","83","repetition","LM","LM235.bmp","forget","","57","3","prime1","left","","","",""
"html-keyboard-response","145","332272","0.0-4.0-1.0-3.8","wjfocy943rg8kkw","prime","5c5c88f4bf54e100015e0393","5f60e3c0a3b16e07647b2ff9","5f61dc05a7f97c04746a0c13","false","null","<div style=""align-items: center; display: flex; color: darkorange; font-size: 90px""><b>ø</b></div>","null","","","","forget_cue","","","","","","","","","","","","","","","",""
"html-keyboard-response","146","332975","0.0-4.0-1.0-0.9","wjfocy943rg8kkw","prime","5c5c88f4bf54e100015e0393","5f60e3c0a3b16e07647b2ff9","5f61dc05a7f97c04746a0c13","false","null","<span style=""color: black; font-size: 48px"">N + M</span>","null","","","","resp_prompt","","","","","","","","","","","","","","","",""
"categorize-image","147","333526","0.0-4.0-1.0-1.9","wjfocy943rg8kkw","prime","5c5c88f4bf54e100015e0393","5f60e3c0a3b16e07647b2ff9","5f61dc05a7f97c04746a0c13","true","550","./Stimuli/SelectedImages/LM/LM167.bmp","76","","","","test","true","N + M","76","switch","LM","LM167.bmp","remember","","58","3","prime1","right","","","",""
"html-keyboard-response","148","335531","0.0-4.0-1.0-3.9","wjfocy943rg8kkw","prime","5c5c88f4bf54e100015e0393","5f60e3c0a3b16e07647b2ff9","5f61dc05a7f97c04746a0c13","false","null","<div style=""align-items: center; display: flex; color: dodgerblue; font-size: 90px""><b>o</b></div>","null","","","","forget_cue","","","","","","","","","","","","","","","",""
"html-keyboard-response","149","336234","0.0-4.0-1.0-0.10","wjfocy943rg8kkw","prime","5c5c88f4bf54e100015e0393","5f60e3c0a3b16e07647b2ff9","5f61dc05a7f97c04746a0c13","false","null","<span style=""color: black; font-size: 48px"">N + M</span>","null","","","","resp_prompt","","","","","","","","","","","","","","","",""
"categorize-image","150","337045","0.0-4.0-1.0-1.10","wjfocy943rg8kkw","prime","5c5c88f4bf54e100015e0393","5f60e3c0a3b16e07647b2ff9","5f61dc05a7f97c04746a0c13","true","811","./Stimuli/SelectedImages/SM/SM148.bmp","76","","","","test","true","N + M","76","switch","SM","SM148.bmp","forget","","59","3","prime1","right","","","",""
"html-keyboard-response","151","339049","0.0-4.0-1.0-3.10","wjfocy943rg8kkw","prime","5c5c88f4bf54e100015e0393","5f60e3c0a3b16e07647b2ff9","5f61dc05a7f97c04746a0c13","false","null","<div style=""align-items: center; display: flex; color: darkorange; font-size: 90px""><b>ø</b></div>","null","","","","forget_cue","","","","","","","","","","","","","","","",""
"html-keyboard-response","152","339751","0.0-4.0-1.0-0.11","wjfocy943rg8kkw","prime","5c5c88f4bf54e100015e0393","5f60e3c0a3b16e07647b2ff9","5f61dc05a7f97c04746a0c13","false","null","<span style=""color: black; font-size: 48px"">M + N</span>","null","","","","resp_prompt","","","","","","","","","","","","","","","",""
"categorize-image","153","340570","0.0-4.0-1.0-1.11","wjfocy943rg8kkw","prime","5c5c88f4bf54e100015e0393","5f60e3c0a3b16e07647b2ff9","5f61dc05a7f97c04746a0c13","true","817","./Stimuli/SelectedImages/SN/SN27.bmp","76","","","","test","true","M + N","76","repetition","SN","SN27.bmp","forget","","60","3","prime1","right","","","",""
"html-keyboard-response","154","342573","0.0-4.0-1.0-3.11","wjfocy943rg8kkw","prime","5c5c88f4bf54e100015e0393","5f60e3c0a3b16e07647b2ff9","5f61dc05a7f97c04746a0c13","false","null","<div style=""align-items: center; display: flex; color: darkorange; font-size: 90px""><b>ø</b></div>","null","","","","forget_cue","","","","","","","","","","","","","","","",""
"html-keyboard-response","155","343275","0.0-4.0-1.0-0.12","wjfocy943rg8kkw","prime","5c5c88f4bf54e100015e0393","5f60e3c0a3b16e07647b2ff9","5f61dc05a7f97c04746a0c13","false","null","<span style=""color: black; font-size: 48px"">N + M</span>","null","","","","resp_prompt","","","","","","","","","","","","","","","",""
"categorize-image","156","343964","0.0-4.0-1.0-1.12","wjfocy943rg8kkw","prime","5c5c88f4bf54e100015e0393","5f60e3c0a3b16e07647b2ff9","5f61dc05a7f97c04746a0c13","true","687","./Stimuli/SelectedImages/LM/LM150.bmp","76","","","","test","true","N + M","76","switch","LM","LM150.bmp","forget","","61","3","prime1","right","","","",""
"html-keyboard-response","157","345966","0.0-4.0-1.0-3.12","wjfocy943rg8kkw","prime","5c5c88f4bf54e100015e0393","5f60e3c0a3b16e07647b2ff9","5f61dc05a7f97c04746a0c13","false","null","<div style=""align-items: center; display: flex; color: darkorange; font-size: 90px""><b>ø</b></div>","null","","","","forget_cue","","","","","","","","","","","","","","","",""
"html-keyboard-response","158","346668","0.0-4.0-1.0-0.13","wjfocy943rg8kkw","prime","5c5c88f4bf54e100015e0393","5f60e3c0a3b16e07647b2ff9","5f61dc05a7f97c04746a0c13","false","null","<span style=""color: black; font-size: 48px"">M + N</span>","null","","","","resp_prompt","","","","","","","","","","","","","","","",""
"categorize-image","159","347266","0.0-4.0-1.0-1.13","wjfocy943rg8kkw","prime","5c5c88f4bf54e100015e0393","5f60e3c0a3b16e07647b2ff9","5f61dc05a7f97c04746a0c13","true","597","./Stimuli/SelectedImages/SN/SN18.bmp","76","","","","test","true","M + N","76","switch","SN","SN18.bmp","forget","","62","3","prime1","right","","","",""
"html-keyboard-response","160","349270","0.0-4.0-1.0-3.13","wjfocy943rg8kkw","prime","5c5c88f4bf54e100015e0393","5f60e3c0a3b16e07647b2ff9","5f61dc05a7f97c04746a0c13","false","null","<div style=""align-items: center; display: flex; color: darkorange; font-size: 90px""><b>ø</b></div>","null","","","","forget_cue","","","","","","","","","","","","","","","",""
"html-keyboard-response","161","349971","0.0-4.0-1.0-0.14","wjfocy943rg8kkw","prime","5c5c88f4bf54e100015e0393","5f60e3c0a3b16e07647b2ff9","5f61dc05a7f97c04746a0c13","false","null","<span style=""color: black; font-size: 48px"">N + M</span>","null","","","","resp_prompt","","","","","","","","","","","","","","","",""
"categorize-image","162","351028","0.0-4.0-1.0-1.14","wjfocy943rg8kkw","prime","5c5c88f4bf54e100015e0393","5f60e3c0a3b16e07647b2ff9","5f61dc05a7f97c04746a0c13","true","1056","./Stimuli/SelectedImages/SN/SN64.bmp","83","","","","test","true","N + M","83","repetition","SN","SN64.bmp","forget","","63","3","prime1","left","","","",""
"html-keyboard-response","163","353034","0.0-4.0-1.0-3.14","wjfocy943rg8kkw","prime","5c5c88f4bf54e100015e0393","5f60e3c0a3b16e07647b2ff9","5f61dc05a7f97c04746a0c13","false","null","<div style=""align-items: center; display: flex; color: darkorange; font-size: 90px""><b>ø</b></div>","null","","","","forget_cue","","","","","","","","","","","","","","","",""
"html-keyboard-response","164","353736","0.0-4.0-1.0-0.15","wjfocy943rg8kkw","prime","5c5c88f4bf54e100015e0393","5f60e3c0a3b16e07647b2ff9","5f61dc05a7f97c04746a0c13","false","null","<span style=""color: black; font-size: 48px"">N + M</span>","null","","","","resp_prompt","","","","","","","","","","","","","","","",""
"categorize-image","165","354311","0.0-4.0-1.0-1.15","wjfocy943rg8kkw","prime","5c5c88f4bf54e100015e0393","5f60e3c0a3b16e07647b2ff9","5f61dc05a7f97c04746a0c13","true","573","./Stimuli/SelectedImages/SN/SN181.bmp","83","","","","test","true","N + M","83","switch","SN","SN181.bmp","remember","","64","3","prime1","left","","","",""
"html-keyboard-response","166","356313","0.0-4.0-1.0-3.15","wjfocy943rg8kkw","prime","5c5c88f4bf54e100015e0393","5f60e3c0a3b16e07647b2ff9","5f61dc05a7f97c04746a0c13","false","null","<div style=""align-items: center; display: flex; color: dodgerblue; font-size: 90px""><b>o</b></div>","null","","","","forget_cue","","","","","","","","","","","","","","","",""
"html-keyboard-response","167","357016","0.0-4.0-1.0-0.16","wjfocy943rg8kkw","prime","5c5c88f4bf54e100015e0393","5f60e3c0a3b16e07647b2ff9","5f61dc05a7f97c04746a0c13","false","null","<span style=""color: black; font-size: 48px"">N + M</span>","null","","","","resp_prompt","","","","","","","","","","","","","","","",""
"categorize-image","168","357954","0.0-4.0-1.0-1.16","wjfocy943rg8kkw","prime","5c5c88f4bf54e100015e0393","5f60e3c0a3b16e07647b2ff9","5f61dc05a7f97c04746a0c13","true","936","./Stimuli/SelectedImages/SN/SN187.bmp","83","","","","test","true","N + M","83","repetition","SN","SN187.bmp","forget","","65","3","prime1","left","","","",""
"html-keyboard-response","169","359957","0.0-4.0-1.0-3.16","wjfocy943rg8kkw","prime","5c5c88f4bf54e100015e0393","5f60e3c0a3b16e07647b2ff9","5f61dc05a7f97c04746a0c13","false","null","<div style=""align-items: center; display: flex; color: darkorange; font-size: 90px""><b>ø</b></div>","null","","","","forget_cue","","","","","","","","","","","","","","","",""
"html-keyboard-response","170","360659","0.0-4.0-1.0-0.17","wjfocy943rg8kkw","prime","5c5c88f4bf54e100015e0393","5f60e3c0a3b16e07647b2ff9","5f61dc05a7f97c04746a0c13","false","null","<span style=""color: black; font-size: 48px"">M + N</span>","null","","","","resp_prompt","","","","","","","","","","","","","","","",""
"categorize-image","171","361418","0.0-4.0-1.0-1.17","wjfocy943rg8kkw","prime","5c5c88f4bf54e100015e0393","5f60e3c0a3b16e07647b2ff9","5f61dc05a7f97c04746a0c13","true","757","./Stimuli/SelectedImages/SN/SN111.bmp","76","","","","test","true","M + N","76","repetition","SN","SN111.bmp","remember","","66","3","prime1","right","","","",""
"html-keyboard-response","172","363419","0.0-4.0-1.0-3.17","wjfocy943rg8kkw","prime","5c5c88f4bf54e100015e0393","5f60e3c0a3b16e07647b2ff9","5f61dc05a7f97c04746a0c13","false","null","<div style=""align-items: center; display: flex; color: dodgerblue; font-size: 90px""><b>o</b></div>","null","","","","forget_cue","","","","","","","","","","","","","","","",""
"html-keyboard-response","173","364122","0.0-4.0-1.0-0.18","wjfocy943rg8kkw","prime","5c5c88f4bf54e100015e0393","5f60e3c0a3b16e07647b2ff9","5f61dc05a7f97c04746a0c13","false","null","<span style=""color: black; font-size: 48px"">N + M</span>","null","","","","resp_prompt","","","","","","","","","","","","","","","",""
"categorize-image","174","365214","0.0-4.0-1.0-1.18","wjfocy943rg8kkw","prime","5c5c88f4bf54e100015e0393","5f60e3c0a3b16e07647b2ff9","5f61dc05a7f97c04746a0c13","true","1091","./Stimuli/SelectedImages/LM/LM48.bmp","76","","","","test","true","N + M","76","repetition","LM","LM48.bmp","forget","","67","3","prime1","right","","","",""
"html-keyboard-response","175","367217","0.0-4.0-1.0-3.18","wjfocy943rg8kkw","prime","5c5c88f4bf54e100015e0393","5f60e3c0a3b16e07647b2ff9","5f61dc05a7f97c04746a0c13","false","null","<div style=""align-items: center; display: flex; color: darkorange; font-size: 90px""><b>ø</b></div>","null","","","","forget_cue","","","","","","","","","","","","","","","",""
"html-keyboard-response","176","367918","0.0-4.0-1.0-0.19","wjfocy943rg8kkw","prime","5c5c88f4bf54e100015e0393","5f60e3c0a3b16e07647b2ff9","5f61dc05a7f97c04746a0c13","false","null","<span style=""color: black; font-size: 48px"">M + N</span>","null","","","","resp_prompt","","","","","","","","","","","","","","","",""
"categorize-image","177","368509","0.0-4.0-1.0-1.19","wjfocy943rg8kkw","prime","5c5c88f4bf54e100015e0393","5f60e3c0a3b16e07647b2ff9","5f61dc05a7f97c04746a0c13","true","589","./Stimuli/SelectedImages/SM/SM213.bmp","83","","","","test","true","M + N","83","switch","SM","SM213.bmp","forget","","68","3","prime1","left","","","",""
"html-keyboard-response","178","370513","0.0-4.0-1.0-3.19","wjfocy943rg8kkw","prime","5c5c88f4bf54e100015e0393","5f60e3c0a3b16e07647b2ff9","5f61dc05a7f97c04746a0c13","false","null","<div style=""align-items: center; display: flex; color: darkorange; font-size: 90px""><b>ø</b></div>","null","","","","forget_cue","","","","","","","","","","","","","","","",""
"html-keyboard-response","179","371216","0.0-4.0-1.0-0.20","wjfocy943rg8kkw","prime","5c5c88f4bf54e100015e0393","5f60e3c0a3b16e07647b2ff9","5f61dc05a7f97c04746a0c13","false","null","<span style=""color: black; font-size: 48px"">M + N</span>","null","","","","resp_prompt","","","","","","","","","","","","","","","",""
"categorize-image","180","371863","0.0-4.0-1.0-1.20","wjfocy943rg8kkw","prime","5c5c88f4bf54e100015e0393","5f60e3c0a3b16e07647b2ff9","5f61dc05a7f97c04746a0c13","true","644","./Stimuli/SelectedImages/LM/LM59.bmp","83","","","","test","true","M + N","83","repetition","LM","LM59.bmp","forget","","69","3","prime1","left","","","",""
"html-keyboard-response","181","373866","0.0-4.0-1.0-3.20","wjfocy943rg8kkw","prime","5c5c88f4bf54e100015e0393","5f60e3c0a3b16e07647b2ff9","5f61dc05a7f97c04746a0c13","false","null","<div style=""align-items: center; display: flex; color: darkorange; font-size: 90px""><b>ø</b></div>","null","","","","forget_cue","","","","","","","","","","","","","","","",""
"html-keyboard-response","182","374568","0.0-4.0-1.0-0.21","wjfocy943rg8kkw","prime","5c5c88f4bf54e100015e0393","5f60e3c0a3b16e07647b2ff9","5f61dc05a7f97c04746a0c13","false","null","<span style=""color: black; font-size: 48px"">M + N</span>","null","","","","resp_prompt","","","","","","","","","","","","","","","",""
"categorize-image","183","375196","0.0-4.0-1.0-1.21","wjfocy943rg8kkw","prime","5c5c88f4bf54e100015e0393","5f60e3c0a3b16e07647b2ff9","5f61dc05a7f97c04746a0c13","true","627","./Stimuli/SelectedImages/SM/SM78.bmp","83","","","","test","true","M + N","83","switch","SM","SM78.bmp","remember","","70","3","prime1","left","","","",""
"html-keyboard-response","184","377200","0.0-4.0-1.0-3.21","wjfocy943rg8kkw","prime","5c5c88f4bf54e100015e0393","5f60e3c0a3b16e07647b2ff9","5f61dc05a7f97c04746a0c13","false","null","<div style=""align-items: center; display: flex; color: dodgerblue; font-size: 90px""><b>o</b></div>","null","","","","forget_cue","","","","","","","","","","","","","","","",""
"html-keyboard-response","185","377904","0.0-4.0-1.0-0.22","wjfocy943rg8kkw","prime","5c5c88f4bf54e100015e0393","5f60e3c0a3b16e07647b2ff9","5f61dc05a7f97c04746a0c13","false","null","<span style=""color: black; font-size: 48px"">M + N</span>","null","","","","resp_prompt","","","","","","","","","","","","","","","",""
"categorize-image","186","378607","0.0-4.0-1.0-1.22","wjfocy943rg8kkw","prime","5c5c88f4bf54e100015e0393","5f60e3c0a3b16e07647b2ff9","5f61dc05a7f97c04746a0c13","true","703","./Stimuli/SelectedImages/LM/LM100.bmp","83","","","","test","true","M + N","83","repetition","LM","LM100.bmp","remember","","71","3","prime1","left","","","",""
"html-keyboard-response","187","380608","0.0-4.0-1.0-3.22","wjfocy943rg8kkw","prime","5c5c88f4bf54e100015e0393","5f60e3c0a3b16e07647b2ff9","5f61dc05a7f97c04746a0c13","false","null","<div style=""align-items: center; display: flex; color: dodgerblue; font-size: 90px""><b>o</b></div>","null","","","","forget_cue","","","","","","","","","","","","","","","",""
"html-keyboard-response","188","381310","0.0-4.0-1.0-0.23","wjfocy943rg8kkw","prime","5c5c88f4bf54e100015e0393","5f60e3c0a3b16e07647b2ff9","5f61dc05a7f97c04746a0c13","false","null","<span style=""color: black; font-size: 48px"">M + N</span>","null","","","","resp_prompt","","","","","","","","","","","","","","","",""
"categorize-image","189","381892","0.0-4.0-1.0-1.23","wjfocy943rg8kkw","prime","5c5c88f4bf54e100015e0393","5f60e3c0a3b16e07647b2ff9","5f61dc05a7f97c04746a0c13","true","580","./Stimuli/SelectedImages/LN/LN149.bmp","76","","","","test","true","M + N","76","repetition","LN","LN149.bmp","remember","","72","3","prime1","right","","","",""
"html-keyboard-response","190","383895","0.0-4.0-1.0-3.23","wjfocy943rg8kkw","prime","5c5c88f4bf54e100015e0393","5f60e3c0a3b16e07647b2ff9","5f61dc05a7f97c04746a0c13","false","null","<div style=""align-items: center; display: flex; color: dodgerblue; font-size: 90px""><b>o</b></div>","null","","","","forget_cue","","","","","","","","","","","","","","","",""
"html-keyboard-response","191","384597","0.0-4.0-1.0-0.24","wjfocy943rg8kkw","prime","5c5c88f4bf54e100015e0393","5f60e3c0a3b16e07647b2ff9","5f61dc05a7f97c04746a0c13","false","null","<span style=""color: black; font-size: 48px"">N + M</span>","null","","","","resp_prompt","","","","","","","","","","","","","","","",""
"categorize-image","192","385284","0.0-4.0-1.0-1.24","wjfocy943rg8kkw","prime","5c5c88f4bf54e100015e0393","5f60e3c0a3b16e07647b2ff9","5f61dc05a7f97c04746a0c13","true","686","./Stimuli/SelectedImages/LN/LN101.bmp","83","","","","test","true","N + M","83","switch","LN","LN101.bmp","forget","","73","3","prime1","left","","","",""
"html-keyboard-response","193","387285","0.0-4.0-1.0-3.24","wjfocy943rg8kkw","prime","5c5c88f4bf54e100015e0393","5f60e3c0a3b16e07647b2ff9","5f61dc05a7f97c04746a0c13","false","null","<div style=""align-items: center; display: flex; color: darkorange; font-size: 90px""><b>ø</b></div>","null","","","","forget_cue","","","","","","","","","","","","","","","",""
"html-keyboard-response","194","387987","0.0-4.0-1.0-0.25","wjfocy943rg8kkw","prime","5c5c88f4bf54e100015e0393","5f60e3c0a3b16e07647b2ff9","5f61dc05a7f97c04746a0c13","false","null","<span style=""color: black; font-size: 48px"">M + N</span>","null","","","","resp_prompt","","","","","","","","","","","","","","","",""
"categorize-image","195","388588","0.0-4.0-1.0-1.25","wjfocy943rg8kkw","prime","5c5c88f4bf54e100015e0393","5f60e3c0a3b16e07647b2ff9","5f61dc05a7f97c04746a0c13","true","600","./Stimuli/SelectedImages/LN/LN166.bmp","76","","","","test","true","M + N","76","switch","LN","LN166.bmp","remember","","74","3","prime1","right","","","",""
"html-keyboard-response","196","390591","0.0-4.0-1.0-3.25","wjfocy943rg8kkw","prime","5c5c88f4bf54e100015e0393","5f60e3c0a3b16e07647b2ff9","5f61dc05a7f97c04746a0c13","false","null","<div style=""align-items: center; display: flex; color: dodgerblue; font-size: 90px""><b>o</b></div>","null","","","","forget_cue","","","","","","","","","","","","","","","",""
"html-keyboard-response","197","391295","0.0-4.0-1.0-0.26","wjfocy943rg8kkw","prime","5c5c88f4bf54e100015e0393","5f60e3c0a3b16e07647b2ff9","5f61dc05a7f97c04746a0c13","false","null","<span style=""color: black; font-size: 48px"">N + M</span>","null","","","","resp_prompt","","","","","","","","","","","","","","","",""
"categorize-image","198","392173","0.0-4.0-1.0-1.26","wjfocy943rg8kkw","prime","5c5c88f4bf54e100015e0393","5f60e3c0a3b16e07647b2ff9","5f61dc05a7f97c04746a0c13","true","876","./Stimuli/SelectedImages/LM/LM57.bmp","76","","","","test","true","N + M","76","repetition","LM","LM57.bmp","remember","","75","3","prime1","right","","","",""
"html-keyboard-response","199","394178","0.0-4.0-1.0-3.26","wjfocy943rg8kkw","prime","5c5c88f4bf54e100015e0393","5f60e3c0a3b16e07647b2ff9","5f61dc05a7f97c04746a0c13","false","null","<div style=""align-items: center; display: flex; color: dodgerblue; font-size: 90px""><b>o</b></div>","null","","","","forget_cue","","","","","","","","","","","","","","","",""
"html-keyboard-response","200","394880","0.0-4.0-1.0-0.27","wjfocy943rg8kkw","prime","5c5c88f4bf54e100015e0393","5f60e3c0a3b16e07647b2ff9","5f61dc05a7f97c04746a0c13","false","null","<span style=""color: black; font-size: 48px"">M + N</span>","null","","","","resp_prompt","","","","","","","","","","","","","","","",""
"categorize-image","201","396089","0.0-4.0-1.0-1.27","wjfocy943rg8kkw","prime","5c5c88f4bf54e100015e0393","5f60e3c0a3b16e07647b2ff9","5f61dc05a7f97c04746a0c13","true","1208","./Stimuli/SelectedImages/SM/SM184.bmp","83","","","","test","true","M + N","83","repetition","SM","SM184.bmp","forget","","76","3","prime1","left","","","",""
"html-keyboard-response","202","398090","0.0-4.0-1.0-3.27","wjfocy943rg8kkw","prime","5c5c88f4bf54e100015e0393","5f60e3c0a3b16e07647b2ff9","5f61dc05a7f97c04746a0c13","false","null","<div style=""align-items: center; display: flex; color: darkorange; font-size: 90px""><b>ø</b></div>","null","","","","forget_cue","","","","","","","","","","","","","","","",""
"html-keyboard-response","203","398793","0.0-4.0-1.0-0.28","wjfocy943rg8kkw","prime","5c5c88f4bf54e100015e0393","5f60e3c0a3b16e07647b2ff9","5f61dc05a7f97c04746a0c13","false","null","<span style=""color: black; font-size: 48px"">N + M</span>","null","","","","resp_prompt","","","","","","","","","","","","","","","",""
"categorize-image","204","399461","0.0-4.0-1.0-1.28","wjfocy943rg8kkw","prime","5c5c88f4bf54e100015e0393","5f60e3c0a3b16e07647b2ff9","5f61dc05a7f97c04746a0c13","true","666","./Stimuli/SelectedImages/SN/SN60.bmp","83","","","","test","true","N + M","83","switch","SN","SN60.bmp","forget","","77","3","prime1","left","","","",""
"html-keyboard-response","205","401467","0.0-4.0-1.0-3.28","wjfocy943rg8kkw","prime","5c5c88f4bf54e100015e0393","5f60e3c0a3b16e07647b2ff9","5f61dc05a7f97c04746a0c13","false","null","<div style=""align-items: center; display: flex; color: darkorange; font-size: 90px""><b>ø</b></div>","null","","","","forget_cue","","","","","","","","","","","","","","","",""
"html-keyboard-response","206","402169","0.0-4.0-1.0-0.29","wjfocy943rg8kkw","prime","5c5c88f4bf54e100015e0393","5f60e3c0a3b16e07647b2ff9","5f61dc05a7f97c04746a0c13","false","null","<span style=""color: black; font-size: 48px"">N + M</span>","null","","","","resp_prompt","","","","","","","","","","","","","","","",""
"categorize-image","207","403060","0.0-4.0-1.0-1.29","wjfocy943rg8kkw","prime","5c5c88f4bf54e100015e0393","5f60e3c0a3b16e07647b2ff9","5f61dc05a7f97c04746a0c13","true","890","./Stimuli/SelectedImages/LM/LM179.bmp","76","","","","test","true","N + M","76","switch","LM","LM179.bmp","forget","","78","3","prime1","right","","","",""
"html-keyboard-response","208","405065","0.0-4.0-1.0-3.29","wjfocy943rg8kkw","prime","5c5c88f4bf54e100015e0393","5f60e3c0a3b16e07647b2ff9","5f61dc05a7f97c04746a0c13","false","null","<div style=""align-items: center; display: flex; color: darkorange; font-size: 90px""><b>ø</b></div>","null","","","","forget_cue","","","","","","","","","","","","","","","",""
"html-keyboard-response","209","405771","0.0-4.0-1.0-0.30","wjfocy943rg8kkw","prime","5c5c88f4bf54e100015e0393","5f60e3c0a3b16e07647b2ff9","5f61dc05a7f97c04746a0c13","false","null","<span style=""color: black; font-size: 48px"">N + M</span>","null","","","","resp_prompt","","","","","","","","","","","","","","","",""
"categorize-image","210","406437","0.0-4.0-1.0-1.30","wjfocy943rg8kkw","prime","5c5c88f4bf54e100015e0393","5f60e3c0a3b16e07647b2ff9","5f61dc05a7f97c04746a0c13","true","665","./Stimuli/SelectedImages/SN/SN140.bmp","83","","","","test","true","N + M","83","switch","SN","SN140.bmp","remember","","79","3","prime1","left","","","",""
"html-keyboard-response","211","408438","0.0-4.0-1.0-3.30","wjfocy943rg8kkw","prime","5c5c88f4bf54e100015e0393","5f60e3c0a3b16e07647b2ff9","5f61dc05a7f97c04746a0c13","false","null","<div style=""align-items: center; display: flex; color: dodgerblue; font-size: 90px""><b>o</b></div>","null","","","","forget_cue","","","","","","","","","","","","","","","",""
"html-keyboard-response","212","409141","0.0-4.0-1.0-0.31","wjfocy943rg8kkw","prime","5c5c88f4bf54e100015e0393","5f60e3c0a3b16e07647b2ff9","5f61dc05a7f97c04746a0c13","false","null","<span style=""color: black; font-size: 48px"">M + N</span>","null","","","","resp_prompt","","","","","","","","","","","","","","","",""
"categorize-image","213","409765","0.0-4.0-1.0-1.31","wjfocy943rg8kkw","prime","5c5c88f4bf54e100015e0393","5f60e3c0a3b16e07647b2ff9","5f61dc05a7f97c04746a0c13","true","622","./Stimuli/SelectedImages/LN/LN42.bmp","76","","","","test","true","M + N","76","switch","LN","LN42.bmp","remember","","80","3","prime1","right","","","",""
"html-keyboard-response","214","411768","0.0-4.0-1.0-3.31","wjfocy943rg8kkw","prime","5c5c88f4bf54e100015e0393","5f60e3c0a3b16e07647b2ff9","5f61dc05a7f97c04746a0c13","false","null","<div style=""align-items: center; display: flex; color: dodgerblue; font-size: 90px""><b>o</b></div>","null","","","","forget_cue","","","","","","","","","","","","","","","",""
"html-keyboard-response","215","412470","0.0-4.0-1.0-0.32","wjfocy943rg8kkw","prime","5c5c88f4bf54e100015e0393","5f60e3c0a3b16e07647b2ff9","5f61dc05a7f97c04746a0c13","false","null","<span style=""color: black; font-size: 48px"">N + M</span>","null","","","","resp_prompt","","","","","","","","","","","","","","","",""
"categorize-image","216","413101","0.0-4.0-1.0-1.32","wjfocy943rg8kkw","prime","5c5c88f4bf54e100015e0393","5f60e3c0a3b16e07647b2ff9","5f61dc05a7f97c04746a0c13","true","629","./Stimuli/SelectedImages/LN/LN13.bmp","83","","","","test","true","N + M","83","repetition","LN","LN13.bmp","forget","","81","3","prime1","left","","","",""
"html-keyboard-response","217","415103","0.0-4.0-1.0-3.32","wjfocy943rg8kkw","prime","5c5c88f4bf54e100015e0393","5f60e3c0a3b16e07647b2ff9","5f61dc05a7f97c04746a0c13","false","null","<div style=""align-items: center; display: flex; color: darkorange; font-size: 90px""><b>ø</b></div>","null","","","","forget_cue","","","","","","","","","","","","","","","",""
"html-keyboard-response","218","415809","0.0-4.0-1.0-0.33","wjfocy943rg8kkw","prime","5c5c88f4bf54e100015e0393","5f60e3c0a3b16e07647b2ff9","5f61dc05a7f97c04746a0c13","false","null","<span style=""color: black; font-size: 48px"">M + N</span>","null","","","","resp_prompt","","","","","","","","","","","","","","","",""
"categorize-image","219","416445","0.0-4.0-1.0-1.33","wjfocy943rg8kkw","prime","5c5c88f4bf54e100015e0393","5f60e3c0a3b16e07647b2ff9","5f61dc05a7f97c04746a0c13","true","636","./Stimuli/SelectedImages/SN/SN179.bmp","76","","","","test","true","M + N","76","switch","SN","SN179.bmp","remember","","82","3","prime1","right","","","",""
"html-keyboard-response","220","418447","0.0-4.0-1.0-3.33","wjfocy943rg8kkw","prime","5c5c88f4bf54e100015e0393","5f60e3c0a3b16e07647b2ff9","5f61dc05a7f97c04746a0c13","false","null","<div style=""align-items: center; display: flex; color: dodgerblue; font-size: 90px""><b>o</b></div>","null","","","","forget_cue","","","","","","","","","","","","","","","",""
"html-keyboard-response","221","419148","0.0-4.0-1.0-0.34","wjfocy943rg8kkw","prime","5c5c88f4bf54e100015e0393","5f60e3c0a3b16e07647b2ff9","5f61dc05a7f97c04746a0c13","false","null","<span style=""color: black; font-size: 48px"">N + M</span>","null","","","","resp_prompt","","","","","","","","","","","","","","","",""
"categorize-image","222","420059","0.0-4.0-1.0-1.34","wjfocy943rg8kkw","prime","5c5c88f4bf54e100015e0393","5f60e3c0a3b16e07647b2ff9","5f61dc05a7f97c04746a0c13","true","911","./Stimuli/SelectedImages/SM/SM24.bmp","76","","","","test","true","N + M","76","switch","SM","SM24.bmp","remember","","83","3","prime1","right","","","",""
"html-keyboard-response","223","422063","0.0-4.0-1.0-3.34","wjfocy943rg8kkw","prime","5c5c88f4bf54e100015e0393","5f60e3c0a3b16e07647b2ff9","5f61dc05a7f97c04746a0c13","false","null","<div style=""align-items: center; display: flex; color: dodgerblue; font-size: 90px""><b>o</b></div>","null","","","","forget_cue","","","","","","","","","","","","","","","",""
"html-keyboard-response","224","422766","0.0-4.0-1.0-0.35","wjfocy943rg8kkw","prime","5c5c88f4bf54e100015e0393","5f60e3c0a3b16e07647b2ff9","5f61dc05a7f97c04746a0c13","false","null","<span style=""color: black; font-size: 48px"">N + M</span>","null","","","","resp_prompt","","","","","","","","","","","","","","","",""
"categorize-image","225","423809","0.0-4.0-1.0-1.35","wjfocy943rg8kkw","prime","5c5c88f4bf54e100015e0393","5f60e3c0a3b16e07647b2ff9","5f61dc05a7f97c04746a0c13","true","1043","./Stimuli/SelectedImages/SM/SM74.bmp","76","","","","test","true","N + M","76","repetition","SM","SM74.bmp","forget","","84","3","prime1","right","","","",""
"html-keyboard-response","226","425810","0.0-4.0-1.0-3.35","wjfocy943rg8kkw","prime","5c5c88f4bf54e100015e0393","5f60e3c0a3b16e07647b2ff9","5f61dc05a7f97c04746a0c13","false","null","<div style=""align-items: center; display: flex; color: darkorange; font-size: 90px""><b>ø</b></div>","null","","","","forget_cue","","","","","","","","","","","","","","","",""
"html-keyboard-response","227","426512","0.0-4.0-1.0-0.36","wjfocy943rg8kkw","prime","5c5c88f4bf54e100015e0393","5f60e3c0a3b16e07647b2ff9","5f61dc05a7f97c04746a0c13","false","null","<span style=""color: black; font-size: 48px"">M + N</span>","null","","","","resp_prompt","","","","","","","","","","","","","","","",""
"categorize-image","228","427180","0.0-4.0-1.0-1.36","wjfocy943rg8kkw","prime","5c5c88f4bf54e100015e0393","5f60e3c0a3b16e07647b2ff9","5f61dc05a7f97c04746a0c13","true","666","./Stimuli/SelectedImages/SN/SN182.bmp","76","","","","test","true","M + N","76","switch","SN","SN182.bmp","remember","","85","3","prime1","right","","","",""
"html-keyboard-response","229","429183","0.0-4.0-1.0-3.36","wjfocy943rg8kkw","prime","5c5c88f4bf54e100015e0393","5f60e3c0a3b16e07647b2ff9","5f61dc05a7f97c04746a0c13","false","null","<div style=""align-items: center; display: flex; color: dodgerblue; font-size: 90px""><b>o</b></div>","null","","","","forget_cue","","","","","","","","","","","","","","","",""
"html-keyboard-response","230","429885","0.0-4.0-1.0-0.37","wjfocy943rg8kkw","prime","5c5c88f4bf54e100015e0393","5f60e3c0a3b16e07647b2ff9","5f61dc05a7f97c04746a0c13","false","null","<span style=""color: black; font-size: 48px"">M + N</span>","null","","","","resp_prompt","","","","","","","","","","","","","","","",""
"categorize-image","231","430609","0.0-4.0-1.0-1.37","wjfocy943rg8kkw","prime","5c5c88f4bf54e100015e0393","5f60e3c0a3b16e07647b2ff9","5f61dc05a7f97c04746a0c13","true","722","./Stimuli/SelectedImages/SM/SM17.bmp","83","","","","test","true","M + N","83","repetition","SM","SM17.bmp","remember","","86","3","prime1","left","","","",""
"html-keyboard-response","232","432611","0.0-4.0-1.0-3.37","wjfocy943rg8kkw","prime","5c5c88f4bf54e100015e0393","5f60e3c0a3b16e07647b2ff9","5f61dc05a7f97c04746a0c13","false","null","<div style=""align-items: center; display: flex; color: dodgerblue; font-size: 90px""><b>o</b></div>","null","","","","forget_cue","","","","","","","","","","","","","","","",""
"html-keyboard-response","233","433314","0.0-4.0-1.0-0.38","wjfocy943rg8kkw","prime","5c5c88f4bf54e100015e0393","5f60e3c0a3b16e07647b2ff9","5f61dc05a7f97c04746a0c13","false","null","<span style=""color: black; font-size: 48px"">M + N</span>","null","","","","resp_prompt","","","","","","","","","","","","","","","",""
"categorize-image","234","434388","0.0-4.0-1.0-1.38","wjfocy943rg8kkw","prime","5c5c88f4bf54e100015e0393","5f60e3c0a3b16e07647b2ff9","5f61dc05a7f97c04746a0c13","true","1073","./Stimuli/SelectedImages/LM/LM58.bmp","83","","","","test","true","M + N","83","switch","LM","LM58.bmp","remember","","87","3","prime1","left","","","",""
"html-keyboard-response","235","436391","0.0-4.0-1.0-3.38","wjfocy943rg8kkw","prime","5c5c88f4bf54e100015e0393","5f60e3c0a3b16e07647b2ff9","5f61dc05a7f97c04746a0c13","false","null","<div style=""align-items: center; display: flex; color: dodgerblue; font-size: 90px""><b>o</b></div>","null","","","","forget_cue","","","","","","","","","","","","","","","",""
"html-keyboard-response","236","437093","0.0-4.0-1.0-0.39","wjfocy943rg8kkw","prime","5c5c88f4bf54e100015e0393","5f60e3c0a3b16e07647b2ff9","5f61dc05a7f97c04746a0c13","false","null","<span style=""color: black; font-size: 48px"">N + M</span>","null","","","","resp_prompt","","","","","","","","","","","","","","","",""
"categorize-image","237","437962","0.0-4.0-1.0-1.39","wjfocy943rg8kkw","prime","5c5c88f4bf54e100015e0393","5f60e3c0a3b16e07647b2ff9","5f61dc05a7f97c04746a0c13","true","869","./Stimuli/SelectedImages/LM/LM157.bmp","76","","","","test","true","N + M","76","repetition","LM","LM157.bmp","forget","","88","3","prime1","right","","","",""
"html-keyboard-response","238","439966","0.0-4.0-1.0-3.39","wjfocy943rg8kkw","prime","5c5c88f4bf54e100015e0393","5f60e3c0a3b16e07647b2ff9","5f61dc05a7f97c04746a0c13","false","null","<div style=""align-items: center; display: flex; color: darkorange; font-size: 90px""><b>ø</b></div>","null","","","","forget_cue","","","","","","","","","","","","","","","",""
"html-keyboard-response","239","440669","0.0-4.0-1.0-0.40","wjfocy943rg8kkw","prime","5c5c88f4bf54e100015e0393","5f60e3c0a3b16e07647b2ff9","5f61dc05a7f97c04746a0c13","false","null","<span style=""color: black; font-size: 48px"">M + N</span>","null","","","","resp_prompt","","","","","","","","","","","","","","","",""
"categorize-image","240","441206","0.0-4.0-1.0-1.40","wjfocy943rg8kkw","prime","5c5c88f4bf54e100015e0393","5f60e3c0a3b16e07647b2ff9","5f61dc05a7f97c04746a0c13","true","536","./Stimuli/SelectedImages/LN/LN92.bmp","76","","","","test","true","M + N","76","switch","LN","LN92.bmp","forget","","89","3","prime1","right","","","",""
"html-keyboard-response","241","443209","0.0-4.0-1.0-3.40","wjfocy943rg8kkw","prime","5c5c88f4bf54e100015e0393","5f60e3c0a3b16e07647b2ff9","5f61dc05a7f97c04746a0c13","false","null","<div style=""align-items: center; display: flex; color: darkorange; font-size: 90px""><b>ø</b></div>","null","","","","forget_cue","","","","","","","","","","","","","","","",""
"html-keyboard-response","242","443911","0.0-4.0-1.0-0.41","wjfocy943rg8kkw","prime","5c5c88f4bf54e100015e0393","5f60e3c0a3b16e07647b2ff9","5f61dc05a7f97c04746a0c13","false","null","<span style=""color: black; font-size: 48px"">N + M</span>","null","","","","resp_prompt","","","","","","","","","","","","","","","",""
"categorize-image","243","444839","0.0-4.0-1.0-1.41","wjfocy943rg8kkw","prime","5c5c88f4bf54e100015e0393","5f60e3c0a3b16e07647b2ff9","5f61dc05a7f97c04746a0c13","true","928","./Stimuli/SelectedImages/LM/LM103.bmp","76","","","","test","true","N + M","76","switch","LM","LM103.bmp","remember","","90","3","prime1","right","","","",""
"html-keyboard-response","244","446842","0.0-4.0-1.0-3.41","wjfocy943rg8kkw","prime","5c5c88f4bf54e100015e0393","5f60e3c0a3b16e07647b2ff9","5f61dc05a7f97c04746a0c13","false","null","<div style=""align-items: center; display: flex; color: dodgerblue; font-size: 90px""><b>o</b></div>","null","","","","forget_cue","","","","","","","","","","","","","","","",""
"html-keyboard-response","245","447546","0.0-4.0-1.0-0.42","wjfocy943rg8kkw","prime","5c5c88f4bf54e100015e0393","5f60e3c0a3b16e07647b2ff9","5f61dc05a7f97c04746a0c13","false","null","<span style=""color: black; font-size: 48px"">M + N</span>","null","","","","resp_prompt","","","","","","","","","","","","","","","",""
"categorize-image","246","448154","0.0-4.0-1.0-1.42","wjfocy943rg8kkw","prime","5c5c88f4bf54e100015e0393","5f60e3c0a3b16e07647b2ff9","5f61dc05a7f97c04746a0c13","true","606","./Stimuli/SelectedImages/SN/SN240.bmp","76","","","","test","true","M + N","76","repetition","SN","SN240.bmp","forget","","91","3","prime1","right","","","",""
"html-keyboard-response","247","450160","0.0-4.0-1.0-3.42","wjfocy943rg8kkw","prime","5c5c88f4bf54e100015e0393","5f60e3c0a3b16e07647b2ff9","5f61dc05a7f97c04746a0c13","false","null","<div style=""align-items: center; display: flex; color: darkorange; font-size: 90px""><b>ø</b></div>","null","","","","forget_cue","","","","","","","","","","","","","","","",""
"html-keyboard-response","248","450863","0.0-4.0-1.0-0.43","wjfocy943rg8kkw","prime","5c5c88f4bf54e100015e0393","5f60e3c0a3b16e07647b2ff9","5f61dc05a7f97c04746a0c13","false","null","<span style=""color: black; font-size: 48px"">M + N</span>","null","","","","resp_prompt","","","","","","","","","","","","","","","",""
"categorize-image","249","451882","0.0-4.0-1.0-1.43","wjfocy943rg8kkw","prime","5c5c88f4bf54e100015e0393","5f60e3c0a3b16e07647b2ff9","5f61dc05a7f97c04746a0c13","true","1017","./Stimuli/SelectedImages/LM/LM75.bmp","83","","","","test","true","M + N","83","repetition","LM","LM75.bmp","remember","","92","3","prime1","left","","","",""
"html-keyboard-response","250","453887","0.0-4.0-1.0-3.43","wjfocy943rg8kkw","prime","5c5c88f4bf54e100015e0393","5f60e3c0a3b16e07647b2ff9","5f61dc05a7f97c04746a0c13","false","null","<div style=""align-items: center; display: flex; color: dodgerblue; font-size: 90px""><b>o</b></div>","null","","","","forget_cue","","","","","","","","","","","","","","","",""
"html-keyboard-response","251","454590","0.0-4.0-1.0-0.44","wjfocy943rg8kkw","prime","5c5c88f4bf54e100015e0393","5f60e3c0a3b16e07647b2ff9","5f61dc05a7f97c04746a0c13","false","null","<span style=""color: black; font-size: 48px"">M + N</span>","null","","","","resp_prompt","","","","","","","","","","","","","","","",""
"categorize-image","252","455662","0.0-4.0-1.0-1.44","wjfocy943rg8kkw","prime","5c5c88f4bf54e100015e0393","5f60e3c0a3b16e07647b2ff9","5f61dc05a7f97c04746a0c13","true","1073","./Stimuli/SelectedImages/SM/SM128.bmp","83","","","","test","true","M + N","83","repetition","SM","SM128.bmp","forget","","93","3","prime1","left","","","",""
"html-keyboard-response","253","457663","0.0-4.0-1.0-3.44","wjfocy943rg8kkw","prime","5c5c88f4bf54e100015e0393","5f60e3c0a3b16e07647b2ff9","5f61dc05a7f97c04746a0c13","false","null","<div style=""align-items: center; display: flex; color: darkorange; font-size: 90px""><b>ø</b></div>","null","","","","forget_cue","","","","","","","","","","","","","","","",""
"html-keyboard-response","254","458365","0.0-4.0-1.0-0.45","wjfocy943rg8kkw","prime","5c5c88f4bf54e100015e0393","5f60e3c0a3b16e07647b2ff9","5f61dc05a7f97c04746a0c13","false","null","<span style=""color: black; font-size: 48px"">N + M</span>","null","","","","resp_prompt","","","","","","","","","","","","","","","",""
"categorize-image","255","459254","0.0-4.0-1.0-1.45","wjfocy943rg8kkw","prime","5c5c88f4bf54e100015e0393","5f60e3c0a3b16e07647b2ff9","5f61dc05a7f97c04746a0c13","true","888","./Stimuli/SelectedImages/SM/SM108.bmp","76","","","","test","true","N + M","76","switch","SM","SM108.bmp","remember","","94","3","prime1","right","","","",""
"html-keyboard-response","256","461256","0.0-4.0-1.0-3.45","wjfocy943rg8kkw","prime","5c5c88f4bf54e100015e0393","5f60e3c0a3b16e07647b2ff9","5f61dc05a7f97c04746a0c13","false","null","<div style=""align-items: center; display: flex; color: dodgerblue; font-size: 90px""><b>o</b></div>","null","","","","forget_cue","","","","","","","","","","","","","","","",""
"html-keyboard-response","257","461962","0.0-4.0-1.0-0.46","wjfocy943rg8kkw","prime","5c5c88f4bf54e100015e0393","5f60e3c0a3b16e07647b2ff9","5f61dc05a7f97c04746a0c13","false","null","<span style=""color: black; font-size: 48px"">M + N</span>","null","","","","resp_prompt","","","","","","","","","","","","","","","",""
