"trial_type","trial_index","time_elapsed","internal_node_id","subject","exp_part","prolific_PID","study_ID","session_ID","use","rt","stimulus","key_press","button_pressed","responses","question_order","trial_part","correct","resp_map","correct_resp","probe_condition","category","image","forget_condition","list","trial_num","block_num","block","response","test_part","n_span","sequence","num_spaces"
"pavlovia","0","3","0.0-0.0","yv516d7mufsz6dd","","5f58c538082c5b05b82953f6","5f60e3c0a3b16e07647b2ff9","5f6104ba5152ec0482af4d88","false","","","","","","","","","","","","","","","","","","","","","","",""
"html-keyboard-response","1","65242","0.0-1.0-0.0-0.0","yv516d7mufsz6dd","welcome","5f58c538082c5b05b82953f6","5f60e3c0a3b16e07647b2ff9","5f6104ba5152ec0482af4d88","false","65236.90000001807","<div align=left>Dear participant, <br> thank you for participating in an online study of the Cognition, Action, and Sustainability Unit of the University of Freiburg! <br> <br>The aim of this study is to examine our ability to remember previously learned information. <br>Our goal is to find out, whether our memory improves, when we only remember information that is relevant to us. <br>The experiment will take about 35 minutes to complete. <br> <br>Please, note that you can only participate in this study if you are using a device with a keyboard (PC, Laptop etc.) <br>and not if you are using a mobile device such as a tablet or smartphone.<br> <br>Press 'SPACE' to proceed to the experiment. </div>","32","","","","","","","","","","","","","","","","","","","",""
"html-keyboard-response","2","104266","0.0-1.0-0.0-1.0","yv516d7mufsz6dd","welcome","5f58c538082c5b05b82953f6","5f60e3c0a3b16e07647b2ff9","5f6104ba5152ec0482af4d88","false","39023.12999998685","<div align=left><strong> Time Course of this experiment: </strong> <br><br> <strong> 1.</strong>  First, please fill in some information regarding your demographic data. <br><br> <strong> 2.</strong>  Next, your task will be to classify everyday objects. <br>In addition, you will be asked to remember certain objects and recall them later. <br>Working on these tasks requires your undivided attention and concentration.<br>It is therefore essential that you eliminate any sources of distraction in your  <br>environment and ensure that you will not be disturbed. <br><br><strong> 3.</strong>  At the end of the experiment, you will be asked to answer a few additional questions. <br> <br><strong> Important:</strong> After finishing the experiment, only close the browser window <br> by clicking on the 'end the experiment'-button when you are asked to do so. <br>Closing the browser window prematurely will make the allocation of your participation credit impossible. <br><br> Press 'SPACE' to start the experiment. </div>","32","","","","","","","","","","","","","","","","","","","",""
"html-button-response","3","108848","0.0-1.0-0.0-2.0","yv516d7mufsz6dd","welcome","5f58c538082c5b05b82953f6","5f60e3c0a3b16e07647b2ff9","5f6104ba5152ec0482af4d88","true","4580.640000058338","<div align=left><strong> Informed consent </strong>  <br>The aim of our research is to better understand human behavior and mental processes. <br>In the following study your behavior (e.g. choices, reaction times) will be studied. <br> <br><strong> Voluntariness and Anonymity </strong> <br>Your participation in this study is  <strong> voluntary</strong>.<br>You may withdraw your consent to participate at any time without providing a reason for doing so and without fear of prejudice. <br><br>As no personal data will be collected, <strong>your data and your person cannot be connected after data collection</strong> – the data-set is anonymous. <br>Respectively, deletion of your data will not be possible after data collection has been completed, as we cannot retrace your data-set.<br>The results and anonymized data collected in this study will be published as a scientific publication. <br>This will happen in an <strong>anonymized format</strong>, so that no data can be traced back to a specific person. <br> <br>The anonymized data of this study will be made available to other researchers and/or in a data archive on the Internet as a means of transparency and to enable subsequent re-use. By doing so, this study follows the recommendations of the Deutsche Forschungsgemeinschaft (DFG, German Research Foundation) and Deutsche Gesellschaft für Psychologie (DGPS, German Psychological Society) regarding quality assurance in research.<br>If you have any questions now or after the experiment, please contact our team (experiments@cs.uni-freiburg.de).<br><br><br>I hereby declare, that I understand the above described conditions of participation and I agree to participate under these conditions. <br><br> </div>","","0","","","","","","","","","","","","","","","","","","",""
"html-keyboard-response","4","147641","0.0-1.0-0.0-3.0","yv516d7mufsz6dd","welcome","5f58c538082c5b05b82953f6","5f60e3c0a3b16e07647b2ff9","5f6104ba5152ec0482af4d88","false","38791.655000066385","<div align=left><strong> General information concerning the experiment </strong>  <br> <br>Please follow the instructions:<ol> <li><strong> Do not leave this tab (your browser window) during the experiment and do not reload this tab! </strong>  <br>If you do switch tabs/windows during the experiment (to check your mail or visit another website, for example), <br>the experiment will end automatically and you will <strong>not receive credit</strong> for your participation. <br>Repeated participation or resumption of the experiment is impossible.</li> <br><li>Please close all other programs for the duration of your participation. </li> <br><li>Please mute or turn off your phone and put it out of your reach. </li> <br><li>Please also take off any disturbing accessories (such as wristwatches, bracelets, etc.). </li> <br><li>If you have music playing in the background, please turn it off now. </li> <br></ol>Thank you! <br>Press 'SPACE' to continue. </div>","32","","","","","","","","","","","","","","","","","","","",""
"survey-text","5","152310","0.0-1.0-1.0-0.0","yv516d7mufsz6dd","demographics","5f58c538082c5b05b82953f6","5f60e3c0a3b16e07647b2ff9","5f6104ba5152ec0482af4d88","true","4665.184999932535","","","","{""age"":""31""}","","","","","","","","","","","","","","","","","",""
"survey-multi-choice","6","175814","0.0-1.0-1.0-1.0","yv516d7mufsz6dd","demographics","5f58c538082c5b05b82953f6","5f60e3c0a3b16e07647b2ff9","5f6104ba5152ec0482af4d88","true","23501.829999964684","","","","{""gender"":""male"",""school"":""high school"",""education"":""Completed university degree or equivalent""}","[0,1,2]","","","","","","","","","","","","","","","","",""
"html-keyboard-response","7","199331","0.0-1.0-2.0","yv516d7mufsz6dd","instructions","5f58c538082c5b05b82953f6","5f60e3c0a3b16e07647b2ff9","5f6104ba5152ec0482af4d88","false","23513.365000020713","<div align=left> The experiment is now about to start: <br> <br>In the following part, you will be presented pictures of everyday objects. <br>Your first task is to <strong>classify these objects. </strong> <br> <br> You will classify them either as mechanical or non-mechanical objects. <br> <br>Objects that include any kind of technical mechanism (for example, wheels, switches, levers, <br> electronic components) fall under the category of <strong>mechanical</strong> objects. <br>Only objects without any kind of technical mechanism should be classified as <strong>non-mechanical</strong>. <br><br>Press 'SPACE' to continue. </div>","32","","","","","","","","","","","","","","","","","","","",""
"html-keyboard-response","8","322411","0.0-2.0-0.0","yv516d7mufsz6dd","instructions","5f58c538082c5b05b82953f6","5f60e3c0a3b16e07647b2ff9","5f6104ba5152ec0482af4d88","false","123079.06499993987","<div align=justify>You will classify the objects using the <strong>'S'</strong> and the <strong>'L'</strong> keys on your keyboard.<br>For doing so, please place your <strong>left index finger</strong> on the <strong>'S'</strong> key and place your <strong>right index finger</strong> on the <strong>'L'</strong> key. <br><br> Each trial starts with an instruction, indicating which key ('S'/'L') you need to press to classify <br>the object as mechanical (letter M) or non-mechanical (letter N).<br>The instruction <strong>M + N</strong> indicates that, in the current trial, by pressing the left key ('S') you classify the displayed object as mechanical (M) <br> and by pressing the right key ('L') you classify the object as non-mechanical (N). <br>The instruction <strong>N + M</strong> on the other hand indicates that by pressing the left key ('S') you classify the displayed object as non-mechanical (N) <br> and by pressing the right key ('L') you classify the object as mechanical (M). <br><br>Please press the key corresponding to the correct classification as fast as possible as soon as the object is displayed and try to avoid making mistakes.<br>If you do not respond within a 2 second window, a corresponding feedback will be displayed and the next trial will start.<br> The experiment is divided into multiple blocks to give you the opportunity to take a break after each block. <br>First, you can now practice this task. <br><br>Please place your <strong>LEFT INDEX FINGER</strong> on the 'S' key and your <strong>RIGHT INDEX FINGER</strong> on the 'L' key now. <br><br>Press SPACE to continue.</div>","32","","","","","","","","","","","","","","","","","","","",""
"html-keyboard-response","9","357931","0.0-2.0-1.0","yv516d7mufsz6dd","instructions","5f58c538082c5b05b82953f6","5f60e3c0a3b16e07647b2ff9","5f6104ba5152ec0482af4d88","false","35518.819999997504","<div align=left> You will now have time to practice this task.<br><br>Remember: <br> <br><li>Please place your index fingers on the <strong>'S'</strong> and <strong>'L'</strong> keys <br>to respond as fast and accurately as possible.</li><li>Every picture can be classified as either mechanical or non-mechanical.</li><li>If you do not respond in time or commit an error, you will receive a corresponding feedback. </li><li> Please try to respond as <strong> fast </strong> and as <strong> accurately as possible </strong> .<br><li>To ensure optimal results, please minimize distractions and stay focused. </li><br><br>Press SPACE to continue.</div>","32","","","","","","","","","","","","","","","","","","","",""
"html-keyboard-response","10","358634","0.0-2.0-2.0-0.0","yv516d7mufsz6dd","practice_no_cue","5f58c538082c5b05b82953f6","5f60e3c0a3b16e07647b2ff9","5f6104ba5152ec0482af4d88","false","null","<span style=""color: black; font-size: 48px"">M + N</span>","null","","","","resp_prompt","","","","","","","","","","","","","","","",""
"categorize-image","11","361136","0.0-2.0-2.0-1.0","yv516d7mufsz6dd","practice_no_cue","5f58c538082c5b05b82953f6","5f60e3c0a3b16e07647b2ff9","5f6104ba5152ec0482af4d88","true","null","./Stimuli/ImagesPractice/LN72.jpg","null","","","","test","false","M + N","76","","LN","LN72.jpg","forget","old","1","1","start","too_slow","","","",""
"html-keyboard-response","12","361838","0.0-2.0-2.0-0.1","yv516d7mufsz6dd","practice_no_cue","5f58c538082c5b05b82953f6","5f60e3c0a3b16e07647b2ff9","5f6104ba5152ec0482af4d88","false","null","<span style=""color: black; font-size: 48px"">M + N</span>","null","","","","resp_prompt","","","","","","","","","","","","","","","",""
"categorize-image","13","362983","0.0-2.0-2.0-1.1","yv516d7mufsz6dd","practice_no_cue","5f58c538082c5b05b82953f6","5f60e3c0a3b16e07647b2ff9","5f6104ba5152ec0482af4d88","true","643.2450000429526","./Stimuli/ImagesPractice/LM230.jpg","83","","","","test","true","M + N","83","","LM","LM230.jpg","forget","old","2","1","start","left","","","",""
"html-keyboard-response","14","363685","0.0-2.0-2.0-0.2","yv516d7mufsz6dd","practice_no_cue","5f58c538082c5b05b82953f6","5f60e3c0a3b16e07647b2ff9","5f6104ba5152ec0482af4d88","false","null","<span style=""color: black; font-size: 48px"">M + N</span>","null","","","","resp_prompt","","","","","","","","","","","","","","","",""
"categorize-image","15","364799","0.0-2.0-2.0-1.2","yv516d7mufsz6dd","practice_no_cue","5f58c538082c5b05b82953f6","5f60e3c0a3b16e07647b2ff9","5f6104ba5152ec0482af4d88","true","612.5099998898804","./Stimuli/ImagesPractice/SM97.jpg","76","","","","test","false","M + N","83","","SM","SM97.jpg","forget","old","3","1","start","right","","","",""
"html-keyboard-response","16","365501","0.0-2.0-2.0-0.3","yv516d7mufsz6dd","practice_no_cue","5f58c538082c5b05b82953f6","5f60e3c0a3b16e07647b2ff9","5f6104ba5152ec0482af4d88","false","null","<span style=""color: black; font-size: 48px"">M + N</span>","null","","","","resp_prompt","","","","","","","","","","","","","","","",""
"categorize-image","17","366615","0.0-2.0-2.0-1.3","yv516d7mufsz6dd","practice_no_cue","5f58c538082c5b05b82953f6","5f60e3c0a3b16e07647b2ff9","5f6104ba5152ec0482af4d88","true","611.6250000195578","./Stimuli/ImagesPractice/LM147.jpg","83","","","","test","true","M + N","83","","LM","LM147.jpg","forget","old","4","1","start","left","","","",""
"html-keyboard-response","18","367316","0.0-2.0-2.0-0.4","yv516d7mufsz6dd","practice_no_cue","5f58c538082c5b05b82953f6","5f60e3c0a3b16e07647b2ff9","5f6104ba5152ec0482af4d88","false","null","<span style=""color: black; font-size: 48px"">N + M</span>","null","","","","resp_prompt","","","","","","","","","","","","","","","",""
"categorize-image","19","368838","0.0-2.0-2.0-1.4","yv516d7mufsz6dd","practice_no_cue","5f58c538082c5b05b82953f6","5f60e3c0a3b16e07647b2ff9","5f6104ba5152ec0482af4d88","true","1020.964999916032","./Stimuli/ImagesPractice/SM61.jpg","83","","","","test","false","N + M","76","","SM","SM61.jpg","forget","old","5","1","start","left","","","",""
"html-keyboard-response","20","369541","0.0-2.0-2.0-0.5","yv516d7mufsz6dd","practice_no_cue","5f58c538082c5b05b82953f6","5f60e3c0a3b16e07647b2ff9","5f6104ba5152ec0482af4d88","false","null","<span style=""color: black; font-size: 48px"">N + M</span>","null","","","","resp_prompt","","","","","","","","","","","","","","","",""
"categorize-image","21","370775","0.0-2.0-2.0-1.5","yv516d7mufsz6dd","practice_no_cue","5f58c538082c5b05b82953f6","5f60e3c0a3b16e07647b2ff9","5f6104ba5152ec0482af4d88","true","732.4899999657646","./Stimuli/ImagesPractice/SM62.jpg","76","","","","test","true","N + M","76","","SM","SM62.jpg","remember","old","6","1","start","right","","","",""
"html-keyboard-response","22","371477","0.0-2.0-2.0-0.6","yv516d7mufsz6dd","practice_no_cue","5f58c538082c5b05b82953f6","5f60e3c0a3b16e07647b2ff9","5f6104ba5152ec0482af4d88","false","null","<span style=""color: black; font-size: 48px"">N + M</span>","null","","","","resp_prompt","","","","","","","","","","","","","","","",""
"categorize-image","23","372582","0.0-2.0-2.0-1.6","yv516d7mufsz6dd","practice_no_cue","5f58c538082c5b05b82953f6","5f60e3c0a3b16e07647b2ff9","5f6104ba5152ec0482af4d88","true","604.2250000173226","./Stimuli/ImagesPractice/LN4.jpg","83","","","","test","true","N + M","83","","LN","LN4.jpg","forget","old","7","1","start","left","","","",""
"html-keyboard-response","24","373283","0.0-2.0-2.0-0.7","yv516d7mufsz6dd","practice_no_cue","5f58c538082c5b05b82953f6","5f60e3c0a3b16e07647b2ff9","5f6104ba5152ec0482af4d88","false","null","<span style=""color: black; font-size: 48px"">N + M</span>","null","","","","resp_prompt","","","","","","","","","","","","","","","",""
"categorize-image","25","374552","0.0-2.0-2.0-1.7","yv516d7mufsz6dd","practice_no_cue","5f58c538082c5b05b82953f6","5f60e3c0a3b16e07647b2ff9","5f6104ba5152ec0482af4d88","true","766.5999999735504","./Stimuli/ImagesPractice/LN109.jpg","83","","","","test","true","N + M","83","","LN","LN109.jpg","remember","old","8","1","start","left","","","",""
"html-keyboard-response","26","375255","0.0-2.0-2.0-0.8","yv516d7mufsz6dd","practice_no_cue","5f58c538082c5b05b82953f6","5f60e3c0a3b16e07647b2ff9","5f6104ba5152ec0482af4d88","false","null","<span style=""color: black; font-size: 48px"">M + N</span>","null","","","","resp_prompt","","","","","","","","","","","","","","","",""
"categorize-image","27","376414","0.0-2.0-2.0-1.8","yv516d7mufsz6dd","practice_no_cue","5f58c538082c5b05b82953f6","5f60e3c0a3b16e07647b2ff9","5f6104ba5152ec0482af4d88","true","658.4700000239536","./Stimuli/ImagesPractice/SN220.jpg","76","","","","test","true","M + N","76","","SN","SN220.jpg","remember","old","9","1","start","right","","","",""
"html-keyboard-response","28","377116","0.0-2.0-2.0-0.9","yv516d7mufsz6dd","practice_no_cue","5f58c538082c5b05b82953f6","5f60e3c0a3b16e07647b2ff9","5f6104ba5152ec0482af4d88","false","null","<span style=""color: black; font-size: 48px"">N + M</span>","null","","","","resp_prompt","","","","","","","","","","","","","","","",""
"categorize-image","29","378166","0.0-2.0-2.0-1.9","yv516d7mufsz6dd","practice_no_cue","5f58c538082c5b05b82953f6","5f60e3c0a3b16e07647b2ff9","5f6104ba5152ec0482af4d88","true","548.7250000005588","./Stimuli/ImagesPractice/SM35.jpg","83","","","","test","false","N + M","76","","SM","SM35.jpg","forget","old","10","1","start","left","","","",""
"html-keyboard-response","30","378868","0.0-2.0-2.0-0.10","yv516d7mufsz6dd","practice_no_cue","5f58c538082c5b05b82953f6","5f60e3c0a3b16e07647b2ff9","5f6104ba5152ec0482af4d88","false","null","<span style=""color: black; font-size: 48px"">N + M</span>","null","","","","resp_prompt","","","","","","","","","","","","","","","",""
"categorize-image","31","380040","0.0-2.0-2.0-1.10","yv516d7mufsz6dd","practice_no_cue","5f58c538082c5b05b82953f6","5f60e3c0a3b16e07647b2ff9","5f6104ba5152ec0482af4d88","true","669.8200000682846","./Stimuli/ImagesPractice/SN75.jpg","83","","","","test","true","N + M","83","","SN","SN75.jpg","remember","old","11","1","start","left","","","",""
"html-keyboard-response","32","380742","0.0-2.0-2.0-0.11","yv516d7mufsz6dd","practice_no_cue","5f58c538082c5b05b82953f6","5f60e3c0a3b16e07647b2ff9","5f6104ba5152ec0482af4d88","false","null","<span style=""color: black; font-size: 48px"">N + M</span>","null","","","","resp_prompt","","","","","","","","","","","","","","","",""
"categorize-image","33","381847","0.0-2.0-2.0-1.11","yv516d7mufsz6dd","practice_no_cue","5f58c538082c5b05b82953f6","5f60e3c0a3b16e07647b2ff9","5f6104ba5152ec0482af4d88","true","603.3299999544397","./Stimuli/ImagesPractice/LM55.jpg","76","","","","test","true","N + M","76","","LM","LM55.jpg","remember","old","12","1","start","right","","","",""
"html-keyboard-response","34","382548","0.0-2.0-2.0-0.12","yv516d7mufsz6dd","practice_no_cue","5f58c538082c5b05b82953f6","5f60e3c0a3b16e07647b2ff9","5f6104ba5152ec0482af4d88","false","null","<span style=""color: black; font-size: 48px"">M + N</span>","null","","","","resp_prompt","","","","","","","","","","","","","","","",""
"categorize-image","35","383807","0.0-2.0-2.0-1.12","yv516d7mufsz6dd","practice_no_cue","5f58c538082c5b05b82953f6","5f60e3c0a3b16e07647b2ff9","5f6104ba5152ec0482af4d88","true","756.5349999349564","./Stimuli/ImagesPractice/LM143.jpg","83","","","","test","true","M + N","83","","LM","LM143.jpg","remember","old","13","1","start","left","","","",""
"html-keyboard-response","36","384507","0.0-2.0-2.0-0.13","yv516d7mufsz6dd","practice_no_cue","5f58c538082c5b05b82953f6","5f60e3c0a3b16e07647b2ff9","5f6104ba5152ec0482af4d88","false","null","<span style=""color: black; font-size: 48px"">M + N</span>","null","","","","resp_prompt","","","","","","","","","","","","","","","",""
"categorize-image","37","385591","0.0-2.0-2.0-1.13","yv516d7mufsz6dd","practice_no_cue","5f58c538082c5b05b82953f6","5f60e3c0a3b16e07647b2ff9","5f6104ba5152ec0482af4d88","true","581.6549999872223","./Stimuli/ImagesPractice/LN17.jpg","76","","","","test","true","M + N","76","","LN","LN17.jpg","remember","old","14","1","start","right","","","",""
"html-keyboard-response","38","386292","0.0-2.0-2.0-0.14","yv516d7mufsz6dd","practice_no_cue","5f58c538082c5b05b82953f6","5f60e3c0a3b16e07647b2ff9","5f6104ba5152ec0482af4d88","false","null","<span style=""color: black; font-size: 48px"">N + M</span>","null","","","","resp_prompt","","","","","","","","","","","","","","","",""
"categorize-image","39","387440","0.0-2.0-2.0-1.14","yv516d7mufsz6dd","practice_no_cue","5f58c538082c5b05b82953f6","5f60e3c0a3b16e07647b2ff9","5f6104ba5152ec0482af4d88","true","645.2000000281259","./Stimuli/ImagesPractice/SN221.jpg","83","","","","test","true","N + M","83","","SN","SN221.jpg","forget","old","15","1","start","left","","","",""
"html-keyboard-response","40","388141","0.0-2.0-2.0-0.15","yv516d7mufsz6dd","practice_no_cue","5f58c538082c5b05b82953f6","5f60e3c0a3b16e07647b2ff9","5f6104ba5152ec0482af4d88","false","null","<span style=""color: black; font-size: 48px"">M + N</span>","null","","","","resp_prompt","","","","","","","","","","","","","","","",""
"categorize-image","41","389320","0.0-2.0-2.0-1.15","yv516d7mufsz6dd","practice_no_cue","5f58c538082c5b05b82953f6","5f60e3c0a3b16e07647b2ff9","5f6104ba5152ec0482af4d88","true","675.7500000530854","./Stimuli/ImagesPractice/LM239.jpg","83","","","","test","true","M + N","83","","LM","LM239.jpg","remember","old","16","1","start","left","","","",""
"html-keyboard-response","42","398235","0.0-2.0-3.0","yv516d7mufsz6dd","break","5f58c538082c5b05b82953f6","5f60e3c0a3b16e07647b2ff9","5f6104ba5152ec0482af4d88","false","8913.394999923185","<p style='font-size: 32px;'>Break</><br><br><br><br><br><p style='font-size: 24px;'>In the last block, you committed 3 errors and did not respond in time on 1 trials.
</p><p style='font-size: 24px;'>Try to respond as fast and accurately as possible in the next block as well! </p><p style='font-size: 24px;'>Press SPACE to continue.</p>","32","","","","","","","","","","","","","","","","","","","",""
"html-keyboard-response","43","407946","0.0-2.0-4.0","yv516d7mufsz6dd","instructions","5f58c538082c5b05b82953f6","5f60e3c0a3b16e07647b2ff9","5f6104ba5152ec0482af4d88","false","9710.384999983944","<div align=left> Great!<br><br>Are you ready to continue?<br><br>If you want to reread the instructions and redo the practice trials, <br>please press „Z“. <br><br>Press SPACE to CONTINUE with the experiment when you are ready. </div>","32","","","","","","","","","","","","","","","","","","","",""
"html-keyboard-response","44","446531","0.0-3.0-0.0","yv516d7mufsz6dd","instructions","5f58c538082c5b05b82953f6","5f60e3c0a3b16e07647b2ff9","5f6104ba5152ec0482af4d88","false","38583.78999994602","<div align=left>Great!<br> <strong>Attention</strong>! You will now receive a second, additional task! <br><br>To this point it was you <strong>first task</strong> to correctly <strong>classify objects</strong>. <br><br>As mentioned in the beginning, we aim to examine how well humans can remember previously learned information.<br>We would like to find out whether our memory improves if we only remember information that is relevant to us. <br><br>Therefore, your <strong>second task</strong> will be to <strong>remember</strong> the pictures you are to categorize. <br> After the learning phase, there will be a memory test phase, in which you will be asked to indicate whether you have seen a picture before or not. <br>Some, but not all pictures shown in the learning phase will appear in the memory test phase.<br>After classifying a picture, you will be told whether you should remember it for the memory test phase or not. <br>Thus, some pictures can be forgotten, whereas others have to be remembered. <br><br>Note: From now on, feedback will only be displayed if you responded incorrectly or not in time.<br><br>Press SPACE to continue.</div>","32","","","","","","","","","","","","","","","","","","","",""
"html-keyboard-response","45","480459","0.0-3.0-1.0","yv516d7mufsz6dd","instructions","5f58c538082c5b05b82953f6","5f60e3c0a3b16e07647b2ff9","5f6104ba5152ec0482af4d88","false","33926.83999997098","<div align=left>In the following part, you will thus have to remember only some pictures. <br>Immediately after seeing and classifying the picture, a symbol will be displayed, indicating whether you should remember or forget the previous picture. <br><br>A <span style='color: dodgerblue; font-size: 28px'>O</span> indicates REMEMBER. That means, you have to remember this picture, because it will be tested later. <br><br>A <span style='color: darkorange; font-size:28px'>Ø</span> indicates FORGET. You do not have to remember this picture. <br><br> As you will have to remember a lot of pictures, it will be hard for you to remember all of them. <br>It will put you at an advantage if you instantly forget the pictures you are not asked to remember. <br> This will make it easier for you to remember the pictures that will be tested afterwards. <br><br>Press SPACE to continue.</div>","32","","","","","","","","","","","","","","","","","","","",""
"html-keyboard-response","46","498498","0.0-3.0-2.0","yv516d7mufsz6dd","instructions","5f58c538082c5b05b82953f6","5f60e3c0a3b16e07647b2ff9","5f6104ba5152ec0482af4d88","false","18038.134999922477","<div align=left> Now you have the chance to practice both tasks together.<br><br>Remember: <br> <br><li>Please place your index fingers on the <strong>'S'</strong> and <strong>'L'</strong> keys <br>to respond as fast and accurately as possible.</li><li>Every picture can be classified as either mechanical or non-mechanical.</li><li>If you do not respond in time or commit an error, you will receive a corresponding feedback. <br>Please try to respond as <strong> fast </strong> and as <strong> accurately as possible </strong>.</li><li> Please remember only the to-be-remembered <span style='color: dodgerblue; font-size: 28px'>O</span> pictures. <br></li><li> Please minimize distractions and stay focused. </li><br><br>Press SPACE to START</div>","32","","","","","","","","","","","","","","","","","","","",""
"html-keyboard-response","47","499199","0.0-3.0-3.0-0.0","yv516d7mufsz6dd","practice_cue","5f58c538082c5b05b82953f6","5f60e3c0a3b16e07647b2ff9","5f6104ba5152ec0482af4d88","false","null","<span style=""color: black; font-size: 48px"">M + N</span>","null","","","","resp_prompt","","","","","","","","","","","","","","","",""
"categorize-image","48","499741","0.0-3.0-3.0-1.0","yv516d7mufsz6dd","practice_cue","5f58c538082c5b05b82953f6","5f60e3c0a3b16e07647b2ff9","5f6104ba5152ec0482af4d88","true","538.425000035204","./Stimuli/ImagesPractice/LM230.jpg","83","","","","test","true","M + N","83","","LM","LM230.jpg","forget","old","17","2","practice_forget","left","","","",""
"html-keyboard-response","49","501743","0.0-3.0-3.0-3.0","yv516d7mufsz6dd","practice_cue","5f58c538082c5b05b82953f6","5f60e3c0a3b16e07647b2ff9","5f6104ba5152ec0482af4d88","false","null","<div style=""align-items: center; display: flex; color: darkorange; font-size: 90px""><b>ø</b></div>","null","","","","forget_cue","","","","","","","","","","","","","","","",""
"html-keyboard-response","50","502445","0.0-3.0-3.0-0.1","yv516d7mufsz6dd","practice_cue","5f58c538082c5b05b82953f6","5f60e3c0a3b16e07647b2ff9","5f6104ba5152ec0482af4d88","false","null","<span style=""color: black; font-size: 48px"">N + M</span>","null","","","","resp_prompt","","","","","","","","","","","","","","","",""
"categorize-image","51","503467","0.0-3.0-3.0-1.1","yv516d7mufsz6dd","practice_cue","5f58c538082c5b05b82953f6","5f60e3c0a3b16e07647b2ff9","5f6104ba5152ec0482af4d88","true","1019.3500000750646","./Stimuli/ImagesPractice/LN4.jpg","83","","","","test","true","N + M","83","","LN","LN4.jpg","forget","old","18","2","practice_forget","left","","","",""
"html-keyboard-response","52","505469","0.0-3.0-3.0-3.1","yv516d7mufsz6dd","practice_cue","5f58c538082c5b05b82953f6","5f60e3c0a3b16e07647b2ff9","5f6104ba5152ec0482af4d88","false","null","<div style=""align-items: center; display: flex; color: darkorange; font-size: 90px""><b>ø</b></div>","null","","","","forget_cue","","","","","","","","","","","","","","","",""
"html-keyboard-response","53","506170","0.0-3.0-3.0-0.2","yv516d7mufsz6dd","practice_cue","5f58c538082c5b05b82953f6","5f60e3c0a3b16e07647b2ff9","5f6104ba5152ec0482af4d88","false","null","<span style=""color: black; font-size: 48px"">N + M</span>","null","","","","resp_prompt","","","","","","","","","","","","","","","",""
"categorize-image","54","507178","0.0-3.0-3.0-1.2","yv516d7mufsz6dd","practice_cue","5f58c538082c5b05b82953f6","5f60e3c0a3b16e07647b2ff9","5f6104ba5152ec0482af4d88","true","1006.3300000037998","./Stimuli/ImagesPractice/SM35.jpg","83","","","","test","false","N + M","76","","SM","SM35.jpg","forget","old","19","2","practice_forget","left","","","",""
"html-keyboard-response","55","507679","0.0-3.0-3.0-2.2-0.2","yv516d7mufsz6dd","practice_cue","5f58c538082c5b05b82953f6","5f60e3c0a3b16e07647b2ff9","5f6104ba5152ec0482af4d88","false","null","<span style=""color: red; font-size: 48px"">Error!</span>","null","","","","feedback","","","","","","","","","","","","","","","",""
"html-keyboard-response","56","509681","0.0-3.0-3.0-3.2","yv516d7mufsz6dd","practice_cue","5f58c538082c5b05b82953f6","5f60e3c0a3b16e07647b2ff9","5f6104ba5152ec0482af4d88","false","null","<div style=""align-items: center; display: flex; color: darkorange; font-size: 90px""><b>ø</b></div>","null","","","","forget_cue","","","","","","","","","","","","","","","",""
"html-keyboard-response","57","510383","0.0-3.0-3.0-0.3","yv516d7mufsz6dd","practice_cue","5f58c538082c5b05b82953f6","5f60e3c0a3b16e07647b2ff9","5f6104ba5152ec0482af4d88","false","null","<span style=""color: black; font-size: 48px"">M + N</span>","null","","","","resp_prompt","","","","","","","","","","","","","","","",""
"categorize-image","58","511067","0.0-3.0-3.0-1.3","yv516d7mufsz6dd","practice_cue","5f58c538082c5b05b82953f6","5f60e3c0a3b16e07647b2ff9","5f6104ba5152ec0482af4d88","true","681.819999939762","./Stimuli/ImagesPractice/LN17.jpg","76","","","","test","true","M + N","76","","LN","LN17.jpg","remember","old","20","2","practice_forget","right","","","",""
"html-keyboard-response","59","513069","0.0-3.0-3.0-3.3","yv516d7mufsz6dd","practice_cue","5f58c538082c5b05b82953f6","5f60e3c0a3b16e07647b2ff9","5f6104ba5152ec0482af4d88","false","null","<div style=""align-items: center; display: flex; color: dodgerblue; font-size: 90px""><b>o</b></div>","null","","","","forget_cue","","","","","","","","","","","","","","","",""
"html-keyboard-response","60","513770","0.0-3.0-3.0-0.4","yv516d7mufsz6dd","practice_cue","5f58c538082c5b05b82953f6","5f60e3c0a3b16e07647b2ff9","5f6104ba5152ec0482af4d88","false","null","<span style=""color: black; font-size: 48px"">M + N</span>","null","","","","resp_prompt","","","","","","","","","","","","","","","",""
"categorize-image","61","514372","0.0-3.0-3.0-1.4","yv516d7mufsz6dd","practice_cue","5f58c538082c5b05b82953f6","5f60e3c0a3b16e07647b2ff9","5f6104ba5152ec0482af4d88","true","597.3849999718368","./Stimuli/ImagesPractice/LM147.jpg","83","","","","test","true","M + N","83","","LM","LM147.jpg","forget","old","21","2","practice_forget","left","","","",""
"html-keyboard-response","62","516373","0.0-3.0-3.0-3.4","yv516d7mufsz6dd","practice_cue","5f58c538082c5b05b82953f6","5f60e3c0a3b16e07647b2ff9","5f6104ba5152ec0482af4d88","false","null","<div style=""align-items: center; display: flex; color: darkorange; font-size: 90px""><b>ø</b></div>","null","","","","forget_cue","","","","","","","","","","","","","","","",""
"html-keyboard-response","63","517074","0.0-3.0-3.0-0.5","yv516d7mufsz6dd","practice_cue","5f58c538082c5b05b82953f6","5f60e3c0a3b16e07647b2ff9","5f6104ba5152ec0482af4d88","false","null","<span style=""color: black; font-size: 48px"">M + N</span>","null","","","","resp_prompt","","","","","","","","","","","","","","","",""
"categorize-image","64","517956","0.0-3.0-3.0-1.5","yv516d7mufsz6dd","practice_cue","5f58c538082c5b05b82953f6","5f60e3c0a3b16e07647b2ff9","5f6104ba5152ec0482af4d88","true","878.5050000296906","./Stimuli/ImagesPractice/LN72.jpg","76","","","","test","true","M + N","76","","LN","LN72.jpg","forget","old","22","2","practice_forget","right","","","",""
"html-keyboard-response","65","519958","0.0-3.0-3.0-3.5","yv516d7mufsz6dd","practice_cue","5f58c538082c5b05b82953f6","5f60e3c0a3b16e07647b2ff9","5f6104ba5152ec0482af4d88","false","null","<div style=""align-items: center; display: flex; color: darkorange; font-size: 90px""><b>ø</b></div>","null","","","","forget_cue","","","","","","","","","","","","","","","",""
"html-keyboard-response","66","520659","0.0-3.0-3.0-0.6","yv516d7mufsz6dd","practice_cue","5f58c538082c5b05b82953f6","5f60e3c0a3b16e07647b2ff9","5f6104ba5152ec0482af4d88","false","null","<span style=""color: black; font-size: 48px"">M + N</span>","null","","","","resp_prompt","","","","","","","","","","","","","","","",""
"categorize-image","67","521291","0.0-3.0-3.0-1.6","yv516d7mufsz6dd","practice_cue","5f58c538082c5b05b82953f6","5f60e3c0a3b16e07647b2ff9","5f6104ba5152ec0482af4d88","true","629.2149999644607","./Stimuli/ImagesPractice/LM143.jpg","83","","","","test","true","M + N","83","","LM","LM143.jpg","remember","old","23","2","practice_forget","left","","","",""
"html-keyboard-response","68","523293","0.0-3.0-3.0-3.6","yv516d7mufsz6dd","practice_cue","5f58c538082c5b05b82953f6","5f60e3c0a3b16e07647b2ff9","5f6104ba5152ec0482af4d88","false","null","<div style=""align-items: center; display: flex; color: dodgerblue; font-size: 90px""><b>o</b></div>","null","","","","forget_cue","","","","","","","","","","","","","","","",""
"html-keyboard-response","69","523995","0.0-3.0-3.0-0.7","yv516d7mufsz6dd","practice_cue","5f58c538082c5b05b82953f6","5f60e3c0a3b16e07647b2ff9","5f6104ba5152ec0482af4d88","false","null","<span style=""color: black; font-size: 48px"">N + M</span>","null","","","","resp_prompt","","","","","","","","","","","","","","","",""
"categorize-image","70","525141","0.0-3.0-3.0-1.7","yv516d7mufsz6dd","practice_cue","5f58c538082c5b05b82953f6","5f60e3c0a3b16e07647b2ff9","5f6104ba5152ec0482af4d88","true","1143.0200000759214","./Stimuli/ImagesPractice/SM62.jpg","76","","","","test","true","N + M","76","","SM","SM62.jpg","remember","old","24","2","practice_forget","right","","","",""
"html-keyboard-response","71","527143","0.0-3.0-3.0-3.7","yv516d7mufsz6dd","practice_cue","5f58c538082c5b05b82953f6","5f60e3c0a3b16e07647b2ff9","5f6104ba5152ec0482af4d88","false","null","<div style=""align-items: center; display: flex; color: dodgerblue; font-size: 90px""><b>o</b></div>","null","","","","forget_cue","","","","","","","","","","","","","","","",""
"html-keyboard-response","72","527844","0.0-3.0-3.0-0.8","yv516d7mufsz6dd","practice_cue","5f58c538082c5b05b82953f6","5f60e3c0a3b16e07647b2ff9","5f6104ba5152ec0482af4d88","false","null","<span style=""color: black; font-size: 48px"">N + M</span>","null","","","","resp_prompt","","","","","","","","","","","","","","","",""
"categorize-image","73","528787","0.0-3.0-3.0-1.8","yv516d7mufsz6dd","practice_cue","5f58c538082c5b05b82953f6","5f60e3c0a3b16e07647b2ff9","5f6104ba5152ec0482af4d88","true","940.3350000502542","./Stimuli/ImagesPractice/LM55.jpg","76","","","","test","true","N + M","76","","LM","LM55.jpg","remember","old","25","2","practice_forget","right","","","",""
"html-keyboard-response","74","530788","0.0-3.0-3.0-3.8","yv516d7mufsz6dd","practice_cue","5f58c538082c5b05b82953f6","5f60e3c0a3b16e07647b2ff9","5f6104ba5152ec0482af4d88","false","null","<div style=""align-items: center; display: flex; color: dodgerblue; font-size: 90px""><b>o</b></div>","null","","","","forget_cue","","","","","","","","","","","","","","","",""
"html-keyboard-response","75","531490","0.0-3.0-3.0-0.9","yv516d7mufsz6dd","practice_cue","5f58c538082c5b05b82953f6","5f60e3c0a3b16e07647b2ff9","5f6104ba5152ec0482af4d88","false","null","<span style=""color: black; font-size: 48px"">M + N</span>","null","","","","resp_prompt","","","","","","","","","","","","","","","",""
"categorize-image","76","532174","0.0-3.0-3.0-1.9","yv516d7mufsz6dd","practice_cue","5f58c538082c5b05b82953f6","5f60e3c0a3b16e07647b2ff9","5f6104ba5152ec0482af4d88","true","679.3700000271201","./Stimuli/ImagesPractice/SN220.jpg","76","","","","test","true","M + N","76","","SN","SN220.jpg","remember","old","26","2","practice_forget","right","","","",""
"html-keyboard-response","77","534176","0.0-3.0-3.0-3.9","yv516d7mufsz6dd","practice_cue","5f58c538082c5b05b82953f6","5f60e3c0a3b16e07647b2ff9","5f6104ba5152ec0482af4d88","false","null","<div style=""align-items: center; display: flex; color: dodgerblue; font-size: 90px""><b>o</b></div>","null","","","","forget_cue","","","","","","","","","","","","","","","",""
"html-keyboard-response","78","534878","0.0-3.0-3.0-0.10","yv516d7mufsz6dd","practice_cue","5f58c538082c5b05b82953f6","5f60e3c0a3b16e07647b2ff9","5f6104ba5152ec0482af4d88","false","null","<span style=""color: black; font-size: 48px"">N + M</span>","null","","","","resp_prompt","","","","","","","","","","","","","","","",""
"categorize-image","79","536178","0.0-3.0-3.0-1.10","yv516d7mufsz6dd","practice_cue","5f58c538082c5b05b82953f6","5f60e3c0a3b16e07647b2ff9","5f6104ba5152ec0482af4d88","true","1297.7800000226125","./Stimuli/ImagesPractice/SM61.jpg","83","","","","test","false","N + M","76","","SM","SM61.jpg","forget","old","27","2","practice_forget","left","","","",""
"html-keyboard-response","80","536680","0.0-3.0-3.0-2.10-0.10","yv516d7mufsz6dd","practice_cue","5f58c538082c5b05b82953f6","5f60e3c0a3b16e07647b2ff9","5f6104ba5152ec0482af4d88","false","null","<span style=""color: red; font-size: 48px"">Error!</span>","null","","","","feedback","","","","","","","","","","","","","","","",""
"html-keyboard-response","81","538682","0.0-3.0-3.0-3.10","yv516d7mufsz6dd","practice_cue","5f58c538082c5b05b82953f6","5f60e3c0a3b16e07647b2ff9","5f6104ba5152ec0482af4d88","false","null","<div style=""align-items: center; display: flex; color: darkorange; font-size: 90px""><b>ø</b></div>","null","","","","forget_cue","","","","","","","","","","","","","","","",""
"html-keyboard-response","82","539384","0.0-3.0-3.0-0.11","yv516d7mufsz6dd","practice_cue","5f58c538082c5b05b82953f6","5f60e3c0a3b16e07647b2ff9","5f6104ba5152ec0482af4d88","false","null","<span style=""color: black; font-size: 48px"">M + N</span>","null","","","","resp_prompt","","","","","","","","","","","","","","","",""
"categorize-image","83","540043","0.0-3.0-3.0-1.11","yv516d7mufsz6dd","practice_cue","5f58c538082c5b05b82953f6","5f60e3c0a3b16e07647b2ff9","5f6104ba5152ec0482af4d88","true","656.0499999905005","./Stimuli/ImagesPractice/LM239.jpg","83","","","","test","true","M + N","83","","LM","LM239.jpg","remember","old","28","2","practice_forget","left","","","",""
"html-keyboard-response","84","542045","0.0-3.0-3.0-3.11","yv516d7mufsz6dd","practice_cue","5f58c538082c5b05b82953f6","5f60e3c0a3b16e07647b2ff9","5f6104ba5152ec0482af4d88","false","null","<div style=""align-items: center; display: flex; color: dodgerblue; font-size: 90px""><b>o</b></div>","null","","","","forget_cue","","","","","","","","","","","","","","","",""
"html-keyboard-response","85","542746","0.0-3.0-3.0-0.12","yv516d7mufsz6dd","practice_cue","5f58c538082c5b05b82953f6","5f60e3c0a3b16e07647b2ff9","5f6104ba5152ec0482af4d88","false","null","<span style=""color: black; font-size: 48px"">N + M</span>","null","","","","resp_prompt","","","","","","","","","","","","","","","",""
"categorize-image","86","543619","0.0-3.0-3.0-1.12","yv516d7mufsz6dd","practice_cue","5f58c538082c5b05b82953f6","5f60e3c0a3b16e07647b2ff9","5f6104ba5152ec0482af4d88","true","869.9849999975413","./Stimuli/ImagesPractice/SN75.jpg","83","","","","test","true","N + M","83","","SN","SN75.jpg","remember","old","29","2","practice_forget","left","","","",""
"html-keyboard-response","87","545620","0.0-3.0-3.0-3.12","yv516d7mufsz6dd","practice_cue","5f58c538082c5b05b82953f6","5f60e3c0a3b16e07647b2ff9","5f6104ba5152ec0482af4d88","false","null","<div style=""align-items: center; display: flex; color: dodgerblue; font-size: 90px""><b>o</b></div>","null","","","","forget_cue","","","","","","","","","","","","","","","",""
"html-keyboard-response","88","546322","0.0-3.0-3.0-0.13","yv516d7mufsz6dd","practice_cue","5f58c538082c5b05b82953f6","5f60e3c0a3b16e07647b2ff9","5f6104ba5152ec0482af4d88","false","null","<span style=""color: black; font-size: 48px"">N + M</span>","null","","","","resp_prompt","","","","","","","","","","","","","","","",""
"categorize-image","89","546995","0.0-3.0-3.0-1.13","yv516d7mufsz6dd","practice_cue","5f58c538082c5b05b82953f6","5f60e3c0a3b16e07647b2ff9","5f6104ba5152ec0482af4d88","true","670.4300000565127","./Stimuli/ImagesPractice/SN221.jpg","83","","","","test","true","N + M","83","","SN","SN221.jpg","forget","old","30","2","practice_forget","left","","","",""
"html-keyboard-response","90","548996","0.0-3.0-3.0-3.13","yv516d7mufsz6dd","practice_cue","5f58c538082c5b05b82953f6","5f60e3c0a3b16e07647b2ff9","5f6104ba5152ec0482af4d88","false","null","<div style=""align-items: center; display: flex; color: darkorange; font-size: 90px""><b>ø</b></div>","null","","","","forget_cue","","","","","","","","","","","","","","","",""
"html-keyboard-response","91","549698","0.0-3.0-3.0-0.14","yv516d7mufsz6dd","practice_cue","5f58c538082c5b05b82953f6","5f60e3c0a3b16e07647b2ff9","5f6104ba5152ec0482af4d88","false","null","<span style=""color: black; font-size: 48px"">N + M</span>","null","","","","resp_prompt","","","","","","","","","","","","","","","",""
"categorize-image","92","550812","0.0-3.0-3.0-1.14","yv516d7mufsz6dd","practice_cue","5f58c538082c5b05b82953f6","5f60e3c0a3b16e07647b2ff9","5f6104ba5152ec0482af4d88","true","1110.0149999838322","./Stimuli/ImagesPractice/LN109.jpg","83","","","","test","true","N + M","83","","LN","LN109.jpg","remember","old","31","2","practice_forget","left","","","",""
"html-keyboard-response","93","552813","0.0-3.0-3.0-3.14","yv516d7mufsz6dd","practice_cue","5f58c538082c5b05b82953f6","5f60e3c0a3b16e07647b2ff9","5f6104ba5152ec0482af4d88","false","null","<div style=""align-items: center; display: flex; color: dodgerblue; font-size: 90px""><b>o</b></div>","null","","","","forget_cue","","","","","","","","","","","","","","","",""
"html-keyboard-response","94","553515","0.0-3.0-3.0-0.15","yv516d7mufsz6dd","practice_cue","5f58c538082c5b05b82953f6","5f60e3c0a3b16e07647b2ff9","5f6104ba5152ec0482af4d88","false","null","<span style=""color: black; font-size: 48px"">M + N</span>","null","","","","resp_prompt","","","","","","","","","","","","","","","",""
"categorize-image","95","554261","0.0-3.0-3.0-1.15","yv516d7mufsz6dd","practice_cue","5f58c538082c5b05b82953f6","5f60e3c0a3b16e07647b2ff9","5f6104ba5152ec0482af4d88","true","742.6349999150261","./Stimuli/ImagesPractice/SM97.jpg","83","","","","test","true","M + N","83","","SM","SM97.jpg","forget","old","32","2","practice_forget","left","","","",""
"html-keyboard-response","96","556263","0.0-3.0-3.0-3.15","yv516d7mufsz6dd","practice_cue","5f58c538082c5b05b82953f6","5f60e3c0a3b16e07647b2ff9","5f6104ba5152ec0482af4d88","false","null","<div style=""align-items: center; display: flex; color: darkorange; font-size: 90px""><b>ø</b></div>","null","","","","forget_cue","","","","","","","","","","","","","","","",""
"html-keyboard-response","97","562609","0.0-3.0-4.0","yv516d7mufsz6dd","break","5f58c538082c5b05b82953f6","5f60e3c0a3b16e07647b2ff9","5f6104ba5152ec0482af4d88","false","6345.035000005737","<p style='font-size: 32px;'>Break</><br><br><br><br><br><p style='font-size: 24px;'>In the last block, you committed 2 errors and did not respond in time on 0 trials.
</p><p style='font-size: 24px;'>Try to respond as fast and accurately as possible in the next block as well! </p><p style='font-size: 24px;'>Press SPACE to continue.</p>","32","","","","","","","","","","","","","","","","","","","",""
"html-keyboard-response","98","595570","0.0-3.0-5.0","yv516d7mufsz6dd","instructions","5f58c538082c5b05b82953f6","5f60e3c0a3b16e07647b2ff9","5f6104ba5152ec0482af4d88","false","32960.32999991439","<div align=left> Now, to practice, we kindly ask you to remember as many of the to-be-remembered pictures<br>of the previous learning phase as possible.<br><br>The pictures you were instructed to remember were the pictures followed by a <span style='color: dodgerblue; font-size: 28px'>O</span>.<br><br>In this memory test phase, you will also see some new pictures.<br>It is your task to remember whether you were presented with this specific picture in this study so far or not.<br>If you recognize an object (you have already seen it in this study), it is an OLD object. <br>If you do not recognize an object (you have NOT seen it in this study), it is a NEW object. <br><strong> Attention</strong>: As already mentioned, <span style='color: darkorange; font-size:28px'>Ø</span>-pictures will <strong>never</strong> appear in this memory test (neither as new objects). <br><br>Press SPACE to continue. </div>","32","","","","","","","","","","","","","","","","","","","",""
"html-keyboard-response","99","643546","0.0-3.0-6.0","yv516d7mufsz6dd","instructions","5f58c538082c5b05b82953f6","5f60e3c0a3b16e07647b2ff9","5f6104ba5152ec0482af4d88","false","47974.30500003975","<div align=left> M and N no longer will appear on the left/right of the fixation cross. <br>Instead there will be a note at the bottom of the left or right side  <br>indicating which key you should press for an old or new object:  <br> <br>Press the <strong>right</strong> key to classify an object as <strong>old</strong> and press the <strong>left</strong>, to classify an object as <strong>new</strong>.<br>Please classify the objects as new/old by again placing your index finger on the 'S' and 'L' keys <br>and press them accordingly.<br><br><strong>Old:</strong> This object has been presented before. <br><strong>New:</strong> This object has <strong>not</strong> been presented.<br><br>Now please put your right and left index fingers on the 'S' and 'L' keys of your keyboard. <br>Please respond as fast and as accurately as possible!<br><br>Press SPACE to continue. </div>","32","","","","","","","","","","","","","","","","","","","",""
"categorize-image","100","646095","0.0-3.0-7.0-0.0","yv516d7mufsz6dd","practice_recog","5f58c538082c5b05b82953f6","5f60e3c0a3b16e07647b2ff9","5f6104ba5152ec0482af4d88","true","2046.0350000066683","./Stimuli/ImagesPractice/LN109.jpg","76","","","","test","true","","76","","LN","LN109.jpg","","old","33","3","practice_recog","right","","","",""
"categorize-image","101","647973","0.0-3.0-7.0-0.1","yv516d7mufsz6dd","practice_recog","5f58c538082c5b05b82953f6","5f60e3c0a3b16e07647b2ff9","5f6104ba5152ec0482af4d88","true","1376.7499999376014","./Stimuli/ImagesPractice/LN15.jpg","83","","","","test","true","","83","","LN","LN15.jpg","","new","34","3","practice_recog","left","","","",""
"categorize-image","102","649390","0.0-3.0-7.0-0.2","yv516d7mufsz6dd","practice_recog","5f58c538082c5b05b82953f6","5f60e3c0a3b16e07647b2ff9","5f6104ba5152ec0482af4d88","true","914.4250000827014","./Stimuli/ImagesPractice/SM37.jpg","83","","","","test","true","","83","","SM","SM37.jpg","","new","35","3","practice_recog","left","","","",""
"categorize-image","103","650734","0.0-3.0-7.0-0.3","yv516d7mufsz6dd","practice_recog","5f58c538082c5b05b82953f6","5f60e3c0a3b16e07647b2ff9","5f6104ba5152ec0482af4d88","true","842.1500000404194","./Stimuli/ImagesPractice/LN17.jpg","76","","","","test","true","","76","","LN","LN17.jpg","","old","36","3","practice_recog","right","","","",""
"categorize-image","104","652573","0.0-3.0-7.0-0.4","yv516d7mufsz6dd","practice_recog","5f58c538082c5b05b82953f6","5f60e3c0a3b16e07647b2ff9","5f6104ba5152ec0482af4d88","true","1338.4500000393018","./Stimuli/ImagesPractice/LM55.jpg","76","","","","test","true","","76","","LM","LM55.jpg","","old","37","3","practice_recog","right","","","",""
"categorize-image","105","653968","0.0-3.0-7.0-0.5","yv516d7mufsz6dd","practice_recog","5f58c538082c5b05b82953f6","5f60e3c0a3b16e07647b2ff9","5f6104ba5152ec0482af4d88","true","891.1749999970198","./Stimuli/ImagesPractice/SN76.jpg","83","","","","test","true","","83","","SN","SN76.jpg","","new","38","3","practice_recog","left","","","",""
"categorize-image","106","655366","0.0-3.0-7.0-0.6","yv516d7mufsz6dd","practice_recog","5f58c538082c5b05b82953f6","5f60e3c0a3b16e07647b2ff9","5f6104ba5152ec0482af4d88","true","896.2299999548122","./Stimuli/ImagesPractice/LM239.jpg","76","","","","test","true","","76","","LM","LM239.jpg","","old","39","3","practice_recog","right","","","",""
"categorize-image","107","657318","0.0-3.0-7.0-0.7","yv516d7mufsz6dd","practice_recog","5f58c538082c5b05b82953f6","5f60e3c0a3b16e07647b2ff9","5f6104ba5152ec0482af4d88","true","1450.1549999695271","./Stimuli/ImagesPractice/LM224.jpg","76","","","","test","false","","83","","LM","LM224.jpg","","new","40","3","practice_recog","right","","","",""
"categorize-image","108","659790","0.0-3.0-7.0-0.8","yv516d7mufsz6dd","practice_recog","5f58c538082c5b05b82953f6","5f60e3c0a3b16e07647b2ff9","5f6104ba5152ec0482af4d88","true","1970.0850000372157","./Stimuli/ImagesPractice/SN220.jpg","83","","","","test","false","","76","","SN","SN220.jpg","","old","41","3","practice_recog","left","","","",""
"categorize-image","109","661389","0.0-3.0-7.0-0.9","yv516d7mufsz6dd","practice_recog","5f58c538082c5b05b82953f6","5f60e3c0a3b16e07647b2ff9","5f6104ba5152ec0482af4d88","true","1097.7999999886379","./Stimuli/ImagesPractice/SM98.jpg","83","","","","test","true","","83","","SM","SM98.jpg","","new","42","3","practice_recog","left","","","",""
"categorize-image","110","662982","0.0-3.0-7.0-0.10","yv516d7mufsz6dd","practice_recog","5f58c538082c5b05b82953f6","5f60e3c0a3b16e07647b2ff9","5f6104ba5152ec0482af4d88","true","1090.8999999519438","./Stimuli/ImagesPractice/LM143.jpg","76","","","","test","true","","76","","LM","LM143.jpg","","old","43","3","practice_recog","right","","","",""
"categorize-image","111","664919","0.0-3.0-7.0-0.11","yv516d7mufsz6dd","practice_recog","5f58c538082c5b05b82953f6","5f60e3c0a3b16e07647b2ff9","5f6104ba5152ec0482af4d88","true","1433.87999990955","./Stimuli/ImagesPractice/SN222.jpg","83","","","","test","true","","83","","SN","SN222.jpg","","new","44","3","practice_recog","left","","","",""
"categorize-image","112","666278","0.0-3.0-7.0-0.12","yv516d7mufsz6dd","practice_recog","5f58c538082c5b05b82953f6","5f60e3c0a3b16e07647b2ff9","5f6104ba5152ec0482af4d88","true","857.1999999694526","./Stimuli/ImagesPractice/LN2.jpg","83","","","","test","true","","83","","LN","LN2.jpg","","new","45","3","practice_recog","left","","","",""
"categorize-image","113","667767","0.0-3.0-7.0-0.13","yv516d7mufsz6dd","practice_recog","5f58c538082c5b05b82953f6","5f60e3c0a3b16e07647b2ff9","5f6104ba5152ec0482af4d88","true","985.9150000847876","./Stimuli/ImagesPractice/SN75.jpg","76","","","","test","true","","76","","SN","SN75.jpg","","old","46","3","practice_recog","right","","","",""
"categorize-image","114","669048","0.0-3.0-7.0-0.14","yv516d7mufsz6dd","practice_recog","5f58c538082c5b05b82953f6","5f60e3c0a3b16e07647b2ff9","5f6104ba5152ec0482af4d88","true","778.1199999153614","./Stimuli/ImagesPractice/SN205.jpg","83","","","","test","true","","83","","SN","SN205.jpg","","new","47","3","practice_recog","left","","","",""
"categorize-image","115","670574","0.0-3.0-7.0-0.15","yv516d7mufsz6dd","practice_recog","5f58c538082c5b05b82953f6","5f60e3c0a3b16e07647b2ff9","5f6104ba5152ec0482af4d88","true","1024.030000087805","./Stimuli/ImagesPractice/SM62.jpg","76","","","","test","true","","76","","SM","SM62.jpg","","old","48","3","practice_recog","right","","","",""
"html-keyboard-response","116","686290","0.0-3.0-8.0","yv516d7mufsz6dd","instructions","5f58c538082c5b05b82953f6","5f60e3c0a3b16e07647b2ff9","5f6104ba5152ec0482af4d88","false","15715.570000000298","<div align=left> Great!<br><br>Are you ready to continue?<br>If you want to reread the instructions and redo the practice trials, please <br>press „Z“.<br><br>You can proceed when you are ready.<br><br>After the presentation of each object, you will receive an instruction whether to <br>remember or to forget the object.<br>We will test your memory of the following pictures only at the very end of <br>the experiment after all learning blocks are completed. <br><br>Press SPACE to CONTINUE when you are ready. </div>","32","","","","","","","","","","","","","","","","","","","",""
"html-keyboard-response","117","695321","0.0-4.0-0.0","yv516d7mufsz6dd","instructions","5f58c538082c5b05b82953f6","5f60e3c0a3b16e07647b2ff9","5f6104ba5152ec0482af4d88","false","9029.994999989867","<div align=left> The actual experiment is about to start.<br>The practice trials are over!<br><br>Please always respond both fast and accurately!<br><br>Remember: <br> <br><li> Please place your index fingers on the <strong>'S'</strong> and <strong>'L'</strong> keys <br>to respond as fast and accurately as possible.</li><li> Every picture can be classified as either mechanical or non-mechanical.</li><li> If you do not respond in time or commit an error, you will receive a corresponding feedback.<br> Please try to respond as <strong> fast </strong> and as <strong> accurately as possible </strong>.</li><li> Remember the <span style='color: dodgerblue; font-size: 28px'>O</span> pictures. <br></li><li> Please minimize distractions and stay focused. </li><br><br>Press SPACE to START.</div>","32","","","","","","","","","","","","","","","","","","","",""
"html-keyboard-response","118","696024","0.0-4.0-1.0-0.0","yv516d7mufsz6dd","prime","5f58c538082c5b05b82953f6","5f60e3c0a3b16e07647b2ff9","5f6104ba5152ec0482af4d88","false","null","<span style=""color: black; font-size: 48px"">M + N</span>","null","","","","resp_prompt","","","","","","","","","","","","","","","",""
"categorize-image","119","696900","0.0-4.0-1.0-1.0","yv516d7mufsz6dd","prime","5f58c538082c5b05b82953f6","5f60e3c0a3b16e07647b2ff9","5f6104ba5152ec0482af4d88","true","872.0899999607354","./Stimuli/SelectedImages/SM/SM17.bmp","83","","","","test","true","M + N","83","repetition","SM","SM17.bmp","forget","","49","3","prime1","left","","","",""
"html-keyboard-response","120","698901","0.0-4.0-1.0-3.0","yv516d7mufsz6dd","prime","5f58c538082c5b05b82953f6","5f60e3c0a3b16e07647b2ff9","5f6104ba5152ec0482af4d88","false","null","<div style=""align-items: center; display: flex; color: darkorange; font-size: 90px""><b>ø</b></div>","null","","","","forget_cue","","","","","","","","","","","","","","","",""
"html-keyboard-response","121","699602","0.0-4.0-1.0-0.1","yv516d7mufsz6dd","prime","5f58c538082c5b05b82953f6","5f60e3c0a3b16e07647b2ff9","5f6104ba5152ec0482af4d88","false","null","<span style=""color: black; font-size: 48px"">M + N</span>","null","","","","resp_prompt","","","","","","","","","","","","","","","",""
"categorize-image","122","700419","0.0-4.0-1.0-1.1","yv516d7mufsz6dd","prime","5f58c538082c5b05b82953f6","5f60e3c0a3b16e07647b2ff9","5f6104ba5152ec0482af4d88","true","814.4399999873713","./Stimuli/SelectedImages/SM/SM184.bmp","83","","","","test","true","M + N","83","switch","SM","SM184.bmp","forget","","50","3","prime1","left","","","",""
"html-keyboard-response","123","702420","0.0-4.0-1.0-3.1","yv516d7mufsz6dd","prime","5f58c538082c5b05b82953f6","5f60e3c0a3b16e07647b2ff9","5f6104ba5152ec0482af4d88","false","null","<div style=""align-items: center; display: flex; color: darkorange; font-size: 90px""><b>ø</b></div>","null","","","","forget_cue","","","","","","","","","","","","","","","",""
"html-keyboard-response","124","703122","0.0-4.0-1.0-0.2","yv516d7mufsz6dd","prime","5f58c538082c5b05b82953f6","5f60e3c0a3b16e07647b2ff9","5f6104ba5152ec0482af4d88","false","null","<span style=""color: black; font-size: 48px"">M + N</span>","null","","","","resp_prompt","","","","","","","","","","","","","","","",""
"categorize-image","125","703923","0.0-4.0-1.0-1.2","yv516d7mufsz6dd","prime","5f58c538082c5b05b82953f6","5f60e3c0a3b16e07647b2ff9","5f6104ba5152ec0482af4d88","true","798.5699999844655","./Stimuli/SelectedImages/LM/LM100.bmp","83","","","","test","true","M + N","83","switch","LM","LM100.bmp","remember","","51","3","prime1","left","","","",""
"html-keyboard-response","126","705925","0.0-4.0-1.0-3.2","yv516d7mufsz6dd","prime","5f58c538082c5b05b82953f6","5f60e3c0a3b16e07647b2ff9","5f6104ba5152ec0482af4d88","false","null","<div style=""align-items: center; display: flex; color: dodgerblue; font-size: 90px""><b>o</b></div>","null","","","","forget_cue","","","","","","","","","","","","","","","",""
"html-keyboard-response","127","706627","0.0-4.0-1.0-0.3","yv516d7mufsz6dd","prime","5f58c538082c5b05b82953f6","5f60e3c0a3b16e07647b2ff9","5f6104ba5152ec0482af4d88","false","null","<span style=""color: black; font-size: 48px"">M + N</span>","null","","","","resp_prompt","","","","","","","","","","","","","","","",""
"categorize-image","128","707371","0.0-4.0-1.0-1.3","yv516d7mufsz6dd","prime","5f58c538082c5b05b82953f6","5f60e3c0a3b16e07647b2ff9","5f6104ba5152ec0482af4d88","true","741.1950000096112","./Stimuli/SelectedImages/LN/LN131.bmp","76","","","","test","true","M + N","76","switch","LN","LN131.bmp","remember","","52","3","prime1","right","","","",""
"html-keyboard-response","129","709373","0.0-4.0-1.0-3.3","yv516d7mufsz6dd","prime","5f58c538082c5b05b82953f6","5f60e3c0a3b16e07647b2ff9","5f6104ba5152ec0482af4d88","false","null","<div style=""align-items: center; display: flex; color: dodgerblue; font-size: 90px""><b>o</b></div>","null","","","","forget_cue","","","","","","","","","","","","","","","",""
"html-keyboard-response","130","710074","0.0-4.0-1.0-0.4","yv516d7mufsz6dd","prime","5f58c538082c5b05b82953f6","5f60e3c0a3b16e07647b2ff9","5f6104ba5152ec0482af4d88","false","null","<span style=""color: black; font-size: 48px"">N + M</span>","null","","","","resp_prompt","","","","","","","","","","","","","","","",""
"categorize-image","131","710779","0.0-4.0-1.0-1.4","yv516d7mufsz6dd","prime","5f58c538082c5b05b82953f6","5f60e3c0a3b16e07647b2ff9","5f6104ba5152ec0482af4d88","true","701.4900000067428","./Stimuli/SelectedImages/LM/LM157.bmp","76","","","","test","true","N + M","76","repetition","LM","LM157.bmp","remember","","53","3","prime1","right","","","",""
"html-keyboard-response","132","712781","0.0-4.0-1.0-3.4","yv516d7mufsz6dd","prime","5f58c538082c5b05b82953f6","5f60e3c0a3b16e07647b2ff9","5f6104ba5152ec0482af4d88","false","null","<div style=""align-items: center; display: flex; color: dodgerblue; font-size: 90px""><b>o</b></div>","null","","","","forget_cue","","","","","","","","","","","","","","","",""
"html-keyboard-response","133","713482","0.0-4.0-1.0-0.5","yv516d7mufsz6dd","prime","5f58c538082c5b05b82953f6","5f60e3c0a3b16e07647b2ff9","5f6104ba5152ec0482af4d88","false","null","<span style=""color: black; font-size: 48px"">N + M</span>","null","","","","resp_prompt","","","","","","","","","","","","","","","",""
"categorize-image","134","714221","0.0-4.0-1.0-1.5","yv516d7mufsz6dd","prime","5f58c538082c5b05b82953f6","5f60e3c0a3b16e07647b2ff9","5f6104ba5152ec0482af4d88","true","734.5750000094995","./Stimuli/SelectedImages/LM/LM209.bmp","76","","","","test","true","N + M","76","switch","LM","LM209.bmp","remember","","54","3","prime1","right","","","",""
"html-keyboard-response","135","716222","0.0-4.0-1.0-3.5","yv516d7mufsz6dd","prime","5f58c538082c5b05b82953f6","5f60e3c0a3b16e07647b2ff9","5f6104ba5152ec0482af4d88","false","null","<div style=""align-items: center; display: flex; color: dodgerblue; font-size: 90px""><b>o</b></div>","null","","","","forget_cue","","","","","","","","","","","","","","","",""
"html-keyboard-response","136","716923","0.0-4.0-1.0-0.6","yv516d7mufsz6dd","prime","5f58c538082c5b05b82953f6","5f60e3c0a3b16e07647b2ff9","5f6104ba5152ec0482af4d88","false","null","<span style=""color: black; font-size: 48px"">N + M</span>","null","","","","resp_prompt","","","","","","","","","","","","","","","",""
"categorize-image","137","717813","0.0-4.0-1.0-1.6","yv516d7mufsz6dd","prime","5f58c538082c5b05b82953f6","5f60e3c0a3b16e07647b2ff9","5f6104ba5152ec0482af4d88","true","887.0600000955164","./Stimuli/SelectedImages/LN/LN166.bmp","83","","","","test","true","N + M","83","switch","LN","LN166.bmp","remember","","55","3","prime1","left","","","",""
"html-keyboard-response","138","719814","0.0-4.0-1.0-3.6","yv516d7mufsz6dd","prime","5f58c538082c5b05b82953f6","5f60e3c0a3b16e07647b2ff9","5f6104ba5152ec0482af4d88","false","null","<div style=""align-items: center; display: flex; color: dodgerblue; font-size: 90px""><b>o</b></div>","null","","","","forget_cue","","","","","","","","","","","","","","","",""
"html-keyboard-response","139","720515","0.0-4.0-1.0-0.7","yv516d7mufsz6dd","prime","5f58c538082c5b05b82953f6","5f60e3c0a3b16e07647b2ff9","5f6104ba5152ec0482af4d88","false","null","<span style=""color: black; font-size: 48px"">N + M</span>","null","","","","resp_prompt","","","","","","","","","","","","","","","",""
"categorize-image","140","721645","0.0-4.0-1.0-1.7","yv516d7mufsz6dd","prime","5f58c538082c5b05b82953f6","5f60e3c0a3b16e07647b2ff9","5f6104ba5152ec0482af4d88","true","1125.690000015311","./Stimuli/SelectedImages/LN/LN101.bmp","83","","","","test","true","N + M","83","switch","LN","LN101.bmp","forget","","56","3","prime1","left","","","",""
"html-keyboard-response","141","723646","0.0-4.0-1.0-3.7","yv516d7mufsz6dd","prime","5f58c538082c5b05b82953f6","5f60e3c0a3b16e07647b2ff9","5f6104ba5152ec0482af4d88","false","null","<div style=""align-items: center; display: flex; color: darkorange; font-size: 90px""><b>ø</b></div>","null","","","","forget_cue","","","","","","","","","","","","","","","",""
"html-keyboard-response","142","724347","0.0-4.0-1.0-0.8","yv516d7mufsz6dd","prime","5f58c538082c5b05b82953f6","5f60e3c0a3b16e07647b2ff9","5f6104ba5152ec0482af4d88","false","null","<span style=""color: black; font-size: 48px"">M + N</span>","null","","","","resp_prompt","","","","","","","","","","","","","","","",""
"categorize-image","143","725052","0.0-4.0-1.0-1.8","yv516d7mufsz6dd","prime","5f58c538082c5b05b82953f6","5f60e3c0a3b16e07647b2ff9","5f6104ba5152ec0482af4d88","true","702.7849999722093","./Stimuli/SelectedImages/LM/LM75.bmp","83","","","","test","true","M + N","83","repetition","LM","LM75.bmp","remember","","57","3","prime1","left","","","",""
"html-keyboard-response","144","727053","0.0-4.0-1.0-3.8","yv516d7mufsz6dd","prime","5f58c538082c5b05b82953f6","5f60e3c0a3b16e07647b2ff9","5f6104ba5152ec0482af4d88","false","null","<div style=""align-items: center; display: flex; color: dodgerblue; font-size: 90px""><b>o</b></div>","null","","","","forget_cue","","","","","","","","","","","","","","","",""
"html-keyboard-response","145","727755","0.0-4.0-1.0-0.9","yv516d7mufsz6dd","prime","5f58c538082c5b05b82953f6","5f60e3c0a3b16e07647b2ff9","5f6104ba5152ec0482af4d88","false","null","<span style=""color: black; font-size: 48px"">N + M</span>","null","","","","resp_prompt","","","","","","","","","","","","","","","",""
"categorize-image","146","728540","0.0-4.0-1.0-1.9","yv516d7mufsz6dd","prime","5f58c538082c5b05b82953f6","5f60e3c0a3b16e07647b2ff9","5f6104ba5152ec0482af4d88","true","782.0800000336021","./Stimuli/SelectedImages/SM/SM76.bmp","76","","","","test","true","N + M","76","switch","SM","SM76.bmp","remember","","58","3","prime1","right","","","",""
"html-keyboard-response","147","730541","0.0-4.0-1.0-3.9","yv516d7mufsz6dd","prime","5f58c538082c5b05b82953f6","5f60e3c0a3b16e07647b2ff9","5f6104ba5152ec0482af4d88","false","null","<div style=""align-items: center; display: flex; color: dodgerblue; font-size: 90px""><b>o</b></div>","null","","","","forget_cue","","","","","","","","","","","","","","","",""
"html-keyboard-response","148","731242","0.0-4.0-1.0-0.10","yv516d7mufsz6dd","prime","5f58c538082c5b05b82953f6","5f60e3c0a3b16e07647b2ff9","5f6104ba5152ec0482af4d88","false","null","<span style=""color: black; font-size: 48px"">N + M</span>","null","","","","resp_prompt","","","","","","","","","","","","","","","",""
"categorize-image","149","732827","0.0-4.0-1.0-1.10","yv516d7mufsz6dd","prime","5f58c538082c5b05b82953f6","5f60e3c0a3b16e07647b2ff9","5f6104ba5152ec0482af4d88","true","1582.5449998956174","./Stimuli/SelectedImages/SN/SN182.bmp","83","","","","test","true","N + M","83","repetition","SN","SN182.bmp","remember","","59","3","prime1","left","","","",""
"html-keyboard-response","150","734830","0.0-4.0-1.0-3.10","yv516d7mufsz6dd","prime","5f58c538082c5b05b82953f6","5f60e3c0a3b16e07647b2ff9","5f6104ba5152ec0482af4d88","false","null","<div style=""align-items: center; display: flex; color: dodgerblue; font-size: 90px""><b>o</b></div>","null","","","","forget_cue","","","","","","","","","","","","","","","",""
"html-keyboard-response","151","735532","0.0-4.0-1.0-0.11","yv516d7mufsz6dd","prime","5f58c538082c5b05b82953f6","5f60e3c0a3b16e07647b2ff9","5f6104ba5152ec0482af4d88","false","null","<span style=""color: black; font-size: 48px"">N + M</span>","null","","","","resp_prompt","","","","","","","","","","","","","","","",""
"categorize-image","152","736427","0.0-4.0-1.0-1.11","yv516d7mufsz6dd","prime","5f58c538082c5b05b82953f6","5f60e3c0a3b16e07647b2ff9","5f6104ba5152ec0482af4d88","true","892.9199998965487","./Stimuli/SelectedImages/LM/LM57.bmp","76","","","","test","true","N + M","76","repetition","LM","LM57.bmp","forget","","60","3","prime1","right","","","",""
"html-keyboard-response","153","738429","0.0-4.0-1.0-3.11","yv516d7mufsz6dd","prime","5f58c538082c5b05b82953f6","5f60e3c0a3b16e07647b2ff9","5f6104ba5152ec0482af4d88","false","null","<div style=""align-items: center; display: flex; color: darkorange; font-size: 90px""><b>ø</b></div>","null","","","","forget_cue","","","","","","","","","","","","","","","",""
"html-keyboard-response","154","739130","0.0-4.0-1.0-0.12","yv516d7mufsz6dd","prime","5f58c538082c5b05b82953f6","5f60e3c0a3b16e07647b2ff9","5f6104ba5152ec0482af4d88","false","null","<span style=""color: black; font-size: 48px"">M + N</span>","null","","","","resp_prompt","","","","","","","","","","","","","","","",""
"categorize-image","155","739996","0.0-4.0-1.0-1.12","yv516d7mufsz6dd","prime","5f58c538082c5b05b82953f6","5f60e3c0a3b16e07647b2ff9","5f6104ba5152ec0482af4d88","true","863.1199999945238","./Stimuli/SelectedImages/LN/LN177.bmp","76","","","","test","true","M + N","76","repetition","LN","LN177.bmp","forget","","61","3","prime1","right","","","",""
"html-keyboard-response","156","741997","0.0-4.0-1.0-3.12","yv516d7mufsz6dd","prime","5f58c538082c5b05b82953f6","5f60e3c0a3b16e07647b2ff9","5f6104ba5152ec0482af4d88","false","null","<div style=""align-items: center; display: flex; color: darkorange; font-size: 90px""><b>ø</b></div>","null","","","","forget_cue","","","","","","","","","","","","","","","",""
"html-keyboard-response","157","742699","0.0-4.0-1.0-0.13","yv516d7mufsz6dd","prime","5f58c538082c5b05b82953f6","5f60e3c0a3b16e07647b2ff9","5f6104ba5152ec0482af4d88","false","null","<span style=""color: black; font-size: 48px"">M + N</span>","null","","","","resp_prompt","","","","","","","","","","","","","","","",""
"categorize-image","158","743636","0.0-4.0-1.0-1.13","yv516d7mufsz6dd","prime","5f58c538082c5b05b82953f6","5f60e3c0a3b16e07647b2ff9","5f6104ba5152ec0482af4d88","true","934.8250000039116","./Stimuli/SelectedImages/LN/LN9.bmp","76","","","","test","true","M + N","76","switch","LN","LN9.bmp","forget","","62","3","prime1","right","","","",""
"html-keyboard-response","159","745637","0.0-4.0-1.0-3.13","yv516d7mufsz6dd","prime","5f58c538082c5b05b82953f6","5f60e3c0a3b16e07647b2ff9","5f6104ba5152ec0482af4d88","false","null","<div style=""align-items: center; display: flex; color: darkorange; font-size: 90px""><b>ø</b></div>","null","","","","forget_cue","","","","","","","","","","","","","","","",""
"html-keyboard-response","160","746339","0.0-4.0-1.0-0.14","yv516d7mufsz6dd","prime","5f58c538082c5b05b82953f6","5f60e3c0a3b16e07647b2ff9","5f6104ba5152ec0482af4d88","false","null","<span style=""color: black; font-size: 48px"">M + N</span>","null","","","","resp_prompt","","","","","","","","","","","","","","","",""
"categorize-image","161","747101","0.0-4.0-1.0-1.14","yv516d7mufsz6dd","prime","5f58c538082c5b05b82953f6","5f60e3c0a3b16e07647b2ff9","5f6104ba5152ec0482af4d88","true","758.0999999772757","./Stimuli/SelectedImages/SN/SN181.bmp","76","","","","test","true","M + N","76","repetition","SN","SN181.bmp","forget","","63","3","prime1","right","","","",""
"html-keyboard-response","162","749102","0.0-4.0-1.0-3.14","yv516d7mufsz6dd","prime","5f58c538082c5b05b82953f6","5f60e3c0a3b16e07647b2ff9","5f6104ba5152ec0482af4d88","false","null","<div style=""align-items: center; display: flex; color: darkorange; font-size: 90px""><b>ø</b></div>","null","","","","forget_cue","","","","","","","","","","","","","","","",""
"html-keyboard-response","163","749803","0.0-4.0-1.0-0.15","yv516d7mufsz6dd","prime","5f58c538082c5b05b82953f6","5f60e3c0a3b16e07647b2ff9","5f6104ba5152ec0482af4d88","false","null","<span style=""color: black; font-size: 48px"">N + M</span>","null","","","","resp_prompt","","","","","","","","","","","","","","","",""
"categorize-image","164","750523","0.0-4.0-1.0-1.15","yv516d7mufsz6dd","prime","5f58c538082c5b05b82953f6","5f60e3c0a3b16e07647b2ff9","5f6104ba5152ec0482af4d88","true","717.1650000382215","./Stimuli/SelectedImages/LM/LM179.bmp","76","","","","test","true","N + M","76","repetition","LM","LM179.bmp","remember","","64","3","prime1","right","","","",""
"html-keyboard-response","165","752525","0.0-4.0-1.0-3.15","yv516d7mufsz6dd","prime","5f58c538082c5b05b82953f6","5f60e3c0a3b16e07647b2ff9","5f6104ba5152ec0482af4d88","false","null","<div style=""align-items: center; display: flex; color: dodgerblue; font-size: 90px""><b>o</b></div>","null","","","","forget_cue","","","","","","","","","","","","","","","",""
"html-keyboard-response","166","753227","0.0-4.0-1.0-0.16","yv516d7mufsz6dd","prime","5f58c538082c5b05b82953f6","5f60e3c0a3b16e07647b2ff9","5f6104ba5152ec0482af4d88","false","null","<span style=""color: black; font-size: 48px"">M + N</span>","null","","","","resp_prompt","","","","","","","","","","","","","","","",""
"categorize-image","167","753966","0.0-4.0-1.0-1.16","yv516d7mufsz6dd","prime","5f58c538082c5b05b82953f6","5f60e3c0a3b16e07647b2ff9","5f6104ba5152ec0482af4d88","true","735.3949999669567","./Stimuli/SelectedImages/LN/LN111.bmp","76","","","","test","true","M + N","76","switch","LN","LN111.bmp","remember","","65","3","prime1","right","","","",""
"html-keyboard-response","168","755968","0.0-4.0-1.0-3.16","yv516d7mufsz6dd","prime","5f58c538082c5b05b82953f6","5f60e3c0a3b16e07647b2ff9","5f6104ba5152ec0482af4d88","false","null","<div style=""align-items: center; display: flex; color: dodgerblue; font-size: 90px""><b>o</b></div>","null","","","","forget_cue","","","","","","","","","","","","","","","",""
"html-keyboard-response","169","756669","0.0-4.0-1.0-0.17","yv516d7mufsz6dd","prime","5f58c538082c5b05b82953f6","5f60e3c0a3b16e07647b2ff9","5f6104ba5152ec0482af4d88","false","null","<span style=""color: black; font-size: 48px"">N + M</span>","null","","","","resp_prompt","","","","","","","","","","","","","","","",""
"categorize-image","170","757539","0.0-4.0-1.0-1.17","yv516d7mufsz6dd","prime","5f58c538082c5b05b82953f6","5f60e3c0a3b16e07647b2ff9","5f6104ba5152ec0482af4d88","true","867.0899999560788","./Stimuli/SelectedImages/SN/SN64.bmp","83","","","","test","true","N + M","83","switch","SN","SN64.bmp","remember","","66","3","prime1","left","","","",""
"html-keyboard-response","171","759541","0.0-4.0-1.0-3.17","yv516d7mufsz6dd","prime","5f58c538082c5b05b82953f6","5f60e3c0a3b16e07647b2ff9","5f6104ba5152ec0482af4d88","false","null","<div style=""align-items: center; display: flex; color: dodgerblue; font-size: 90px""><b>o</b></div>","null","","","","forget_cue","","","","","","","","","","","","","","","",""
"html-keyboard-response","172","760243","0.0-4.0-1.0-0.18","yv516d7mufsz6dd","prime","5f58c538082c5b05b82953f6","5f60e3c0a3b16e07647b2ff9","5f6104ba5152ec0482af4d88","false","null","<span style=""color: black; font-size: 48px"">M + N</span>","null","","","","resp_prompt","","","","","","","","","","","","","","","",""
"categorize-image","173","760988","0.0-4.0-1.0-1.18","yv516d7mufsz6dd","prime","5f58c538082c5b05b82953f6","5f60e3c0a3b16e07647b2ff9","5f6104ba5152ec0482af4d88","true","742.6549999509007","./Stimuli/SelectedImages/SN/SN52.bmp","76","","","","test","true","M + N","76","switch","SN","SN52.bmp","remember","","67","3","prime1","right","","","",""
"html-keyboard-response","174","762989","0.0-4.0-1.0-3.18","yv516d7mufsz6dd","prime","5f58c538082c5b05b82953f6","5f60e3c0a3b16e07647b2ff9","5f6104ba5152ec0482af4d88","false","null","<div style=""align-items: center; display: flex; color: dodgerblue; font-size: 90px""><b>o</b></div>","null","","","","forget_cue","","","","","","","","","","","","","","","",""
"html-keyboard-response","175","763691","0.0-4.0-1.0-0.19","yv516d7mufsz6dd","prime","5f58c538082c5b05b82953f6","5f60e3c0a3b16e07647b2ff9","5f6104ba5152ec0482af4d88","false","null","<span style=""color: black; font-size: 48px"">N + M</span>","null","","","","resp_prompt","","","","","","","","","","","","","","","",""
"categorize-image","176","764333","0.0-4.0-1.0-1.19","yv516d7mufsz6dd","prime","5f58c538082c5b05b82953f6","5f60e3c0a3b16e07647b2ff9","5f6104ba5152ec0482af4d88","true","639.1549999825656","./Stimuli/SelectedImages/SN/SN155.bmp","83","","","","test","true","N + M","83","repetition","SN","SN155.bmp","forget","","68","3","prime1","left","","","",""
"html-keyboard-response","177","766335","0.0-4.0-1.0-3.19","yv516d7mufsz6dd","prime","5f58c538082c5b05b82953f6","5f60e3c0a3b16e07647b2ff9","5f6104ba5152ec0482af4d88","false","null","<div style=""align-items: center; display: flex; color: darkorange; font-size: 90px""><b>ø</b></div>","null","","","","forget_cue","","","","","","","","","","","","","","","",""
"html-keyboard-response","178","767036","0.0-4.0-1.0-0.20","yv516d7mufsz6dd","prime","5f58c538082c5b05b82953f6","5f60e3c0a3b16e07647b2ff9","5f6104ba5152ec0482af4d88","false","null","<span style=""color: black; font-size: 48px"">M + N</span>","null","","","","resp_prompt","","","","","","","","","","","","","","","",""
"categorize-image","179","767572","0.0-4.0-1.0-1.20","yv516d7mufsz6dd","prime","5f58c538082c5b05b82953f6","5f60e3c0a3b16e07647b2ff9","5f6104ba5152ec0482af4d88","true","533.0250000115484","./Stimuli/SelectedImages/LM/LM51.bmp","83","","","","test","true","M + N","83","repetition","LM","LM51.bmp","forget","","69","3","prime1","left","","","",""
"html-keyboard-response","180","769574","0.0-4.0-1.0-3.20","yv516d7mufsz6dd","prime","5f58c538082c5b05b82953f6","5f60e3c0a3b16e07647b2ff9","5f6104ba5152ec0482af4d88","false","null","<div style=""align-items: center; display: flex; color: darkorange; font-size: 90px""><b>ø</b></div>","null","","","","forget_cue","","","","","","","","","","","","","","","",""
"html-keyboard-response","181","770275","0.0-4.0-1.0-0.21","yv516d7mufsz6dd","prime","5f58c538082c5b05b82953f6","5f60e3c0a3b16e07647b2ff9","5f6104ba5152ec0482af4d88","false","null","<span style=""color: black; font-size: 48px"">N + M</span>","null","","","","resp_prompt","","","","","","","","","","","","","","","",""
"categorize-image","182","771052","0.0-4.0-1.0-1.21","yv516d7mufsz6dd","prime","5f58c538082c5b05b82953f6","5f60e3c0a3b16e07647b2ff9","5f6104ba5152ec0482af4d88","true","774.1750000277534","./Stimuli/SelectedImages/LN/LN82.bmp","83","","","","test","true","N + M","83","repetition","LN","LN82.bmp","remember","","70","3","prime1","left","","","",""
"html-keyboard-response","183","773055","0.0-4.0-1.0-3.21","yv516d7mufsz6dd","prime","5f58c538082c5b05b82953f6","5f60e3c0a3b16e07647b2ff9","5f6104ba5152ec0482af4d88","false","null","<div style=""align-items: center; display: flex; color: dodgerblue; font-size: 90px""><b>o</b></div>","null","","","","forget_cue","","","","","","","","","","","","","","","",""
"html-keyboard-response","184","773756","0.0-4.0-1.0-0.22","yv516d7mufsz6dd","prime","5f58c538082c5b05b82953f6","5f60e3c0a3b16e07647b2ff9","5f6104ba5152ec0482af4d88","false","null","<span style=""color: black; font-size: 48px"">N + M</span>","null","","","","resp_prompt","","","","","","","","","","","","","","","",""
"categorize-image","185","774572","0.0-4.0-1.0-1.22","yv516d7mufsz6dd","prime","5f58c538082c5b05b82953f6","5f60e3c0a3b16e07647b2ff9","5f6104ba5152ec0482af4d88","true","813.1299999076873","./Stimuli/SelectedImages/SN/SN140.bmp","83","","","","test","true","N + M","83","switch","SN","SN140.bmp","remember","","71","3","prime1","left","","","",""
"html-keyboard-response","186","776575","0.0-4.0-1.0-3.22","yv516d7mufsz6dd","prime","5f58c538082c5b05b82953f6","5f60e3c0a3b16e07647b2ff9","5f6104ba5152ec0482af4d88","false","null","<div style=""align-items: center; display: flex; color: dodgerblue; font-size: 90px""><b>o</b></div>","null","","","","forget_cue","","","","","","","","","","","","","","","",""
"html-keyboard-response","187","777276","0.0-4.0-1.0-0.23","yv516d7mufsz6dd","prime","5f58c538082c5b05b82953f6","5f60e3c0a3b16e07647b2ff9","5f6104ba5152ec0482af4d88","false","null","<span style=""color: black; font-size: 48px"">N + M</span>","null","","","","resp_prompt","","","","","","","","","","","","","","","",""
"categorize-image","188","778092","0.0-4.0-1.0-1.23","yv516d7mufsz6dd","prime","5f58c538082c5b05b82953f6","5f60e3c0a3b16e07647b2ff9","5f6104ba5152ec0482af4d88","true","813.4850000496954","./Stimuli/SelectedImages/LN/LN12.bmp","83","","","","test","true","N + M","83","repetition","LN","LN12.bmp","remember","","72","3","prime1","left","","","",""
"html-keyboard-response","189","780094","0.0-4.0-1.0-3.23","yv516d7mufsz6dd","prime","5f58c538082c5b05b82953f6","5f60e3c0a3b16e07647b2ff9","5f6104ba5152ec0482af4d88","false","null","<div style=""align-items: center; display: flex; color: dodgerblue; font-size: 90px""><b>o</b></div>","null","","","","forget_cue","","","","","","","","","","","","","","","",""
"html-keyboard-response","190","780795","0.0-4.0-1.0-0.24","yv516d7mufsz6dd","prime","5f58c538082c5b05b82953f6","5f60e3c0a3b16e07647b2ff9","5f6104ba5152ec0482af4d88","false","null","<span style=""color: black; font-size: 48px"">N + M</span>","null","","","","resp_prompt","","","","","","","","","","","","","","","",""
"categorize-image","191","781461","0.0-4.0-1.0-1.24","yv516d7mufsz6dd","prime","5f58c538082c5b05b82953f6","5f60e3c0a3b16e07647b2ff9","5f6104ba5152ec0482af4d88","true","662.720000022091","./Stimuli/SelectedImages/LN/LN149.bmp","83","","","","test","true","N + M","83","switch","LN","LN149.bmp","forget","","73","3","prime1","left","","","",""
"html-keyboard-response","192","783463","0.0-4.0-1.0-3.24","yv516d7mufsz6dd","prime","5f58c538082c5b05b82953f6","5f60e3c0a3b16e07647b2ff9","5f6104ba5152ec0482af4d88","false","null","<div style=""align-items: center; display: flex; color: darkorange; font-size: 90px""><b>ø</b></div>","null","","","","forget_cue","","","","","","","","","","","","","","","",""
"html-keyboard-response","193","784164","0.0-4.0-1.0-0.25","yv516d7mufsz6dd","prime","5f58c538082c5b05b82953f6","5f60e3c0a3b16e07647b2ff9","5f6104ba5152ec0482af4d88","false","null","<span style=""color: black; font-size: 48px"">N + M</span>","null","","","","resp_prompt","","","","","","","","","","","","","","","",""
"categorize-image","194","784870","0.0-4.0-1.0-1.25","yv516d7mufsz6dd","prime","5f58c538082c5b05b82953f6","5f60e3c0a3b16e07647b2ff9","5f6104ba5152ec0482af4d88","true","700.9850000031292","./Stimuli/SelectedImages/SM/SM200.bmp","76","","","","test","true","N + M","76","repetition","SM","SM200.bmp","forget","","74","3","prime1","right","","","",""
"html-keyboard-response","195","786872","0.0-4.0-1.0-3.25","yv516d7mufsz6dd","prime","5f58c538082c5b05b82953f6","5f60e3c0a3b16e07647b2ff9","5f6104ba5152ec0482af4d88","false","null","<div style=""align-items: center; display: flex; color: darkorange; font-size: 90px""><b>ø</b></div>","null","","","","forget_cue","","","","","","","","","","","","","","","",""
"html-keyboard-response","196","787573","0.0-4.0-1.0-0.26","yv516d7mufsz6dd","prime","5f58c538082c5b05b82953f6","5f60e3c0a3b16e07647b2ff9","5f6104ba5152ec0482af4d88","false","null","<span style=""color: black; font-size: 48px"">M + N</span>","null","","","","resp_prompt","","","","","","","","","","","","","","","",""
"categorize-image","197","788316","0.0-4.0-1.0-1.26","yv516d7mufsz6dd","prime","5f58c538082c5b05b82953f6","5f60e3c0a3b16e07647b2ff9","5f6104ba5152ec0482af4d88","true","739.670000039041","./Stimuli/SelectedImages/SN/SN111.bmp","76","","","","test","true","M + N","76","switch","SN","SN111.bmp","forget","","75","3","prime1","right","","","",""
"html-keyboard-response","198","790317","0.0-4.0-1.0-3.26","yv516d7mufsz6dd","prime","5f58c538082c5b05b82953f6","5f60e3c0a3b16e07647b2ff9","5f6104ba5152ec0482af4d88","false","null","<div style=""align-items: center; display: flex; color: darkorange; font-size: 90px""><b>ø</b></div>","null","","","","forget_cue","","","","","","","","","","","","","","","",""
"html-keyboard-response","199","791018","0.0-4.0-1.0-0.27","yv516d7mufsz6dd","prime","5f58c538082c5b05b82953f6","5f60e3c0a3b16e07647b2ff9","5f6104ba5152ec0482af4d88","false","null","<span style=""color: black; font-size: 48px"">N + M</span>","null","","","","resp_prompt","","","","","","","","","","","","","","","",""
"categorize-image","200","791670","0.0-4.0-1.0-1.27","yv516d7mufsz6dd","prime","5f58c538082c5b05b82953f6","5f60e3c0a3b16e07647b2ff9","5f6104ba5152ec0482af4d88","true","647.8150000330061","./Stimuli/SelectedImages/SN/SN240.bmp","83","","","","test","true","N + M","83","switch","SN","SN240.bmp","forget","","76","3","prime1","left","","","",""
"html-keyboard-response","201","793671","0.0-4.0-1.0-3.27","yv516d7mufsz6dd","prime","5f58c538082c5b05b82953f6","5f60e3c0a3b16e07647b2ff9","5f6104ba5152ec0482af4d88","false","null","<div style=""align-items: center; display: flex; color: darkorange; font-size: 90px""><b>ø</b></div>","null","","","","forget_cue","","","","","","","","","","","","","","","",""
"html-keyboard-response","202","794372","0.0-4.0-1.0-0.28","yv516d7mufsz6dd","prime","5f58c538082c5b05b82953f6","5f60e3c0a3b16e07647b2ff9","5f6104ba5152ec0482af4d88","false","null","<span style=""color: black; font-size: 48px"">M + N</span>","null","","","","resp_prompt","","","","","","","","","","","","","","","",""
"categorize-image","203","794988","0.0-4.0-1.0-1.28","yv516d7mufsz6dd","prime","5f58c538082c5b05b82953f6","5f60e3c0a3b16e07647b2ff9","5f6104ba5152ec0482af4d88","true","612.0799999916926","./Stimuli/SelectedImages/LM/LM59.bmp","83","","","","test","true","M + N","83","switch","LM","LM59.bmp","forget","","77","3","prime1","left","","","",""
"html-keyboard-response","204","796990","0.0-4.0-1.0-3.28","yv516d7mufsz6dd","prime","5f58c538082c5b05b82953f6","5f60e3c0a3b16e07647b2ff9","5f6104ba5152ec0482af4d88","false","null","<div style=""align-items: center; display: flex; color: darkorange; font-size: 90px""><b>ø</b></div>","null","","","","forget_cue","","","","","","","","","","","","","","","",""
"html-keyboard-response","205","797691","0.0-4.0-1.0-0.29","yv516d7mufsz6dd","prime","5f58c538082c5b05b82953f6","5f60e3c0a3b16e07647b2ff9","5f6104ba5152ec0482af4d88","false","null","<span style=""color: black; font-size: 48px"">N + M</span>","null","","","","resp_prompt","","","","","","","","","","","","","","","",""
"categorize-image","206","798268","0.0-4.0-1.0-1.29","yv516d7mufsz6dd","prime","5f58c538082c5b05b82953f6","5f60e3c0a3b16e07647b2ff9","5f6104ba5152ec0482af4d88","true","574.1999999154359","./Stimuli/SelectedImages/SM/SM106.bmp","76","","","","test","true","N + M","76","switch","SM","SM106.bmp","remember","","78","3","prime1","right","","","",""
"html-keyboard-response","207","800269","0.0-4.0-1.0-3.29","yv516d7mufsz6dd","prime","5f58c538082c5b05b82953f6","5f60e3c0a3b16e07647b2ff9","5f6104ba5152ec0482af4d88","false","null","<div style=""align-items: center; display: flex; color: dodgerblue; font-size: 90px""><b>o</b></div>","null","","","","forget_cue","","","","","","","","","","","","","","","",""
"html-keyboard-response","208","800971","0.0-4.0-1.0-0.30","yv516d7mufsz6dd","prime","5f58c538082c5b05b82953f6","5f60e3c0a3b16e07647b2ff9","5f6104ba5152ec0482af4d88","false","null","<span style=""color: black; font-size: 48px"">N + M</span>","null","","","","resp_prompt","","","","","","","","","","","","","","","",""
"categorize-image","209","801596","0.0-4.0-1.0-1.30","yv516d7mufsz6dd","prime","5f58c538082c5b05b82953f6","5f60e3c0a3b16e07647b2ff9","5f6104ba5152ec0482af4d88","true","622.8050000499934","./Stimuli/SelectedImages/LM/LM235.bmp","76","","","","test","true","N + M","76","switch","LM","LM235.bmp","remember","","79","3","prime1","right","","","",""
"html-keyboard-response","210","803598","0.0-4.0-1.0-3.30","yv516d7mufsz6dd","prime","5f58c538082c5b05b82953f6","5f60e3c0a3b16e07647b2ff9","5f6104ba5152ec0482af4d88","false","null","<div style=""align-items: center; display: flex; color: dodgerblue; font-size: 90px""><b>o</b></div>","null","","","","forget_cue","","","","","","","","","","","","","","","",""
"html-keyboard-response","211","804299","0.0-4.0-1.0-0.31","yv516d7mufsz6dd","prime","5f58c538082c5b05b82953f6","5f60e3c0a3b16e07647b2ff9","5f6104ba5152ec0482af4d88","false","null","<span style=""color: black; font-size: 48px"">M + N</span>","null","","","","resp_prompt","","","","","","","","","","","","","","","",""
"categorize-image","212","805212","0.0-4.0-1.0-1.31","yv516d7mufsz6dd","prime","5f58c538082c5b05b82953f6","5f60e3c0a3b16e07647b2ff9","5f6104ba5152ec0482af4d88","true","910.3050000267103","./Stimuli/SelectedImages/LN/LN128.bmp","76","","","","test","true","M + N","76","repetition","LN","LN128.bmp","remember","","80","3","prime1","right","","","",""
"html-keyboard-response","213","807214","0.0-4.0-1.0-3.31","yv516d7mufsz6dd","prime","5f58c538082c5b05b82953f6","5f60e3c0a3b16e07647b2ff9","5f6104ba5152ec0482af4d88","false","null","<div style=""align-items: center; display: flex; color: dodgerblue; font-size: 90px""><b>o</b></div>","null","","","","forget_cue","","","","","","","","","","","","","","","",""
"html-keyboard-response","214","807916","0.0-4.0-1.0-0.32","yv516d7mufsz6dd","prime","5f58c538082c5b05b82953f6","5f60e3c0a3b16e07647b2ff9","5f6104ba5152ec0482af4d88","false","null","<span style=""color: black; font-size: 48px"">N + M</span>","null","","","","resp_prompt","","","","","","","","","","","","","","","",""
"categorize-image","215","808787","0.0-4.0-1.0-1.32","yv516d7mufsz6dd","prime","5f58c538082c5b05b82953f6","5f60e3c0a3b16e07647b2ff9","5f6104ba5152ec0482af4d88","true","868.4849999845028","./Stimuli/SelectedImages/LM/LM129.bmp","76","","","","test","true","N + M","76","repetition","LM","LM129.bmp","forget","","81","3","prime1","right","","","",""
"html-keyboard-response","216","810789","0.0-4.0-1.0-3.32","yv516d7mufsz6dd","prime","5f58c538082c5b05b82953f6","5f60e3c0a3b16e07647b2ff9","5f6104ba5152ec0482af4d88","false","null","<div style=""align-items: center; display: flex; color: darkorange; font-size: 90px""><b>ø</b></div>","null","","","","forget_cue","","","","","","","","","","","","","","","",""
"html-keyboard-response","217","811491","0.0-4.0-1.0-0.33","yv516d7mufsz6dd","prime","5f58c538082c5b05b82953f6","5f60e3c0a3b16e07647b2ff9","5f6104ba5152ec0482af4d88","false","null","<span style=""color: black; font-size: 48px"">N + M</span>","null","","","","resp_prompt","","","","","","","","","","","","","","","",""
"categorize-image","218","812612","0.0-4.0-1.0-1.33","yv516d7mufsz6dd","prime","5f58c538082c5b05b82953f6","5f60e3c0a3b16e07647b2ff9","5f6104ba5152ec0482af4d88","true","1118.434999953024","./Stimuli/SelectedImages/SM/SM108.bmp","76","","","","test","true","N + M","76","repetition","SM","SM108.bmp","remember","","82","3","prime1","right","","","",""
"html-keyboard-response","219","814614","0.0-4.0-1.0-3.33","yv516d7mufsz6dd","prime","5f58c538082c5b05b82953f6","5f60e3c0a3b16e07647b2ff9","5f6104ba5152ec0482af4d88","false","null","<div style=""align-items: center; display: flex; color: dodgerblue; font-size: 90px""><b>o</b></div>","null","","","","forget_cue","","","","","","","","","","","","","","","",""
"html-keyboard-response","220","815315","0.0-4.0-1.0-0.34","yv516d7mufsz6dd","prime","5f58c538082c5b05b82953f6","5f60e3c0a3b16e07647b2ff9","5f6104ba5152ec0482af4d88","false","null","<span style=""color: black; font-size: 48px"">M + N</span>","null","","","","resp_prompt","","","","","","","","","","","","","","","",""
"categorize-image","221","815934","0.0-4.0-1.0-1.34","yv516d7mufsz6dd","prime","5f58c538082c5b05b82953f6","5f60e3c0a3b16e07647b2ff9","5f6104ba5152ec0482af4d88","true","615.0850000558421","./Stimuli/SelectedImages/LM/LM58.bmp","83","","","","test","true","M + N","83","switch","LM","LM58.bmp","forget","","83","3","prime1","left","","","",""
"html-keyboard-response","222","817935","0.0-4.0-1.0-3.34","yv516d7mufsz6dd","prime","5f58c538082c5b05b82953f6","5f60e3c0a3b16e07647b2ff9","5f6104ba5152ec0482af4d88","false","null","<div style=""align-items: center; display: flex; color: darkorange; font-size: 90px""><b>ø</b></div>","null","","","","forget_cue","","","","","","","","","","","","","","","",""
"html-keyboard-response","223","818636","0.0-4.0-1.0-0.35","yv516d7mufsz6dd","prime","5f58c538082c5b05b82953f6","5f60e3c0a3b16e07647b2ff9","5f6104ba5152ec0482af4d88","false","null","<span style=""color: black; font-size: 48px"">M + N</span>","null","","","","resp_prompt","","","","","","","","","","","","","","","",""
"categorize-image","224","819220","0.0-4.0-1.0-1.35","yv516d7mufsz6dd","prime","5f58c538082c5b05b82953f6","5f60e3c0a3b16e07647b2ff9","5f6104ba5152ec0482af4d88","true","580.614999984391","./Stimuli/SelectedImages/SM/SM78.bmp","83","","","","test","true","M + N","83","repetition","SM","SM78.bmp","remember","","84","3","prime1","left","","","",""
"html-keyboard-response","225","821221","0.0-4.0-1.0-3.35","yv516d7mufsz6dd","prime","5f58c538082c5b05b82953f6","5f60e3c0a3b16e07647b2ff9","5f6104ba5152ec0482af4d88","false","null","<div style=""align-items: center; display: flex; color: dodgerblue; font-size: 90px""><b>o</b></div>","null","","","","forget_cue","","","","","","","","","","","","","","","",""
"html-keyboard-response","226","821923","0.0-4.0-1.0-0.36","yv516d7mufsz6dd","prime","5f58c538082c5b05b82953f6","5f60e3c0a3b16e07647b2ff9","5f6104ba5152ec0482af4d88","false","null","<span style=""color: black; font-size: 48px"">N + M</span>","null","","","","resp_prompt","","","","","","","","","","","","","","","",""
"categorize-image","227","822973","0.0-4.0-1.0-1.36","yv516d7mufsz6dd","prime","5f58c538082c5b05b82953f6","5f60e3c0a3b16e07647b2ff9","5f6104ba5152ec0482af4d88","true","1046.875","./Stimuli/SelectedImages/SM/SM24.bmp","76","","","","test","true","N + M","76","repetition","SM","SM24.bmp","forget","","85","3","prime1","right","","","",""
"html-keyboard-response","228","824975","0.0-4.0-1.0-3.36","yv516d7mufsz6dd","prime","5f58c538082c5b05b82953f6","5f60e3c0a3b16e07647b2ff9","5f6104ba5152ec0482af4d88","false","null","<div style=""align-items: center; display: flex; color: darkorange; font-size: 90px""><b>ø</b></div>","null","","","","forget_cue","","","","","","","","","","","","","","","",""
"html-keyboard-response","229","825676","0.0-4.0-1.0-0.37","yv516d7mufsz6dd","prime","5f58c538082c5b05b82953f6","5f60e3c0a3b16e07647b2ff9","5f6104ba5152ec0482af4d88","false","null","<span style=""color: black; font-size: 48px"">N + M</span>","null","","","","resp_prompt","","","","","","","","","","","","","","","",""
"categorize-image","230","826324","0.0-4.0-1.0-1.37","yv516d7mufsz6dd","prime","5f58c538082c5b05b82953f6","5f60e3c0a3b16e07647b2ff9","5f6104ba5152ec0482af4d88","true","644.6349999168888","./Stimuli/SelectedImages/LN/LN13.bmp","83","","","","test","true","N + M","83","switch","LN","LN13.bmp","remember","","86","3","prime1","left","","","",""
"html-keyboard-response","231","828326","0.0-4.0-1.0-3.37","yv516d7mufsz6dd","prime","5f58c538082c5b05b82953f6","5f60e3c0a3b16e07647b2ff9","5f6104ba5152ec0482af4d88","false","null","<div style=""align-items: center; display: flex; color: dodgerblue; font-size: 90px""><b>o</b></div>","null","","","","forget_cue","","","","","","","","","","","","","","","",""
"html-keyboard-response","232","829027","0.0-4.0-1.0-0.38","yv516d7mufsz6dd","prime","5f58c538082c5b05b82953f6","5f60e3c0a3b16e07647b2ff9","5f6104ba5152ec0482af4d88","false","null","<span style=""color: black; font-size: 48px"">M + N</span>","null","","","","resp_prompt","","","","","","","","","","","","","","","",""
"categorize-image","233","829622","0.0-4.0-1.0-1.38","yv516d7mufsz6dd","prime","5f58c538082c5b05b82953f6","5f60e3c0a3b16e07647b2ff9","5f6104ba5152ec0482af4d88","true","591.5500000119209","./Stimuli/SelectedImages/LN/LN42.bmp","76","","","","test","true","M + N","76","repetition","LN","LN42.bmp","remember","","87","3","prime1","right","","","",""
"html-keyboard-response","234","831623","0.0-4.0-1.0-3.38","yv516d7mufsz6dd","prime","5f58c538082c5b05b82953f6","5f60e3c0a3b16e07647b2ff9","5f6104ba5152ec0482af4d88","false","null","<div style=""align-items: center; display: flex; color: dodgerblue; font-size: 90px""><b>o</b></div>","null","","","","forget_cue","","","","","","","","","","","","","","","",""
"html-keyboard-response","235","832325","0.0-4.0-1.0-0.39","yv516d7mufsz6dd","prime","5f58c538082c5b05b82953f6","5f60e3c0a3b16e07647b2ff9","5f6104ba5152ec0482af4d88","false","null","<span style=""color: black; font-size: 48px"">N + M</span>","null","","","","resp_prompt","","","","","","","","","","","","","","","",""
"categorize-image","236","833013","0.0-4.0-1.0-1.39","yv516d7mufsz6dd","prime","5f58c538082c5b05b82953f6","5f60e3c0a3b16e07647b2ff9","5f6104ba5152ec0482af4d88","true","684.1850000200793","./Stimuli/SelectedImages/LN/LN150.bmp","83","","","","test","true","N + M","83","repetition","LN","LN150.bmp","forget","","88","3","prime1","left","","","",""
"html-keyboard-response","237","835015","0.0-4.0-1.0-3.39","yv516d7mufsz6dd","prime","5f58c538082c5b05b82953f6","5f60e3c0a3b16e07647b2ff9","5f6104ba5152ec0482af4d88","false","null","<div style=""align-items: center; display: flex; color: darkorange; font-size: 90px""><b>ø</b></div>","null","","","","forget_cue","","","","","","","","","","","","","","","",""
"html-keyboard-response","238","835717","0.0-4.0-1.0-0.40","yv516d7mufsz6dd","prime","5f58c538082c5b05b82953f6","5f60e3c0a3b16e07647b2ff9","5f6104ba5152ec0482af4d88","false","null","<span style=""color: black; font-size: 48px"">M + N</span>","null","","","","resp_prompt","","","","","","","","","","","","","","","",""
"categorize-image","239","836739","0.0-4.0-1.0-1.40","yv516d7mufsz6dd","prime","5f58c538082c5b05b82953f6","5f60e3c0a3b16e07647b2ff9","5f6104ba5152ec0482af4d88","true","1019.800000009127","./Stimuli/SelectedImages/SM/SM148.bmp","83","","","","test","true","M + N","83","repetition","SM","SM148.bmp","forget","","89","3","prime1","left","","","",""
"html-keyboard-response","240","838741","0.0-4.0-1.0-3.40","yv516d7mufsz6dd","prime","5f58c538082c5b05b82953f6","5f60e3c0a3b16e07647b2ff9","5f6104ba5152ec0482af4d88","false","null","<div style=""align-items: center; display: flex; color: darkorange; font-size: 90px""><b>ø</b></div>","null","","","","forget_cue","","","","","","","","","","","","","","","",""
"html-keyboard-response","241","839441","0.0-4.0-1.0-0.41","yv516d7mufsz6dd","prime","5f58c538082c5b05b82953f6","5f60e3c0a3b16e07647b2ff9","5f6104ba5152ec0482af4d88","false","null","<span style=""color: black; font-size: 48px"">N + M</span>","null","","","","resp_prompt","","","","","","","","","","","","","","","",""
"categorize-image","242","840668","0.0-4.0-1.0-1.41","yv516d7mufsz6dd","prime","5f58c538082c5b05b82953f6","5f60e3c0a3b16e07647b2ff9","5f6104ba5152ec0482af4d88","true","1223.3700000215322","./Stimuli/SelectedImages/LM/LM48.bmp","83","","","","test","false","N + M","76","switch","LM","LM48.bmp","forget","","90","3","prime1","left","","","",""
"html-keyboard-response","243","841169","0.0-4.0-1.0-2.41-0.41","yv516d7mufsz6dd","prime","5f58c538082c5b05b82953f6","5f60e3c0a3b16e07647b2ff9","5f6104ba5152ec0482af4d88","false","null","<span style=""color: red; font-size: 48px"">Error!</span>","null","","","","feedback","","","","","","","","","","","","","","","",""
"html-keyboard-response","244","843171","0.0-4.0-1.0-3.41","yv516d7mufsz6dd","prime","5f58c538082c5b05b82953f6","5f60e3c0a3b16e07647b2ff9","5f6104ba5152ec0482af4d88","false","null","<div style=""align-items: center; display: flex; color: darkorange; font-size: 90px""><b>ø</b></div>","null","","","","forget_cue","","","","","","","","","","","","","","","",""
"html-keyboard-response","245","843873","0.0-4.0-1.0-0.42","yv516d7mufsz6dd","prime","5f58c538082c5b05b82953f6","5f60e3c0a3b16e07647b2ff9","5f6104ba5152ec0482af4d88","false","null","<span style=""color: black; font-size: 48px"">M + N</span>","null","","","","resp_prompt","","","","","","","","","","","","","","","",""
"categorize-image","246","844652","0.0-4.0-1.0-1.42","yv516d7mufsz6dd","prime","5f58c538082c5b05b82953f6","5f60e3c0a3b16e07647b2ff9","5f6104ba5152ec0482af4d88","true","776.8050000304356","./Stimuli/SelectedImages/SN/SN179.bmp","76","","","","test","true","M + N","76","switch","SN","SN179.bmp","forget","","91","3","prime1","right","","","",""
"html-keyboard-response","247","846654","0.0-4.0-1.0-3.42","yv516d7mufsz6dd","prime","5f58c538082c5b05b82953f6","5f60e3c0a3b16e07647b2ff9","5f6104ba5152ec0482af4d88","false","null","<div style=""align-items: center; display: flex; color: darkorange; font-size: 90px""><b>ø</b></div>","null","","","","forget_cue","","","","","","","","","","","","","","","",""
"html-keyboard-response","248","847356","0.0-4.0-1.0-0.43","yv516d7mufsz6dd","prime","5f58c538082c5b05b82953f6","5f60e3c0a3b16e07647b2ff9","5f6104ba5152ec0482af4d88","false","null","<span style=""color: black; font-size: 48px"">M + N</span>","null","","","","resp_prompt","","","","","","","","","","","","","","","",""
"categorize-image","249","848028","0.0-4.0-1.0-1.43","yv516d7mufsz6dd","prime","5f58c538082c5b05b82953f6","5f60e3c0a3b16e07647b2ff9","5f6104ba5152ec0482af4d88","true","669.2449999973178","./Stimuli/SelectedImages/SM/SM213.bmp","83","","","","test","true","M + N","83","repetition","SM","SM213.bmp","remember","","92","3","prime1","left","","","",""
"html-keyboard-response","250","850030","0.0-4.0-1.0-3.43","yv516d7mufsz6dd","prime","5f58c538082c5b05b82953f6","5f60e3c0a3b16e07647b2ff9","5f6104ba5152ec0482af4d88","false","null","<div style=""align-items: center; display: flex; color: dodgerblue; font-size: 90px""><b>o</b></div>","null","","","","forget_cue","","","","","","","","","","","","","","","",""
"html-keyboard-response","251","850732","0.0-4.0-1.0-0.44","yv516d7mufsz6dd","prime","5f58c538082c5b05b82953f6","5f60e3c0a3b16e07647b2ff9","5f6104ba5152ec0482af4d88","false","null","<span style=""color: black; font-size: 48px"">M + N</span>","null","","","","resp_prompt","","","","","","","","","","","","","","","",""
"categorize-image","252","851283","0.0-4.0-1.0-1.44","yv516d7mufsz6dd","prime","5f58c538082c5b05b82953f6","5f60e3c0a3b16e07647b2ff9","5f6104ba5152ec0482af4d88","true","548.6449999734759","./Stimuli/SelectedImages/LM/LM103.bmp","83","","","","test","true","M + N","83","repetition","LM","LM103.bmp","remember","","93","3","prime1","left","","","",""
