"trial_type","trial_index","time_elapsed","internal_node_id","subject","exp_part","prolific_PID","study_ID","session_ID","use","rt","stimulus","key_press","button_pressed","responses","question_order","trial_part","correct","resp_map","correct_resp","probe_condition","category","image","forget_condition","list","trial_num","block_num","block","response","test_part","n_span","sequence","num_spaces"
"pavlovia","0","3","0.0-0.0","cdzempr16v714ve","","5f57c711791f712bdd0c8fa1","5f60e3c0a3b16e07647b2ff9","5f60ec38b02492000a01ea81","false","","","","","","","","","","","","","","","","","","","","","","",""
"html-keyboard-response","1","9117","0.0-1.0-0.0-0.0","cdzempr16v714ve","welcome","5f57c711791f712bdd0c8fa1","5f60e3c0a3b16e07647b2ff9","5f60ec38b02492000a01ea81","false","9112.90999999619","<div align=left>Dear participant, <br> thank you for participating in an online study of the Cognition, Action, and Sustainability Unit of the University of Freiburg! <br> <br>The aim of this study is to examine our ability to remember previously learned information. <br>Our goal is to find out, whether our memory improves, when we only remember information that is relevant to us. <br>The experiment will take about 35 minutes to complete. <br> <br>Please, note that you can only participate in this study if you are using a device with a keyboard (PC, Laptop etc.) <br>and not if you are using a mobile device such as a tablet or smartphone.<br> <br>Press 'SPACE' to proceed to the experiment. </div>","32","","","","","","","","","","","","","","","","","","","",""
"html-keyboard-response","2","19949","0.0-1.0-0.0-1.0","cdzempr16v714ve","welcome","5f57c711791f712bdd0c8fa1","5f60e3c0a3b16e07647b2ff9","5f60ec38b02492000a01ea81","false","10829.679999995278","<div align=left><strong> Time Course of this experiment: </strong> <br><br> <strong> 1.</strong>  First, please fill in some information regarding your demographic data. <br><br> <strong> 2.</strong>  Next, your task will be to classify everyday objects. <br>In addition, you will be asked to remember certain objects and recall them later. <br>Working on these tasks requires your undivided attention and concentration.<br>It is therefore essential that you eliminate any sources of distraction in your  <br>environment and ensure that you will not be disturbed. <br><br><strong> 3.</strong>  At the end of the experiment, you will be asked to answer a few additional questions. <br> <br><strong> Important:</strong> After finishing the experiment, only close the browser window <br> by clicking on the 'end the experiment'-button when you are asked to do so. <br>Closing the browser window prematurely will make the allocation of your participation credit impossible. <br><br> Press 'SPACE' to start the experiment. </div>","32","","","","","","","","","","","","","","","","","","","",""
"html-button-response","3","30811","0.0-1.0-0.0-2.0","cdzempr16v714ve","welcome","5f57c711791f712bdd0c8fa1","5f60e3c0a3b16e07647b2ff9","5f60ec38b02492000a01ea81","true","10858.884999994189","<div align=left><strong> Informed consent </strong>  <br>The aim of our research is to better understand human behavior and mental processes. <br>In the following study your behavior (e.g. choices, reaction times) will be studied. <br> <br><strong> Voluntariness and Anonymity </strong> <br>Your participation in this study is  <strong> voluntary</strong>.<br>You may withdraw your consent to participate at any time without providing a reason for doing so and without fear of prejudice. <br><br>As no personal data will be collected, <strong>your data and your person cannot be connected after data collection</strong> – the data-set is anonymous. <br>Respectively, deletion of your data will not be possible after data collection has been completed, as we cannot retrace your data-set.<br>The results and anonymized data collected in this study will be published as a scientific publication. <br>This will happen in an <strong>anonymized format</strong>, so that no data can be traced back to a specific person. <br> <br>The anonymized data of this study will be made available to other researchers and/or in a data archive on the Internet as a means of transparency and to enable subsequent re-use. By doing so, this study follows the recommendations of the Deutsche Forschungsgemeinschaft (DFG, German Research Foundation) and Deutsche Gesellschaft für Psychologie (DGPS, German Psychological Society) regarding quality assurance in research.<br>If you have any questions now or after the experiment, please contact our team (experiments@cs.uni-freiburg.de).<br><br><br>I hereby declare, that I understand the above described conditions of participation and I agree to participate under these conditions. <br><br> </div>","","0","","","","","","","","","","","","","","","","","","",""
"html-keyboard-response","4","44613","0.0-1.0-0.0-3.0","cdzempr16v714ve","welcome","5f57c711791f712bdd0c8fa1","5f60e3c0a3b16e07647b2ff9","5f60ec38b02492000a01ea81","false","13799.980000010692","<div align=left><strong> General information concerning the experiment </strong>  <br> <br>Please follow the instructions:<ol> <li><strong> Do not leave this tab (your browser window) during the experiment and do not reload this tab! </strong>  <br>If you do switch tabs/windows during the experiment (to check your mail or visit another website, for example), <br>the experiment will end automatically and you will <strong>not receive credit</strong> for your participation. <br>Repeated participation or resumption of the experiment is impossible.</li> <br><li>Please close all other programs for the duration of your participation. </li> <br><li>Please mute or turn off your phone and put it out of your reach. </li> <br><li>Please also take off any disturbing accessories (such as wristwatches, bracelets, etc.). </li> <br><li>If you have music playing in the background, please turn it off now. </li> <br></ol>Thank you! <br>Press 'SPACE' to continue. </div>","32","","","","","","","","","","","","","","","","","","","",""
"survey-text","5","47968","0.0-1.0-1.0-0.0","cdzempr16v714ve","demographics","5f57c711791f712bdd0c8fa1","5f60e3c0a3b16e07647b2ff9","5f60ec38b02492000a01ea81","true","3344.8000000207685","","","","{""age"":""27""}","","","","","","","","","","","","","","","","","",""
"survey-multi-choice","6","66983","0.0-1.0-1.0-1.0","cdzempr16v714ve","demographics","5f57c711791f712bdd0c8fa1","5f60e3c0a3b16e07647b2ff9","5f60ec38b02492000a01ea81","true","19013.395000016317","","","","{""gender"":""female"",""school"":""high school"",""education"":""Completed university degree or equivalent""}","[0,1,2]","","","","","","","","","","","","","","","","",""
"html-keyboard-response","7","77295","0.0-1.0-2.0","cdzempr16v714ve","instructions","5f57c711791f712bdd0c8fa1","5f60e3c0a3b16e07647b2ff9","5f60ec38b02492000a01ea81","false","10310.494999983348","<div align=left> The experiment is now about to start: <br> <br>In the following part, you will be presented pictures of everyday objects. <br>Your first task is to <strong>classify these objects. </strong> <br> <br> You will classify them either as mechanical or non-mechanical objects. <br> <br>Objects that include any kind of technical mechanism (for example, wheels, switches, levers, <br> electronic components) fall under the category of <strong>mechanical</strong> objects. <br>Only objects without any kind of technical mechanism should be classified as <strong>non-mechanical</strong>. <br><br>Press 'SPACE' to continue. </div>","32","","","","","","","","","","","","","","","","","","","",""
"html-keyboard-response","8","103706","0.0-2.0-0.0","cdzempr16v714ve","instructions","5f57c711791f712bdd0c8fa1","5f60e3c0a3b16e07647b2ff9","5f60ec38b02492000a01ea81","false","26407.284999993863","<div align=justify>You will classify the objects using the <strong>'S'</strong> and the <strong>'L'</strong> keys on your keyboard.<br>For doing so, please place your <strong>left index finger</strong> on the <strong>'S'</strong> key and place your <strong>right index finger</strong> on the <strong>'L'</strong> key. <br><br> Each trial starts with an instruction, indicating which key ('S'/'L') you need to press to classify <br>the object as mechanical (letter M) or non-mechanical (letter N).<br>The instruction <strong>M + N</strong> indicates that, in the current trial, by pressing the left key ('S') you classify the displayed object as mechanical (M) <br> and by pressing the right key ('L') you classify the object as non-mechanical (N). <br>The instruction <strong>N + M</strong> on the other hand indicates that by pressing the left key ('S') you classify the displayed object as non-mechanical (N) <br> and by pressing the right key ('L') you classify the object as mechanical (M). <br><br>Please press the key corresponding to the correct classification as fast as possible as soon as the object is displayed and try to avoid making mistakes.<br>If you do not respond within a 2 second window, a corresponding feedback will be displayed and the next trial will start.<br> The experiment is divided into multiple blocks to give you the opportunity to take a break after each block. <br>First, you can now practice this task. <br><br>Please place your <strong>LEFT INDEX FINGER</strong> on the 'S' key and your <strong>RIGHT INDEX FINGER</strong> on the 'L' key now. <br><br>Press SPACE to continue.</div>","32","","","","","","","","","","","","","","","","","","","",""
"html-keyboard-response","9","111013","0.0-2.0-1.0","cdzempr16v714ve","instructions","5f57c711791f712bdd0c8fa1","5f60e3c0a3b16e07647b2ff9","5f60ec38b02492000a01ea81","false","7303.765000018757","<div align=left> You will now have time to practice this task.<br><br>Remember: <br> <br><li>Please place your index fingers on the <strong>'S'</strong> and <strong>'L'</strong> keys <br>to respond as fast and accurately as possible.</li><li>Every picture can be classified as either mechanical or non-mechanical.</li><li>If you do not respond in time or commit an error, you will receive a corresponding feedback. </li><li> Please try to respond as <strong> fast </strong> and as <strong> accurately as possible </strong> .<br><li>To ensure optimal results, please minimize distractions and stay focused. </li><br><br>Press SPACE to continue.</div>","32","","","","","","","","","","","","","","","","","","","",""
"html-keyboard-response","10","111717","0.0-2.0-2.0-0.0","cdzempr16v714ve","practice_no_cue","5f57c711791f712bdd0c8fa1","5f60e3c0a3b16e07647b2ff9","5f60ec38b02492000a01ea81","false","null","<span style=""color: black; font-size: 48px"">N + M</span>","null","","","","resp_prompt","","","","","","","","","","","","","","","",""
"categorize-image","11","113455","0.0-2.0-2.0-1.0","cdzempr16v714ve","practice_no_cue","5f57c711791f712bdd0c8fa1","5f60e3c0a3b16e07647b2ff9","5f60ec38b02492000a01ea81","true","1231.7549999861512","./Stimuli/ImagesPractice/LM143.jpg","76","","","","test","true","N + M","76","","LM","LM143.jpg","forget","old","1","1","start","right","","","",""
"html-keyboard-response","12","114158","0.0-2.0-2.0-0.1","cdzempr16v714ve","practice_no_cue","5f57c711791f712bdd0c8fa1","5f60e3c0a3b16e07647b2ff9","5f60ec38b02492000a01ea81","false","null","<span style=""color: black; font-size: 48px"">N + M</span>","null","","","","resp_prompt","","","","","","","","","","","","","","","",""
"categorize-image","13","115376","0.0-2.0-2.0-1.1","cdzempr16v714ve","practice_no_cue","5f57c711791f712bdd0c8fa1","5f60e3c0a3b16e07647b2ff9","5f60ec38b02492000a01ea81","true","712.3950000095647","./Stimuli/ImagesPractice/LM55.jpg","76","","","","test","true","N + M","76","","LM","LM55.jpg","remember","old","2","1","start","right","","","",""
"html-keyboard-response","14","116079","0.0-2.0-2.0-0.2","cdzempr16v714ve","practice_no_cue","5f57c711791f712bdd0c8fa1","5f60e3c0a3b16e07647b2ff9","5f60ec38b02492000a01ea81","false","null","<span style=""color: black; font-size: 48px"">M + N</span>","null","","","","resp_prompt","","","","","","","","","","","","","","","",""
"categorize-image","15","117980","0.0-2.0-2.0-1.2","cdzempr16v714ve","practice_no_cue","5f57c711791f712bdd0c8fa1","5f60e3c0a3b16e07647b2ff9","5f60ec38b02492000a01ea81","true","1395.859999989625","./Stimuli/ImagesPractice/SN221.jpg","76","","","","test","true","M + N","76","","SN","SN221.jpg","remember","old","3","1","start","right","","","",""
"html-keyboard-response","16","118683","0.0-2.0-2.0-0.3","cdzempr16v714ve","practice_no_cue","5f57c711791f712bdd0c8fa1","5f60e3c0a3b16e07647b2ff9","5f60ec38b02492000a01ea81","false","null","<span style=""color: black; font-size: 48px"">M + N</span>","null","","","","resp_prompt","","","","","","","","","","","","","","","",""
"categorize-image","17","119940","0.0-2.0-2.0-1.3","cdzempr16v714ve","practice_no_cue","5f57c711791f712bdd0c8fa1","5f60e3c0a3b16e07647b2ff9","5f60ec38b02492000a01ea81","true","752.1150000102352","./Stimuli/ImagesPractice/LM224.jpg","83","","","","test","true","M + N","83","","LM","LM224.jpg","forget","old","4","1","start","left","","","",""
"html-keyboard-response","18","120642","0.0-2.0-2.0-0.4","cdzempr16v714ve","practice_no_cue","5f57c711791f712bdd0c8fa1","5f60e3c0a3b16e07647b2ff9","5f60ec38b02492000a01ea81","false","null","<span style=""color: black; font-size: 48px"">N + M</span>","null","","","","resp_prompt","","","","","","","","","","","","","","","",""
"categorize-image","19","121798","0.0-2.0-2.0-1.4","cdzempr16v714ve","practice_no_cue","5f57c711791f712bdd0c8fa1","5f60e3c0a3b16e07647b2ff9","5f60ec38b02492000a01ea81","true","651.7950000124983","./Stimuli/ImagesPractice/LN72.jpg","76","","","","test","false","N + M","83","","LN","LN72.jpg","forget","old","5","1","start","right","","","",""
"html-keyboard-response","20","122500","0.0-2.0-2.0-0.5","cdzempr16v714ve","practice_no_cue","5f57c711791f712bdd0c8fa1","5f60e3c0a3b16e07647b2ff9","5f60ec38b02492000a01ea81","false","null","<span style=""color: black; font-size: 48px"">M + N</span>","null","","","","resp_prompt","","","","","","","","","","","","","","","",""
"categorize-image","21","124067","0.0-2.0-2.0-1.5","cdzempr16v714ve","practice_no_cue","5f57c711791f712bdd0c8fa1","5f60e3c0a3b16e07647b2ff9","5f60ec38b02492000a01ea81","true","1063.7500000011642","./Stimuli/ImagesPractice/LN15.jpg","76","","","","test","true","M + N","76","","LN","LN15.jpg","remember","old","6","1","start","right","","","",""
"html-keyboard-response","22","124769","0.0-2.0-2.0-0.6","cdzempr16v714ve","practice_no_cue","5f57c711791f712bdd0c8fa1","5f60e3c0a3b16e07647b2ff9","5f60ec38b02492000a01ea81","false","null","<span style=""color: black; font-size: 48px"">N + M</span>","null","","","","resp_prompt","","","","","","","","","","","","","","","",""
"categorize-image","23","126244","0.0-2.0-2.0-1.6","cdzempr16v714ve","practice_no_cue","5f57c711791f712bdd0c8fa1","5f60e3c0a3b16e07647b2ff9","5f60ec38b02492000a01ea81","true","970.5100000137463","./Stimuli/ImagesPractice/LN4.jpg","83","","","","test","true","N + M","83","","LN","LN4.jpg","forget","old","7","1","start","left","","","",""
"html-keyboard-response","24","126947","0.0-2.0-2.0-0.7","cdzempr16v714ve","practice_no_cue","5f57c711791f712bdd0c8fa1","5f60e3c0a3b16e07647b2ff9","5f60ec38b02492000a01ea81","false","null","<span style=""color: black; font-size: 48px"">N + M</span>","null","","","","resp_prompt","","","","","","","","","","","","","","","",""
"categorize-image","25","127991","0.0-2.0-2.0-1.7","cdzempr16v714ve","practice_no_cue","5f57c711791f712bdd0c8fa1","5f60e3c0a3b16e07647b2ff9","5f60ec38b02492000a01ea81","true","539.8900000145659","./Stimuli/ImagesPractice/SN220.jpg","83","","","","test","true","N + M","83","","SN","SN220.jpg","remember","old","8","1","start","left","","","",""
"html-keyboard-response","26","128697","0.0-2.0-2.0-0.8","cdzempr16v714ve","practice_no_cue","5f57c711791f712bdd0c8fa1","5f60e3c0a3b16e07647b2ff9","5f60ec38b02492000a01ea81","false","null","<span style=""color: black; font-size: 48px"">M + N</span>","null","","","","resp_prompt","","","","","","","","","","","","","","","",""
"categorize-image","27","130000","0.0-2.0-2.0-1.8","cdzempr16v714ve","practice_no_cue","5f57c711791f712bdd0c8fa1","5f60e3c0a3b16e07647b2ff9","5f60ec38b02492000a01ea81","true","798.7299999804236","./Stimuli/ImagesPractice/SM62.jpg","76","","","","test","false","M + N","83","","SM","SM62.jpg","forget","old","9","1","start","right","","","",""
"html-keyboard-response","28","130703","0.0-2.0-2.0-0.9","cdzempr16v714ve","practice_no_cue","5f57c711791f712bdd0c8fa1","5f60e3c0a3b16e07647b2ff9","5f60ec38b02492000a01ea81","false","null","<span style=""color: black; font-size: 48px"">N + M</span>","null","","","","resp_prompt","","","","","","","","","","","","","","","",""
"categorize-image","29","132229","0.0-2.0-2.0-1.9","cdzempr16v714ve","practice_no_cue","5f57c711791f712bdd0c8fa1","5f60e3c0a3b16e07647b2ff9","5f60ec38b02492000a01ea81","true","1021.5350000071339","./Stimuli/ImagesPractice/SM37.jpg","76","","","","test","true","N + M","76","","SM","SM37.jpg","remember","old","10","1","start","right","","","",""
"html-keyboard-response","30","132932","0.0-2.0-2.0-0.10","cdzempr16v714ve","practice_no_cue","5f57c711791f712bdd0c8fa1","5f60e3c0a3b16e07647b2ff9","5f60ec38b02492000a01ea81","false","null","<span style=""color: black; font-size: 48px"">M + N</span>","null","","","","resp_prompt","","","","","","","","","","","","","","","",""
"categorize-image","31","134703","0.0-2.0-2.0-1.10","cdzempr16v714ve","practice_no_cue","5f57c711791f712bdd0c8fa1","5f60e3c0a3b16e07647b2ff9","5f60ec38b02492000a01ea81","true","1266.5200000046752","./Stimuli/ImagesPractice/LM239.jpg","76","","","","test","false","M + N","83","","LM","LM239.jpg","remember","old","11","1","start","right","","","",""
"html-keyboard-response","32","135405","0.0-2.0-2.0-0.11","cdzempr16v714ve","practice_no_cue","5f57c711791f712bdd0c8fa1","5f60e3c0a3b16e07647b2ff9","5f60ec38b02492000a01ea81","false","null","<span style=""color: black; font-size: 48px"">M + N</span>","null","","","","resp_prompt","","","","","","","","","","","","","","","",""
"categorize-image","33","137028","0.0-2.0-2.0-1.11","cdzempr16v714ve","practice_no_cue","5f57c711791f712bdd0c8fa1","5f60e3c0a3b16e07647b2ff9","5f60ec38b02492000a01ea81","true","1118.319999979576","./Stimuli/ImagesPractice/SM35.jpg","83","","","","test","true","M + N","83","","SM","SM35.jpg","forget","old","12","1","start","left","","","",""
"html-keyboard-response","34","137731","0.0-2.0-2.0-0.12","cdzempr16v714ve","practice_no_cue","5f57c711791f712bdd0c8fa1","5f60e3c0a3b16e07647b2ff9","5f60ec38b02492000a01ea81","false","null","<span style=""color: black; font-size: 48px"">N + M</span>","null","","","","resp_prompt","","","","","","","","","","","","","","","",""
"categorize-image","35","139742","0.0-2.0-2.0-1.12","cdzempr16v714ve","practice_no_cue","5f57c711791f712bdd0c8fa1","5f60e3c0a3b16e07647b2ff9","5f60ec38b02492000a01ea81","true","1508.014999999432","./Stimuli/ImagesPractice/SM61.jpg","76","","","","test","true","N + M","76","","SM","SM61.jpg","forget","old","13","1","start","right","","","",""
"html-keyboard-response","36","140444","0.0-2.0-2.0-0.13","cdzempr16v714ve","practice_no_cue","5f57c711791f712bdd0c8fa1","5f60e3c0a3b16e07647b2ff9","5f60ec38b02492000a01ea81","false","null","<span style=""color: black; font-size: 48px"">N + M</span>","null","","","","resp_prompt","","","","","","","","","","","","","","","",""
"categorize-image","37","142535","0.0-2.0-2.0-1.13","cdzempr16v714ve","practice_no_cue","5f57c711791f712bdd0c8fa1","5f60e3c0a3b16e07647b2ff9","5f60ec38b02492000a01ea81","true","1587.1850000112318","./Stimuli/ImagesPractice/LN109.jpg","76","","","","test","false","N + M","83","","LN","LN109.jpg","remember","old","14","1","start","right","","","",""
"html-keyboard-response","38","143237","0.0-2.0-2.0-0.14","cdzempr16v714ve","practice_no_cue","5f57c711791f712bdd0c8fa1","5f60e3c0a3b16e07647b2ff9","5f60ec38b02492000a01ea81","false","null","<span style=""color: black; font-size: 48px"">M + N</span>","null","","","","resp_prompt","","","","","","","","","","","","","","","",""
"categorize-image","39","144642","0.0-2.0-2.0-1.14","cdzempr16v714ve","practice_no_cue","5f57c711791f712bdd0c8fa1","5f60e3c0a3b16e07647b2ff9","5f60ec38b02492000a01ea81","true","900.9099999966566","./Stimuli/ImagesPractice/SN76.jpg","83","","","","test","false","M + N","76","","SN","SN76.jpg","remember","old","15","1","start","left","","","",""
"html-keyboard-response","40","145344","0.0-2.0-2.0-0.15","cdzempr16v714ve","practice_no_cue","5f57c711791f712bdd0c8fa1","5f60e3c0a3b16e07647b2ff9","5f60ec38b02492000a01ea81","false","null","<span style=""color: black; font-size: 48px"">M + N</span>","null","","","","resp_prompt","","","","","","","","","","","","","","","",""
"categorize-image","41","147369","0.0-2.0-2.0-1.15","cdzempr16v714ve","practice_no_cue","5f57c711791f712bdd0c8fa1","5f60e3c0a3b16e07647b2ff9","5f60ec38b02492000a01ea81","true","1521.5249999891967","./Stimuli/ImagesPractice/LN2.jpg","76","","","","test","true","M + N","76","","LN","LN2.jpg","forget","old","16","1","start","right","","","",""
"html-keyboard-response","42","152599","0.0-2.0-3.0","cdzempr16v714ve","break","5f57c711791f712bdd0c8fa1","5f60e3c0a3b16e07647b2ff9","5f60ec38b02492000a01ea81","false","5225.540000014007","<p style='font-size: 32px;'>Break</><br><br><br><br><br><p style='font-size: 24px;'>In the last block, you committed 5 errors and did not respond in time on 0 trials.
</p><p style='font-size: 24px;'>Try to respond as fast and accurately as possible in the next block as well! </p><p style='font-size: 24px;'>Press SPACE to continue.</p>","32","","","","","","","","","","","","","","","","","","","",""
"html-keyboard-response","43","156130","0.0-2.0-4.0","cdzempr16v714ve","instructions","5f57c711791f712bdd0c8fa1","5f60e3c0a3b16e07647b2ff9","5f60ec38b02492000a01ea81","false","3529.2049999989104","<div align=left> Great!<br><br>Are you ready to continue?<br><br>If you want to reread the instructions and redo the practice trials, <br>please press „Z“. <br><br>Press SPACE to CONTINUE with the experiment when you are ready. </div>","32","","","","","","","","","","","","","","","","","","","",""
"html-keyboard-response","44","166510","0.0-3.0-0.0","cdzempr16v714ve","instructions","5f57c711791f712bdd0c8fa1","5f60e3c0a3b16e07647b2ff9","5f60ec38b02492000a01ea81","false","10375.280000007479","<div align=left>Great!<br> <strong>Attention</strong>! You will now receive a second, additional task! <br><br>To this point it was you <strong>first task</strong> to correctly <strong>classify objects</strong>. <br><br>As mentioned in the beginning, we aim to examine how well humans can remember previously learned information.<br>We would like to find out whether our memory improves if we only remember information that is relevant to us. <br><br>Therefore, your <strong>second task</strong> will be to <strong>remember</strong> the pictures you are to categorize. <br> After the learning phase, there will be a memory test phase, in which you will be asked to indicate whether you have seen a picture before or not. <br>Some, but not all pictures shown in the learning phase will appear in the memory test phase.<br>After classifying a picture, you will be told whether you should remember it for the memory test phase or not. <br>Thus, some pictures can be forgotten, whereas others have to be remembered. <br><br>Note: From now on, feedback will only be displayed if you responded incorrectly or not in time.<br><br>Press SPACE to continue.</div>","32","","","","","","","","","","","","","","","","","","","",""
"html-keyboard-response","45","183698","0.0-3.0-1.0","cdzempr16v714ve","instructions","5f57c711791f712bdd0c8fa1","5f60e3c0a3b16e07647b2ff9","5f60ec38b02492000a01ea81","false","17185.66000001738","<div align=left>In the following part, you will thus have to remember only some pictures. <br>Immediately after seeing and classifying the picture, a symbol will be displayed, indicating whether you should remember or forget the previous picture. <br><br>A <span style='color: dodgerblue; font-size: 28px'>O</span> indicates REMEMBER. That means, you have to remember this picture, because it will be tested later. <br><br>A <span style='color: darkorange; font-size:28px'>Ø</span> indicates FORGET. You do not have to remember this picture. <br><br> As you will have to remember a lot of pictures, it will be hard for you to remember all of them. <br>It will put you at an advantage if you instantly forget the pictures you are not asked to remember. <br> This will make it easier for you to remember the pictures that will be tested afterwards. <br><br>Press SPACE to continue.</div>","32","","","","","","","","","","","","","","","","","","","",""
"html-keyboard-response","46","193677","0.0-3.0-2.0","cdzempr16v714ve","instructions","5f57c711791f712bdd0c8fa1","5f60e3c0a3b16e07647b2ff9","5f60ec38b02492000a01ea81","false","9976.504999998724","<div align=left> Now you have the chance to practice both tasks together.<br><br>Remember: <br> <br><li>Please place your index fingers on the <strong>'S'</strong> and <strong>'L'</strong> keys <br>to respond as fast and accurately as possible.</li><li>Every picture can be classified as either mechanical or non-mechanical.</li><li>If you do not respond in time or commit an error, you will receive a corresponding feedback. <br>Please try to respond as <strong> fast </strong> and as <strong> accurately as possible </strong>.</li><li> Please remember only the to-be-remembered <span style='color: dodgerblue; font-size: 28px'>O</span> pictures. <br></li><li> Please minimize distractions and stay focused. </li><br><br>Press SPACE to START</div>","32","","","","","","","","","","","","","","","","","","","",""
"html-keyboard-response","47","194381","0.0-3.0-3.0-0.0","cdzempr16v714ve","practice_cue","5f57c711791f712bdd0c8fa1","5f60e3c0a3b16e07647b2ff9","5f60ec38b02492000a01ea81","false","null","<span style=""color: black; font-size: 48px"">N + M</span>","null","","","","resp_prompt","","","","","","","","","","","","","","","",""
"categorize-image","48","195027","0.0-3.0-3.0-1.0","cdzempr16v714ve","practice_cue","5f57c711791f712bdd0c8fa1","5f60e3c0a3b16e07647b2ff9","5f60ec38b02492000a01ea81","true","639.0899999823887","./Stimuli/ImagesPractice/SM37.jpg","76","","","","test","true","N + M","76","","SM","SM37.jpg","remember","old","17","2","practice_forget","right","","","",""
"html-keyboard-response","49","197032","0.0-3.0-3.0-3.0","cdzempr16v714ve","practice_cue","5f57c711791f712bdd0c8fa1","5f60e3c0a3b16e07647b2ff9","5f60ec38b02492000a01ea81","false","null","<div style=""align-items: center; display: flex; color: dodgerblue; font-size: 90px""><b>o</b></div>","null","","","","forget_cue","","","","","","","","","","","","","","","",""
"html-keyboard-response","50","197735","0.0-3.0-3.0-0.1","cdzempr16v714ve","practice_cue","5f57c711791f712bdd0c8fa1","5f60e3c0a3b16e07647b2ff9","5f60ec38b02492000a01ea81","false","null","<span style=""color: black; font-size: 48px"">M + N</span>","null","","","","resp_prompt","","","","","","","","","","","","","","","",""
"categorize-image","51","198673","0.0-3.0-3.0-1.1","cdzempr16v714ve","practice_cue","5f57c711791f712bdd0c8fa1","5f60e3c0a3b16e07647b2ff9","5f60ec38b02492000a01ea81","true","932.0400000142399","./Stimuli/ImagesPractice/SM62.jpg","83","","","","test","true","M + N","83","","SM","SM62.jpg","forget","old","18","2","practice_forget","left","","","",""
"html-keyboard-response","52","200676","0.0-3.0-3.0-3.1","cdzempr16v714ve","practice_cue","5f57c711791f712bdd0c8fa1","5f60e3c0a3b16e07647b2ff9","5f60ec38b02492000a01ea81","false","null","<div style=""align-items: center; display: flex; color: darkorange; font-size: 90px""><b>ø</b></div>","null","","","","forget_cue","","","","","","","","","","","","","","","",""
"html-keyboard-response","53","201378","0.0-3.0-3.0-0.2","cdzempr16v714ve","practice_cue","5f57c711791f712bdd0c8fa1","5f60e3c0a3b16e07647b2ff9","5f60ec38b02492000a01ea81","false","null","<span style=""color: black; font-size: 48px"">M + N</span>","null","","","","resp_prompt","","","","","","","","","","","","","","","",""
"categorize-image","54","202202","0.0-3.0-3.0-1.2","cdzempr16v714ve","practice_cue","5f57c711791f712bdd0c8fa1","5f60e3c0a3b16e07647b2ff9","5f60ec38b02492000a01ea81","true","818.5550000052899","./Stimuli/ImagesPractice/LM239.jpg","76","","","","test","false","M + N","83","","LM","LM239.jpg","remember","old","19","2","practice_forget","right","","","",""
"html-keyboard-response","55","202706","0.0-3.0-3.0-2.2-0.2","cdzempr16v714ve","practice_cue","5f57c711791f712bdd0c8fa1","5f60e3c0a3b16e07647b2ff9","5f60ec38b02492000a01ea81","false","null","<span style=""color: red; font-size: 48px"">Error!</span>","null","","","","feedback","","","","","","","","","","","","","","","",""
"html-keyboard-response","56","204708","0.0-3.0-3.0-3.2","cdzempr16v714ve","practice_cue","5f57c711791f712bdd0c8fa1","5f60e3c0a3b16e07647b2ff9","5f60ec38b02492000a01ea81","false","null","<div style=""align-items: center; display: flex; color: dodgerblue; font-size: 90px""><b>o</b></div>","null","","","","forget_cue","","","","","","","","","","","","","","","",""
"html-keyboard-response","57","205410","0.0-3.0-3.0-0.3","cdzempr16v714ve","practice_cue","5f57c711791f712bdd0c8fa1","5f60e3c0a3b16e07647b2ff9","5f60ec38b02492000a01ea81","false","null","<span style=""color: black; font-size: 48px"">N + M</span>","null","","","","resp_prompt","","","","","","","","","","","","","","","",""
"categorize-image","58","206113","0.0-3.0-3.0-1.3","cdzempr16v714ve","practice_cue","5f57c711791f712bdd0c8fa1","5f60e3c0a3b16e07647b2ff9","5f60ec38b02492000a01ea81","true","699.6399999770802","./Stimuli/ImagesPractice/SM61.jpg","76","","","","test","true","N + M","76","","SM","SM61.jpg","forget","old","20","2","practice_forget","right","","","",""
"html-keyboard-response","59","208114","0.0-3.0-3.0-3.3","cdzempr16v714ve","practice_cue","5f57c711791f712bdd0c8fa1","5f60e3c0a3b16e07647b2ff9","5f60ec38b02492000a01ea81","false","null","<div style=""align-items: center; display: flex; color: darkorange; font-size: 90px""><b>ø</b></div>","null","","","","forget_cue","","","","","","","","","","","","","","","",""
"html-keyboard-response","60","208816","0.0-3.0-3.0-0.4","cdzempr16v714ve","practice_cue","5f57c711791f712bdd0c8fa1","5f60e3c0a3b16e07647b2ff9","5f60ec38b02492000a01ea81","false","null","<span style=""color: black; font-size: 48px"">N + M</span>","null","","","","resp_prompt","","","","","","","","","","","","","","","",""
"categorize-image","61","209429","0.0-3.0-3.0-1.4","cdzempr16v714ve","practice_cue","5f57c711791f712bdd0c8fa1","5f60e3c0a3b16e07647b2ff9","5f60ec38b02492000a01ea81","true","605.3900000115391","./Stimuli/ImagesPractice/LM143.jpg","76","","","","test","true","N + M","76","","LM","LM143.jpg","forget","old","21","2","practice_forget","right","","","",""
"html-keyboard-response","62","211433","0.0-3.0-3.0-3.4","cdzempr16v714ve","practice_cue","5f57c711791f712bdd0c8fa1","5f60e3c0a3b16e07647b2ff9","5f60ec38b02492000a01ea81","false","null","<div style=""align-items: center; display: flex; color: darkorange; font-size: 90px""><b>ø</b></div>","null","","","","forget_cue","","","","","","","","","","","","","","","",""
"html-keyboard-response","63","212135","0.0-3.0-3.0-0.5","cdzempr16v714ve","practice_cue","5f57c711791f712bdd0c8fa1","5f60e3c0a3b16e07647b2ff9","5f60ec38b02492000a01ea81","false","null","<span style=""color: black; font-size: 48px"">N + M</span>","null","","","","resp_prompt","","","","","","","","","","","","","","","",""
"categorize-image","64","212601","0.0-3.0-3.0-1.5","cdzempr16v714ve","practice_cue","5f57c711791f712bdd0c8fa1","5f60e3c0a3b16e07647b2ff9","5f60ec38b02492000a01ea81","true","460.31999998376705","./Stimuli/ImagesPractice/SN220.jpg","83","","","","test","true","N + M","83","","SN","SN220.jpg","remember","old","22","2","practice_forget","left","","","",""
"html-keyboard-response","65","214603","0.0-3.0-3.0-3.5","cdzempr16v714ve","practice_cue","5f57c711791f712bdd0c8fa1","5f60e3c0a3b16e07647b2ff9","5f60ec38b02492000a01ea81","false","null","<div style=""align-items: center; display: flex; color: dodgerblue; font-size: 90px""><b>o</b></div>","null","","","","forget_cue","","","","","","","","","","","","","","","",""
"html-keyboard-response","66","215306","0.0-3.0-3.0-0.6","cdzempr16v714ve","practice_cue","5f57c711791f712bdd0c8fa1","5f60e3c0a3b16e07647b2ff9","5f60ec38b02492000a01ea81","false","null","<span style=""color: black; font-size: 48px"">N + M</span>","null","","","","resp_prompt","","","","","","","","","","","","","","","",""
"categorize-image","67","215815","0.0-3.0-3.0-1.6","cdzempr16v714ve","practice_cue","5f57c711791f712bdd0c8fa1","5f60e3c0a3b16e07647b2ff9","5f60ec38b02492000a01ea81","true","501.78500000038184","./Stimuli/ImagesPractice/LM55.jpg","76","","","","test","true","N + M","76","","LM","LM55.jpg","remember","old","23","2","practice_forget","right","","","",""
"html-keyboard-response","68","217818","0.0-3.0-3.0-3.6","cdzempr16v714ve","practice_cue","5f57c711791f712bdd0c8fa1","5f60e3c0a3b16e07647b2ff9","5f60ec38b02492000a01ea81","false","null","<div style=""align-items: center; display: flex; color: dodgerblue; font-size: 90px""><b>o</b></div>","null","","","","forget_cue","","","","","","","","","","","","","","","",""
"html-keyboard-response","69","218520","0.0-3.0-3.0-0.7","cdzempr16v714ve","practice_cue","5f57c711791f712bdd0c8fa1","5f60e3c0a3b16e07647b2ff9","5f60ec38b02492000a01ea81","false","null","<span style=""color: black; font-size: 48px"">N + M</span>","null","","","","resp_prompt","","","","","","","","","","","","","","","",""
"categorize-image","70","218869","0.0-3.0-3.0-1.7","cdzempr16v714ve","practice_cue","5f57c711791f712bdd0c8fa1","5f60e3c0a3b16e07647b2ff9","5f60ec38b02492000a01ea81","true","341.710000007879","./Stimuli/ImagesPractice/LN4.jpg","83","","","","test","true","N + M","83","","LN","LN4.jpg","forget","old","24","2","practice_forget","left","","","",""
"html-keyboard-response","71","220871","0.0-3.0-3.0-3.7","cdzempr16v714ve","practice_cue","5f57c711791f712bdd0c8fa1","5f60e3c0a3b16e07647b2ff9","5f60ec38b02492000a01ea81","false","null","<div style=""align-items: center; display: flex; color: darkorange; font-size: 90px""><b>ø</b></div>","null","","","","forget_cue","","","","","","","","","","","","","","","",""
"html-keyboard-response","72","221573","0.0-3.0-3.0-0.8","cdzempr16v714ve","practice_cue","5f57c711791f712bdd0c8fa1","5f60e3c0a3b16e07647b2ff9","5f60ec38b02492000a01ea81","false","null","<span style=""color: black; font-size: 48px"">M + N</span>","null","","","","resp_prompt","","","","","","","","","","","","","","","",""
"categorize-image","73","222361","0.0-3.0-3.0-1.8","cdzempr16v714ve","practice_cue","5f57c711791f712bdd0c8fa1","5f60e3c0a3b16e07647b2ff9","5f60ec38b02492000a01ea81","true","780.9349999879487","./Stimuli/ImagesPractice/SN221.jpg","76","","","","test","true","M + N","76","","SN","SN221.jpg","remember","old","25","2","practice_forget","right","","","",""
"html-keyboard-response","74","224364","0.0-3.0-3.0-3.8","cdzempr16v714ve","practice_cue","5f57c711791f712bdd0c8fa1","5f60e3c0a3b16e07647b2ff9","5f60ec38b02492000a01ea81","false","null","<div style=""align-items: center; display: flex; color: dodgerblue; font-size: 90px""><b>o</b></div>","null","","","","forget_cue","","","","","","","","","","","","","","","",""
"html-keyboard-response","75","225067","0.0-3.0-3.0-0.9","cdzempr16v714ve","practice_cue","5f57c711791f712bdd0c8fa1","5f60e3c0a3b16e07647b2ff9","5f60ec38b02492000a01ea81","false","null","<span style=""color: black; font-size: 48px"">M + N</span>","null","","","","resp_prompt","","","","","","","","","","","","","","","",""
"categorize-image","76","225762","0.0-3.0-3.0-1.9","cdzempr16v714ve","practice_cue","5f57c711791f712bdd0c8fa1","5f60e3c0a3b16e07647b2ff9","5f60ec38b02492000a01ea81","true","689.0549999952782","./Stimuli/ImagesPractice/LN15.jpg","76","","","","test","true","M + N","76","","LN","LN15.jpg","remember","old","26","2","practice_forget","right","","","",""
"html-keyboard-response","77","227767","0.0-3.0-3.0-3.9","cdzempr16v714ve","practice_cue","5f57c711791f712bdd0c8fa1","5f60e3c0a3b16e07647b2ff9","5f60ec38b02492000a01ea81","false","null","<div style=""align-items: center; display: flex; color: dodgerblue; font-size: 90px""><b>o</b></div>","null","","","","forget_cue","","","","","","","","","","","","","","","",""
"html-keyboard-response","78","228473","0.0-3.0-3.0-0.10","cdzempr16v714ve","practice_cue","5f57c711791f712bdd0c8fa1","5f60e3c0a3b16e07647b2ff9","5f60ec38b02492000a01ea81","false","null","<span style=""color: black; font-size: 48px"">M + N</span>","null","","","","resp_prompt","","","","","","","","","","","","","","","",""
"categorize-image","79","229074","0.0-3.0-3.0-1.10","cdzempr16v714ve","practice_cue","5f57c711791f712bdd0c8fa1","5f60e3c0a3b16e07647b2ff9","5f60ec38b02492000a01ea81","true","596.8299999949522","./Stimuli/ImagesPractice/LN2.jpg","76","","","","test","true","M + N","76","","LN","LN2.jpg","forget","old","27","2","practice_forget","right","","","",""
"html-keyboard-response","80","231076","0.0-3.0-3.0-3.10","cdzempr16v714ve","practice_cue","5f57c711791f712bdd0c8fa1","5f60e3c0a3b16e07647b2ff9","5f60ec38b02492000a01ea81","false","null","<div style=""align-items: center; display: flex; color: darkorange; font-size: 90px""><b>ø</b></div>","null","","","","forget_cue","","","","","","","","","","","","","","","",""
"html-keyboard-response","81","231777","0.0-3.0-3.0-0.11","cdzempr16v714ve","practice_cue","5f57c711791f712bdd0c8fa1","5f60e3c0a3b16e07647b2ff9","5f60ec38b02492000a01ea81","false","null","<span style=""color: black; font-size: 48px"">M + N</span>","null","","","","resp_prompt","","","","","","","","","","","","","","","",""
"categorize-image","82","232198","0.0-3.0-3.0-1.11","cdzempr16v714ve","practice_cue","5f57c711791f712bdd0c8fa1","5f60e3c0a3b16e07647b2ff9","5f60ec38b02492000a01ea81","true","414.3949999997858","./Stimuli/ImagesPractice/SM35.jpg","83","","","","test","true","M + N","83","","SM","SM35.jpg","forget","old","28","2","practice_forget","left","","","",""
"html-keyboard-response","83","234201","0.0-3.0-3.0-3.11","cdzempr16v714ve","practice_cue","5f57c711791f712bdd0c8fa1","5f60e3c0a3b16e07647b2ff9","5f60ec38b02492000a01ea81","false","null","<div style=""align-items: center; display: flex; color: darkorange; font-size: 90px""><b>ø</b></div>","null","","","","forget_cue","","","","","","","","","","","","","","","",""
"html-keyboard-response","84","234903","0.0-3.0-3.0-0.12","cdzempr16v714ve","practice_cue","5f57c711791f712bdd0c8fa1","5f60e3c0a3b16e07647b2ff9","5f60ec38b02492000a01ea81","false","null","<span style=""color: black; font-size: 48px"">M + N</span>","null","","","","resp_prompt","","","","","","","","","","","","","","","",""
"categorize-image","85","235383","0.0-3.0-3.0-1.12","cdzempr16v714ve","practice_cue","5f57c711791f712bdd0c8fa1","5f60e3c0a3b16e07647b2ff9","5f60ec38b02492000a01ea81","true","473.44000000157394","./Stimuli/ImagesPractice/SN76.jpg","76","","","","test","true","M + N","76","","SN","SN76.jpg","remember","old","29","2","practice_forget","right","","","",""
"html-keyboard-response","86","237385","0.0-3.0-3.0-3.12","cdzempr16v714ve","practice_cue","5f57c711791f712bdd0c8fa1","5f60e3c0a3b16e07647b2ff9","5f60ec38b02492000a01ea81","false","null","<div style=""align-items: center; display: flex; color: dodgerblue; font-size: 90px""><b>o</b></div>","null","","","","forget_cue","","","","","","","","","","","","","","","",""
"html-keyboard-response","87","238088","0.0-3.0-3.0-0.13","cdzempr16v714ve","practice_cue","5f57c711791f712bdd0c8fa1","5f60e3c0a3b16e07647b2ff9","5f60ec38b02492000a01ea81","false","null","<span style=""color: black; font-size: 48px"">N + M</span>","null","","","","resp_prompt","","","","","","","","","","","","","","","",""
"categorize-image","88","238931","0.0-3.0-3.0-1.13","cdzempr16v714ve","practice_cue","5f57c711791f712bdd0c8fa1","5f60e3c0a3b16e07647b2ff9","5f60ec38b02492000a01ea81","true","836.7599999764934","./Stimuli/ImagesPractice/LN109.jpg","83","","","","test","true","N + M","83","","LN","LN109.jpg","remember","old","30","2","practice_forget","left","","","",""
"html-keyboard-response","89","240934","0.0-3.0-3.0-3.13","cdzempr16v714ve","practice_cue","5f57c711791f712bdd0c8fa1","5f60e3c0a3b16e07647b2ff9","5f60ec38b02492000a01ea81","false","null","<div style=""align-items: center; display: flex; color: dodgerblue; font-size: 90px""><b>o</b></div>","null","","","","forget_cue","","","","","","","","","","","","","","","",""
"html-keyboard-response","90","241636","0.0-3.0-3.0-0.14","cdzempr16v714ve","practice_cue","5f57c711791f712bdd0c8fa1","5f60e3c0a3b16e07647b2ff9","5f60ec38b02492000a01ea81","false","null","<span style=""color: black; font-size: 48px"">N + M</span>","null","","","","resp_prompt","","","","","","","","","","","","","","","",""
"categorize-image","91","242517","0.0-3.0-3.0-1.14","cdzempr16v714ve","practice_cue","5f57c711791f712bdd0c8fa1","5f60e3c0a3b16e07647b2ff9","5f60ec38b02492000a01ea81","true","873.9250000216998","./Stimuli/ImagesPractice/LN72.jpg","83","","","","test","true","N + M","83","","LN","LN72.jpg","forget","old","31","2","practice_forget","left","","","",""
"html-keyboard-response","92","244519","0.0-3.0-3.0-3.14","cdzempr16v714ve","practice_cue","5f57c711791f712bdd0c8fa1","5f60e3c0a3b16e07647b2ff9","5f60ec38b02492000a01ea81","false","null","<div style=""align-items: center; display: flex; color: darkorange; font-size: 90px""><b>ø</b></div>","null","","","","forget_cue","","","","","","","","","","","","","","","",""
"html-keyboard-response","93","245220","0.0-3.0-3.0-0.15","cdzempr16v714ve","practice_cue","5f57c711791f712bdd0c8fa1","5f60e3c0a3b16e07647b2ff9","5f60ec38b02492000a01ea81","false","null","<span style=""color: black; font-size: 48px"">M + N</span>","null","","","","resp_prompt","","","","","","","","","","","","","","","",""
"categorize-image","94","246095","0.0-3.0-3.0-1.15","cdzempr16v714ve","practice_cue","5f57c711791f712bdd0c8fa1","5f60e3c0a3b16e07647b2ff9","5f60ec38b02492000a01ea81","true","869.8300000105519","./Stimuli/ImagesPractice/LM224.jpg","83","","","","test","true","M + N","83","","LM","LM224.jpg","forget","old","32","2","practice_forget","left","","","",""
"html-keyboard-response","95","248097","0.0-3.0-3.0-3.15","cdzempr16v714ve","practice_cue","5f57c711791f712bdd0c8fa1","5f60e3c0a3b16e07647b2ff9","5f60ec38b02492000a01ea81","false","null","<div style=""align-items: center; display: flex; color: darkorange; font-size: 90px""><b>ø</b></div>","null","","","","forget_cue","","","","","","","","","","","","","","","",""
"html-keyboard-response","96","250621","0.0-3.0-4.0","cdzempr16v714ve","break","5f57c711791f712bdd0c8fa1","5f60e3c0a3b16e07647b2ff9","5f60ec38b02492000a01ea81","false","2518.6500000127126","<p style='font-size: 32px;'>Break</><br><br><br><br><br><p style='font-size: 24px;'>In the last block, you committed 1 errors and did not respond in time on 0 trials.
</p><p style='font-size: 24px;'>Try to respond as fast and accurately as possible in the next block as well! </p><p style='font-size: 24px;'>Press SPACE to continue.</p>","32","","","","","","","","","","","","","","","","","","","",""
"html-keyboard-response","97","261567","0.0-3.0-5.0","cdzempr16v714ve","instructions","5f57c711791f712bdd0c8fa1","5f60e3c0a3b16e07647b2ff9","5f60ec38b02492000a01ea81","false","10944.109999982174","<div align=left> Now, to practice, we kindly ask you to remember as many of the to-be-remembered pictures<br>of the previous learning phase as possible.<br><br>The pictures you were instructed to remember were the pictures followed by a <span style='color: dodgerblue; font-size: 28px'>O</span>.<br><br>In this memory test phase, you will also see some new pictures.<br>It is your task to remember whether you were presented with this specific picture in this study so far or not.<br>If you recognize an object (you have already seen it in this study), it is an OLD object. <br>If you do not recognize an object (you have NOT seen it in this study), it is a NEW object. <br><strong> Attention</strong>: As already mentioned, <span style='color: darkorange; font-size:28px'>Ø</span>-pictures will <strong>never</strong> appear in this memory test (neither as new objects). <br><br>Press SPACE to continue. </div>","32","","","","","","","","","","","","","","","","","","","",""
"html-keyboard-response","98","275224","0.0-3.0-6.0","cdzempr16v714ve","instructions","5f57c711791f712bdd0c8fa1","5f60e3c0a3b16e07647b2ff9","5f60ec38b02492000a01ea81","false","13654.024999996182","<div align=left> M and N no longer will appear on the left/right of the fixation cross. <br>Instead there will be a note at the bottom of the left or right side  <br>indicating which key you should press for an old or new object:  <br> <br>Press the <strong>right</strong> key to classify an object as <strong>old</strong> and press the <strong>left</strong>, to classify an object as <strong>new</strong>.<br>Please classify the objects as new/old by again placing your index finger on the 'S' and 'L' keys <br>and press them accordingly.<br><br><strong>Old:</strong> This object has been presented before. <br><strong>New:</strong> This object has <strong>not</strong> been presented.<br><br>Now please put your right and left index fingers on the 'S' and 'L' keys of your keyboard. <br>Please respond as fast and as accurately as possible!<br><br>Press SPACE to continue. </div>","32","","","","","","","","","","","","","","","","","","","",""
"categorize-image","99","277584","0.0-3.0-7.0-0.0","cdzempr16v714ve","practice_recog","5f57c711791f712bdd0c8fa1","5f60e3c0a3b16e07647b2ff9","5f60ec38b02492000a01ea81","true","1853.5550000087824","./Stimuli/ImagesPractice/SM37.jpg","76","","","","test","true","","76","","SM","SM37.jpg","","old","33","3","practice_recog","right","","","",""
"categorize-image","100","278917","0.0-3.0-7.0-0.1","cdzempr16v714ve","practice_recog","5f57c711791f712bdd0c8fa1","5f60e3c0a3b16e07647b2ff9","5f60ec38b02492000a01ea81","true","827.8299999947194","./Stimuli/ImagesPractice/LM147.jpg","83","","","","test","true","","83","","LM","LM147.jpg","","new","34","3","practice_recog","left","","","",""
"categorize-image","101","280091","0.0-3.0-7.0-0.2","cdzempr16v714ve","practice_recog","5f57c711791f712bdd0c8fa1","5f60e3c0a3b16e07647b2ff9","5f60ec38b02492000a01ea81","true","669.4300000090152","./Stimuli/ImagesPractice/SN75.jpg","83","","","","test","true","","83","","SN","SN75.jpg","","new","35","3","practice_recog","left","","","",""
"categorize-image","102","281786","0.0-3.0-7.0-0.3","cdzempr16v714ve","practice_recog","5f57c711791f712bdd0c8fa1","5f60e3c0a3b16e07647b2ff9","5f60ec38b02492000a01ea81","true","1190.7050000154413","./Stimuli/ImagesPractice/SM97.jpg","83","","","","test","true","","83","","SM","SM97.jpg","","new","36","3","practice_recog","left","","","",""
"categorize-image","103","282865","0.0-3.0-7.0-0.4","cdzempr16v714ve","practice_recog","5f57c711791f712bdd0c8fa1","5f60e3c0a3b16e07647b2ff9","5f60ec38b02492000a01ea81","true","573.7600000284147","./Stimuli/ImagesPractice/LM230.jpg","83","","","","test","true","","83","","LM","LM230.jpg","","new","37","3","practice_recog","left","","","",""
"categorize-image","104","283810","0.0-3.0-7.0-0.5","cdzempr16v714ve","practice_recog","5f57c711791f712bdd0c8fa1","5f60e3c0a3b16e07647b2ff9","5f60ec38b02492000a01ea81","true","441.7799999937415","./Stimuli/ImagesPractice/SN222.jpg","83","","","","test","true","","83","","SN","SN222.jpg","","new","38","3","practice_recog","left","","","",""
"categorize-image","105","284896","0.0-3.0-7.0-0.6","cdzempr16v714ve","practice_recog","5f57c711791f712bdd0c8fa1","5f60e3c0a3b16e07647b2ff9","5f60ec38b02492000a01ea81","true","581.46499999566","./Stimuli/ImagesPractice/SN76.jpg","76","","","","test","true","","76","","SN","SN76.jpg","","old","39","3","practice_recog","right","","","",""
"categorize-image","106","286033","0.0-3.0-7.0-0.7","cdzempr16v714ve","practice_recog","5f57c711791f712bdd0c8fa1","5f60e3c0a3b16e07647b2ff9","5f60ec38b02492000a01ea81","true","631.4600000041537","./Stimuli/ImagesPractice/SN220.jpg","76","","","","test","true","","76","","SN","SN220.jpg","","old","40","3","practice_recog","right","","","",""
"categorize-image","107","287200","0.0-3.0-7.0-0.8","cdzempr16v714ve","practice_recog","5f57c711791f712bdd0c8fa1","5f60e3c0a3b16e07647b2ff9","5f60ec38b02492000a01ea81","true","663.6699999799021","./Stimuli/ImagesPractice/LM239.jpg","76","","","","test","true","","76","","LM","LM239.jpg","","old","41","3","practice_recog","right","","","",""
"categorize-image","108","288368","0.0-3.0-7.0-0.9","cdzempr16v714ve","practice_recog","5f57c711791f712bdd0c8fa1","5f60e3c0a3b16e07647b2ff9","5f60ec38b02492000a01ea81","true","663.0350000050385","./Stimuli/ImagesPractice/LM55.jpg","76","","","","test","true","","76","","LM","LM55.jpg","","old","42","3","practice_recog","right","","","",""
"categorize-image","109","289404","0.0-3.0-7.0-0.10","cdzempr16v714ve","practice_recog","5f57c711791f712bdd0c8fa1","5f60e3c0a3b16e07647b2ff9","5f60ec38b02492000a01ea81","true","532.6599999971222","./Stimuli/ImagesPractice/LN15.jpg","76","","","","test","true","","76","","LN","LN15.jpg","","old","43","3","practice_recog","right","","","",""
"categorize-image","110","290470","0.0-3.0-7.0-0.11","cdzempr16v714ve","practice_recog","5f57c711791f712bdd0c8fa1","5f60e3c0a3b16e07647b2ff9","5f60ec38b02492000a01ea81","true","559.4749999872874","./Stimuli/ImagesPractice/SM98.jpg","83","","","","test","true","","83","","SM","SM98.jpg","","new","44","3","practice_recog","left","","","",""
"categorize-image","111","291759","0.0-3.0-7.0-0.12","cdzempr16v714ve","practice_recog","5f57c711791f712bdd0c8fa1","5f60e3c0a3b16e07647b2ff9","5f60ec38b02492000a01ea81","true","784.6399999980349","./Stimuli/ImagesPractice/SN205.jpg","76","","","","test","false","","83","","SN","SN205.jpg","","new","45","3","practice_recog","right","","","",""
"categorize-image","112","292915","0.0-3.0-7.0-0.13","cdzempr16v714ve","practice_recog","5f57c711791f712bdd0c8fa1","5f60e3c0a3b16e07647b2ff9","5f60ec38b02492000a01ea81","true","650.7899999851361","./Stimuli/ImagesPractice/LN17.jpg","76","","","","test","false","","83","","LN","LN17.jpg","","new","46","3","practice_recog","right","","","",""
"categorize-image","113","294178","0.0-3.0-7.0-0.14","cdzempr16v714ve","practice_recog","5f57c711791f712bdd0c8fa1","5f60e3c0a3b16e07647b2ff9","5f60ec38b02492000a01ea81","true","757.8400000056718","./Stimuli/ImagesPractice/SN221.jpg","83","","","","test","false","","76","","SN","SN221.jpg","","old","47","3","practice_recog","left","","","",""
"categorize-image","114","296262","0.0-3.0-7.0-0.15","cdzempr16v714ve","practice_recog","5f57c711791f712bdd0c8fa1","5f60e3c0a3b16e07647b2ff9","5f60ec38b02492000a01ea81","true","1578.7699999928009","./Stimuli/ImagesPractice/LN109.jpg","76","","","","test","true","","76","","LN","LN109.jpg","","old","48","3","practice_recog","right","","","",""
"html-keyboard-response","115","300071","0.0-3.0-8.0","cdzempr16v714ve","instructions","5f57c711791f712bdd0c8fa1","5f60e3c0a3b16e07647b2ff9","5f60ec38b02492000a01ea81","false","3805.835000006482","<div align=left> Great!<br><br>Are you ready to continue?<br>If you want to reread the instructions and redo the practice trials, please <br>press „Z“.<br><br>You can proceed when you are ready.<br><br>After the presentation of each object, you will receive an instruction whether to <br>remember or to forget the object.<br>We will test your memory of the following pictures only at the very end of <br>the experiment after all learning blocks are completed. <br><br>Press SPACE to CONTINUE when you are ready. </div>","32","","","","","","","","","","","","","","","","","","","",""
"html-keyboard-response","116","307682","0.0-4.0-0.0","cdzempr16v714ve","instructions","5f57c711791f712bdd0c8fa1","5f60e3c0a3b16e07647b2ff9","5f60ec38b02492000a01ea81","false","7607.824999984587","<div align=left> The actual experiment is about to start.<br>The practice trials are over!<br><br>Please always respond both fast and accurately!<br><br>Remember: <br> <br><li> Please place your index fingers on the <strong>'S'</strong> and <strong>'L'</strong> keys <br>to respond as fast and accurately as possible.</li><li> Every picture can be classified as either mechanical or non-mechanical.</li><li> If you do not respond in time or commit an error, you will receive a corresponding feedback.<br> Please try to respond as <strong> fast </strong> and as <strong> accurately as possible </strong>.</li><li> Remember the <span style='color: dodgerblue; font-size: 28px'>O</span> pictures. <br></li><li> Please minimize distractions and stay focused. </li><br><br>Press SPACE to START.</div>","32","","","","","","","","","","","","","","","","","","","",""
"html-keyboard-response","117","308385","0.0-4.0-1.0-0.0","cdzempr16v714ve","prime","5f57c711791f712bdd0c8fa1","5f60e3c0a3b16e07647b2ff9","5f60ec38b02492000a01ea81","false","null","<span style=""color: black; font-size: 48px"">N + M</span>","null","","","","resp_prompt","","","","","","","","","","","","","","","",""
"categorize-image","118","309733","0.0-4.0-1.0-1.0","cdzempr16v714ve","prime","5f57c711791f712bdd0c8fa1","5f60e3c0a3b16e07647b2ff9","5f60ec38b02492000a01ea81","true","1340.5250000068918","./Stimuli/SelectedImages/SM/SM17.bmp","76","","","","test","true","N + M","76","repetition","SM","SM17.bmp","forget","","49","3","prime1","right","","","",""
"html-keyboard-response","119","311737","0.0-4.0-1.0-3.0","cdzempr16v714ve","prime","5f57c711791f712bdd0c8fa1","5f60e3c0a3b16e07647b2ff9","5f60ec38b02492000a01ea81","false","null","<div style=""align-items: center; display: flex; color: darkorange; font-size: 90px""><b>ø</b></div>","null","","","","forget_cue","","","","","","","","","","","","","","","",""
"html-keyboard-response","120","312439","0.0-4.0-1.0-0.1","cdzempr16v714ve","prime","5f57c711791f712bdd0c8fa1","5f60e3c0a3b16e07647b2ff9","5f60ec38b02492000a01ea81","false","null","<span style=""color: black; font-size: 48px"">M + N</span>","null","","","","resp_prompt","","","","","","","","","","","","","","","",""
"categorize-image","121","313186","0.0-4.0-1.0-1.1","cdzempr16v714ve","prime","5f57c711791f712bdd0c8fa1","5f60e3c0a3b16e07647b2ff9","5f60ec38b02492000a01ea81","true","739.1349999816157","./Stimuli/SelectedImages/SM/SM73.bmp","83","","","","test","true","M + N","83","switch","SM","SM73.bmp","remember","","50","3","prime1","left","","","",""
"html-keyboard-response","122","315188","0.0-4.0-1.0-3.1","cdzempr16v714ve","prime","5f57c711791f712bdd0c8fa1","5f60e3c0a3b16e07647b2ff9","5f60ec38b02492000a01ea81","false","null","<div style=""align-items: center; display: flex; color: dodgerblue; font-size: 90px""><b>o</b></div>","null","","","","forget_cue","","","","","","","","","","","","","","","",""
"html-keyboard-response","123","315891","0.0-4.0-1.0-0.2","cdzempr16v714ve","prime","5f57c711791f712bdd0c8fa1","5f60e3c0a3b16e07647b2ff9","5f60ec38b02492000a01ea81","false","null","<span style=""color: black; font-size: 48px"">N + M</span>","null","","","","resp_prompt","","","","","","","","","","","","","","","",""
"categorize-image","124","316522","0.0-4.0-1.0-1.2","cdzempr16v714ve","prime","5f57c711791f712bdd0c8fa1","5f60e3c0a3b16e07647b2ff9","5f60ec38b02492000a01ea81","true","625.0099999888334","./Stimuli/SelectedImages/LM/LM100.bmp","76","","","","test","true","N + M","76","repetition","LM","LM100.bmp","forget","","51","3","prime1","right","","","",""
"html-keyboard-response","125","318525","0.0-4.0-1.0-3.2","cdzempr16v714ve","prime","5f57c711791f712bdd0c8fa1","5f60e3c0a3b16e07647b2ff9","5f60ec38b02492000a01ea81","false","null","<div style=""align-items: center; display: flex; color: darkorange; font-size: 90px""><b>ø</b></div>","null","","","","forget_cue","","","","","","","","","","","","","","","",""
"html-keyboard-response","126","319227","0.0-4.0-1.0-0.3","cdzempr16v714ve","prime","5f57c711791f712bdd0c8fa1","5f60e3c0a3b16e07647b2ff9","5f60ec38b02492000a01ea81","false","null","<span style=""color: black; font-size: 48px"">N + M</span>","null","","","","resp_prompt","","","","","","","","","","","","","","","",""
"categorize-image","127","319991","0.0-4.0-1.0-1.3","cdzempr16v714ve","prime","5f57c711791f712bdd0c8fa1","5f60e3c0a3b16e07647b2ff9","5f60ec38b02492000a01ea81","true","758.2399999955669","./Stimuli/SelectedImages/LN/LN131.bmp","83","","","","test","true","N + M","83","switch","LN","LN131.bmp","forget","","52","3","prime1","left","","","",""
"html-keyboard-response","128","321994","0.0-4.0-1.0-3.3","cdzempr16v714ve","prime","5f57c711791f712bdd0c8fa1","5f60e3c0a3b16e07647b2ff9","5f60ec38b02492000a01ea81","false","null","<div style=""align-items: center; display: flex; color: darkorange; font-size: 90px""><b>ø</b></div>","null","","","","forget_cue","","","","","","","","","","","","","","","",""
"html-keyboard-response","129","322696","0.0-4.0-1.0-0.4","cdzempr16v714ve","prime","5f57c711791f712bdd0c8fa1","5f60e3c0a3b16e07647b2ff9","5f60ec38b02492000a01ea81","false","null","<span style=""color: black; font-size: 48px"">N + M</span>","null","","","","resp_prompt","","","","","","","","","","","","","","","",""
"categorize-image","130","323493","0.0-4.0-1.0-1.4","cdzempr16v714ve","prime","5f57c711791f712bdd0c8fa1","5f60e3c0a3b16e07647b2ff9","5f60ec38b02492000a01ea81","true","789.3500000063796","./Stimuli/SelectedImages/LM/LM167.bmp","76","","","","test","true","N + M","76","switch","LM","LM167.bmp","forget","","53","3","prime1","right","","","",""
"html-keyboard-response","131","325496","0.0-4.0-1.0-3.4","cdzempr16v714ve","prime","5f57c711791f712bdd0c8fa1","5f60e3c0a3b16e07647b2ff9","5f60ec38b02492000a01ea81","false","null","<div style=""align-items: center; display: flex; color: darkorange; font-size: 90px""><b>ø</b></div>","null","","","","forget_cue","","","","","","","","","","","","","","","",""
"html-keyboard-response","132","326198","0.0-4.0-1.0-0.5","cdzempr16v714ve","prime","5f57c711791f712bdd0c8fa1","5f60e3c0a3b16e07647b2ff9","5f60ec38b02492000a01ea81","false","null","<span style=""color: black; font-size: 48px"">M + N</span>","null","","","","resp_prompt","","","","","","","","","","","","","","","",""
"categorize-image","133","327434","0.0-4.0-1.0-1.5","cdzempr16v714ve","prime","5f57c711791f712bdd0c8fa1","5f60e3c0a3b16e07647b2ff9","5f60ec38b02492000a01ea81","true","1228.8250000274274","./Stimuli/SelectedImages/LM/LM235.bmp","83","","","","test","true","M + N","83","switch","LM","LM235.bmp","remember","","54","3","prime1","left","","","",""
"html-keyboard-response","134","329438","0.0-4.0-1.0-3.5","cdzempr16v714ve","prime","5f57c711791f712bdd0c8fa1","5f60e3c0a3b16e07647b2ff9","5f60ec38b02492000a01ea81","false","null","<div style=""align-items: center; display: flex; color: dodgerblue; font-size: 90px""><b>o</b></div>","null","","","","forget_cue","","","","","","","","","","","","","","","",""
"html-keyboard-response","135","330141","0.0-4.0-1.0-0.6","cdzempr16v714ve","prime","5f57c711791f712bdd0c8fa1","5f60e3c0a3b16e07647b2ff9","5f60ec38b02492000a01ea81","false","null","<span style=""color: black; font-size: 48px"">N + M</span>","null","","","","resp_prompt","","","","","","","","","","","","","","","",""
"categorize-image","136","330738","0.0-4.0-1.0-1.6","cdzempr16v714ve","prime","5f57c711791f712bdd0c8fa1","5f60e3c0a3b16e07647b2ff9","5f60ec38b02492000a01ea81","true","590.9749999991618","./Stimuli/SelectedImages/SN/SN93.bmp","83","","","","test","true","N + M","83","switch","SN","SN93.bmp","remember","","55","3","prime1","left","","","",""
"html-keyboard-response","137","332741","0.0-4.0-1.0-3.6","cdzempr16v714ve","prime","5f57c711791f712bdd0c8fa1","5f60e3c0a3b16e07647b2ff9","5f60ec38b02492000a01ea81","false","null","<div style=""align-items: center; display: flex; color: dodgerblue; font-size: 90px""><b>o</b></div>","null","","","","forget_cue","","","","","","","","","","","","","","","",""
"html-keyboard-response","138","333443","0.0-4.0-1.0-0.7","cdzempr16v714ve","prime","5f57c711791f712bdd0c8fa1","5f60e3c0a3b16e07647b2ff9","5f60ec38b02492000a01ea81","false","null","<span style=""color: black; font-size: 48px"">N + M</span>","null","","","","resp_prompt","","","","","","","","","","","","","","","",""
"categorize-image","139","334113","0.0-4.0-1.0-1.7","cdzempr16v714ve","prime","5f57c711791f712bdd0c8fa1","5f60e3c0a3b16e07647b2ff9","5f60ec38b02492000a01ea81","true","665.0249999947846","./Stimuli/SelectedImages/LM/LM48.bmp","76","","","","test","true","N + M","76","repetition","LM","LM48.bmp","remember","","56","3","prime1","right","","","",""
"html-keyboard-response","140","336117","0.0-4.0-1.0-3.7","cdzempr16v714ve","prime","5f57c711791f712bdd0c8fa1","5f60e3c0a3b16e07647b2ff9","5f60ec38b02492000a01ea81","false","null","<div style=""align-items: center; display: flex; color: dodgerblue; font-size: 90px""><b>o</b></div>","null","","","","forget_cue","","","","","","","","","","","","","","","",""
"html-keyboard-response","141","336819","0.0-4.0-1.0-0.8","cdzempr16v714ve","prime","5f57c711791f712bdd0c8fa1","5f60e3c0a3b16e07647b2ff9","5f60ec38b02492000a01ea81","false","null","<span style=""color: black; font-size: 48px"">M + N</span>","null","","","","resp_prompt","","","","","","","","","","","","","","","",""
"categorize-image","142","337709","0.0-4.0-1.0-1.8","cdzempr16v714ve","prime","5f57c711791f712bdd0c8fa1","5f60e3c0a3b16e07647b2ff9","5f60ec38b02492000a01ea81","true","882.4099999910686","./Stimuli/SelectedImages/SN/SN27.bmp","76","","","","test","true","M + N","76","switch","SN","SN27.bmp","remember","","57","3","prime1","right","","","",""
"html-keyboard-response","143","339712","0.0-4.0-1.0-3.8","cdzempr16v714ve","prime","5f57c711791f712bdd0c8fa1","5f60e3c0a3b16e07647b2ff9","5f60ec38b02492000a01ea81","false","null","<div style=""align-items: center; display: flex; color: dodgerblue; font-size: 90px""><b>o</b></div>","null","","","","forget_cue","","","","","","","","","","","","","","","",""
"html-keyboard-response","144","340414","0.0-4.0-1.0-0.9","cdzempr16v714ve","prime","5f57c711791f712bdd0c8fa1","5f60e3c0a3b16e07647b2ff9","5f60ec38b02492000a01ea81","false","null","<span style=""color: black; font-size: 48px"">N + M</span>","null","","","","resp_prompt","","","","","","","","","","","","","","","",""
"categorize-image","145","341468","0.0-4.0-1.0-1.9","cdzempr16v714ve","prime","5f57c711791f712bdd0c8fa1","5f60e3c0a3b16e07647b2ff9","5f60ec38b02492000a01ea81","true","1046.5100000146776","./Stimuli/SelectedImages/LM/LM103.bmp","76","","","","test","true","N + M","76","switch","LM","LM103.bmp","forget","","58","3","prime1","right","","","",""
"html-keyboard-response","146","343471","0.0-4.0-1.0-3.9","cdzempr16v714ve","prime","5f57c711791f712bdd0c8fa1","5f60e3c0a3b16e07647b2ff9","5f60ec38b02492000a01ea81","false","null","<div style=""align-items: center; display: flex; color: darkorange; font-size: 90px""><b>ø</b></div>","null","","","","forget_cue","","","","","","","","","","","","","","","",""
"html-keyboard-response","147","344173","0.0-4.0-1.0-0.10","cdzempr16v714ve","prime","5f57c711791f712bdd0c8fa1","5f60e3c0a3b16e07647b2ff9","5f60ec38b02492000a01ea81","false","null","<span style=""color: black; font-size: 48px"">M + N</span>","null","","","","resp_prompt","","","","","","","","","","","","","","","",""
"categorize-image","148","344876","0.0-4.0-1.0-1.10","cdzempr16v714ve","prime","5f57c711791f712bdd0c8fa1","5f60e3c0a3b16e07647b2ff9","5f60ec38b02492000a01ea81","true","695.2900000032969","./Stimuli/SelectedImages/LM/LM75.bmp","83","","","","test","true","M + N","83","switch","LM","LM75.bmp","forget","","59","3","prime1","left","","","",""
"html-keyboard-response","149","346880","0.0-4.0-1.0-3.10","cdzempr16v714ve","prime","5f57c711791f712bdd0c8fa1","5f60e3c0a3b16e07647b2ff9","5f60ec38b02492000a01ea81","false","null","<div style=""align-items: center; display: flex; color: darkorange; font-size: 90px""><b>ø</b></div>","null","","","","forget_cue","","","","","","","","","","","","","","","",""
"html-keyboard-response","150","347582","0.0-4.0-1.0-0.11","cdzempr16v714ve","prime","5f57c711791f712bdd0c8fa1","5f60e3c0a3b16e07647b2ff9","5f60ec38b02492000a01ea81","false","null","<span style=""color: black; font-size: 48px"">M + N</span>","null","","","","resp_prompt","","","","","","","","","","","","","","","",""
"categorize-image","151","348361","0.0-4.0-1.0-1.11","cdzempr16v714ve","prime","5f57c711791f712bdd0c8fa1","5f60e3c0a3b16e07647b2ff9","5f60ec38b02492000a01ea81","true","772.0350000017788","./Stimuli/SelectedImages/SN/SN64.bmp","76","","","","test","true","M + N","76","repetition","SN","SN64.bmp","remember","","60","3","prime1","right","","","",""
"html-keyboard-response","152","350364","0.0-4.0-1.0-3.11","cdzempr16v714ve","prime","5f57c711791f712bdd0c8fa1","5f60e3c0a3b16e07647b2ff9","5f60ec38b02492000a01ea81","false","null","<div style=""align-items: center; display: flex; color: dodgerblue; font-size: 90px""><b>o</b></div>","null","","","","forget_cue","","","","","","","","","","","","","","","",""
"html-keyboard-response","153","351066","0.0-4.0-1.0-0.12","cdzempr16v714ve","prime","5f57c711791f712bdd0c8fa1","5f60e3c0a3b16e07647b2ff9","5f60ec38b02492000a01ea81","false","null","<span style=""color: black; font-size: 48px"">N + M</span>","null","","","","resp_prompt","","","","","","","","","","","","","","","",""
"categorize-image","154","351779","0.0-4.0-1.0-1.12","cdzempr16v714ve","prime","5f57c711791f712bdd0c8fa1","5f60e3c0a3b16e07647b2ff9","5f60ec38b02492000a01ea81","true","708.4150000009686","./Stimuli/SelectedImages/SN/SN111.bmp","83","","","","test","true","N + M","83","repetition","SN","SN111.bmp","forget","","61","3","prime1","left","","","",""
"html-keyboard-response","155","353781","0.0-4.0-1.0-3.12","cdzempr16v714ve","prime","5f57c711791f712bdd0c8fa1","5f60e3c0a3b16e07647b2ff9","5f60ec38b02492000a01ea81","false","null","<div style=""align-items: center; display: flex; color: darkorange; font-size: 90px""><b>ø</b></div>","null","","","","forget_cue","","","","","","","","","","","","","","","",""
"html-keyboard-response","156","354483","0.0-4.0-1.0-0.13","cdzempr16v714ve","prime","5f57c711791f712bdd0c8fa1","5f60e3c0a3b16e07647b2ff9","5f60ec38b02492000a01ea81","false","null","<span style=""color: black; font-size: 48px"">N + M</span>","null","","","","resp_prompt","","","","","","","","","","","","","","","",""
"categorize-image","157","354992","0.0-4.0-1.0-1.13","cdzempr16v714ve","prime","5f57c711791f712bdd0c8fa1","5f60e3c0a3b16e07647b2ff9","5f60ec38b02492000a01ea81","true","502.16000000364147","./Stimuli/SelectedImages/LN/LN166.bmp","83","","","","test","true","N + M","83","repetition","LN","LN166.bmp","remember","","62","3","prime1","left","","","",""
"html-keyboard-response","158","356996","0.0-4.0-1.0-3.13","cdzempr16v714ve","prime","5f57c711791f712bdd0c8fa1","5f60e3c0a3b16e07647b2ff9","5f60ec38b02492000a01ea81","false","null","<div style=""align-items: center; display: flex; color: dodgerblue; font-size: 90px""><b>o</b></div>","null","","","","forget_cue","","","","","","","","","","","","","","","",""
"html-keyboard-response","159","357698","0.0-4.0-1.0-0.14","cdzempr16v714ve","prime","5f57c711791f712bdd0c8fa1","5f60e3c0a3b16e07647b2ff9","5f60ec38b02492000a01ea81","false","null","<span style=""color: black; font-size: 48px"">N + M</span>","null","","","","resp_prompt","","","","","","","","","","","","","","","",""
"categorize-image","160","358713","0.0-4.0-1.0-1.14","cdzempr16v714ve","prime","5f57c711791f712bdd0c8fa1","5f60e3c0a3b16e07647b2ff9","5f60ec38b02492000a01ea81","true","1008.2049999909941","./Stimuli/SelectedImages/LM/LM209.bmp","76","","","","test","true","N + M","76","switch","LM","LM209.bmp","remember","","63","3","prime1","right","","","",""
"html-keyboard-response","161","360715","0.0-4.0-1.0-3.14","cdzempr16v714ve","prime","5f57c711791f712bdd0c8fa1","5f60e3c0a3b16e07647b2ff9","5f60ec38b02492000a01ea81","false","null","<div style=""align-items: center; display: flex; color: dodgerblue; font-size: 90px""><b>o</b></div>","null","","","","forget_cue","","","","","","","","","","","","","","","",""
"html-keyboard-response","162","361417","0.0-4.0-1.0-0.15","cdzempr16v714ve","prime","5f57c711791f712bdd0c8fa1","5f60e3c0a3b16e07647b2ff9","5f60ec38b02492000a01ea81","false","null","<span style=""color: black; font-size: 48px"">N + M</span>","null","","","","resp_prompt","","","","","","","","","","","","","","","",""
"categorize-image","163","362215","0.0-4.0-1.0-1.15","cdzempr16v714ve","prime","5f57c711791f712bdd0c8fa1","5f60e3c0a3b16e07647b2ff9","5f60ec38b02492000a01ea81","true","791.9549999933224","./Stimuli/SelectedImages/SN/SN18.bmp","83","","","","test","true","N + M","83","repetition","SN","SN18.bmp","remember","","64","3","prime1","left","","","",""
"html-keyboard-response","164","364221","0.0-4.0-1.0-3.15","cdzempr16v714ve","prime","5f57c711791f712bdd0c8fa1","5f60e3c0a3b16e07647b2ff9","5f60ec38b02492000a01ea81","false","null","<div style=""align-items: center; display: flex; color: dodgerblue; font-size: 90px""><b>o</b></div>","null","","","","forget_cue","","","","","","","","","","","","","","","",""
"html-keyboard-response","165","364924","0.0-4.0-1.0-0.16","cdzempr16v714ve","prime","5f57c711791f712bdd0c8fa1","5f60e3c0a3b16e07647b2ff9","5f60ec38b02492000a01ea81","false","null","<span style=""color: black; font-size: 48px"">M + N</span>","null","","","","resp_prompt","","","","","","","","","","","","","","","",""
"categorize-image","166","365484","0.0-4.0-1.0-1.16","cdzempr16v714ve","prime","5f57c711791f712bdd0c8fa1","5f60e3c0a3b16e07647b2ff9","5f60ec38b02492000a01ea81","true","552.9549999919254","./Stimuli/SelectedImages/SN/SN182.bmp","83","","","","test","false","M + N","76","repetition","SN","SN182.bmp","forget","","65","3","prime1","left","","","",""
"html-keyboard-response","167","365986","0.0-4.0-1.0-2.16-0.16","cdzempr16v714ve","prime","5f57c711791f712bdd0c8fa1","5f60e3c0a3b16e07647b2ff9","5f60ec38b02492000a01ea81","false","null","<span style=""color: red; font-size: 48px"">Error!</span>","null","","","","feedback","","","","","","","","","","","","","","","",""
"html-keyboard-response","168","367989","0.0-4.0-1.0-3.16","cdzempr16v714ve","prime","5f57c711791f712bdd0c8fa1","5f60e3c0a3b16e07647b2ff9","5f60ec38b02492000a01ea81","false","null","<div style=""align-items: center; display: flex; color: darkorange; font-size: 90px""><b>ø</b></div>","null","","","","forget_cue","","","","","","","","","","","","","","","",""
"html-keyboard-response","169","368691","0.0-4.0-1.0-0.17","cdzempr16v714ve","prime","5f57c711791f712bdd0c8fa1","5f60e3c0a3b16e07647b2ff9","5f60ec38b02492000a01ea81","false","null","<span style=""color: black; font-size: 48px"">M + N</span>","null","","","","resp_prompt","","","","","","","","","","","","","","","",""
"categorize-image","170","369616","0.0-4.0-1.0-1.17","cdzempr16v714ve","prime","5f57c711791f712bdd0c8fa1","5f60e3c0a3b16e07647b2ff9","5f60ec38b02492000a01ea81","true","919.7699999785982","./Stimuli/SelectedImages/SN/SN155.bmp","76","","","","test","true","M + N","76","switch","SN","SN155.bmp","remember","","66","3","prime1","right","","","",""
"html-keyboard-response","171","371624","0.0-4.0-1.0-3.17","cdzempr16v714ve","prime","5f57c711791f712bdd0c8fa1","5f60e3c0a3b16e07647b2ff9","5f60ec38b02492000a01ea81","false","null","<div style=""align-items: center; display: flex; color: dodgerblue; font-size: 90px""><b>o</b></div>","null","","","","forget_cue","","","","","","","","","","","","","","","",""
"html-keyboard-response","172","372326","0.0-4.0-1.0-0.18","cdzempr16v714ve","prime","5f57c711791f712bdd0c8fa1","5f60e3c0a3b16e07647b2ff9","5f60ec38b02492000a01ea81","false","null","<span style=""color: black; font-size: 48px"">N + M</span>","null","","","","resp_prompt","","","","","","","","","","","","","","","",""
"categorize-image","173","372961","0.0-4.0-1.0-1.18","cdzempr16v714ve","prime","5f57c711791f712bdd0c8fa1","5f60e3c0a3b16e07647b2ff9","5f60ec38b02492000a01ea81","true","626.9750000210479","./Stimuli/SelectedImages/SM/SM78.bmp","76","","","","test","true","N + M","76","repetition","SM","SM78.bmp","remember","","67","3","prime1","right","","","",""
"html-keyboard-response","174","374964","0.0-4.0-1.0-3.18","cdzempr16v714ve","prime","5f57c711791f712bdd0c8fa1","5f60e3c0a3b16e07647b2ff9","5f60ec38b02492000a01ea81","false","null","<div style=""align-items: center; display: flex; color: dodgerblue; font-size: 90px""><b>o</b></div>","null","","","","forget_cue","","","","","","","","","","","","","","","",""
"html-keyboard-response","175","375666","0.0-4.0-1.0-0.19","cdzempr16v714ve","prime","5f57c711791f712bdd0c8fa1","5f60e3c0a3b16e07647b2ff9","5f60ec38b02492000a01ea81","false","null","<span style=""color: black; font-size: 48px"">M + N</span>","null","","","","resp_prompt","","","","","","","","","","","","","","","",""
"categorize-image","176","376492","0.0-4.0-1.0-1.19","cdzempr16v714ve","prime","5f57c711791f712bdd0c8fa1","5f60e3c0a3b16e07647b2ff9","5f60ec38b02492000a01ea81","true","819.45499998983","./Stimuli/SelectedImages/LM/LM59.bmp","83","","","","test","true","M + N","83","switch","LM","LM59.bmp","remember","","68","3","prime1","left","","","",""
"html-keyboard-response","177","378494","0.0-4.0-1.0-3.19","cdzempr16v714ve","prime","5f57c711791f712bdd0c8fa1","5f60e3c0a3b16e07647b2ff9","5f60ec38b02492000a01ea81","false","null","<div style=""align-items: center; display: flex; color: dodgerblue; font-size: 90px""><b>o</b></div>","null","","","","forget_cue","","","","","","","","","","","","","","","",""
"html-keyboard-response","178","379196","0.0-4.0-1.0-0.20","cdzempr16v714ve","prime","5f57c711791f712bdd0c8fa1","5f60e3c0a3b16e07647b2ff9","5f60ec38b02492000a01ea81","false","null","<span style=""color: black; font-size: 48px"">M + N</span>","null","","","","resp_prompt","","","","","","","","","","","","","","","",""
"categorize-image","179","379936","0.0-4.0-1.0-1.20","cdzempr16v714ve","prime","5f57c711791f712bdd0c8fa1","5f60e3c0a3b16e07647b2ff9","5f60ec38b02492000a01ea81","true","733.1600000034086","./Stimuli/SelectedImages/SN/SN187.bmp","76","","","","test","true","M + N","76","repetition","SN","SN187.bmp","remember","","69","3","prime1","right","","","",""
"html-keyboard-response","180","381937","0.0-4.0-1.0-3.20","cdzempr16v714ve","prime","5f57c711791f712bdd0c8fa1","5f60e3c0a3b16e07647b2ff9","5f60ec38b02492000a01ea81","false","null","<div style=""align-items: center; display: flex; color: dodgerblue; font-size: 90px""><b>o</b></div>","null","","","","forget_cue","","","","","","","","","","","","","","","",""
"html-keyboard-response","181","382639","0.0-4.0-1.0-0.21","cdzempr16v714ve","prime","5f57c711791f712bdd0c8fa1","5f60e3c0a3b16e07647b2ff9","5f60ec38b02492000a01ea81","false","null","<span style=""color: black; font-size: 48px"">M + N</span>","null","","","","resp_prompt","","","","","","","","","","","","","","","",""
"categorize-image","182","383070","0.0-4.0-1.0-1.21","cdzempr16v714ve","prime","5f57c711791f712bdd0c8fa1","5f60e3c0a3b16e07647b2ff9","5f60ec38b02492000a01ea81","true","426.69000002206303","./Stimuli/SelectedImages/LM/LM179.bmp","83","","","","test","true","M + N","83","repetition","LM","LM179.bmp","remember","","70","3","prime1","left","","","",""
"html-keyboard-response","183","385076","0.0-4.0-1.0-3.21","cdzempr16v714ve","prime","5f57c711791f712bdd0c8fa1","5f60e3c0a3b16e07647b2ff9","5f60ec38b02492000a01ea81","false","null","<div style=""align-items: center; display: flex; color: dodgerblue; font-size: 90px""><b>o</b></div>","null","","","","forget_cue","","","","","","","","","","","","","","","",""
"html-keyboard-response","184","385780","0.0-4.0-1.0-0.22","cdzempr16v714ve","prime","5f57c711791f712bdd0c8fa1","5f60e3c0a3b16e07647b2ff9","5f60ec38b02492000a01ea81","false","null","<span style=""color: black; font-size: 48px"">M + N</span>","null","","","","resp_prompt","","","","","","","","","","","","","","","",""
"categorize-image","185","386699","0.0-4.0-1.0-1.22","cdzempr16v714ve","prime","5f57c711791f712bdd0c8fa1","5f60e3c0a3b16e07647b2ff9","5f60ec38b02492000a01ea81","true","910.8899999991991","./Stimuli/SelectedImages/LN/LN9.bmp","76","","","","test","true","M + N","76","switch","LN","LN9.bmp","forget","","71","3","prime1","right","","","",""
"html-keyboard-response","186","388702","0.0-4.0-1.0-3.22","cdzempr16v714ve","prime","5f57c711791f712bdd0c8fa1","5f60e3c0a3b16e07647b2ff9","5f60ec38b02492000a01ea81","false","null","<div style=""align-items: center; display: flex; color: darkorange; font-size: 90px""><b>ø</b></div>","null","","","","forget_cue","","","","","","","","","","","","","","","",""
"html-keyboard-response","187","389405","0.0-4.0-1.0-0.23","cdzempr16v714ve","prime","5f57c711791f712bdd0c8fa1","5f60e3c0a3b16e07647b2ff9","5f60ec38b02492000a01ea81","false","null","<span style=""color: black; font-size: 48px"">M + N</span>","null","","","","resp_prompt","","","","","","","","","","","","","","","",""
"categorize-image","188","390338","0.0-4.0-1.0-1.23","cdzempr16v714ve","prime","5f57c711791f712bdd0c8fa1","5f60e3c0a3b16e07647b2ff9","5f60ec38b02492000a01ea81","true","928.474999993341","./Stimuli/SelectedImages/LN/LN59.bmp","76","","","","test","true","M + N","76","repetition","LN","LN59.bmp","forget","","72","3","prime1","right","","","",""
"html-keyboard-response","189","392347","0.0-4.0-1.0-3.23","cdzempr16v714ve","prime","5f57c711791f712bdd0c8fa1","5f60e3c0a3b16e07647b2ff9","5f60ec38b02492000a01ea81","false","null","<div style=""align-items: center; display: flex; color: darkorange; font-size: 90px""><b>ø</b></div>","null","","","","forget_cue","","","","","","","","","","","","","","","",""
"html-keyboard-response","190","393050","0.0-4.0-1.0-0.24","cdzempr16v714ve","prime","5f57c711791f712bdd0c8fa1","5f60e3c0a3b16e07647b2ff9","5f60ec38b02492000a01ea81","false","null","<span style=""color: black; font-size: 48px"">N + M</span>","null","","","","resp_prompt","","","","","","","","","","","","","","","",""
"categorize-image","191","393858","0.0-4.0-1.0-1.24","cdzempr16v714ve","prime","5f57c711791f712bdd0c8fa1","5f60e3c0a3b16e07647b2ff9","5f60ec38b02492000a01ea81","true","801.9250000070315","./Stimuli/SelectedImages/SN/SN140.bmp","83","","","","test","true","N + M","83","repetition","SN","SN140.bmp","remember","","73","3","prime1","left","","","",""
"html-keyboard-response","192","395860","0.0-4.0-1.0-3.24","cdzempr16v714ve","prime","5f57c711791f712bdd0c8fa1","5f60e3c0a3b16e07647b2ff9","5f60ec38b02492000a01ea81","false","null","<div style=""align-items: center; display: flex; color: dodgerblue; font-size: 90px""><b>o</b></div>","null","","","","forget_cue","","","","","","","","","","","","","","","",""
"html-keyboard-response","193","396562","0.0-4.0-1.0-0.25","cdzempr16v714ve","prime","5f57c711791f712bdd0c8fa1","5f60e3c0a3b16e07647b2ff9","5f60ec38b02492000a01ea81","false","null","<span style=""color: black; font-size: 48px"">M + N</span>","null","","","","resp_prompt","","","","","","","","","","","","","","","",""
"categorize-image","194","397666","0.0-4.0-1.0-1.25","cdzempr16v714ve","prime","5f57c711791f712bdd0c8fa1","5f60e3c0a3b16e07647b2ff9","5f60ec38b02492000a01ea81","true","1098.389999999199","./Stimuli/SelectedImages/SN/SN179.bmp","76","","","","test","true","M + N","76","switch","SN","SN179.bmp","forget","","74","3","prime1","right","","","",""
"html-keyboard-response","195","399668","0.0-4.0-1.0-3.25","cdzempr16v714ve","prime","5f57c711791f712bdd0c8fa1","5f60e3c0a3b16e07647b2ff9","5f60ec38b02492000a01ea81","false","null","<div style=""align-items: center; display: flex; color: darkorange; font-size: 90px""><b>ø</b></div>","null","","","","forget_cue","","","","","","","","","","","","","","","",""
"html-keyboard-response","196","400370","0.0-4.0-1.0-0.26","cdzempr16v714ve","prime","5f57c711791f712bdd0c8fa1","5f60e3c0a3b16e07647b2ff9","5f60ec38b02492000a01ea81","false","null","<span style=""color: black; font-size: 48px"">M + N</span>","null","","","","resp_prompt","","","","","","","","","","","","","","","",""
"categorize-image","197","401176","0.0-4.0-1.0-1.26","cdzempr16v714ve","prime","5f57c711791f712bdd0c8fa1","5f60e3c0a3b16e07647b2ff9","5f60ec38b02492000a01ea81","true","798.0500000121538","./Stimuli/SelectedImages/SM/SM207.bmp","83","","","","test","true","M + N","83","repetition","SM","SM207.bmp","remember","","75","3","prime1","left","","","",""
"html-keyboard-response","198","403178","0.0-4.0-1.0-3.26","cdzempr16v714ve","prime","5f57c711791f712bdd0c8fa1","5f60e3c0a3b16e07647b2ff9","5f60ec38b02492000a01ea81","false","null","<div style=""align-items: center; display: flex; color: dodgerblue; font-size: 90px""><b>o</b></div>","null","","","","forget_cue","","","","","","","","","","","","","","","",""
"html-keyboard-response","199","403880","0.0-4.0-1.0-0.27","cdzempr16v714ve","prime","5f57c711791f712bdd0c8fa1","5f60e3c0a3b16e07647b2ff9","5f60ec38b02492000a01ea81","false","null","<span style=""color: black; font-size: 48px"">M + N</span>","null","","","","resp_prompt","","","","","","","","","","","","","","","",""
"categorize-image","200","404600","0.0-4.0-1.0-1.27","cdzempr16v714ve","prime","5f57c711791f712bdd0c8fa1","5f60e3c0a3b16e07647b2ff9","5f60ec38b02492000a01ea81","true","713.6850000242703","./Stimuli/SelectedImages/LN/LN128.bmp","76","","","","test","true","M + N","76","switch","LN","LN128.bmp","remember","","76","3","prime1","right","","","",""
"html-keyboard-response","201","406605","0.0-4.0-1.0-3.27","cdzempr16v714ve","prime","5f57c711791f712bdd0c8fa1","5f60e3c0a3b16e07647b2ff9","5f60ec38b02492000a01ea81","false","null","<div style=""align-items: center; display: flex; color: dodgerblue; font-size: 90px""><b>o</b></div>","null","","","","forget_cue","","","","","","","","","","","","","","","",""
"html-keyboard-response","202","407307","0.0-4.0-1.0-0.28","cdzempr16v714ve","prime","5f57c711791f712bdd0c8fa1","5f60e3c0a3b16e07647b2ff9","5f60ec38b02492000a01ea81","false","null","<span style=""color: black; font-size: 48px"">M + N</span>","null","","","","resp_prompt","","","","","","","","","","","","","","","",""
"categorize-image","203","408065","0.0-4.0-1.0-1.28","cdzempr16v714ve","prime","5f57c711791f712bdd0c8fa1","5f60e3c0a3b16e07647b2ff9","5f60ec38b02492000a01ea81","true","750.8450000023004","./Stimuli/SelectedImages/LM/LM51.bmp","83","","","","test","true","M + N","83","repetition","LM","LM51.bmp","forget","","77","3","prime1","left","","","",""
"html-keyboard-response","204","410067","0.0-4.0-1.0-3.28","cdzempr16v714ve","prime","5f57c711791f712bdd0c8fa1","5f60e3c0a3b16e07647b2ff9","5f60ec38b02492000a01ea81","false","null","<div style=""align-items: center; display: flex; color: darkorange; font-size: 90px""><b>ø</b></div>","null","","","","forget_cue","","","","","","","","","","","","","","","",""
"html-keyboard-response","205","410768","0.0-4.0-1.0-0.29","cdzempr16v714ve","prime","5f57c711791f712bdd0c8fa1","5f60e3c0a3b16e07647b2ff9","5f60ec38b02492000a01ea81","false","null","<span style=""color: black; font-size: 48px"">N + M</span>","null","","","","resp_prompt","","","","","","","","","","","","","","","",""
"categorize-image","206","411543","0.0-4.0-1.0-1.29","cdzempr16v714ve","prime","5f57c711791f712bdd0c8fa1","5f60e3c0a3b16e07647b2ff9","5f60ec38b02492000a01ea81","true","768.370000005234","./Stimuli/SelectedImages/LN/LN111.bmp","83","","","","test","true","N + M","83","switch","LN","LN111.bmp","remember","","78","3","prime1","left","","","",""
"html-keyboard-response","207","413545","0.0-4.0-1.0-3.29","cdzempr16v714ve","prime","5f57c711791f712bdd0c8fa1","5f60e3c0a3b16e07647b2ff9","5f60ec38b02492000a01ea81","false","null","<div style=""align-items: center; display: flex; color: dodgerblue; font-size: 90px""><b>o</b></div>","null","","","","forget_cue","","","","","","","","","","","","","","","",""
"html-keyboard-response","208","414248","0.0-4.0-1.0-0.30","cdzempr16v714ve","prime","5f57c711791f712bdd0c8fa1","5f60e3c0a3b16e07647b2ff9","5f60ec38b02492000a01ea81","false","null","<span style=""color: black; font-size: 48px"">M + N</span>","null","","","","resp_prompt","","","","","","","","","","","","","","","",""
"categorize-image","209","414814","0.0-4.0-1.0-1.30","cdzempr16v714ve","prime","5f57c711791f712bdd0c8fa1","5f60e3c0a3b16e07647b2ff9","5f60ec38b02492000a01ea81","true","560.6399999815039","./Stimuli/SelectedImages/SM/SM184.bmp","76","","","","test","false","M + N","83","repetition","SM","SM184.bmp","forget","","79","3","prime1","right","","","",""
"html-keyboard-response","210","415316","0.0-4.0-1.0-2.30-0.30","cdzempr16v714ve","prime","5f57c711791f712bdd0c8fa1","5f60e3c0a3b16e07647b2ff9","5f60ec38b02492000a01ea81","false","null","<span style=""color: red; font-size: 48px"">Error!</span>","null","","","","feedback","","","","","","","","","","","","","","","",""
"html-keyboard-response","211","417318","0.0-4.0-1.0-3.30","cdzempr16v714ve","prime","5f57c711791f712bdd0c8fa1","5f60e3c0a3b16e07647b2ff9","5f60ec38b02492000a01ea81","false","null","<div style=""align-items: center; display: flex; color: darkorange; font-size: 90px""><b>ø</b></div>","null","","","","forget_cue","","","","","","","","","","","","","","","",""
"html-keyboard-response","212","418020","0.0-4.0-1.0-0.31","cdzempr16v714ve","prime","5f57c711791f712bdd0c8fa1","5f60e3c0a3b16e07647b2ff9","5f60ec38b02492000a01ea81","false","null","<span style=""color: black; font-size: 48px"">M + N</span>","null","","","","resp_prompt","","","","","","","","","","","","","","","",""
"categorize-image","213","418837","0.0-4.0-1.0-1.31","cdzempr16v714ve","prime","5f57c711791f712bdd0c8fa1","5f60e3c0a3b16e07647b2ff9","5f60ec38b02492000a01ea81","true","809.0200000151526","./Stimuli/SelectedImages/SN/SN49.bmp","76","","","","test","true","M + N","76","repetition","SN","SN49.bmp","forget","","80","3","prime1","right","","","",""
"html-keyboard-response","214","420839","0.0-4.0-1.0-3.31","cdzempr16v714ve","prime","5f57c711791f712bdd0c8fa1","5f60e3c0a3b16e07647b2ff9","5f60ec38b02492000a01ea81","false","null","<div style=""align-items: center; display: flex; color: darkorange; font-size: 90px""><b>ø</b></div>","null","","","","forget_cue","","","","","","","","","","","","","","","",""
"html-keyboard-response","215","421541","0.0-4.0-1.0-0.32","cdzempr16v714ve","prime","5f57c711791f712bdd0c8fa1","5f60e3c0a3b16e07647b2ff9","5f60ec38b02492000a01ea81","false","null","<span style=""color: black; font-size: 48px"">M + N</span>","null","","","","resp_prompt","","","","","","","","","","","","","","","",""
"categorize-image","216","422071","0.0-4.0-1.0-1.32","cdzempr16v714ve","prime","5f57c711791f712bdd0c8fa1","5f60e3c0a3b16e07647b2ff9","5f60ec38b02492000a01ea81","true","521.9150000193622","./Stimuli/SelectedImages/SM/SM200.bmp","83","","","","test","true","M + N","83","repetition","SM","SM200.bmp","forget","","81","3","prime1","left","","","",""
"html-keyboard-response","217","424073","0.0-4.0-1.0-3.32","cdzempr16v714ve","prime","5f57c711791f712bdd0c8fa1","5f60e3c0a3b16e07647b2ff9","5f60ec38b02492000a01ea81","false","null","<div style=""align-items: center; display: flex; color: darkorange; font-size: 90px""><b>ø</b></div>","null","","","","forget_cue","","","","","","","","","","","","","","","",""
"html-keyboard-response","218","424775","0.0-4.0-1.0-0.33","cdzempr16v714ve","prime","5f57c711791f712bdd0c8fa1","5f60e3c0a3b16e07647b2ff9","5f60ec38b02492000a01ea81","false","null","<span style=""color: black; font-size: 48px"">N + M</span>","null","","","","resp_prompt","","","","","","","","","","","","","","","",""
"categorize-image","219","425568","0.0-4.0-1.0-1.33","cdzempr16v714ve","prime","5f57c711791f712bdd0c8fa1","5f60e3c0a3b16e07647b2ff9","5f60ec38b02492000a01ea81","true","788.1749999942258","./Stimuli/SelectedImages/LN/LN13.bmp","83","","","","test","true","N + M","83","switch","LN","LN13.bmp","remember","","82","3","prime1","left","","","",""
"html-keyboard-response","220","427569","0.0-4.0-1.0-3.33","cdzempr16v714ve","prime","5f57c711791f712bdd0c8fa1","5f60e3c0a3b16e07647b2ff9","5f60ec38b02492000a01ea81","false","null","<div style=""align-items: center; display: flex; color: dodgerblue; font-size: 90px""><b>o</b></div>","null","","","","forget_cue","","","","","","","","","","","","","","","",""
"html-keyboard-response","221","428271","0.0-4.0-1.0-0.34","cdzempr16v714ve","prime","5f57c711791f712bdd0c8fa1","5f60e3c0a3b16e07647b2ff9","5f60ec38b02492000a01ea81","false","null","<span style=""color: black; font-size: 48px"">N + M</span>","null","","","","resp_prompt","","","","","","","","","","","","","","","",""
"categorize-image","222","429689","0.0-4.0-1.0-1.34","cdzempr16v714ve","prime","5f57c711791f712bdd0c8fa1","5f60e3c0a3b16e07647b2ff9","5f60ec38b02492000a01ea81","true","1409.109999978682","./Stimuli/SelectedImages/SN/SN60.bmp","83","","","","test","true","N + M","83","switch","SN","SN60.bmp","remember","","83","3","prime1","left","","","",""
"html-keyboard-response","223","431691","0.0-4.0-1.0-3.34","cdzempr16v714ve","prime","5f57c711791f712bdd0c8fa1","5f60e3c0a3b16e07647b2ff9","5f60ec38b02492000a01ea81","false","null","<div style=""align-items: center; display: flex; color: dodgerblue; font-size: 90px""><b>o</b></div>","null","","","","forget_cue","","","","","","","","","","","","","","","",""
"html-keyboard-response","224","432393","0.0-4.0-1.0-0.35","cdzempr16v714ve","prime","5f57c711791f712bdd0c8fa1","5f60e3c0a3b16e07647b2ff9","5f60ec38b02492000a01ea81","false","null","<span style=""color: black; font-size: 48px"">M + N</span>","null","","","","resp_prompt","","","","","","","","","","","","","","","",""
"categorize-image","225","432992","0.0-4.0-1.0-1.35","cdzempr16v714ve","prime","5f57c711791f712bdd0c8fa1","5f60e3c0a3b16e07647b2ff9","5f60ec38b02492000a01ea81","true","591.935000004014","./Stimuli/SelectedImages/SM/SM24.bmp","83","","","","test","true","M + N","83","repetition","SM","SM24.bmp","remember","","84","3","prime1","left","","","",""
"html-keyboard-response","226","434994","0.0-4.0-1.0-3.35","cdzempr16v714ve","prime","5f57c711791f712bdd0c8fa1","5f60e3c0a3b16e07647b2ff9","5f60ec38b02492000a01ea81","false","null","<div style=""align-items: center; display: flex; color: dodgerblue; font-size: 90px""><b>o</b></div>","null","","","","forget_cue","","","","","","","","","","","","","","","",""
"html-keyboard-response","227","435695","0.0-4.0-1.0-0.36","cdzempr16v714ve","prime","5f57c711791f712bdd0c8fa1","5f60e3c0a3b16e07647b2ff9","5f60ec38b02492000a01ea81","false","null","<span style=""color: black; font-size: 48px"">M + N</span>","null","","","","resp_prompt","","","","","","","","","","","","","","","",""
"categorize-image","228","436204","0.0-4.0-1.0-1.36","cdzempr16v714ve","prime","5f57c711791f712bdd0c8fa1","5f60e3c0a3b16e07647b2ff9","5f60ec38b02492000a01ea81","true","502.69500000285916","./Stimuli/SelectedImages/LM/LM216.bmp","83","","","","test","true","M + N","83","repetition","LM","LM216.bmp","forget","","85","3","prime1","left","","","",""
"html-keyboard-response","229","438207","0.0-4.0-1.0-3.36","cdzempr16v714ve","prime","5f57c711791f712bdd0c8fa1","5f60e3c0a3b16e07647b2ff9","5f60ec38b02492000a01ea81","false","null","<div style=""align-items: center; display: flex; color: darkorange; font-size: 90px""><b>ø</b></div>","null","","","","forget_cue","","","","","","","","","","","","","","","",""
"html-keyboard-response","230","438909","0.0-4.0-1.0-0.37","cdzempr16v714ve","prime","5f57c711791f712bdd0c8fa1","5f60e3c0a3b16e07647b2ff9","5f60ec38b02492000a01ea81","false","null","<span style=""color: black; font-size: 48px"">N + M</span>","null","","","","resp_prompt","","","","","","","","","","","","","","","",""
"categorize-image","231","439698","0.0-4.0-1.0-1.37","cdzempr16v714ve","prime","5f57c711791f712bdd0c8fa1","5f60e3c0a3b16e07647b2ff9","5f60ec38b02492000a01ea81","true","783.9050000184216","./Stimuli/SelectedImages/SM/SM108.bmp","76","","","","test","true","N + M","76","switch","SM","SM108.bmp","forget","","86","3","prime1","right","","","",""
"html-keyboard-response","232","441700","0.0-4.0-1.0-3.37","cdzempr16v714ve","prime","5f57c711791f712bdd0c8fa1","5f60e3c0a3b16e07647b2ff9","5f60ec38b02492000a01ea81","false","null","<div style=""align-items: center; display: flex; color: darkorange; font-size: 90px""><b>ø</b></div>","null","","","","forget_cue","","","","","","","","","","","","","","","",""
"html-keyboard-response","233","442403","0.0-4.0-1.0-0.38","cdzempr16v714ve","prime","5f57c711791f712bdd0c8fa1","5f60e3c0a3b16e07647b2ff9","5f60ec38b02492000a01ea81","false","null","<span style=""color: black; font-size: 48px"">N + M</span>","null","","","","resp_prompt","","","","","","","","","","","","","","","",""
"categorize-image","234","442892","0.0-4.0-1.0-1.38","cdzempr16v714ve","prime","5f57c711791f712bdd0c8fa1","5f60e3c0a3b16e07647b2ff9","5f60ec38b02492000a01ea81","true","482.38999999011867","./Stimuli/SelectedImages/SN/SN181.bmp","83","","","","test","true","N + M","83","repetition","SN","SN181.bmp","forget","","87","3","prime1","left","","","",""
"html-keyboard-response","235","444895","0.0-4.0-1.0-3.38","cdzempr16v714ve","prime","5f57c711791f712bdd0c8fa1","5f60e3c0a3b16e07647b2ff9","5f60ec38b02492000a01ea81","false","null","<div style=""align-items: center; display: flex; color: darkorange; font-size: 90px""><b>ø</b></div>","null","","","","forget_cue","","","","","","","","","","","","","","","",""
"html-keyboard-response","236","445597","0.0-4.0-1.0-0.39","cdzempr16v714ve","prime","5f57c711791f712bdd0c8fa1","5f60e3c0a3b16e07647b2ff9","5f60ec38b02492000a01ea81","false","null","<span style=""color: black; font-size: 48px"">N + M</span>","null","","","","resp_prompt","","","","","","","","","","","","","","","",""
"categorize-image","237","446148","0.0-4.0-1.0-1.39","cdzempr16v714ve","prime","5f57c711791f712bdd0c8fa1","5f60e3c0a3b16e07647b2ff9","5f60ec38b02492000a01ea81","true","545.6999999878462","./Stimuli/SelectedImages/LM/LM57.bmp","76","","","","test","true","N + M","76","repetition","LM","LM57.bmp","forget","","88","3","prime1","right","","","",""
"html-keyboard-response","238","448153","0.0-4.0-1.0-3.39","cdzempr16v714ve","prime","5f57c711791f712bdd0c8fa1","5f60e3c0a3b16e07647b2ff9","5f60ec38b02492000a01ea81","false","null","<div style=""align-items: center; display: flex; color: darkorange; font-size: 90px""><b>ø</b></div>","null","","","","forget_cue","","","","","","","","","","","","","","","",""
"html-keyboard-response","239","448855","0.0-4.0-1.0-0.40","cdzempr16v714ve","prime","5f57c711791f712bdd0c8fa1","5f60e3c0a3b16e07647b2ff9","5f60ec38b02492000a01ea81","false","null","<span style=""color: black; font-size: 48px"">N + M</span>","null","","","","resp_prompt","","","","","","","","","","","","","","","",""
"categorize-image","240","449459","0.0-4.0-1.0-1.40","cdzempr16v714ve","prime","5f57c711791f712bdd0c8fa1","5f60e3c0a3b16e07647b2ff9","5f60ec38b02492000a01ea81","true","597.9450000158977","./Stimuli/SelectedImages/SM/SM205.bmp","76","","","","test","true","N + M","76","switch","SM","SM205.bmp","remember","","89","3","prime1","right","","","",""
"html-keyboard-response","241","451461","0.0-4.0-1.0-3.40","cdzempr16v714ve","prime","5f57c711791f712bdd0c8fa1","5f60e3c0a3b16e07647b2ff9","5f60ec38b02492000a01ea81","false","null","<div style=""align-items: center; display: flex; color: dodgerblue; font-size: 90px""><b>o</b></div>","null","","","","forget_cue","","","","","","","","","","","","","","","",""
"html-keyboard-response","242","452164","0.0-4.0-1.0-0.41","cdzempr16v714ve","prime","5f57c711791f712bdd0c8fa1","5f60e3c0a3b16e07647b2ff9","5f60ec38b02492000a01ea81","false","null","<span style=""color: black; font-size: 48px"">N + M</span>","null","","","","resp_prompt","","","","","","","","","","","","","","","",""
"categorize-image","243","452790","0.0-4.0-1.0-1.41","cdzempr16v714ve","prime","5f57c711791f712bdd0c8fa1","5f60e3c0a3b16e07647b2ff9","5f60ec38b02492000a01ea81","true","619.620000012219","./Stimuli/SelectedImages/LN/LN92.bmp","83","","","","test","true","N + M","83","switch","LN","LN92.bmp","forget","","90","3","prime1","left","","","",""
"html-keyboard-response","244","454792","0.0-4.0-1.0-3.41","cdzempr16v714ve","prime","5f57c711791f712bdd0c8fa1","5f60e3c0a3b16e07647b2ff9","5f60ec38b02492000a01ea81","false","null","<div style=""align-items: center; display: flex; color: darkorange; font-size: 90px""><b>ø</b></div>","null","","","","forget_cue","","","","","","","","","","","","","","","",""
"html-keyboard-response","245","455493","0.0-4.0-1.0-0.42","cdzempr16v714ve","prime","5f57c711791f712bdd0c8fa1","5f60e3c0a3b16e07647b2ff9","5f60ec38b02492000a01ea81","false","null","<span style=""color: black; font-size: 48px"">M + N</span>","null","","","","resp_prompt","","","","","","","","","","","","","","","",""
"categorize-image","246","456420","0.0-4.0-1.0-1.42","cdzempr16v714ve","prime","5f57c711791f712bdd0c8fa1","5f60e3c0a3b16e07647b2ff9","5f60ec38b02492000a01ea81","true","920.4249999893364","./Stimuli/SelectedImages/LM/LM58.bmp","83","","","","test","true","M + N","83","switch","LM","LM58.bmp","forget","","91","3","prime1","left","","","",""
"html-keyboard-response","247","458423","0.0-4.0-1.0-3.42","cdzempr16v714ve","prime","5f57c711791f712bdd0c8fa1","5f60e3c0a3b16e07647b2ff9","5f60ec38b02492000a01ea81","false","null","<div style=""align-items: center; display: flex; color: darkorange; font-size: 90px""><b>ø</b></div>","null","","","","forget_cue","","","","","","","","","","","","","","","",""
"html-keyboard-response","248","459126","0.0-4.0-1.0-0.43","cdzempr16v714ve","prime","5f57c711791f712bdd0c8fa1","5f60e3c0a3b16e07647b2ff9","5f60ec38b02492000a01ea81","false","null","<span style=""color: black; font-size: 48px"">N + M</span>","null","","","","resp_prompt","","","","","","","","","","","","","","","",""
"categorize-image","249","459779","0.0-4.0-1.0-1.43","cdzempr16v714ve","prime","5f57c711791f712bdd0c8fa1","5f60e3c0a3b16e07647b2ff9","5f60ec38b02492000a01ea81","true","646.2699999974575","./Stimuli/SelectedImages/SN/SN128.bmp","83","","","","test","true","N + M","83","switch","SN","SN128.bmp","forget","","92","3","prime1","left","","","",""
"html-keyboard-response","250","461781","0.0-4.0-1.0-3.43","cdzempr16v714ve","prime","5f57c711791f712bdd0c8fa1","5f60e3c0a3b16e07647b2ff9","5f60ec38b02492000a01ea81","false","null","<div style=""align-items: center; display: flex; color: darkorange; font-size: 90px""><b>ø</b></div>","null","","","","forget_cue","","","","","","","","","","","","","","","",""
"html-keyboard-response","251","462482","0.0-4.0-1.0-0.44","cdzempr16v714ve","prime","5f57c711791f712bdd0c8fa1","5f60e3c0a3b16e07647b2ff9","5f60ec38b02492000a01ea81","false","null","<span style=""color: black; font-size: 48px"">M + N</span>","null","","","","resp_prompt","","","","","","","","","","","","","","","",""
"categorize-image","252","463626","0.0-4.0-1.0-1.44","cdzempr16v714ve","prime","5f57c711791f712bdd0c8fa1","5f60e3c0a3b16e07647b2ff9","5f60ec38b02492000a01ea81","true","1134.9350000091363","./Stimuli/SelectedImages/SM/SM128.bmp","76","","","","test","false","M + N","83","switch","SM","SM128.bmp","forget","","93","3","prime1","right","","","",""
