"trial_type","trial_index","time_elapsed","internal_node_id","subject","exp_part","prolific_PID","study_ID","session_ID","use","rt","stimulus","key_press","button_pressed","responses","question_order","trial_part","correct","resp_map","correct_resp","probe_condition","category","image","forget_condition","list","trial_num","block_num","block","response","test_part","n_span","sequence","num_spaces"
"pavlovia","0","3","0.0-0.0","whg2ddb9fl3gw7o","","5f0dc0f00f339b057412ac9a","5f60e3c0a3b16e07647b2ff9","5f610132acc60103bf3764c0","false","","","","","","","","","","","","","","","","","","","","","","",""
"html-keyboard-response","1","1263","0.0-1.0-0.0-0.0","whg2ddb9fl3gw7o","welcome","5f0dc0f00f339b057412ac9a","5f60e3c0a3b16e07647b2ff9","5f610132acc60103bf3764c0","false","1259.2450000011013","<div align=left>Dear participant, <br> thank you for participating in an online study of the Cognition, Action, and Sustainability Unit of the University of Freiburg! <br> <br>The aim of this study is to examine our ability to remember previously learned information. <br>Our goal is to find out, whether our memory improves, when we only remember information that is relevant to us. <br>The experiment will take about 35 minutes to complete. <br> <br>Please, note that you can only participate in this study if you are using a device with a keyboard (PC, Laptop etc.) <br>and not if you are using a mobile device such as a tablet or smartphone.<br> <br>Press 'SPACE' to proceed to the experiment. </div>","32","","","","","","","","","","","","","","","","","","","",""
"html-keyboard-response","2","1950","0.0-1.0-0.0-1.0","whg2ddb9fl3gw7o","welcome","5f0dc0f00f339b057412ac9a","5f60e3c0a3b16e07647b2ff9","5f610132acc60103bf3764c0","false","686.970000002475","<div align=left><strong> Time Course of this experiment: </strong> <br><br> <strong> 1.</strong>  First, please fill in some information regarding your demographic data. <br><br> <strong> 2.</strong>  Next, your task will be to classify everyday objects. <br>In addition, you will be asked to remember certain objects and recall them later. <br>Working on these tasks requires your undivided attention and concentration.<br>It is therefore essential that you eliminate any sources of distraction in your  <br>environment and ensure that you will not be disturbed. <br><br><strong> 3.</strong>  At the end of the experiment, you will be asked to answer a few additional questions. <br> <br><strong> Important:</strong> After finishing the experiment, only close the browser window <br> by clicking on the 'end the experiment'-button when you are asked to do so. <br>Closing the browser window prematurely will make the allocation of your participation credit impossible. <br><br> Press 'SPACE' to start the experiment. </div>","32","","","","","","","","","","","","","","","","","","","",""
"html-button-response","3","3182","0.0-1.0-0.0-2.0","whg2ddb9fl3gw7o","welcome","5f0dc0f00f339b057412ac9a","5f60e3c0a3b16e07647b2ff9","5f610132acc60103bf3764c0","true","1230.5400000041118","<div align=left><strong> Informed consent </strong>  <br>The aim of our research is to better understand human behavior and mental processes. <br>In the following study your behavior (e.g. choices, reaction times) will be studied. <br> <br><strong> Voluntariness and Anonymity </strong> <br>Your participation in this study is  <strong> voluntary</strong>.<br>You may withdraw your consent to participate at any time without providing a reason for doing so and without fear of prejudice. <br><br>As no personal data will be collected, <strong>your data and your person cannot be connected after data collection</strong> – the data-set is anonymous. <br>Respectively, deletion of your data will not be possible after data collection has been completed, as we cannot retrace your data-set.<br>The results and anonymized data collected in this study will be published as a scientific publication. <br>This will happen in an <strong>anonymized format</strong>, so that no data can be traced back to a specific person. <br> <br>The anonymized data of this study will be made available to other researchers and/or in a data archive on the Internet as a means of transparency and to enable subsequent re-use. By doing so, this study follows the recommendations of the Deutsche Forschungsgemeinschaft (DFG, German Research Foundation) and Deutsche Gesellschaft für Psychologie (DGPS, German Psychological Society) regarding quality assurance in research.<br>If you have any questions now or after the experiment, please contact our team (experiments@cs.uni-freiburg.de).<br><br><br>I hereby declare, that I understand the above described conditions of participation and I agree to participate under these conditions. <br><br> </div>","","0","","","","","","","","","","","","","","","","","","",""
"html-keyboard-response","4","4198","0.0-1.0-0.0-3.0","whg2ddb9fl3gw7o","welcome","5f0dc0f00f339b057412ac9a","5f60e3c0a3b16e07647b2ff9","5f610132acc60103bf3764c0","false","1015.2300000045216","<div align=left><strong> General information concerning the experiment </strong>  <br> <br>Please follow the instructions:<ol> <li><strong> Do not leave this tab (your browser window) during the experiment and do not reload this tab! </strong>  <br>If you do switch tabs/windows during the experiment (to check your mail or visit another website, for example), <br>the experiment will end automatically and you will <strong>not receive credit</strong> for your participation. <br>Repeated participation or resumption of the experiment is impossible.</li> <br><li>Please close all other programs for the duration of your participation. </li> <br><li>Please mute or turn off your phone and put it out of your reach. </li> <br><li>Please also take off any disturbing accessories (such as wristwatches, bracelets, etc.). </li> <br><li>If you have music playing in the background, please turn it off now. </li> <br></ol>Thank you! <br>Press 'SPACE' to continue. </div>","32","","","","","","","","","","","","","","","","","","","",""
"survey-text","5","6255","0.0-1.0-1.0-0.0","whg2ddb9fl3gw7o","demographics","5f0dc0f00f339b057412ac9a","5f60e3c0a3b16e07647b2ff9","5f610132acc60103bf3764c0","true","2054.1250000023865","","","","{""age"":""20""}","","","","","","","","","","","","","","","","","",""
"survey-multi-choice","6","13966","0.0-1.0-1.0-1.0","whg2ddb9fl3gw7o","demographics","5f0dc0f00f339b057412ac9a","5f60e3c0a3b16e07647b2ff9","5f610132acc60103bf3764c0","true","7709.719999998924","","","","{""gender"":""female"",""school"":""high school"",""education"":""Doctorate degree""}","[0,1,2]","","","","","","","","","","","","","","","","",""
"html-keyboard-response","7","19919","0.0-1.0-2.0","whg2ddb9fl3gw7o","instructions","5f0dc0f00f339b057412ac9a","5f60e3c0a3b16e07647b2ff9","5f610132acc60103bf3764c0","false","5948.510000001988","<div align=left> The experiment is now about to start: <br> <br>In the following part, you will be presented pictures of everyday objects. <br>Your first task is to <strong>classify these objects. </strong> <br> <br> You will classify them either as mechanical or non-mechanical objects. <br> <br>Objects that include any kind of technical mechanism (for example, wheels, switches, levers, <br> electronic components) fall under the category of <strong>mechanical</strong> objects. <br>Only objects without any kind of technical mechanism should be classified as <strong>non-mechanical</strong>. <br><br>Press 'SPACE' to continue. </div>","32","","","","","","","","","","","","","","","","","","","",""
"html-keyboard-response","8","23591","0.0-2.0-0.0","whg2ddb9fl3gw7o","instructions","5f0dc0f00f339b057412ac9a","5f60e3c0a3b16e07647b2ff9","5f610132acc60103bf3764c0","false","3671.5800000019954","<div align=justify>You will classify the objects using the <strong>'S'</strong> and the <strong>'L'</strong> keys on your keyboard.<br>For doing so, please place your <strong>left index finger</strong> on the <strong>'S'</strong> key and place your <strong>right index finger</strong> on the <strong>'L'</strong> key. <br><br> Each trial starts with an instruction, indicating which key ('S'/'L') you need to press to classify <br>the object as mechanical (letter M) or non-mechanical (letter N).<br>The instruction <strong>M + N</strong> indicates that, in the current trial, by pressing the left key ('S') you classify the displayed object as mechanical (M) <br> and by pressing the right key ('L') you classify the object as non-mechanical (N). <br>The instruction <strong>N + M</strong> on the other hand indicates that by pressing the left key ('S') you classify the displayed object as non-mechanical (N) <br> and by pressing the right key ('L') you classify the object as mechanical (M). <br><br>Please press the key corresponding to the correct classification as fast as possible as soon as the object is displayed and try to avoid making mistakes.<br>If you do not respond within a 2 second window, a corresponding feedback will be displayed and the next trial will start.<br> The experiment is divided into multiple blocks to give you the opportunity to take a break after each block. <br>First, you can now practice this task. <br><br>Please place your <strong>LEFT INDEX FINGER</strong> on the 'S' key and your <strong>RIGHT INDEX FINGER</strong> on the 'L' key now. <br><br>Press SPACE to continue.</div>","32","","","","","","","","","","","","","","","","","","","",""
"html-keyboard-response","9","49647","0.0-2.0-1.0","whg2ddb9fl3gw7o","instructions","5f0dc0f00f339b057412ac9a","5f60e3c0a3b16e07647b2ff9","5f610132acc60103bf3764c0","false","26055.03999999928","<div align=left> You will now have time to practice this task.<br><br>Remember: <br> <br><li>Please place your index fingers on the <strong>'S'</strong> and <strong>'L'</strong> keys <br>to respond as fast and accurately as possible.</li><li>Every picture can be classified as either mechanical or non-mechanical.</li><li>If you do not respond in time or commit an error, you will receive a corresponding feedback. </li><li> Please try to respond as <strong> fast </strong> and as <strong> accurately as possible </strong> .<br><li>To ensure optimal results, please minimize distractions and stay focused. </li><br><br>Press SPACE to continue.</div>","32","","","","","","","","","","","","","","","","","","","",""
"html-keyboard-response","10","50349","0.0-2.0-2.0-0.0","whg2ddb9fl3gw7o","practice_no_cue","5f0dc0f00f339b057412ac9a","5f60e3c0a3b16e07647b2ff9","5f610132acc60103bf3764c0","false","null","<span style=""color: black; font-size: 48px"">M + N</span>","null","","","","resp_prompt","","","","","","","","","","","","","","","",""
"categorize-image","11","52852","0.0-2.0-2.0-1.0","whg2ddb9fl3gw7o","practice_no_cue","5f0dc0f00f339b057412ac9a","5f60e3c0a3b16e07647b2ff9","5f610132acc60103bf3764c0","true","null","./Stimuli/ImagesPractice/LN17.jpg","null","","","","test","false","M + N","76","","LN","LN17.jpg","forget","old","1","1","start","too_slow","","","",""
"html-keyboard-response","12","53553","0.0-2.0-2.0-0.1","whg2ddb9fl3gw7o","practice_no_cue","5f0dc0f00f339b057412ac9a","5f60e3c0a3b16e07647b2ff9","5f610132acc60103bf3764c0","false","null","<span style=""color: black; font-size: 48px"">M + N</span>","null","","","","resp_prompt","","","","","","","","","","","","","","","",""
"categorize-image","13","55324","0.0-2.0-2.0-1.1","whg2ddb9fl3gw7o","practice_no_cue","5f0dc0f00f339b057412ac9a","5f60e3c0a3b16e07647b2ff9","5f610132acc60103bf3764c0","true","1268.709999996645","./Stimuli/ImagesPractice/LN4.jpg","76","","","","test","true","M + N","76","","LN","LN4.jpg","remember","old","2","1","start","right","","","",""
"html-keyboard-response","14","56025","0.0-2.0-2.0-0.2","whg2ddb9fl3gw7o","practice_no_cue","5f0dc0f00f339b057412ac9a","5f60e3c0a3b16e07647b2ff9","5f610132acc60103bf3764c0","false","null","<span style=""color: black; font-size: 48px"">M + N</span>","null","","","","resp_prompt","","","","","","","","","","","","","","","",""
"categorize-image","15","56611","0.0-2.0-2.0-1.2","whg2ddb9fl3gw7o","practice_no_cue","5f0dc0f00f339b057412ac9a","5f60e3c0a3b16e07647b2ff9","5f610132acc60103bf3764c0","true","84.1500000024098","./Stimuli/ImagesPractice/SM37.jpg","83","","","","test","true","M + N","83","","SM","SM37.jpg","forget","old","3","1","start","left","","","",""
"html-keyboard-response","16","57313","0.0-2.0-2.0-0.3","whg2ddb9fl3gw7o","practice_no_cue","5f0dc0f00f339b057412ac9a","5f60e3c0a3b16e07647b2ff9","5f610132acc60103bf3764c0","false","null","<span style=""color: black; font-size: 48px"">N + M</span>","null","","","","resp_prompt","","","","","","","","","","","","","","","",""
"categorize-image","17","58803","0.0-2.0-2.0-1.3","whg2ddb9fl3gw7o","practice_no_cue","5f0dc0f00f339b057412ac9a","5f60e3c0a3b16e07647b2ff9","5f610132acc60103bf3764c0","true","989.0249999953085","./Stimuli/ImagesPractice/SN220.jpg","76","","","","test","false","N + M","83","","SN","SN220.jpg","remember","old","4","1","start","right","","","",""
"html-keyboard-response","18","59505","0.0-2.0-2.0-0.4","whg2ddb9fl3gw7o","practice_no_cue","5f0dc0f00f339b057412ac9a","5f60e3c0a3b16e07647b2ff9","5f610132acc60103bf3764c0","false","null","<span style=""color: black; font-size: 48px"">M + N</span>","null","","","","resp_prompt","","","","","","","","","","","","","","","",""
"categorize-image","19","61588","0.0-2.0-2.0-1.4","whg2ddb9fl3gw7o","practice_no_cue","5f0dc0f00f339b057412ac9a","5f60e3c0a3b16e07647b2ff9","5f610132acc60103bf3764c0","true","1581.3899999993737","./Stimuli/ImagesPractice/LM55.jpg","83","","","","test","true","M + N","83","","LM","LM55.jpg","remember","old","5","1","start","left","","","",""
"html-keyboard-response","20","62288","0.0-2.0-2.0-0.5","whg2ddb9fl3gw7o","practice_no_cue","5f0dc0f00f339b057412ac9a","5f60e3c0a3b16e07647b2ff9","5f610132acc60103bf3764c0","false","null","<span style=""color: black; font-size: 48px"">N + M</span>","null","","","","resp_prompt","","","","","","","","","","","","","","","",""
"categorize-image","21","63675","0.0-2.0-2.0-1.5","whg2ddb9fl3gw7o","practice_no_cue","5f0dc0f00f339b057412ac9a","5f60e3c0a3b16e07647b2ff9","5f610132acc60103bf3764c0","true","885.3349999990314","./Stimuli/ImagesPractice/LM143.jpg","76","","","","test","true","N + M","76","","LM","LM143.jpg","forget","old","6","1","start","right","","","",""
"html-keyboard-response","22","64376","0.0-2.0-2.0-0.6","whg2ddb9fl3gw7o","practice_no_cue","5f0dc0f00f339b057412ac9a","5f60e3c0a3b16e07647b2ff9","5f610132acc60103bf3764c0","false","null","<span style=""color: black; font-size: 48px"">N + M</span>","null","","","","resp_prompt","","","","","","","","","","","","","","","",""
"categorize-image","23","65739","0.0-2.0-2.0-1.6","whg2ddb9fl3gw7o","practice_no_cue","5f0dc0f00f339b057412ac9a","5f60e3c0a3b16e07647b2ff9","5f610132acc60103bf3764c0","true","861.8949999945471","./Stimuli/ImagesPractice/SN222.jpg","83","","","","test","true","N + M","83","","SN","SN222.jpg","remember","old","7","1","start","left","","","",""
"html-keyboard-response","24","66440","0.0-2.0-2.0-0.7","whg2ddb9fl3gw7o","practice_no_cue","5f0dc0f00f339b057412ac9a","5f60e3c0a3b16e07647b2ff9","5f610132acc60103bf3764c0","false","null","<span style=""color: black; font-size: 48px"">M + N</span>","null","","","","resp_prompt","","","","","","","","","","","","","","","",""
"categorize-image","25","67915","0.0-2.0-2.0-1.7","whg2ddb9fl3gw7o","practice_no_cue","5f0dc0f00f339b057412ac9a","5f60e3c0a3b16e07647b2ff9","5f610132acc60103bf3764c0","true","973.9750000007916","./Stimuli/ImagesPractice/LM239.jpg","83","","","","test","true","M + N","83","","LM","LM239.jpg","remember","old","8","1","start","left","","","",""
"html-keyboard-response","26","68617","0.0-2.0-2.0-0.8","whg2ddb9fl3gw7o","practice_no_cue","5f0dc0f00f339b057412ac9a","5f60e3c0a3b16e07647b2ff9","5f610132acc60103bf3764c0","false","null","<span style=""color: black; font-size: 48px"">N + M</span>","null","","","","resp_prompt","","","","","","","","","","","","","","","",""
"categorize-image","27","69971","0.0-2.0-2.0-1.8","whg2ddb9fl3gw7o","practice_no_cue","5f0dc0f00f339b057412ac9a","5f60e3c0a3b16e07647b2ff9","5f610132acc60103bf3764c0","true","852.469999997993","./Stimuli/ImagesPractice/SM98.jpg","76","","","","test","true","N + M","76","","SM","SM98.jpg","remember","old","9","1","start","right","","","",""
"html-keyboard-response","28","70672","0.0-2.0-2.0-0.9","whg2ddb9fl3gw7o","practice_no_cue","5f0dc0f00f339b057412ac9a","5f60e3c0a3b16e07647b2ff9","5f610132acc60103bf3764c0","false","null","<span style=""color: black; font-size: 48px"">N + M</span>","null","","","","resp_prompt","","","","","","","","","","","","","","","",""
"categorize-image","29","71995","0.0-2.0-2.0-1.9","whg2ddb9fl3gw7o","practice_no_cue","5f0dc0f00f339b057412ac9a","5f60e3c0a3b16e07647b2ff9","5f610132acc60103bf3764c0","true","822.2499999974389","./Stimuli/ImagesPractice/SN76.jpg","83","","","","test","true","N + M","83","","SN","SN76.jpg","forget","old","10","1","start","left","","","",""
"html-keyboard-response","30","72697","0.0-2.0-2.0-0.10","whg2ddb9fl3gw7o","practice_no_cue","5f0dc0f00f339b057412ac9a","5f60e3c0a3b16e07647b2ff9","5f610132acc60103bf3764c0","false","null","<span style=""color: black; font-size: 48px"">M + N</span>","null","","","","resp_prompt","","","","","","","","","","","","","","","",""
"categorize-image","31","74051","0.0-2.0-2.0-1.10","whg2ddb9fl3gw7o","practice_no_cue","5f0dc0f00f339b057412ac9a","5f60e3c0a3b16e07647b2ff9","5f610132acc60103bf3764c0","true","853.0749999990803","./Stimuli/ImagesPractice/SM35.jpg","83","","","","test","true","M + N","83","","SM","SM35.jpg","forget","old","11","1","start","left","","","",""
"html-keyboard-response","32","74752","0.0-2.0-2.0-0.11","whg2ddb9fl3gw7o","practice_no_cue","5f0dc0f00f339b057412ac9a","5f60e3c0a3b16e07647b2ff9","5f610132acc60103bf3764c0","false","null","<span style=""color: black; font-size: 48px"">N + M</span>","null","","","","resp_prompt","","","","","","","","","","","","","","","",""
"categorize-image","33","76299","0.0-2.0-2.0-1.11","whg2ddb9fl3gw7o","practice_no_cue","5f0dc0f00f339b057412ac9a","5f60e3c0a3b16e07647b2ff9","5f610132acc60103bf3764c0","true","1045.975000000908","./Stimuli/ImagesPractice/SM62.jpg","83","","","","test","false","N + M","76","","SM","SM62.jpg","remember","old","12","1","start","left","","","",""
"html-keyboard-response","34","77000","0.0-2.0-2.0-0.12","whg2ddb9fl3gw7o","practice_no_cue","5f0dc0f00f339b057412ac9a","5f60e3c0a3b16e07647b2ff9","5f610132acc60103bf3764c0","false","null","<span style=""color: black; font-size: 48px"">N + M</span>","null","","","","resp_prompt","","","","","","","","","","","","","","","",""
"categorize-image","35","78523","0.0-2.0-2.0-1.12","whg2ddb9fl3gw7o","practice_no_cue","5f0dc0f00f339b057412ac9a","5f60e3c0a3b16e07647b2ff9","5f610132acc60103bf3764c0","true","1022.0899999985704","./Stimuli/ImagesPractice/LN109.jpg","83","","","","test","true","N + M","83","","LN","LN109.jpg","forget","old","13","1","start","left","","","",""
"html-keyboard-response","36","79225","0.0-2.0-2.0-0.13","whg2ddb9fl3gw7o","practice_no_cue","5f0dc0f00f339b057412ac9a","5f60e3c0a3b16e07647b2ff9","5f610132acc60103bf3764c0","false","null","<span style=""color: black; font-size: 48px"">M + N</span>","null","","","","resp_prompt","","","","","","","","","","","","","","","",""
"categorize-image","37","80619","0.0-2.0-2.0-1.13","whg2ddb9fl3gw7o","practice_no_cue","5f0dc0f00f339b057412ac9a","5f60e3c0a3b16e07647b2ff9","5f610132acc60103bf3764c0","true","892.8949999972247","./Stimuli/ImagesPractice/SN205.jpg","76","","","","test","true","M + N","76","","SN","SN205.jpg","forget","old","14","1","start","right","","","",""
"html-keyboard-response","38","81320","0.0-2.0-2.0-0.14","whg2ddb9fl3gw7o","practice_no_cue","5f0dc0f00f339b057412ac9a","5f60e3c0a3b16e07647b2ff9","5f610132acc60103bf3764c0","false","null","<span style=""color: black; font-size: 48px"">N + M</span>","null","","","","resp_prompt","","","","","","","","","","","","","","","",""
"categorize-image","39","82867","0.0-2.0-2.0-1.14","whg2ddb9fl3gw7o","practice_no_cue","5f0dc0f00f339b057412ac9a","5f60e3c0a3b16e07647b2ff9","5f610132acc60103bf3764c0","true","1045.1299999986077","./Stimuli/ImagesPractice/LM147.jpg","76","","","","test","true","N + M","76","","LM","LM147.jpg","forget","old","15","1","start","right","","","",""
"html-keyboard-response","40","83569","0.0-2.0-2.0-0.15","whg2ddb9fl3gw7o","practice_no_cue","5f0dc0f00f339b057412ac9a","5f60e3c0a3b16e07647b2ff9","5f610132acc60103bf3764c0","false","null","<span style=""color: black; font-size: 48px"">M + N</span>","null","","","","resp_prompt","","","","","","","","","","","","","","","",""
"categorize-image","41","84923","0.0-2.0-2.0-1.15","whg2ddb9fl3gw7o","practice_no_cue","5f0dc0f00f339b057412ac9a","5f60e3c0a3b16e07647b2ff9","5f610132acc60103bf3764c0","true","852.1400000026915","./Stimuli/ImagesPractice/SN221.jpg","76","","","","test","true","M + N","76","","SN","SN221.jpg","remember","old","16","1","start","right","","","",""
"html-keyboard-response","42","99871","0.0-2.0-3.0","whg2ddb9fl3gw7o","break","5f0dc0f00f339b057412ac9a","5f60e3c0a3b16e07647b2ff9","5f610132acc60103bf3764c0","false","14946.790000001783","<p style='font-size: 32px;'>Break</><br><br><br><br><br><p style='font-size: 24px;'>In the last block, you committed 2 errors and did not respond in time on 1 trials.
</p><p style='font-size: 24px;'>Try to respond as fast and accurately as possible in the next block as well! </p><p style='font-size: 24px;'>Press SPACE to continue.</p>","32","","","","","","","","","","","","","","","","","","","",""
"html-keyboard-response","43","104126","0.0-2.0-4.0","whg2ddb9fl3gw7o","instructions","5f0dc0f00f339b057412ac9a","5f60e3c0a3b16e07647b2ff9","5f610132acc60103bf3764c0","false","4254.735000002256","<div align=left> Great!<br><br>Are you ready to continue?<br><br>If you want to reread the instructions and redo the practice trials, <br>please press „Z“. <br><br>Press SPACE to CONTINUE with the experiment when you are ready. </div>","32","","","","","","","","","","","","","","","","","","","",""
"html-keyboard-response","44","122446","0.0-3.0-0.0","whg2ddb9fl3gw7o","instructions","5f0dc0f00f339b057412ac9a","5f60e3c0a3b16e07647b2ff9","5f610132acc60103bf3764c0","false","18319.250000000466","<div align=left>Great!<br> <strong>Attention</strong>! You will now receive a second, additional task! <br><br>To this point it was you <strong>first task</strong> to correctly <strong>classify objects</strong>. <br><br>As mentioned in the beginning, we aim to examine how well humans can remember previously learned information.<br>We would like to find out whether our memory improves if we only remember information that is relevant to us. <br><br>Therefore, your <strong>second task</strong> will be to <strong>remember</strong> the pictures you are to categorize. <br> After the learning phase, there will be a memory test phase, in which you will be asked to indicate whether you have seen a picture before or not. <br>Some, but not all pictures shown in the learning phase will appear in the memory test phase.<br>After classifying a picture, you will be told whether you should remember it for the memory test phase or not. <br>Thus, some pictures can be forgotten, whereas others have to be remembered. <br><br>Note: From now on, feedback will only be displayed if you responded incorrectly or not in time.<br><br>Press SPACE to continue.</div>","32","","","","","","","","","","","","","","","","","","","",""
"html-keyboard-response","45","137662","0.0-3.0-1.0","whg2ddb9fl3gw7o","instructions","5f0dc0f00f339b057412ac9a","5f60e3c0a3b16e07647b2ff9","5f610132acc60103bf3764c0","false","15215.51499999623","<div align=left>In the following part, you will thus have to remember only some pictures. <br>Immediately after seeing and classifying the picture, a symbol will be displayed, indicating whether you should remember or forget the previous picture. <br><br>A <span style='color: dodgerblue; font-size: 28px'>O</span> indicates REMEMBER. That means, you have to remember this picture, because it will be tested later. <br><br>A <span style='color: darkorange; font-size:28px'>Ø</span> indicates FORGET. You do not have to remember this picture. <br><br> As you will have to remember a lot of pictures, it will be hard for you to remember all of them. <br>It will put you at an advantage if you instantly forget the pictures you are not asked to remember. <br> This will make it easier for you to remember the pictures that will be tested afterwards. <br><br>Press SPACE to continue.</div>","32","","","","","","","","","","","","","","","","","","","",""
"html-keyboard-response","46","148207","0.0-3.0-2.0","whg2ddb9fl3gw7o","instructions","5f0dc0f00f339b057412ac9a","5f60e3c0a3b16e07647b2ff9","5f610132acc60103bf3764c0","false","10543.314999995346","<div align=left> Now you have the chance to practice both tasks together.<br><br>Remember: <br> <br><li>Please place your index fingers on the <strong>'S'</strong> and <strong>'L'</strong> keys <br>to respond as fast and accurately as possible.</li><li>Every picture can be classified as either mechanical or non-mechanical.</li><li>If you do not respond in time or commit an error, you will receive a corresponding feedback. <br>Please try to respond as <strong> fast </strong> and as <strong> accurately as possible </strong>.</li><li> Please remember only the to-be-remembered <span style='color: dodgerblue; font-size: 28px'>O</span> pictures. <br></li><li> Please minimize distractions and stay focused. </li><br><br>Press SPACE to START</div>","32","","","","","","","","","","","","","","","","","","","",""
"html-keyboard-response","47","148908","0.0-3.0-3.0-0.0","whg2ddb9fl3gw7o","practice_cue","5f0dc0f00f339b057412ac9a","5f60e3c0a3b16e07647b2ff9","5f610132acc60103bf3764c0","false","null","<span style=""color: black; font-size: 48px"">M + N</span>","null","","","","resp_prompt","","","","","","","","","","","","","","","",""
"categorize-image","48","149784","0.0-3.0-3.0-1.0","whg2ddb9fl3gw7o","practice_cue","5f0dc0f00f339b057412ac9a","5f60e3c0a3b16e07647b2ff9","5f610132acc60103bf3764c0","true","873.94000000495","./Stimuli/ImagesPractice/LM55.jpg","76","","","","test","false","M + N","83","","LM","LM55.jpg","remember","old","17","2","practice_forget","right","","","",""
"html-keyboard-response","49","150285","0.0-3.0-3.0-2.0-0.0","whg2ddb9fl3gw7o","practice_cue","5f0dc0f00f339b057412ac9a","5f60e3c0a3b16e07647b2ff9","5f610132acc60103bf3764c0","false","null","<span style=""color: red; font-size: 48px"">Error!</span>","null","","","","feedback","","","","","","","","","","","","","","","",""
"html-keyboard-response","50","152285","0.0-3.0-3.0-3.0","whg2ddb9fl3gw7o","practice_cue","5f0dc0f00f339b057412ac9a","5f60e3c0a3b16e07647b2ff9","5f610132acc60103bf3764c0","false","null","<div style=""align-items: center; display: flex; color: dodgerblue; font-size: 90px""><b>o</b></div>","null","","","","forget_cue","","","","","","","","","","","","","","","",""
"html-keyboard-response","51","152987","0.0-3.0-3.0-0.1","whg2ddb9fl3gw7o","practice_cue","5f0dc0f00f339b057412ac9a","5f60e3c0a3b16e07647b2ff9","5f610132acc60103bf3764c0","false","null","<span style=""color: black; font-size: 48px"">N + M</span>","null","","","","resp_prompt","","","","","","","","","","","","","","","",""
"categorize-image","52","153841","0.0-3.0-3.0-1.1","whg2ddb9fl3gw7o","practice_cue","5f0dc0f00f339b057412ac9a","5f60e3c0a3b16e07647b2ff9","5f610132acc60103bf3764c0","true","850.4699999975855","./Stimuli/ImagesPractice/SN220.jpg","83","","","","test","true","N + M","83","","SN","SN220.jpg","remember","old","18","2","practice_forget","left","","","",""
"html-keyboard-response","53","155842","0.0-3.0-3.0-3.1","whg2ddb9fl3gw7o","practice_cue","5f0dc0f00f339b057412ac9a","5f60e3c0a3b16e07647b2ff9","5f610132acc60103bf3764c0","false","null","<div style=""align-items: center; display: flex; color: dodgerblue; font-size: 90px""><b>o</b></div>","null","","","","forget_cue","","","","","","","","","","","","","","","",""
"html-keyboard-response","54","156544","0.0-3.0-3.0-0.2","whg2ddb9fl3gw7o","practice_cue","5f0dc0f00f339b057412ac9a","5f60e3c0a3b16e07647b2ff9","5f610132acc60103bf3764c0","false","null","<span style=""color: black; font-size: 48px"">N + M</span>","null","","","","resp_prompt","","","","","","","","","","","","","","","",""
"categorize-image","55","157353","0.0-3.0-3.0-1.2","whg2ddb9fl3gw7o","practice_cue","5f0dc0f00f339b057412ac9a","5f60e3c0a3b16e07647b2ff9","5f610132acc60103bf3764c0","true","805.7400000034249","./Stimuli/ImagesPractice/LN109.jpg","76","","","","test","false","N + M","83","","LN","LN109.jpg","forget","old","19","2","practice_forget","right","","","",""
"html-keyboard-response","56","157853","0.0-3.0-3.0-2.2-0.2","whg2ddb9fl3gw7o","practice_cue","5f0dc0f00f339b057412ac9a","5f60e3c0a3b16e07647b2ff9","5f610132acc60103bf3764c0","false","null","<span style=""color: red; font-size: 48px"">Error!</span>","null","","","","feedback","","","","","","","","","","","","","","","",""
"html-keyboard-response","57","159854","0.0-3.0-3.0-3.2","whg2ddb9fl3gw7o","practice_cue","5f0dc0f00f339b057412ac9a","5f60e3c0a3b16e07647b2ff9","5f610132acc60103bf3764c0","false","null","<div style=""align-items: center; display: flex; color: darkorange; font-size: 90px""><b>ø</b></div>","null","","","","forget_cue","","","","","","","","","","","","","","","",""
"html-keyboard-response","58","160556","0.0-3.0-3.0-0.3","whg2ddb9fl3gw7o","practice_cue","5f0dc0f00f339b057412ac9a","5f60e3c0a3b16e07647b2ff9","5f610132acc60103bf3764c0","false","null","<span style=""color: black; font-size: 48px"">M + N</span>","null","","","","resp_prompt","","","","","","","","","","","","","","","",""
"categorize-image","59","161577","0.0-3.0-3.0-1.3","whg2ddb9fl3gw7o","practice_cue","5f0dc0f00f339b057412ac9a","5f60e3c0a3b16e07647b2ff9","5f610132acc60103bf3764c0","true","1017.969999993511","./Stimuli/ImagesPractice/LN17.jpg","76","","","","test","true","M + N","76","","LN","LN17.jpg","forget","old","20","2","practice_forget","right","","","",""
"html-keyboard-response","60","163578","0.0-3.0-3.0-3.3","whg2ddb9fl3gw7o","practice_cue","5f0dc0f00f339b057412ac9a","5f60e3c0a3b16e07647b2ff9","5f610132acc60103bf3764c0","false","null","<div style=""align-items: center; display: flex; color: darkorange; font-size: 90px""><b>ø</b></div>","null","","","","forget_cue","","","","","","","","","","","","","","","",""
"html-keyboard-response","61","164280","0.0-3.0-3.0-0.4","whg2ddb9fl3gw7o","practice_cue","5f0dc0f00f339b057412ac9a","5f60e3c0a3b16e07647b2ff9","5f610132acc60103bf3764c0","false","null","<span style=""color: black; font-size: 48px"">M + N</span>","null","","","","resp_prompt","","","","","","","","","","","","","","","",""
"categorize-image","62","165192","0.0-3.0-3.0-1.4","whg2ddb9fl3gw7o","practice_cue","5f0dc0f00f339b057412ac9a","5f60e3c0a3b16e07647b2ff9","5f610132acc60103bf3764c0","true","910.055000000284","./Stimuli/ImagesPractice/LN4.jpg","76","","","","test","true","M + N","76","","LN","LN4.jpg","remember","old","21","2","practice_forget","right","","","",""
"html-keyboard-response","63","167193","0.0-3.0-3.0-3.4","whg2ddb9fl3gw7o","practice_cue","5f0dc0f00f339b057412ac9a","5f60e3c0a3b16e07647b2ff9","5f610132acc60103bf3764c0","false","null","<div style=""align-items: center; display: flex; color: dodgerblue; font-size: 90px""><b>o</b></div>","null","","","","forget_cue","","","","","","","","","","","","","","","",""
"html-keyboard-response","64","167894","0.0-3.0-3.0-0.5","whg2ddb9fl3gw7o","practice_cue","5f0dc0f00f339b057412ac9a","5f60e3c0a3b16e07647b2ff9","5f610132acc60103bf3764c0","false","null","<span style=""color: black; font-size: 48px"">M + N</span>","null","","","","resp_prompt","","","","","","","","","","","","","","","",""
"categorize-image","65","168706","0.0-3.0-3.0-1.5","whg2ddb9fl3gw7o","practice_cue","5f0dc0f00f339b057412ac9a","5f60e3c0a3b16e07647b2ff9","5f610132acc60103bf3764c0","true","807.8600000008009","./Stimuli/ImagesPractice/SM35.jpg","76","","","","test","false","M + N","83","","SM","SM35.jpg","forget","old","22","2","practice_forget","right","","","",""
"html-keyboard-response","66","169206","0.0-3.0-3.0-2.5-0.5","whg2ddb9fl3gw7o","practice_cue","5f0dc0f00f339b057412ac9a","5f60e3c0a3b16e07647b2ff9","5f610132acc60103bf3764c0","false","null","<span style=""color: red; font-size: 48px"">Error!</span>","null","","","","feedback","","","","","","","","","","","","","","","",""
"html-keyboard-response","67","171208","0.0-3.0-3.0-3.5","whg2ddb9fl3gw7o","practice_cue","5f0dc0f00f339b057412ac9a","5f60e3c0a3b16e07647b2ff9","5f610132acc60103bf3764c0","false","null","<div style=""align-items: center; display: flex; color: darkorange; font-size: 90px""><b>ø</b></div>","null","","","","forget_cue","","","","","","","","","","","","","","","",""
"html-keyboard-response","68","171909","0.0-3.0-3.0-0.6","whg2ddb9fl3gw7o","practice_cue","5f0dc0f00f339b057412ac9a","5f60e3c0a3b16e07647b2ff9","5f610132acc60103bf3764c0","false","null","<span style=""color: black; font-size: 48px"">N + M</span>","null","","","","resp_prompt","","","","","","","","","","","","","","","",""
"categorize-image","69","172745","0.0-3.0-3.0-1.6","whg2ddb9fl3gw7o","practice_cue","5f0dc0f00f339b057412ac9a","5f60e3c0a3b16e07647b2ff9","5f610132acc60103bf3764c0","true","833.1600000019534","./Stimuli/ImagesPractice/SM62.jpg","76","","","","test","true","N + M","76","","SM","SM62.jpg","remember","old","23","2","practice_forget","right","","","",""
"html-keyboard-response","70","174746","0.0-3.0-3.0-3.6","whg2ddb9fl3gw7o","practice_cue","5f0dc0f00f339b057412ac9a","5f60e3c0a3b16e07647b2ff9","5f610132acc60103bf3764c0","false","null","<div style=""align-items: center; display: flex; color: dodgerblue; font-size: 90px""><b>o</b></div>","null","","","","forget_cue","","","","","","","","","","","","","","","",""
"html-keyboard-response","71","175448","0.0-3.0-3.0-0.7","whg2ddb9fl3gw7o","practice_cue","5f0dc0f00f339b057412ac9a","5f60e3c0a3b16e07647b2ff9","5f610132acc60103bf3764c0","false","null","<span style=""color: black; font-size: 48px"">N + M</span>","null","","","","resp_prompt","","","","","","","","","","","","","","","",""
"categorize-image","72","176264","0.0-3.0-3.0-1.7","whg2ddb9fl3gw7o","practice_cue","5f0dc0f00f339b057412ac9a","5f60e3c0a3b16e07647b2ff9","5f610132acc60103bf3764c0","true","814.2250000018976","./Stimuli/ImagesPractice/LM147.jpg","76","","","","test","true","N + M","76","","LM","LM147.jpg","forget","old","24","2","practice_forget","right","","","",""
"html-keyboard-response","73","178265","0.0-3.0-3.0-3.7","whg2ddb9fl3gw7o","practice_cue","5f0dc0f00f339b057412ac9a","5f60e3c0a3b16e07647b2ff9","5f610132acc60103bf3764c0","false","null","<div style=""align-items: center; display: flex; color: darkorange; font-size: 90px""><b>ø</b></div>","null","","","","forget_cue","","","","","","","","","","","","","","","",""
"html-keyboard-response","74","178966","0.0-3.0-3.0-0.8","whg2ddb9fl3gw7o","practice_cue","5f0dc0f00f339b057412ac9a","5f60e3c0a3b16e07647b2ff9","5f610132acc60103bf3764c0","false","null","<span style=""color: black; font-size: 48px"">N + M</span>","null","","","","resp_prompt","","","","","","","","","","","","","","","",""
"categorize-image","75","179776","0.0-3.0-3.0-1.8","whg2ddb9fl3gw7o","practice_cue","5f0dc0f00f339b057412ac9a","5f60e3c0a3b16e07647b2ff9","5f610132acc60103bf3764c0","true","807.9950000028475","./Stimuli/ImagesPractice/SN222.jpg","83","","","","test","true","N + M","83","","SN","SN222.jpg","remember","old","25","2","practice_forget","left","","","",""
"html-keyboard-response","76","181777","0.0-3.0-3.0-3.8","whg2ddb9fl3gw7o","practice_cue","5f0dc0f00f339b057412ac9a","5f60e3c0a3b16e07647b2ff9","5f610132acc60103bf3764c0","false","null","<div style=""align-items: center; display: flex; color: dodgerblue; font-size: 90px""><b>o</b></div>","null","","","","forget_cue","","","","","","","","","","","","","","","",""
"html-keyboard-response","77","182479","0.0-3.0-3.0-0.9","whg2ddb9fl3gw7o","practice_cue","5f0dc0f00f339b057412ac9a","5f60e3c0a3b16e07647b2ff9","5f610132acc60103bf3764c0","false","null","<span style=""color: black; font-size: 48px"">M + N</span>","null","","","","resp_prompt","","","","","","","","","","","","","","","",""
"categorize-image","78","183392","0.0-3.0-3.0-1.9","whg2ddb9fl3gw7o","practice_cue","5f0dc0f00f339b057412ac9a","5f60e3c0a3b16e07647b2ff9","5f610132acc60103bf3764c0","true","910.5600000038976","./Stimuli/ImagesPractice/SN221.jpg","76","","","","test","true","M + N","76","","SN","SN221.jpg","remember","old","26","2","practice_forget","right","","","",""
"html-keyboard-response","79","185393","0.0-3.0-3.0-3.9","whg2ddb9fl3gw7o","practice_cue","5f0dc0f00f339b057412ac9a","5f60e3c0a3b16e07647b2ff9","5f610132acc60103bf3764c0","false","null","<div style=""align-items: center; display: flex; color: dodgerblue; font-size: 90px""><b>o</b></div>","null","","","","forget_cue","","","","","","","","","","","","","","","",""
"html-keyboard-response","80","186094","0.0-3.0-3.0-0.10","whg2ddb9fl3gw7o","practice_cue","5f0dc0f00f339b057412ac9a","5f60e3c0a3b16e07647b2ff9","5f610132acc60103bf3764c0","false","null","<span style=""color: black; font-size: 48px"">M + N</span>","null","","","","resp_prompt","","","","","","","","","","","","","","","",""
"categorize-image","81","187072","0.0-3.0-3.0-1.10","whg2ddb9fl3gw7o","practice_cue","5f0dc0f00f339b057412ac9a","5f60e3c0a3b16e07647b2ff9","5f610132acc60103bf3764c0","true","976.0200000018813","./Stimuli/ImagesPractice/LM239.jpg","83","","","","test","true","M + N","83","","LM","LM239.jpg","remember","old","27","2","practice_forget","left","","","",""
"html-keyboard-response","82","189074","0.0-3.0-3.0-3.10","whg2ddb9fl3gw7o","practice_cue","5f0dc0f00f339b057412ac9a","5f60e3c0a3b16e07647b2ff9","5f610132acc60103bf3764c0","false","null","<div style=""align-items: center; display: flex; color: dodgerblue; font-size: 90px""><b>o</b></div>","null","","","","forget_cue","","","","","","","","","","","","","","","",""
"html-keyboard-response","83","189775","0.0-3.0-3.0-0.11","whg2ddb9fl3gw7o","practice_cue","5f0dc0f00f339b057412ac9a","5f60e3c0a3b16e07647b2ff9","5f610132acc60103bf3764c0","false","null","<span style=""color: black; font-size: 48px"">M + N</span>","null","","","","resp_prompt","","","","","","","","","","","","","","","",""
"categorize-image","84","190728","0.0-3.0-3.0-1.11","whg2ddb9fl3gw7o","practice_cue","5f0dc0f00f339b057412ac9a","5f60e3c0a3b16e07647b2ff9","5f610132acc60103bf3764c0","true","950.7999999987078","./Stimuli/ImagesPractice/SM37.jpg","76","","","","test","false","M + N","83","","SM","SM37.jpg","forget","old","28","2","practice_forget","right","","","",""
"html-keyboard-response","85","191229","0.0-3.0-3.0-2.11-0.11","whg2ddb9fl3gw7o","practice_cue","5f0dc0f00f339b057412ac9a","5f60e3c0a3b16e07647b2ff9","5f610132acc60103bf3764c0","false","null","<span style=""color: red; font-size: 48px"">Error!</span>","null","","","","feedback","","","","","","","","","","","","","","","",""
"html-keyboard-response","86","193230","0.0-3.0-3.0-3.11","whg2ddb9fl3gw7o","practice_cue","5f0dc0f00f339b057412ac9a","5f60e3c0a3b16e07647b2ff9","5f610132acc60103bf3764c0","false","null","<div style=""align-items: center; display: flex; color: darkorange; font-size: 90px""><b>ø</b></div>","null","","","","forget_cue","","","","","","","","","","","","","","","",""
"html-keyboard-response","87","193930","0.0-3.0-3.0-0.12","whg2ddb9fl3gw7o","practice_cue","5f0dc0f00f339b057412ac9a","5f60e3c0a3b16e07647b2ff9","5f610132acc60103bf3764c0","false","null","<span style=""color: black; font-size: 48px"">M + N</span>","null","","","","resp_prompt","","","","","","","","","","","","","","","",""
"categorize-image","88","194642","0.0-3.0-3.0-1.12","whg2ddb9fl3gw7o","practice_cue","5f0dc0f00f339b057412ac9a","5f60e3c0a3b16e07647b2ff9","5f610132acc60103bf3764c0","true","707.4549999961164","./Stimuli/ImagesPractice/SN205.jpg","76","","","","test","true","M + N","76","","SN","SN205.jpg","forget","old","29","2","practice_forget","right","","","",""
"html-keyboard-response","89","196643","0.0-3.0-3.0-3.12","whg2ddb9fl3gw7o","practice_cue","5f0dc0f00f339b057412ac9a","5f60e3c0a3b16e07647b2ff9","5f610132acc60103bf3764c0","false","null","<div style=""align-items: center; display: flex; color: darkorange; font-size: 90px""><b>ø</b></div>","null","","","","forget_cue","","","","","","","","","","","","","","","",""
"html-keyboard-response","90","197345","0.0-3.0-3.0-0.13","whg2ddb9fl3gw7o","practice_cue","5f0dc0f00f339b057412ac9a","5f60e3c0a3b16e07647b2ff9","5f610132acc60103bf3764c0","false","null","<span style=""color: black; font-size: 48px"">N + M</span>","null","","","","resp_prompt","","","","","","","","","","","","","","","",""
"categorize-image","91","198289","0.0-3.0-3.0-1.13","whg2ddb9fl3gw7o","practice_cue","5f0dc0f00f339b057412ac9a","5f60e3c0a3b16e07647b2ff9","5f610132acc60103bf3764c0","true","940.7749999954831","./Stimuli/ImagesPractice/SN76.jpg","83","","","","test","true","N + M","83","","SN","SN76.jpg","forget","old","30","2","practice_forget","left","","","",""
"html-keyboard-response","92","200290","0.0-3.0-3.0-3.13","whg2ddb9fl3gw7o","practice_cue","5f0dc0f00f339b057412ac9a","5f60e3c0a3b16e07647b2ff9","5f610132acc60103bf3764c0","false","null","<div style=""align-items: center; display: flex; color: darkorange; font-size: 90px""><b>ø</b></div>","null","","","","forget_cue","","","","","","","","","","","","","","","",""
"html-keyboard-response","93","200992","0.0-3.0-3.0-0.14","whg2ddb9fl3gw7o","practice_cue","5f0dc0f00f339b057412ac9a","5f60e3c0a3b16e07647b2ff9","5f610132acc60103bf3764c0","false","null","<span style=""color: black; font-size: 48px"">N + M</span>","null","","","","resp_prompt","","","","","","","","","","","","","","","",""
"categorize-image","94","201833","0.0-3.0-3.0-1.14","whg2ddb9fl3gw7o","practice_cue","5f0dc0f00f339b057412ac9a","5f60e3c0a3b16e07647b2ff9","5f610132acc60103bf3764c0","true","837.7749999999651","./Stimuli/ImagesPractice/SM98.jpg","76","","","","test","true","N + M","76","","SM","SM98.jpg","remember","old","31","2","practice_forget","right","","","",""
"html-keyboard-response","95","203835","0.0-3.0-3.0-3.14","whg2ddb9fl3gw7o","practice_cue","5f0dc0f00f339b057412ac9a","5f60e3c0a3b16e07647b2ff9","5f610132acc60103bf3764c0","false","null","<div style=""align-items: center; display: flex; color: dodgerblue; font-size: 90px""><b>o</b></div>","null","","","","forget_cue","","","","","","","","","","","","","","","",""
"html-keyboard-response","96","204537","0.0-3.0-3.0-0.15","whg2ddb9fl3gw7o","practice_cue","5f0dc0f00f339b057412ac9a","5f60e3c0a3b16e07647b2ff9","5f610132acc60103bf3764c0","false","null","<span style=""color: black; font-size: 48px"">N + M</span>","null","","","","resp_prompt","","","","","","","","","","","","","","","",""
"categorize-image","97","205408","0.0-3.0-3.0-1.15","whg2ddb9fl3gw7o","practice_cue","5f0dc0f00f339b057412ac9a","5f60e3c0a3b16e07647b2ff9","5f610132acc60103bf3764c0","true","869.1900000048918","./Stimuli/ImagesPractice/LM143.jpg","83","","","","test","false","N + M","76","","LM","LM143.jpg","forget","old","32","2","practice_forget","left","","","",""
"html-keyboard-response","98","205910","0.0-3.0-3.0-2.15-0.15","whg2ddb9fl3gw7o","practice_cue","5f0dc0f00f339b057412ac9a","5f60e3c0a3b16e07647b2ff9","5f610132acc60103bf3764c0","false","null","<span style=""color: red; font-size: 48px"">Error!</span>","null","","","","feedback","","","","","","","","","","","","","","","",""
"html-keyboard-response","99","207911","0.0-3.0-3.0-3.15","whg2ddb9fl3gw7o","practice_cue","5f0dc0f00f339b057412ac9a","5f60e3c0a3b16e07647b2ff9","5f610132acc60103bf3764c0","false","null","<div style=""align-items: center; display: flex; color: darkorange; font-size: 90px""><b>ø</b></div>","null","","","","forget_cue","","","","","","","","","","","","","","","",""
"html-keyboard-response","100","215334","0.0-3.0-4.0","whg2ddb9fl3gw7o","break","5f0dc0f00f339b057412ac9a","5f60e3c0a3b16e07647b2ff9","5f610132acc60103bf3764c0","false","7423.090000003867","<p style='font-size: 32px;'>Break</><br><br><br><br><br><p style='font-size: 24px;'>In the last block, you committed 5 errors and did not respond in time on 0 trials.
</p><p style='font-size: 24px;'>Try to respond as fast and accurately as possible in the next block as well! </p><p style='font-size: 24px;'>Press SPACE to continue.</p>","32","","","","","","","","","","","","","","","","","","","",""
"html-keyboard-response","101","232247","0.0-3.0-5.0","whg2ddb9fl3gw7o","instructions","5f0dc0f00f339b057412ac9a","5f60e3c0a3b16e07647b2ff9","5f610132acc60103bf3764c0","false","16911.54000000097","<div align=left> Now, to practice, we kindly ask you to remember as many of the to-be-remembered pictures<br>of the previous learning phase as possible.<br><br>The pictures you were instructed to remember were the pictures followed by a <span style='color: dodgerblue; font-size: 28px'>O</span>.<br><br>In this memory test phase, you will also see some new pictures.<br>It is your task to remember whether you were presented with this specific picture in this study so far or not.<br>If you recognize an object (you have already seen it in this study), it is an OLD object. <br>If you do not recognize an object (you have NOT seen it in this study), it is a NEW object. <br><strong> Attention</strong>: As already mentioned, <span style='color: darkorange; font-size:28px'>Ø</span>-pictures will <strong>never</strong> appear in this memory test (neither as new objects). <br><br>Press SPACE to continue. </div>","32","","","","","","","","","","","","","","","","","","","",""
"html-keyboard-response","102","252375","0.0-3.0-6.0","whg2ddb9fl3gw7o","instructions","5f0dc0f00f339b057412ac9a","5f60e3c0a3b16e07647b2ff9","5f610132acc60103bf3764c0","false","20127.31000000349","<div align=left> M and N no longer will appear on the left/right of the fixation cross. <br>Instead there will be a note at the bottom of the left or right side  <br>indicating which key you should press for an old or new object:  <br> <br>Press the <strong>right</strong> key to classify an object as <strong>old</strong> and press the <strong>left</strong>, to classify an object as <strong>new</strong>.<br>Please classify the objects as new/old by again placing your index finger on the 'S' and 'L' keys <br>and press them accordingly.<br><br><strong>Old:</strong> This object has been presented before. <br><strong>New:</strong> This object has <strong>not</strong> been presented.<br><br>Now please put your right and left index fingers on the 'S' and 'L' keys of your keyboard. <br>Please respond as fast and as accurately as possible!<br><br>Press SPACE to continue. </div>","32","","","","","","","","","","","","","","","","","","","",""
"categorize-image","103","255419","0.0-3.0-7.0-0.0","whg2ddb9fl3gw7o","practice_recog","5f0dc0f00f339b057412ac9a","5f60e3c0a3b16e07647b2ff9","5f610132acc60103bf3764c0","true","2542.764999998326","./Stimuli/ImagesPractice/SM62.jpg","83","","","","test","true","","83","","SM","SM62.jpg","","old","33","3","practice_recog","left","","","",""
"categorize-image","104","257076","0.0-3.0-7.0-0.1","whg2ddb9fl3gw7o","practice_recog","5f0dc0f00f339b057412ac9a","5f60e3c0a3b16e07647b2ff9","5f610132acc60103bf3764c0","true","1154.4050000011339","./Stimuli/ImagesPractice/LN4.jpg","83","","","","test","true","","83","","LN","LN4.jpg","","old","34","3","practice_recog","left","","","",""
"categorize-image","105","258451","0.0-3.0-7.0-0.2","whg2ddb9fl3gw7o","practice_recog","5f0dc0f00f339b057412ac9a","5f60e3c0a3b16e07647b2ff9","5f610132acc60103bf3764c0","true","874.085000003106","./Stimuli/ImagesPractice/LM230.jpg","83","","","","test","false","","76","","LM","LM230.jpg","","new","35","3","practice_recog","left","","","",""
"categorize-image","106","259643","0.0-3.0-7.0-0.3","whg2ddb9fl3gw7o","practice_recog","5f0dc0f00f339b057412ac9a","5f60e3c0a3b16e07647b2ff9","5f610132acc60103bf3764c0","true","690.2600000030361","./Stimuli/ImagesPractice/SN220.jpg","83","","","","test","true","","83","","SN","SN220.jpg","","old","36","3","practice_recog","left","","","",""
"categorize-image","107","260939","0.0-3.0-7.0-0.4","whg2ddb9fl3gw7o","practice_recog","5f0dc0f00f339b057412ac9a","5f60e3c0a3b16e07647b2ff9","5f610132acc60103bf3764c0","true","794.8099999994156","./Stimuli/ImagesPractice/LN72.jpg","76","","","","test","true","","76","","LN","LN72.jpg","","new","37","3","practice_recog","right","","","",""
"categorize-image","108","262587","0.0-3.0-7.0-0.5","whg2ddb9fl3gw7o","practice_recog","5f0dc0f00f339b057412ac9a","5f60e3c0a3b16e07647b2ff9","5f610132acc60103bf3764c0","true","1146.7249999986961","./Stimuli/ImagesPractice/SM61.jpg","76","","","","test","true","","76","","SM","SM61.jpg","","new","38","3","practice_recog","right","","","",""
"categorize-image","109","264340","0.0-3.0-7.0-0.6","whg2ddb9fl3gw7o","practice_recog","5f0dc0f00f339b057412ac9a","5f60e3c0a3b16e07647b2ff9","5f610132acc60103bf3764c0","true","1251.620000002731","./Stimuli/ImagesPractice/LM55.jpg","83","","","","test","true","","83","","LM","LM55.jpg","","old","39","3","practice_recog","left","","","",""
"categorize-image","110","266315","0.0-3.0-7.0-0.7","whg2ddb9fl3gw7o","practice_recog","5f0dc0f00f339b057412ac9a","5f60e3c0a3b16e07647b2ff9","5f610132acc60103bf3764c0","true","1473.4950000056415","./Stimuli/ImagesPractice/LM239.jpg","83","","","","test","true","","83","","LM","LM239.jpg","","old","40","3","practice_recog","left","","","",""
"categorize-image","111","267755","0.0-3.0-7.0-0.8","whg2ddb9fl3gw7o","practice_recog","5f0dc0f00f339b057412ac9a","5f60e3c0a3b16e07647b2ff9","5f610132acc60103bf3764c0","true","938.6349999986123","./Stimuli/ImagesPractice/SN75.jpg","76","","","","test","true","","76","","SN","SN75.jpg","","new","41","3","practice_recog","right","","","",""
"categorize-image","112","268995","0.0-3.0-7.0-0.9","whg2ddb9fl3gw7o","practice_recog","5f0dc0f00f339b057412ac9a","5f60e3c0a3b16e07647b2ff9","5f610132acc60103bf3764c0","true","738.2900000011432","./Stimuli/ImagesPractice/LN15.jpg","76","","","","test","true","","76","","LN","LN15.jpg","","new","42","3","practice_recog","right","","","",""
"categorize-image","113","270075","0.0-3.0-7.0-0.10","whg2ddb9fl3gw7o","practice_recog","5f0dc0f00f339b057412ac9a","5f60e3c0a3b16e07647b2ff9","5f610132acc60103bf3764c0","true","578.204999997979","./Stimuli/ImagesPractice/SM98.jpg","83","","","","test","true","","83","","SM","SM98.jpg","","old","43","3","practice_recog","left","","","",""
"categorize-image","114","271299","0.0-3.0-7.0-0.11","whg2ddb9fl3gw7o","practice_recog","5f0dc0f00f339b057412ac9a","5f60e3c0a3b16e07647b2ff9","5f610132acc60103bf3764c0","true","722.314999999071","./Stimuli/ImagesPractice/SM97.jpg","76","","","","test","true","","76","","SM","SM97.jpg","","new","44","3","practice_recog","right","","","",""
"categorize-image","115","272331","0.0-3.0-7.0-0.12","whg2ddb9fl3gw7o","practice_recog","5f0dc0f00f339b057412ac9a","5f60e3c0a3b16e07647b2ff9","5f610132acc60103bf3764c0","true","530.1299999991897","./Stimuli/ImagesPractice/LN2.jpg","76","","","","test","true","","76","","LN","LN2.jpg","","new","45","3","practice_recog","right","","","",""
"categorize-image","116","273427","0.0-3.0-7.0-0.13","whg2ddb9fl3gw7o","practice_recog","5f0dc0f00f339b057412ac9a","5f60e3c0a3b16e07647b2ff9","5f610132acc60103bf3764c0","true","594.3149999948218","./Stimuli/ImagesPractice/LM224.jpg","76","","","","test","true","","76","","LM","LM224.jpg","","new","46","3","practice_recog","right","","","",""
"categorize-image","117","274627","0.0-3.0-7.0-0.14","whg2ddb9fl3gw7o","practice_recog","5f0dc0f00f339b057412ac9a","5f60e3c0a3b16e07647b2ff9","5f610132acc60103bf3764c0","true","698.2999999963795","./Stimuli/ImagesPractice/SN221.jpg","83","","","","test","true","","83","","SN","SN221.jpg","","old","47","3","practice_recog","left","","","",""
"categorize-image","118","275747","0.0-3.0-7.0-0.15","whg2ddb9fl3gw7o","practice_recog","5f0dc0f00f339b057412ac9a","5f60e3c0a3b16e07647b2ff9","5f610132acc60103bf3764c0","true","618.174999995972","./Stimuli/ImagesPractice/SN222.jpg","83","","","","test","true","","83","","SN","SN222.jpg","","old","48","3","practice_recog","left","","","",""
"html-keyboard-response","119","277014","0.0-3.0-8.0","whg2ddb9fl3gw7o","instructions","5f0dc0f00f339b057412ac9a","5f60e3c0a3b16e07647b2ff9","5f610132acc60103bf3764c0","false","1267.070000001695","<div align=left> Great!<br><br>Are you ready to continue?<br>If you want to reread the instructions and redo the practice trials, please <br>press „Z“.<br><br>You can proceed when you are ready.<br><br>After the presentation of each object, you will receive an instruction whether to <br>remember or to forget the object.<br>We will test your memory of the following pictures only at the very end of <br>the experiment after all learning blocks are completed. <br><br>Press SPACE to CONTINUE when you are ready. </div>","32","","","","","","","","","","","","","","","","","","","",""
"html-keyboard-response","120","278262","0.0-4.0-0.0","whg2ddb9fl3gw7o","instructions","5f0dc0f00f339b057412ac9a","5f60e3c0a3b16e07647b2ff9","5f610132acc60103bf3764c0","false","1247.3750000062864","<div align=left> The actual experiment is about to start.<br>The practice trials are over!<br><br>Please always respond both fast and accurately!<br><br>Remember: <br> <br><li> Please place your index fingers on the <strong>'S'</strong> and <strong>'L'</strong> keys <br>to respond as fast and accurately as possible.</li><li> Every picture can be classified as either mechanical or non-mechanical.</li><li> If you do not respond in time or commit an error, you will receive a corresponding feedback.<br> Please try to respond as <strong> fast </strong> and as <strong> accurately as possible </strong>.</li><li> Remember the <span style='color: dodgerblue; font-size: 28px'>O</span> pictures. <br></li><li> Please minimize distractions and stay focused. </li><br><br>Press SPACE to START.</div>","32","","","","","","","","","","","","","","","","","","","",""
"html-keyboard-response","121","278963","0.0-4.0-1.0-0.0","whg2ddb9fl3gw7o","prime","5f0dc0f00f339b057412ac9a","5f60e3c0a3b16e07647b2ff9","5f610132acc60103bf3764c0","false","null","<span style=""color: black; font-size: 48px"">N + M</span>","null","","","","resp_prompt","","","","","","","","","","","","","","","",""
"categorize-image","122","279800","0.0-4.0-1.0-1.0","whg2ddb9fl3gw7o","prime","5f0dc0f00f339b057412ac9a","5f60e3c0a3b16e07647b2ff9","5f610132acc60103bf3764c0","true","834.0850000022328","./Stimuli/SelectedImages/LN/LN28.bmp","76","","","","test","false","N + M","83","repetition","LN","LN28.bmp","forget","","49","3","prime1","right","","","",""
"html-keyboard-response","123","280302","0.0-4.0-1.0-2.0-0.0","whg2ddb9fl3gw7o","prime","5f0dc0f00f339b057412ac9a","5f60e3c0a3b16e07647b2ff9","5f610132acc60103bf3764c0","false","null","<span style=""color: red; font-size: 48px"">Error!</span>","null","","","","feedback","","","","","","","","","","","","","","","",""
"html-keyboard-response","124","282303","0.0-4.0-1.0-3.0","whg2ddb9fl3gw7o","prime","5f0dc0f00f339b057412ac9a","5f60e3c0a3b16e07647b2ff9","5f610132acc60103bf3764c0","false","null","<div style=""align-items: center; display: flex; color: darkorange; font-size: 90px""><b>ø</b></div>","null","","","","forget_cue","","","","","","","","","","","","","","","",""
"html-keyboard-response","125","283004","0.0-4.0-1.0-0.1","whg2ddb9fl3gw7o","prime","5f0dc0f00f339b057412ac9a","5f60e3c0a3b16e07647b2ff9","5f610132acc60103bf3764c0","false","null","<span style=""color: black; font-size: 48px"">M + N</span>","null","","","","resp_prompt","","","","","","","","","","","","","","","",""
"categorize-image","126","284008","0.0-4.0-1.0-1.1","whg2ddb9fl3gw7o","prime","5f0dc0f00f339b057412ac9a","5f60e3c0a3b16e07647b2ff9","5f610132acc60103bf3764c0","true","1001.1500000036904","./Stimuli/SelectedImages/SN/SN179.bmp","83","","","","test","false","M + N","76","switch","SN","SN179.bmp","remember","","50","3","prime1","left","","","",""
"html-keyboard-response","127","284509","0.0-4.0-1.0-2.1-0.1","whg2ddb9fl3gw7o","prime","5f0dc0f00f339b057412ac9a","5f60e3c0a3b16e07647b2ff9","5f610132acc60103bf3764c0","false","null","<span style=""color: red; font-size: 48px"">Error!</span>","null","","","","feedback","","","","","","","","","","","","","","","",""
"html-keyboard-response","128","286510","0.0-4.0-1.0-3.1","whg2ddb9fl3gw7o","prime","5f0dc0f00f339b057412ac9a","5f60e3c0a3b16e07647b2ff9","5f610132acc60103bf3764c0","false","null","<div style=""align-items: center; display: flex; color: dodgerblue; font-size: 90px""><b>o</b></div>","null","","","","forget_cue","","","","","","","","","","","","","","","",""
"html-keyboard-response","129","287211","0.0-4.0-1.0-0.2","whg2ddb9fl3gw7o","prime","5f0dc0f00f339b057412ac9a","5f60e3c0a3b16e07647b2ff9","5f610132acc60103bf3764c0","false","null","<span style=""color: black; font-size: 48px"">N + M</span>","null","","","","resp_prompt","","","","","","","","","","","","","","","",""
"categorize-image","130","288976","0.0-4.0-1.0-1.2","whg2ddb9fl3gw7o","prime","5f0dc0f00f339b057412ac9a","5f60e3c0a3b16e07647b2ff9","5f610132acc60103bf3764c0","true","1763.1750000000466","./Stimuli/SelectedImages/LN/LN177.bmp","83","","","","test","true","N + M","83","repetition","LN","LN177.bmp","remember","","51","3","prime1","left","","","",""
"html-keyboard-response","131","290977","0.0-4.0-1.0-3.2","whg2ddb9fl3gw7o","prime","5f0dc0f00f339b057412ac9a","5f60e3c0a3b16e07647b2ff9","5f610132acc60103bf3764c0","false","null","<div style=""align-items: center; display: flex; color: dodgerblue; font-size: 90px""><b>o</b></div>","null","","","","forget_cue","","","","","","","","","","","","","","","",""
"html-keyboard-response","132","291678","0.0-4.0-1.0-0.3","whg2ddb9fl3gw7o","prime","5f0dc0f00f339b057412ac9a","5f60e3c0a3b16e07647b2ff9","5f610132acc60103bf3764c0","false","null","<span style=""color: black; font-size: 48px"">M + N</span>","null","","","","resp_prompt","","","","","","","","","","","","","","","",""
"categorize-image","133","293224","0.0-4.0-1.0-1.3","whg2ddb9fl3gw7o","prime","5f0dc0f00f339b057412ac9a","5f60e3c0a3b16e07647b2ff9","5f610132acc60103bf3764c0","true","1542.9999999978463","./Stimuli/SelectedImages/LM/LM179.bmp","83","","","","test","true","M + N","83","switch","LM","LM179.bmp","remember","","52","3","prime1","left","","","",""
"html-keyboard-response","134","295225","0.0-4.0-1.0-3.3","whg2ddb9fl3gw7o","prime","5f0dc0f00f339b057412ac9a","5f60e3c0a3b16e07647b2ff9","5f610132acc60103bf3764c0","false","null","<div style=""align-items: center; display: flex; color: dodgerblue; font-size: 90px""><b>o</b></div>","null","","","","forget_cue","","","","","","","","","","","","","","","",""
"html-keyboard-response","135","295926","0.0-4.0-1.0-0.4","whg2ddb9fl3gw7o","prime","5f0dc0f00f339b057412ac9a","5f60e3c0a3b16e07647b2ff9","5f610132acc60103bf3764c0","false","null","<span style=""color: black; font-size: 48px"">N + M</span>","null","","","","resp_prompt","","","","","","","","","","","","","","","",""
"categorize-image","136","297264","0.0-4.0-1.0-1.4","whg2ddb9fl3gw7o","prime","5f0dc0f00f339b057412ac9a","5f60e3c0a3b16e07647b2ff9","5f610132acc60103bf3764c0","true","1335.7749999995576","./Stimuli/SelectedImages/SN/SN187.bmp","83","","","","test","true","N + M","83","switch","SN","SN187.bmp","remember","","53","3","prime1","left","","","",""
"html-keyboard-response","137","299265","0.0-4.0-1.0-3.4","whg2ddb9fl3gw7o","prime","5f0dc0f00f339b057412ac9a","5f60e3c0a3b16e07647b2ff9","5f610132acc60103bf3764c0","false","null","<div style=""align-items: center; display: flex; color: dodgerblue; font-size: 90px""><b>o</b></div>","null","","","","forget_cue","","","","","","","","","","","","","","","",""
"html-keyboard-response","138","299967","0.0-4.0-1.0-0.5","whg2ddb9fl3gw7o","prime","5f0dc0f00f339b057412ac9a","5f60e3c0a3b16e07647b2ff9","5f610132acc60103bf3764c0","false","null","<span style=""color: black; font-size: 48px"">N + M</span>","null","","","","resp_prompt","","","","","","","","","","","","","","","",""
"categorize-image","139","301416","0.0-4.0-1.0-1.5","whg2ddb9fl3gw7o","prime","5f0dc0f00f339b057412ac9a","5f60e3c0a3b16e07647b2ff9","5f610132acc60103bf3764c0","true","1446.4399999997113","./Stimuli/SelectedImages/LM/LM59.bmp","76","","","","test","true","N + M","76","repetition","LM","LM59.bmp","forget","","54","3","prime1","right","","","",""
"html-keyboard-response","140","303417","0.0-4.0-1.0-3.5","whg2ddb9fl3gw7o","prime","5f0dc0f00f339b057412ac9a","5f60e3c0a3b16e07647b2ff9","5f610132acc60103bf3764c0","false","null","<div style=""align-items: center; display: flex; color: darkorange; font-size: 90px""><b>ø</b></div>","null","","","","forget_cue","","","","","","","","","","","","","","","",""
"html-keyboard-response","141","304118","0.0-4.0-1.0-0.6","whg2ddb9fl3gw7o","prime","5f0dc0f00f339b057412ac9a","5f60e3c0a3b16e07647b2ff9","5f610132acc60103bf3764c0","false","null","<span style=""color: black; font-size: 48px"">N + M</span>","null","","","","resp_prompt","","","","","","","","","","","","","","","",""
"categorize-image","142","305640","0.0-4.0-1.0-1.6","whg2ddb9fl3gw7o","prime","5f0dc0f00f339b057412ac9a","5f60e3c0a3b16e07647b2ff9","5f610132acc60103bf3764c0","true","1519.7300000072573","./Stimuli/SelectedImages/SM/SM195.bmp","76","","","","test","true","N + M","76","switch","SM","SM195.bmp","remember","","55","3","prime1","right","","","",""
"html-keyboard-response","143","307641","0.0-4.0-1.0-3.6","whg2ddb9fl3gw7o","prime","5f0dc0f00f339b057412ac9a","5f60e3c0a3b16e07647b2ff9","5f610132acc60103bf3764c0","false","null","<div style=""align-items: center; display: flex; color: dodgerblue; font-size: 90px""><b>o</b></div>","null","","","","forget_cue","","","","","","","","","","","","","","","",""
"html-keyboard-response","144","308342","0.0-4.0-1.0-0.7","whg2ddb9fl3gw7o","prime","5f0dc0f00f339b057412ac9a","5f60e3c0a3b16e07647b2ff9","5f610132acc60103bf3764c0","false","null","<span style=""color: black; font-size: 48px"">N + M</span>","null","","","","resp_prompt","","","","","","","","","","","","","","","",""
"categorize-image","145","309424","0.0-4.0-1.0-1.7","whg2ddb9fl3gw7o","prime","5f0dc0f00f339b057412ac9a","5f60e3c0a3b16e07647b2ff9","5f610132acc60103bf3764c0","true","1079.5750000033877","./Stimuli/SelectedImages/SM/SM200.bmp","76","","","","test","true","N + M","76","switch","SM","SM200.bmp","forget","","56","3","prime1","right","","","",""
"html-keyboard-response","146","311426","0.0-4.0-1.0-3.7","whg2ddb9fl3gw7o","prime","5f0dc0f00f339b057412ac9a","5f60e3c0a3b16e07647b2ff9","5f610132acc60103bf3764c0","false","null","<div style=""align-items: center; display: flex; color: darkorange; font-size: 90px""><b>ø</b></div>","null","","","","forget_cue","","","","","","","","","","","","","","","",""
"html-keyboard-response","147","312127","0.0-4.0-1.0-0.8","whg2ddb9fl3gw7o","prime","5f0dc0f00f339b057412ac9a","5f60e3c0a3b16e07647b2ff9","5f610132acc60103bf3764c0","false","null","<span style=""color: black; font-size: 48px"">N + M</span>","null","","","","resp_prompt","","","","","","","","","","","","","","","",""
"categorize-image","148","313752","0.0-4.0-1.0-1.8","whg2ddb9fl3gw7o","prime","5f0dc0f00f339b057412ac9a","5f60e3c0a3b16e07647b2ff9","5f610132acc60103bf3764c0","true","1622.510000001057","./Stimuli/SelectedImages/LN/LN59.bmp","83","","","","test","true","N + M","83","switch","LN","LN59.bmp","forget","","57","3","prime1","left","","","",""
"html-keyboard-response","149","315753","0.0-4.0-1.0-3.8","whg2ddb9fl3gw7o","prime","5f0dc0f00f339b057412ac9a","5f60e3c0a3b16e07647b2ff9","5f610132acc60103bf3764c0","false","null","<div style=""align-items: center; display: flex; color: darkorange; font-size: 90px""><b>ø</b></div>","null","","","","forget_cue","","","","","","","","","","","","","","","",""
"html-keyboard-response","150","316453","0.0-4.0-1.0-0.9","whg2ddb9fl3gw7o","prime","5f0dc0f00f339b057412ac9a","5f60e3c0a3b16e07647b2ff9","5f610132acc60103bf3764c0","false","null","<span style=""color: black; font-size: 48px"">M + N</span>","null","","","","resp_prompt","","","","","","","","","","","","","","","",""
"categorize-image","151","317896","0.0-4.0-1.0-1.9","whg2ddb9fl3gw7o","prime","5f0dc0f00f339b057412ac9a","5f60e3c0a3b16e07647b2ff9","5f610132acc60103bf3764c0","true","1440.2250000057393","./Stimuli/SelectedImages/LN/LN82.bmp","83","","","","test","false","M + N","76","repetition","LN","LN82.bmp","forget","","58","3","prime1","left","","","",""
"html-keyboard-response","152","318396","0.0-4.0-1.0-2.9-0.9","whg2ddb9fl3gw7o","prime","5f0dc0f00f339b057412ac9a","5f60e3c0a3b16e07647b2ff9","5f610132acc60103bf3764c0","false","null","<span style=""color: red; font-size: 48px"">Error!</span>","null","","","","feedback","","","","","","","","","","","","","","","",""
"html-keyboard-response","153","320397","0.0-4.0-1.0-3.9","whg2ddb9fl3gw7o","prime","5f0dc0f00f339b057412ac9a","5f60e3c0a3b16e07647b2ff9","5f610132acc60103bf3764c0","false","null","<div style=""align-items: center; display: flex; color: darkorange; font-size: 90px""><b>ø</b></div>","null","","","","forget_cue","","","","","","","","","","","","","","","",""
"html-keyboard-response","154","321098","0.0-4.0-1.0-0.10","whg2ddb9fl3gw7o","prime","5f0dc0f00f339b057412ac9a","5f60e3c0a3b16e07647b2ff9","5f610132acc60103bf3764c0","false","null","<span style=""color: black; font-size: 48px"">N + M</span>","null","","","","resp_prompt","","","","","","","","","","","","","","","",""
"categorize-image","155","322560","0.0-4.0-1.0-1.10","whg2ddb9fl3gw7o","prime","5f0dc0f00f339b057412ac9a","5f60e3c0a3b16e07647b2ff9","5f610132acc60103bf3764c0","true","1459.275000001071","./Stimuli/SelectedImages/SM/SM73.bmp","76","","","","test","true","N + M","76","repetition","SM","SM73.bmp","remember","","59","3","prime1","right","","","",""
"html-keyboard-response","156","324561","0.0-4.0-1.0-3.10","whg2ddb9fl3gw7o","prime","5f0dc0f00f339b057412ac9a","5f60e3c0a3b16e07647b2ff9","5f610132acc60103bf3764c0","false","null","<div style=""align-items: center; display: flex; color: dodgerblue; font-size: 90px""><b>o</b></div>","null","","","","forget_cue","","","","","","","","","","","","","","","",""
"html-keyboard-response","157","325263","0.0-4.0-1.0-0.11","whg2ddb9fl3gw7o","prime","5f0dc0f00f339b057412ac9a","5f60e3c0a3b16e07647b2ff9","5f610132acc60103bf3764c0","false","null","<span style=""color: black; font-size: 48px"">N + M</span>","null","","","","resp_prompt","","","","","","","","","","","","","","","",""
"categorize-image","158","326160","0.0-4.0-1.0-1.11","whg2ddb9fl3gw7o","prime","5f0dc0f00f339b057412ac9a","5f60e3c0a3b16e07647b2ff9","5f610132acc60103bf3764c0","true","895.1299999971525","./Stimuli/SelectedImages/LN/LN111.bmp","83","","","","test","true","N + M","83","switch","LN","LN111.bmp","remember","","60","3","prime1","left","","","",""
"html-keyboard-response","159","328161","0.0-4.0-1.0-3.11","whg2ddb9fl3gw7o","prime","5f0dc0f00f339b057412ac9a","5f60e3c0a3b16e07647b2ff9","5f610132acc60103bf3764c0","false","null","<div style=""align-items: center; display: flex; color: dodgerblue; font-size: 90px""><b>o</b></div>","null","","","","forget_cue","","","","","","","","","","","","","","","",""
"html-keyboard-response","160","328863","0.0-4.0-1.0-0.12","whg2ddb9fl3gw7o","prime","5f0dc0f00f339b057412ac9a","5f60e3c0a3b16e07647b2ff9","5f610132acc60103bf3764c0","false","null","<span style=""color: black; font-size: 48px"">N + M</span>","null","","","","resp_prompt","","","","","","","","","","","","","","","",""
"categorize-image","161","330168","0.0-4.0-1.0-1.12","whg2ddb9fl3gw7o","prime","5f0dc0f00f339b057412ac9a","5f60e3c0a3b16e07647b2ff9","5f610132acc60103bf3764c0","true","1302.4349999977858","./Stimuli/SelectedImages/LM/LM48.bmp","76","","","","test","true","N + M","76","repetition","LM","LM48.bmp","remember","","61","3","prime1","right","","","",""
"html-keyboard-response","162","332169","0.0-4.0-1.0-3.12","whg2ddb9fl3gw7o","prime","5f0dc0f00f339b057412ac9a","5f60e3c0a3b16e07647b2ff9","5f610132acc60103bf3764c0","false","null","<div style=""align-items: center; display: flex; color: dodgerblue; font-size: 90px""><b>o</b></div>","null","","","","forget_cue","","","","","","","","","","","","","","","",""
"html-keyboard-response","163","332870","0.0-4.0-1.0-0.13","whg2ddb9fl3gw7o","prime","5f0dc0f00f339b057412ac9a","5f60e3c0a3b16e07647b2ff9","5f610132acc60103bf3764c0","false","null","<span style=""color: black; font-size: 48px"">M + N</span>","null","","","","resp_prompt","","","","","","","","","","","","","","","",""
"categorize-image","164","333728","0.0-4.0-1.0-1.13","whg2ddb9fl3gw7o","prime","5f0dc0f00f339b057412ac9a","5f60e3c0a3b16e07647b2ff9","5f610132acc60103bf3764c0","true","856.3649999996414","./Stimuli/SelectedImages/LM/LM129.bmp","83","","","","test","true","M + N","83","repetition","LM","LM129.bmp","forget","","62","3","prime1","left","","","",""
"html-keyboard-response","165","335730","0.0-4.0-1.0-3.13","whg2ddb9fl3gw7o","prime","5f0dc0f00f339b057412ac9a","5f60e3c0a3b16e07647b2ff9","5f610132acc60103bf3764c0","false","null","<div style=""align-items: center; display: flex; color: darkorange; font-size: 90px""><b>ø</b></div>","null","","","","forget_cue","","","","","","","","","","","","","","","",""
"html-keyboard-response","166","336431","0.0-4.0-1.0-0.14","whg2ddb9fl3gw7o","prime","5f0dc0f00f339b057412ac9a","5f60e3c0a3b16e07647b2ff9","5f610132acc60103bf3764c0","false","null","<span style=""color: black; font-size: 48px"">M + N</span>","null","","","","resp_prompt","","","","","","","","","","","","","","","",""
"categorize-image","167","337104","0.0-4.0-1.0-1.14","whg2ddb9fl3gw7o","prime","5f0dc0f00f339b057412ac9a","5f60e3c0a3b16e07647b2ff9","5f610132acc60103bf3764c0","true","671.3400000007823","./Stimuli/SelectedImages/LM/LM100.bmp","83","","","","test","true","M + N","83","repetition","LM","LM100.bmp","remember","","63","3","prime1","left","","","",""
"html-keyboard-response","168","339106","0.0-4.0-1.0-3.14","whg2ddb9fl3gw7o","prime","5f0dc0f00f339b057412ac9a","5f60e3c0a3b16e07647b2ff9","5f610132acc60103bf3764c0","false","null","<div style=""align-items: center; display: flex; color: dodgerblue; font-size: 90px""><b>o</b></div>","null","","","","forget_cue","","","","","","","","","","","","","","","",""
"html-keyboard-response","169","339806","0.0-4.0-1.0-0.15","whg2ddb9fl3gw7o","prime","5f0dc0f00f339b057412ac9a","5f60e3c0a3b16e07647b2ff9","5f610132acc60103bf3764c0","false","null","<span style=""color: black; font-size: 48px"">N + M</span>","null","","","","resp_prompt","","","","","","","","","","","","","","","",""
"categorize-image","170","341048","0.0-4.0-1.0-1.15","whg2ddb9fl3gw7o","prime","5f0dc0f00f339b057412ac9a","5f60e3c0a3b16e07647b2ff9","5f610132acc60103bf3764c0","true","1239.6700000026613","./Stimuli/SelectedImages/LM/LM75.bmp","83","","","","test","false","N + M","76","switch","LM","LM75.bmp","remember","","64","3","prime1","left","","","",""
"html-keyboard-response","171","341549","0.0-4.0-1.0-2.15-0.15","whg2ddb9fl3gw7o","prime","5f0dc0f00f339b057412ac9a","5f60e3c0a3b16e07647b2ff9","5f610132acc60103bf3764c0","false","null","<span style=""color: red; font-size: 48px"">Error!</span>","null","","","","feedback","","","","","","","","","","","","","","","",""
"html-keyboard-response","172","343550","0.0-4.0-1.0-3.15","whg2ddb9fl3gw7o","prime","5f0dc0f00f339b057412ac9a","5f60e3c0a3b16e07647b2ff9","5f610132acc60103bf3764c0","false","null","<div style=""align-items: center; display: flex; color: dodgerblue; font-size: 90px""><b>o</b></div>","null","","","","forget_cue","","","","","","","","","","","","","","","",""
"html-keyboard-response","173","344250","0.0-4.0-1.0-0.16","whg2ddb9fl3gw7o","prime","5f0dc0f00f339b057412ac9a","5f60e3c0a3b16e07647b2ff9","5f610132acc60103bf3764c0","false","null","<span style=""color: black; font-size: 48px"">M + N</span>","null","","","","resp_prompt","","","","","","","","","","","","","","","",""
"categorize-image","174","345120","0.0-4.0-1.0-1.16","whg2ddb9fl3gw7o","prime","5f0dc0f00f339b057412ac9a","5f60e3c0a3b16e07647b2ff9","5f610132acc60103bf3764c0","true","867.7400000015041","./Stimuli/SelectedImages/LN/LN128.bmp","76","","","","test","true","M + N","76","switch","LN","LN128.bmp","remember","","65","3","prime1","right","","","",""
"html-keyboard-response","175","347121","0.0-4.0-1.0-3.16","whg2ddb9fl3gw7o","prime","5f0dc0f00f339b057412ac9a","5f60e3c0a3b16e07647b2ff9","5f610132acc60103bf3764c0","false","null","<div style=""align-items: center; display: flex; color: dodgerblue; font-size: 90px""><b>o</b></div>","null","","","","forget_cue","","","","","","","","","","","","","","","",""
"html-keyboard-response","176","347823","0.0-4.0-1.0-0.17","whg2ddb9fl3gw7o","prime","5f0dc0f00f339b057412ac9a","5f60e3c0a3b16e07647b2ff9","5f610132acc60103bf3764c0","false","null","<span style=""color: black; font-size: 48px"">M + N</span>","null","","","","resp_prompt","","","","","","","","","","","","","","","",""
"categorize-image","177","349344","0.0-4.0-1.0-1.17","whg2ddb9fl3gw7o","prime","5f0dc0f00f339b057412ac9a","5f60e3c0a3b16e07647b2ff9","5f610132acc60103bf3764c0","true","1518.8150000030873","./Stimuli/SelectedImages/SM/SM205.bmp","83","","","","test","true","M + N","83","switch","SM","SM205.bmp","remember","","66","3","prime1","left","","","",""
"html-keyboard-response","178","351345","0.0-4.0-1.0-3.17","whg2ddb9fl3gw7o","prime","5f0dc0f00f339b057412ac9a","5f60e3c0a3b16e07647b2ff9","5f610132acc60103bf3764c0","false","null","<div style=""align-items: center; display: flex; color: dodgerblue; font-size: 90px""><b>o</b></div>","null","","","","forget_cue","","","","","","","","","","","","","","","",""
"html-keyboard-response","179","352047","0.0-4.0-1.0-0.18","whg2ddb9fl3gw7o","prime","5f0dc0f00f339b057412ac9a","5f60e3c0a3b16e07647b2ff9","5f610132acc60103bf3764c0","false","null","<span style=""color: black; font-size: 48px"">N + M</span>","null","","","","resp_prompt","","","","","","","","","","","","","","","",""
"categorize-image","180","353025","0.0-4.0-1.0-1.18","whg2ddb9fl3gw7o","prime","5f0dc0f00f339b057412ac9a","5f60e3c0a3b16e07647b2ff9","5f610132acc60103bf3764c0","true","974.8550000003888","./Stimuli/SelectedImages/SN/SN27.bmp","83","","","","test","true","N + M","83","switch","SN","SN27.bmp","forget","","67","3","prime1","left","","","",""
"html-keyboard-response","181","355026","0.0-4.0-1.0-3.18","whg2ddb9fl3gw7o","prime","5f0dc0f00f339b057412ac9a","5f60e3c0a3b16e07647b2ff9","5f610132acc60103bf3764c0","false","null","<div style=""align-items: center; display: flex; color: darkorange; font-size: 90px""><b>ø</b></div>","null","","","","forget_cue","","","","","","","","","","","","","","","",""
"html-keyboard-response","182","355728","0.0-4.0-1.0-0.19","whg2ddb9fl3gw7o","prime","5f0dc0f00f339b057412ac9a","5f60e3c0a3b16e07647b2ff9","5f610132acc60103bf3764c0","false","null","<span style=""color: black; font-size: 48px"">N + M</span>","null","","","","resp_prompt","","","","","","","","","","","","","","","",""
"categorize-image","183","356488","0.0-4.0-1.0-1.19","whg2ddb9fl3gw7o","prime","5f0dc0f00f339b057412ac9a","5f60e3c0a3b16e07647b2ff9","5f610132acc60103bf3764c0","true","757.9499999992549","./Stimuli/SelectedImages/SM/SM76.bmp","76","","","","test","true","N + M","76","switch","SM","SM76.bmp","remember","","68","3","prime1","right","","","",""
"html-keyboard-response","184","358489","0.0-4.0-1.0-3.19","whg2ddb9fl3gw7o","prime","5f0dc0f00f339b057412ac9a","5f60e3c0a3b16e07647b2ff9","5f610132acc60103bf3764c0","false","null","<div style=""align-items: center; display: flex; color: dodgerblue; font-size: 90px""><b>o</b></div>","null","","","","forget_cue","","","","","","","","","","","","","","","",""
"html-keyboard-response","185","359190","0.0-4.0-1.0-0.20","whg2ddb9fl3gw7o","prime","5f0dc0f00f339b057412ac9a","5f60e3c0a3b16e07647b2ff9","5f610132acc60103bf3764c0","false","null","<span style=""color: black; font-size: 48px"">N + M</span>","null","","","","resp_prompt","","","","","","","","","","","","","","","",""
"categorize-image","186","360065","0.0-4.0-1.0-1.20","whg2ddb9fl3gw7o","prime","5f0dc0f00f339b057412ac9a","5f60e3c0a3b16e07647b2ff9","5f610132acc60103bf3764c0","true","871.9750000018394","./Stimuli/SelectedImages/SN/SN240.bmp","83","","","","test","true","N + M","83","repetition","SN","SN240.bmp","forget","","69","3","prime1","left","","","",""
"html-keyboard-response","187","362065","0.0-4.0-1.0-3.20","whg2ddb9fl3gw7o","prime","5f0dc0f00f339b057412ac9a","5f60e3c0a3b16e07647b2ff9","5f610132acc60103bf3764c0","false","null","<div style=""align-items: center; display: flex; color: darkorange; font-size: 90px""><b>ø</b></div>","null","","","","forget_cue","","","","","","","","","","","","","","","",""
"html-keyboard-response","188","362767","0.0-4.0-1.0-0.21","whg2ddb9fl3gw7o","prime","5f0dc0f00f339b057412ac9a","5f60e3c0a3b16e07647b2ff9","5f610132acc60103bf3764c0","false","null","<span style=""color: black; font-size: 48px"">N + M</span>","null","","","","resp_prompt","","","","","","","","","","","","","","","",""
"categorize-image","189","364024","0.0-4.0-1.0-1.21","whg2ddb9fl3gw7o","prime","5f0dc0f00f339b057412ac9a","5f60e3c0a3b16e07647b2ff9","5f610132acc60103bf3764c0","true","1255.2649999997811","./Stimuli/SelectedImages/SN/SN18.bmp","83","","","","test","true","N + M","83","repetition","SN","SN18.bmp","remember","","70","3","prime1","left","","","",""
"html-keyboard-response","190","366026","0.0-4.0-1.0-3.21","whg2ddb9fl3gw7o","prime","5f0dc0f00f339b057412ac9a","5f60e3c0a3b16e07647b2ff9","5f610132acc60103bf3764c0","false","null","<div style=""align-items: center; display: flex; color: dodgerblue; font-size: 90px""><b>o</b></div>","null","","","","forget_cue","","","","","","","","","","","","","","","",""
"html-keyboard-response","191","366728","0.0-4.0-1.0-0.22","whg2ddb9fl3gw7o","prime","5f0dc0f00f339b057412ac9a","5f60e3c0a3b16e07647b2ff9","5f610132acc60103bf3764c0","false","null","<span style=""color: black; font-size: 48px"">M + N</span>","null","","","","resp_prompt","","","","","","","","","","","","","","","",""
"categorize-image","192","367976","0.0-4.0-1.0-1.22","whg2ddb9fl3gw7o","prime","5f0dc0f00f339b057412ac9a","5f60e3c0a3b16e07647b2ff9","5f610132acc60103bf3764c0","true","1245.9100000050967","./Stimuli/SelectedImages/LM/LM57.bmp","83","","","","test","true","M + N","83","repetition","LM","LM57.bmp","remember","","71","3","prime1","left","","","",""
"html-keyboard-response","193","369978","0.0-4.0-1.0-3.22","whg2ddb9fl3gw7o","prime","5f0dc0f00f339b057412ac9a","5f60e3c0a3b16e07647b2ff9","5f610132acc60103bf3764c0","false","null","<div style=""align-items: center; display: flex; color: dodgerblue; font-size: 90px""><b>o</b></div>","null","","","","forget_cue","","","","","","","","","","","","","","","",""
"html-keyboard-response","194","370680","0.0-4.0-1.0-0.23","whg2ddb9fl3gw7o","prime","5f0dc0f00f339b057412ac9a","5f60e3c0a3b16e07647b2ff9","5f610132acc60103bf3764c0","false","null","<span style=""color: black; font-size: 48px"">N + M</span>","null","","","","resp_prompt","","","","","","","","","","","","","","","",""
"categorize-image","195","371504","0.0-4.0-1.0-1.23","whg2ddb9fl3gw7o","prime","5f0dc0f00f339b057412ac9a","5f60e3c0a3b16e07647b2ff9","5f610132acc60103bf3764c0","true","822.3849999994854","./Stimuli/SelectedImages/LN/LN92.bmp","83","","","","test","true","N + M","83","repetition","LN","LN92.bmp","remember","","72","3","prime1","left","","","",""
"html-keyboard-response","196","373505","0.0-4.0-1.0-3.23","whg2ddb9fl3gw7o","prime","5f0dc0f00f339b057412ac9a","5f60e3c0a3b16e07647b2ff9","5f610132acc60103bf3764c0","false","null","<div style=""align-items: center; display: flex; color: dodgerblue; font-size: 90px""><b>o</b></div>","null","","","","forget_cue","","","","","","","","","","","","","","","",""
"html-keyboard-response","197","374206","0.0-4.0-1.0-0.24","whg2ddb9fl3gw7o","prime","5f0dc0f00f339b057412ac9a","5f60e3c0a3b16e07647b2ff9","5f610132acc60103bf3764c0","false","null","<span style=""color: black; font-size: 48px"">N + M</span>","null","","","","resp_prompt","","","","","","","","","","","","","","","",""
"categorize-image","198","375008","0.0-4.0-1.0-1.24","whg2ddb9fl3gw7o","prime","5f0dc0f00f339b057412ac9a","5f60e3c0a3b16e07647b2ff9","5f610132acc60103bf3764c0","true","800.1799999983632","./Stimuli/SelectedImages/SN/SN60.bmp","83","","","","test","true","N + M","83","switch","SN","SN60.bmp","forget","","73","3","prime1","left","","","",""
"html-keyboard-response","199","377010","0.0-4.0-1.0-3.24","whg2ddb9fl3gw7o","prime","5f0dc0f00f339b057412ac9a","5f60e3c0a3b16e07647b2ff9","5f610132acc60103bf3764c0","false","null","<div style=""align-items: center; display: flex; color: darkorange; font-size: 90px""><b>ø</b></div>","null","","","","forget_cue","","","","","","","","","","","","","","","",""
"html-keyboard-response","200","377712","0.0-4.0-1.0-0.25","whg2ddb9fl3gw7o","prime","5f0dc0f00f339b057412ac9a","5f60e3c0a3b16e07647b2ff9","5f610132acc60103bf3764c0","false","null","<span style=""color: black; font-size: 48px"">N + M</span>","null","","","","resp_prompt","","","","","","","","","","","","","","","",""
"categorize-image","201","378841","0.0-4.0-1.0-1.25","whg2ddb9fl3gw7o","prime","5f0dc0f00f339b057412ac9a","5f60e3c0a3b16e07647b2ff9","5f610132acc60103bf3764c0","true","1126.1599999997998","./Stimuli/SelectedImages/LM/LM51.bmp","76","","","","test","true","N + M","76","switch","LM","LM51.bmp","remember","","74","3","prime1","right","","","",""
"html-keyboard-response","202","380841","0.0-4.0-1.0-3.25","whg2ddb9fl3gw7o","prime","5f0dc0f00f339b057412ac9a","5f60e3c0a3b16e07647b2ff9","5f610132acc60103bf3764c0","false","null","<div style=""align-items: center; display: flex; color: dodgerblue; font-size: 90px""><b>o</b></div>","null","","","","forget_cue","","","","","","","","","","","","","","","",""
"html-keyboard-response","203","381543","0.0-4.0-1.0-0.26","whg2ddb9fl3gw7o","prime","5f0dc0f00f339b057412ac9a","5f60e3c0a3b16e07647b2ff9","5f610132acc60103bf3764c0","false","null","<span style=""color: black; font-size: 48px"">M + N</span>","null","","","","resp_prompt","","","","","","","","","","","","","","","",""
"categorize-image","204","382233","0.0-4.0-1.0-1.26","whg2ddb9fl3gw7o","prime","5f0dc0f00f339b057412ac9a","5f60e3c0a3b16e07647b2ff9","5f610132acc60103bf3764c0","true","686.7849999980535","./Stimuli/SelectedImages/SN/SN140.bmp","76","","","","test","true","M + N","76","switch","SN","SN140.bmp","forget","","75","3","prime1","right","","","",""
"html-keyboard-response","205","384233","0.0-4.0-1.0-3.26","whg2ddb9fl3gw7o","prime","5f0dc0f00f339b057412ac9a","5f60e3c0a3b16e07647b2ff9","5f610132acc60103bf3764c0","false","null","<div style=""align-items: center; display: flex; color: darkorange; font-size: 90px""><b>ø</b></div>","null","","","","forget_cue","","","","","","","","","","","","","","","",""
"html-keyboard-response","206","384935","0.0-4.0-1.0-0.27","whg2ddb9fl3gw7o","prime","5f0dc0f00f339b057412ac9a","5f60e3c0a3b16e07647b2ff9","5f610132acc60103bf3764c0","false","null","<span style=""color: black; font-size: 48px"">M + N</span>","null","","","","resp_prompt","","","","","","","","","","","","","","","",""
"categorize-image","207","385537","0.0-4.0-1.0-1.27","whg2ddb9fl3gw7o","prime","5f0dc0f00f339b057412ac9a","5f60e3c0a3b16e07647b2ff9","5f610132acc60103bf3764c0","true","598.5599999985425","./Stimuli/SelectedImages/SM/SM78.bmp","83","","","","test","true","M + N","83","switch","SM","SM78.bmp","remember","","76","3","prime1","left","","","",""
"html-keyboard-response","208","387537","0.0-4.0-1.0-3.27","whg2ddb9fl3gw7o","prime","5f0dc0f00f339b057412ac9a","5f60e3c0a3b16e07647b2ff9","5f610132acc60103bf3764c0","false","null","<div style=""align-items: center; display: flex; color: dodgerblue; font-size: 90px""><b>o</b></div>","null","","","","forget_cue","","","","","","","","","","","","","","","",""
"html-keyboard-response","209","388238","0.0-4.0-1.0-0.28","whg2ddb9fl3gw7o","prime","5f0dc0f00f339b057412ac9a","5f60e3c0a3b16e07647b2ff9","5f610132acc60103bf3764c0","false","null","<span style=""color: black; font-size: 48px"">M + N</span>","null","","","","resp_prompt","","","","","","","","","","","","","","","",""
"categorize-image","210","389161","0.0-4.0-1.0-1.28","whg2ddb9fl3gw7o","prime","5f0dc0f00f339b057412ac9a","5f60e3c0a3b16e07647b2ff9","5f610132acc60103bf3764c0","true","919.8600000017905","./Stimuli/SelectedImages/SM/SM207.bmp","83","","","","test","true","M + N","83","switch","SM","SM207.bmp","forget","","77","3","prime1","left","","","",""
"html-keyboard-response","211","391162","0.0-4.0-1.0-3.28","whg2ddb9fl3gw7o","prime","5f0dc0f00f339b057412ac9a","5f60e3c0a3b16e07647b2ff9","5f610132acc60103bf3764c0","false","null","<div style=""align-items: center; display: flex; color: darkorange; font-size: 90px""><b>ø</b></div>","null","","","","forget_cue","","","","","","","","","","","","","","","",""
"html-keyboard-response","212","391863","0.0-4.0-1.0-0.29","whg2ddb9fl3gw7o","prime","5f0dc0f00f339b057412ac9a","5f60e3c0a3b16e07647b2ff9","5f610132acc60103bf3764c0","false","null","<span style=""color: black; font-size: 48px"">N + M</span>","null","","","","resp_prompt","","","","","","","","","","","","","","","",""
"categorize-image","213","393288","0.0-4.0-1.0-1.29","whg2ddb9fl3gw7o","prime","5f0dc0f00f339b057412ac9a","5f60e3c0a3b16e07647b2ff9","5f610132acc60103bf3764c0","true","1422.5250000017695","./Stimuli/SelectedImages/LN/LN149.bmp","76","","","","test","false","N + M","83","repetition","LN","LN149.bmp","forget","","78","3","prime1","right","","","",""
"html-keyboard-response","214","393789","0.0-4.0-1.0-2.29-0.29","whg2ddb9fl3gw7o","prime","5f0dc0f00f339b057412ac9a","5f60e3c0a3b16e07647b2ff9","5f610132acc60103bf3764c0","false","null","<span style=""color: red; font-size: 48px"">Error!</span>","null","","","","feedback","","","","","","","","","","","","","","","",""
"html-keyboard-response","215","395790","0.0-4.0-1.0-3.29","whg2ddb9fl3gw7o","prime","5f0dc0f00f339b057412ac9a","5f60e3c0a3b16e07647b2ff9","5f610132acc60103bf3764c0","false","null","<div style=""align-items: center; display: flex; color: darkorange; font-size: 90px""><b>ø</b></div>","null","","","","forget_cue","","","","","","","","","","","","","","","",""
"html-keyboard-response","216","396491","0.0-4.0-1.0-0.30","whg2ddb9fl3gw7o","prime","5f0dc0f00f339b057412ac9a","5f60e3c0a3b16e07647b2ff9","5f610132acc60103bf3764c0","false","null","<span style=""color: black; font-size: 48px"">M + N</span>","null","","","","resp_prompt","","","","","","","","","","","","","","","",""
"categorize-image","217","397464","0.0-4.0-1.0-1.30","whg2ddb9fl3gw7o","prime","5f0dc0f00f339b057412ac9a","5f60e3c0a3b16e07647b2ff9","5f610132acc60103bf3764c0","true","971.2499999950523","./Stimuli/SelectedImages/LN/LN101.bmp","76","","","","test","true","M + N","76","repetition","LN","LN101.bmp","remember","","79","3","prime1","right","","","",""
"html-keyboard-response","218","399466","0.0-4.0-1.0-3.30","whg2ddb9fl3gw7o","prime","5f0dc0f00f339b057412ac9a","5f60e3c0a3b16e07647b2ff9","5f610132acc60103bf3764c0","false","null","<div style=""align-items: center; display: flex; color: dodgerblue; font-size: 90px""><b>o</b></div>","null","","","","forget_cue","","","","","","","","","","","","","","","",""
"html-keyboard-response","219","400167","0.0-4.0-1.0-0.31","whg2ddb9fl3gw7o","prime","5f0dc0f00f339b057412ac9a","5f60e3c0a3b16e07647b2ff9","5f610132acc60103bf3764c0","false","null","<span style=""color: black; font-size: 48px"">M + N</span>","null","","","","resp_prompt","","","","","","","","","","","","","","","",""
"categorize-image","220","400840","0.0-4.0-1.0-1.31","whg2ddb9fl3gw7o","prime","5f0dc0f00f339b057412ac9a","5f60e3c0a3b16e07647b2ff9","5f610132acc60103bf3764c0","true","671.040000001085","./Stimuli/SelectedImages/LN/LN13.bmp","76","","","","test","true","M + N","76","repetition","LN","LN13.bmp","remember","","80","3","prime1","right","","","",""
"html-keyboard-response","221","402841","0.0-4.0-1.0-3.31","whg2ddb9fl3gw7o","prime","5f0dc0f00f339b057412ac9a","5f60e3c0a3b16e07647b2ff9","5f610132acc60103bf3764c0","false","null","<div style=""align-items: center; display: flex; color: dodgerblue; font-size: 90px""><b>o</b></div>","null","","","","forget_cue","","","","","","","","","","","","","","","",""
"html-keyboard-response","222","403542","0.0-4.0-1.0-0.32","whg2ddb9fl3gw7o","prime","5f0dc0f00f339b057412ac9a","5f60e3c0a3b16e07647b2ff9","5f610132acc60103bf3764c0","false","null","<span style=""color: black; font-size: 48px"">N + M</span>","null","","","","resp_prompt","","","","","","","","","","","","","","","",""
"categorize-image","223","404153","0.0-4.0-1.0-1.32","whg2ddb9fl3gw7o","prime","5f0dc0f00f339b057412ac9a","5f60e3c0a3b16e07647b2ff9","5f610132acc60103bf3764c0","true","607.3949999990873","./Stimuli/SelectedImages/SN/SN93.bmp","83","","","","test","true","N + M","83","repetition","SN","SN93.bmp","remember","","81","3","prime1","left","","","",""
"html-keyboard-response","224","406153","0.0-4.0-1.0-3.32","whg2ddb9fl3gw7o","prime","5f0dc0f00f339b057412ac9a","5f60e3c0a3b16e07647b2ff9","5f610132acc60103bf3764c0","false","null","<div style=""align-items: center; display: flex; color: dodgerblue; font-size: 90px""><b>o</b></div>","null","","","","forget_cue","","","","","","","","","","","","","","","",""
"html-keyboard-response","225","406855","0.0-4.0-1.0-0.33","whg2ddb9fl3gw7o","prime","5f0dc0f00f339b057412ac9a","5f60e3c0a3b16e07647b2ff9","5f610132acc60103bf3764c0","false","null","<span style=""color: black; font-size: 48px"">M + N</span>","null","","","","resp_prompt","","","","","","","","","","","","","","","",""
"categorize-image","226","407912","0.0-4.0-1.0-1.33","whg2ddb9fl3gw7o","prime","5f0dc0f00f339b057412ac9a","5f60e3c0a3b16e07647b2ff9","5f610132acc60103bf3764c0","true","1054.6399999948335","./Stimuli/SelectedImages/LM/LM103.bmp","83","","","","test","true","M + N","83","switch","LM","LM103.bmp","remember","","82","3","prime1","left","","","",""
"html-keyboard-response","227","409914","0.0-4.0-1.0-3.33","whg2ddb9fl3gw7o","prime","5f0dc0f00f339b057412ac9a","5f60e3c0a3b16e07647b2ff9","5f610132acc60103bf3764c0","false","null","<div style=""align-items: center; display: flex; color: dodgerblue; font-size: 90px""><b>o</b></div>","null","","","","forget_cue","","","","","","","","","","","","","","","",""
"html-keyboard-response","228","410615","0.0-4.0-1.0-0.34","whg2ddb9fl3gw7o","prime","5f0dc0f00f339b057412ac9a","5f60e3c0a3b16e07647b2ff9","5f610132acc60103bf3764c0","false","null","<span style=""color: black; font-size: 48px"">N + M</span>","null","","","","resp_prompt","","","","","","","","","","","","","","","",""
"categorize-image","229","411416","0.0-4.0-1.0-1.34","whg2ddb9fl3gw7o","prime","5f0dc0f00f339b057412ac9a","5f60e3c0a3b16e07647b2ff9","5f610132acc60103bf3764c0","true","798.2449999981327","./Stimuli/SelectedImages/SM/SM128.bmp","76","","","","test","true","N + M","76","repetition","SM","SM128.bmp","forget","","83","3","prime1","right","","","",""
"html-keyboard-response","230","413417","0.0-4.0-1.0-3.34","whg2ddb9fl3gw7o","prime","5f0dc0f00f339b057412ac9a","5f60e3c0a3b16e07647b2ff9","5f610132acc60103bf3764c0","false","null","<div style=""align-items: center; display: flex; color: darkorange; font-size: 90px""><b>ø</b></div>","null","","","","forget_cue","","","","","","","","","","","","","","","",""
"html-keyboard-response","231","414118","0.0-4.0-1.0-0.35","whg2ddb9fl3gw7o","prime","5f0dc0f00f339b057412ac9a","5f60e3c0a3b16e07647b2ff9","5f610132acc60103bf3764c0","false","null","<span style=""color: black; font-size: 48px"">M + N</span>","null","","","","resp_prompt","","","","","","","","","","","","","","","",""
"categorize-image","232","414897","0.0-4.0-1.0-1.35","whg2ddb9fl3gw7o","prime","5f0dc0f00f339b057412ac9a","5f60e3c0a3b16e07647b2ff9","5f610132acc60103bf3764c0","true","776.0350000025937","./Stimuli/SelectedImages/SN/SN111.bmp","76","","","","test","true","M + N","76","repetition","SN","SN111.bmp","remember","","84","3","prime1","right","","","",""
"html-keyboard-response","233","416897","0.0-4.0-1.0-3.35","whg2ddb9fl3gw7o","prime","5f0dc0f00f339b057412ac9a","5f60e3c0a3b16e07647b2ff9","5f610132acc60103bf3764c0","false","null","<div style=""align-items: center; display: flex; color: dodgerblue; font-size: 90px""><b>o</b></div>","null","","","","forget_cue","","","","","","","","","","","","","","","",""
"html-keyboard-response","234","417599","0.0-4.0-1.0-0.36","whg2ddb9fl3gw7o","prime","5f0dc0f00f339b057412ac9a","5f60e3c0a3b16e07647b2ff9","5f610132acc60103bf3764c0","false","null","<span style=""color: black; font-size: 48px"">M + N</span>","null","","","","resp_prompt","","","","","","","","","","","","","","","",""
"categorize-image","235","418482","0.0-4.0-1.0-1.36","whg2ddb9fl3gw7o","prime","5f0dc0f00f339b057412ac9a","5f60e3c0a3b16e07647b2ff9","5f610132acc60103bf3764c0","true","878.709999997227","./Stimuli/SelectedImages/SM/SM184.bmp","83","","","","test","true","M + N","83","repetition","SM","SM184.bmp","remember","","85","3","prime1","left","","","",""
"html-keyboard-response","236","420483","0.0-4.0-1.0-3.36","whg2ddb9fl3gw7o","prime","5f0dc0f00f339b057412ac9a","5f60e3c0a3b16e07647b2ff9","5f610132acc60103bf3764c0","false","null","<div style=""align-items: center; display: flex; color: dodgerblue; font-size: 90px""><b>o</b></div>","null","","","","forget_cue","","","","","","","","","","","","","","","",""
"html-keyboard-response","237","421183","0.0-4.0-1.0-0.37","whg2ddb9fl3gw7o","prime","5f0dc0f00f339b057412ac9a","5f60e3c0a3b16e07647b2ff9","5f610132acc60103bf3764c0","false","null","<span style=""color: black; font-size: 48px"">M + N</span>","null","","","","resp_prompt","","","","","","","","","","","","","","","",""
"categorize-image","238","422056","0.0-4.0-1.0-1.37","whg2ddb9fl3gw7o","prime","5f0dc0f00f339b057412ac9a","5f60e3c0a3b16e07647b2ff9","5f610132acc60103bf3764c0","true","870.4199999992852","./Stimuli/SelectedImages/SN/SN181.bmp","76","","","","test","true","M + N","76","repetition","SN","SN181.bmp","forget","","86","3","prime1","right","","","",""
"html-keyboard-response","239","424058","0.0-4.0-1.0-3.37","whg2ddb9fl3gw7o","prime","5f0dc0f00f339b057412ac9a","5f60e3c0a3b16e07647b2ff9","5f610132acc60103bf3764c0","false","null","<div style=""align-items: center; display: flex; color: darkorange; font-size: 90px""><b>ø</b></div>","null","","","","forget_cue","","","","","","","","","","","","","","","",""
"html-keyboard-response","240","424758","0.0-4.0-1.0-0.38","whg2ddb9fl3gw7o","prime","5f0dc0f00f339b057412ac9a","5f60e3c0a3b16e07647b2ff9","5f610132acc60103bf3764c0","false","null","<span style=""color: black; font-size: 48px"">M + N</span>","null","","","","resp_prompt","","","","","","","","","","","","","","","",""
"categorize-image","241","425545","0.0-4.0-1.0-1.38","whg2ddb9fl3gw7o","prime","5f0dc0f00f339b057412ac9a","5f60e3c0a3b16e07647b2ff9","5f610132acc60103bf3764c0","true","783.5500000001048","./Stimuli/SelectedImages/SN/SN182.bmp","76","","","","test","true","M + N","76","switch","SN","SN182.bmp","remember","","87","3","prime1","right","","","",""
"html-keyboard-response","242","427546","0.0-4.0-1.0-3.38","whg2ddb9fl3gw7o","prime","5f0dc0f00f339b057412ac9a","5f60e3c0a3b16e07647b2ff9","5f610132acc60103bf3764c0","false","null","<div style=""align-items: center; display: flex; color: dodgerblue; font-size: 90px""><b>o</b></div>","null","","","","forget_cue","","","","","","","","","","","","","","","",""
"html-keyboard-response","243","428247","0.0-4.0-1.0-0.39","whg2ddb9fl3gw7o","prime","5f0dc0f00f339b057412ac9a","5f60e3c0a3b16e07647b2ff9","5f610132acc60103bf3764c0","false","null","<span style=""color: black; font-size: 48px"">M + N</span>","null","","","","resp_prompt","","","","","","","","","","","","","","","",""
"categorize-image","244","429016","0.0-4.0-1.0-1.39","whg2ddb9fl3gw7o","prime","5f0dc0f00f339b057412ac9a","5f60e3c0a3b16e07647b2ff9","5f610132acc60103bf3764c0","true","766.9299999979557","./Stimuli/SelectedImages/SN/SN49.bmp","76","","","","test","true","M + N","76","switch","SN","SN49.bmp","forget","","88","3","prime1","right","","","",""
"html-keyboard-response","245","431017","0.0-4.0-1.0-3.39","whg2ddb9fl3gw7o","prime","5f0dc0f00f339b057412ac9a","5f60e3c0a3b16e07647b2ff9","5f610132acc60103bf3764c0","false","null","<div style=""align-items: center; display: flex; color: darkorange; font-size: 90px""><b>ø</b></div>","null","","","","forget_cue","","","","","","","","","","","","","","","",""
"html-keyboard-response","246","431719","0.0-4.0-1.0-0.40","whg2ddb9fl3gw7o","prime","5f0dc0f00f339b057412ac9a","5f60e3c0a3b16e07647b2ff9","5f610132acc60103bf3764c0","false","null","<span style=""color: black; font-size: 48px"">M + N</span>","null","","","","resp_prompt","","","","","","","","","","","","","","","",""
"categorize-image","247","432561","0.0-4.0-1.0-1.40","whg2ddb9fl3gw7o","prime","5f0dc0f00f339b057412ac9a","5f60e3c0a3b16e07647b2ff9","5f610132acc60103bf3764c0","true","838.660000001255","./Stimuli/SelectedImages/LM/LM209.bmp","83","","","","test","true","M + N","83","repetition","LM","LM209.bmp","forget","","89","3","prime1","left","","","",""
"html-keyboard-response","248","434562","0.0-4.0-1.0-3.40","whg2ddb9fl3gw7o","prime","5f0dc0f00f339b057412ac9a","5f60e3c0a3b16e07647b2ff9","5f610132acc60103bf3764c0","false","null","<div style=""align-items: center; display: flex; color: darkorange; font-size: 90px""><b>ø</b></div>","null","","","","forget_cue","","","","","","","","","","","","","","","",""
"html-keyboard-response","249","435262","0.0-4.0-1.0-0.41","whg2ddb9fl3gw7o","prime","5f0dc0f00f339b057412ac9a","5f60e3c0a3b16e07647b2ff9","5f610132acc60103bf3764c0","false","null","<span style=""color: black; font-size: 48px"">N + M</span>","null","","","","resp_prompt","","","","","","","","","","","","","","","",""
"categorize-image","250","435897","0.0-4.0-1.0-1.41","whg2ddb9fl3gw7o","prime","5f0dc0f00f339b057412ac9a","5f60e3c0a3b16e07647b2ff9","5f610132acc60103bf3764c0","true","631.7249999992782","./Stimuli/SelectedImages/LN/LN150.bmp","83","","","","test","true","N + M","83","switch","LN","LN150.bmp","forget","","90","3","prime1","left","","","",""
"html-keyboard-response","251","437899","0.0-4.0-1.0-3.41","whg2ddb9fl3gw7o","prime","5f0dc0f00f339b057412ac9a","5f60e3c0a3b16e07647b2ff9","5f610132acc60103bf3764c0","false","null","<div style=""align-items: center; display: flex; color: darkorange; font-size: 90px""><b>ø</b></div>","null","","","","forget_cue","","","","","","","","","","","","","","","",""
"html-keyboard-response","252","438600","0.0-4.0-1.0-0.42","whg2ddb9fl3gw7o","prime","5f0dc0f00f339b057412ac9a","5f60e3c0a3b16e07647b2ff9","5f610132acc60103bf3764c0","false","null","<span style=""color: black; font-size: 48px"">N + M</span>","null","","","","resp_prompt","","","","","","","","","","","","","","","",""
"categorize-image","253","439280","0.0-4.0-1.0-1.42","whg2ddb9fl3gw7o","prime","5f0dc0f00f339b057412ac9a","5f60e3c0a3b16e07647b2ff9","5f610132acc60103bf3764c0","true","678.3199999990757","./Stimuli/SelectedImages/LM/LM157.bmp","76","","","","test","true","N + M","76","repetition","LM","LM157.bmp","forget","","91","3","prime1","right","","","",""
