"trial_type","trial_index","time_elapsed","internal_node_id","subject","exp_part","prolific_PID","study_ID","session_ID","use","rt","stimulus","key_press","button_pressed","responses","question_order","trial_part","correct","resp_map","correct_resp","probe_condition","category","image","forget_condition","list","trial_num","block_num","block","response","test_part","n_span","sequence","num_spaces"
"pavlovia","0","16","0.0-0.0","y9udf5puv5np8hn","","5ea0ba31ea87f20b8daa6d7a","5f60e3c0a3b16e07647b2ff9","5f60eec57d0bc6010f8210ce","false","","","","","","","","","","","","","","","","","","","","","","",""
"html-keyboard-response","1","28394","0.0-1.0-0.0-0.0","y9udf5puv5np8hn","welcome","5ea0ba31ea87f20b8daa6d7a","5f60e3c0a3b16e07647b2ff9","5f60eec57d0bc6010f8210ce","false","28371.739999987767","<div align=left>Dear participant, <br> thank you for participating in an online study of the Cognition, Action, and Sustainability Unit of the University of Freiburg! <br> <br>The aim of this study is to examine our ability to remember previously learned information. <br>Our goal is to find out, whether our memory improves, when we only remember information that is relevant to us. <br>The experiment will take about 35 minutes to complete. <br> <br>Please, note that you can only participate in this study if you are using a device with a keyboard (PC, Laptop etc.) <br>and not if you are using a mobile device such as a tablet or smartphone.<br> <br>Press 'SPACE' to proceed to the experiment. </div>","32","","","","","","","","","","","","","","","","","","","",""
"html-keyboard-response","2","64433","0.0-1.0-0.0-1.0","y9udf5puv5np8hn","welcome","5ea0ba31ea87f20b8daa6d7a","5f60e3c0a3b16e07647b2ff9","5f60eec57d0bc6010f8210ce","false","36036.1200000043","<div align=left><strong> Time Course of this experiment: </strong> <br><br> <strong> 1.</strong>  First, please fill in some information regarding your demographic data. <br><br> <strong> 2.</strong>  Next, your task will be to classify everyday objects. <br>In addition, you will be asked to remember certain objects and recall them later. <br>Working on these tasks requires your undivided attention and concentration.<br>It is therefore essential that you eliminate any sources of distraction in your  <br>environment and ensure that you will not be disturbed. <br><br><strong> 3.</strong>  At the end of the experiment, you will be asked to answer a few additional questions. <br> <br><strong> Important:</strong> After finishing the experiment, only close the browser window <br> by clicking on the 'end the experiment'-button when you are asked to do so. <br>Closing the browser window prematurely will make the allocation of your participation credit impossible. <br><br> Press 'SPACE' to start the experiment. </div>","32","","","","","","","","","","","","","","","","","","","",""
"html-button-response","3","72784","0.0-1.0-0.0-2.0","y9udf5puv5np8hn","welcome","5ea0ba31ea87f20b8daa6d7a","5f60e3c0a3b16e07647b2ff9","5f60eec57d0bc6010f8210ce","true","8348.669999992126","<div align=left><strong> Informed consent </strong>  <br>The aim of our research is to better understand human behavior and mental processes. <br>In the following study your behavior (e.g. choices, reaction times) will be studied. <br> <br><strong> Voluntariness and Anonymity </strong> <br>Your participation in this study is  <strong> voluntary</strong>.<br>You may withdraw your consent to participate at any time without providing a reason for doing so and without fear of prejudice. <br><br>As no personal data will be collected, <strong>your data and your person cannot be connected after data collection</strong> – the data-set is anonymous. <br>Respectively, deletion of your data will not be possible after data collection has been completed, as we cannot retrace your data-set.<br>The results and anonymized data collected in this study will be published as a scientific publication. <br>This will happen in an <strong>anonymized format</strong>, so that no data can be traced back to a specific person. <br> <br>The anonymized data of this study will be made available to other researchers and/or in a data archive on the Internet as a means of transparency and to enable subsequent re-use. By doing so, this study follows the recommendations of the Deutsche Forschungsgemeinschaft (DFG, German Research Foundation) and Deutsche Gesellschaft für Psychologie (DGPS, German Psychological Society) regarding quality assurance in research.<br>If you have any questions now or after the experiment, please contact our team (experiments@cs.uni-freiburg.de).<br><br><br>I hereby declare, that I understand the above described conditions of participation and I agree to participate under these conditions. <br><br> </div>","","0","","","","","","","","","","","","","","","","","","",""
"html-keyboard-response","4","102056","0.0-1.0-0.0-3.0","y9udf5puv5np8hn","welcome","5ea0ba31ea87f20b8daa6d7a","5f60e3c0a3b16e07647b2ff9","5f60eec57d0bc6010f8210ce","false","29268.275000009453","<div align=left><strong> General information concerning the experiment </strong>  <br> <br>Please follow the instructions:<ol> <li><strong> Do not leave this tab (your browser window) during the experiment and do not reload this tab! </strong>  <br>If you do switch tabs/windows during the experiment (to check your mail or visit another website, for example), <br>the experiment will end automatically and you will <strong>not receive credit</strong> for your participation. <br>Repeated participation or resumption of the experiment is impossible.</li> <br><li>Please close all other programs for the duration of your participation. </li> <br><li>Please mute or turn off your phone and put it out of your reach. </li> <br><li>Please also take off any disturbing accessories (such as wristwatches, bracelets, etc.). </li> <br><li>If you have music playing in the background, please turn it off now. </li> <br></ol>Thank you! <br>Press 'SPACE' to continue. </div>","32","","","","","","","","","","","","","","","","","","","",""
"survey-text","5","117438","0.0-1.0-1.0-0.0","y9udf5puv5np8hn","demographics","5ea0ba31ea87f20b8daa6d7a","5f60e3c0a3b16e07647b2ff9","5f60eec57d0bc6010f8210ce","true","15371.89500000386","","","","{""age"":""20""}","","","","","","","","","","","","","","","","","",""
"survey-multi-choice","6","147736","0.0-1.0-1.0-1.0","y9udf5puv5np8hn","demographics","5ea0ba31ea87f20b8daa6d7a","5f60e3c0a3b16e07647b2ff9","5f60eec57d0bc6010f8210ce","true","30291.56499999226","","","","{""gender"":""male"",""school"":""high school"",""education"":""Still in training/ university""}","[0,1,2]","","","","","","","","","","","","","","","","",""
"survey-text","7","159952","0.0-1.0-1.0-2.0-0.0","y9udf5puv5np8hn","demographics","5ea0ba31ea87f20b8daa6d7a","5f60e3c0a3b16e07647b2ff9","5f60eec57d0bc6010f8210ce","true","12188.259999995353","","","","{""education_text"":""Chemistry with Management""}","","","","","","","","","","","","","","","","","",""
"html-keyboard-response","8","182985","0.0-1.0-2.0","y9udf5puv5np8hn","instructions","5ea0ba31ea87f20b8daa6d7a","5f60e3c0a3b16e07647b2ff9","5f60eec57d0bc6010f8210ce","false","23029.950000011013","<div align=left> The experiment is now about to start: <br> <br>In the following part, you will be presented pictures of everyday objects. <br>Your first task is to <strong>classify these objects. </strong> <br> <br> You will classify them either as mechanical or non-mechanical objects. <br> <br>Objects that include any kind of technical mechanism (for example, wheels, switches, levers, <br> electronic components) fall under the category of <strong>mechanical</strong> objects. <br>Only objects without any kind of technical mechanism should be classified as <strong>non-mechanical</strong>. <br><br>Press 'SPACE' to continue. </div>","32","","","","","","","","","","","","","","","","","","","",""
"html-keyboard-response","9","251218","0.0-2.0-0.0","y9udf5puv5np8hn","instructions","5ea0ba31ea87f20b8daa6d7a","5f60e3c0a3b16e07647b2ff9","5f60eec57d0bc6010f8210ce","false","68231.13500000909","<div align=justify>You will classify the objects using the <strong>'S'</strong> and the <strong>'L'</strong> keys on your keyboard.<br>For doing so, please place your <strong>left index finger</strong> on the <strong>'S'</strong> key and place your <strong>right index finger</strong> on the <strong>'L'</strong> key. <br><br> Each trial starts with an instruction, indicating which key ('S'/'L') you need to press to classify <br>the object as mechanical (letter M) or non-mechanical (letter N).<br>The instruction <strong>M + N</strong> indicates that, in the current trial, by pressing the left key ('S') you classify the displayed object as mechanical (M) <br> and by pressing the right key ('L') you classify the object as non-mechanical (N). <br>The instruction <strong>N + M</strong> on the other hand indicates that by pressing the left key ('S') you classify the displayed object as non-mechanical (N) <br> and by pressing the right key ('L') you classify the object as mechanical (M). <br><br>Please press the key corresponding to the correct classification as fast as possible as soon as the object is displayed and try to avoid making mistakes.<br>If you do not respond within a 2 second window, a corresponding feedback will be displayed and the next trial will start.<br> The experiment is divided into multiple blocks to give you the opportunity to take a break after each block. <br>First, you can now practice this task. <br><br>Please place your <strong>LEFT INDEX FINGER</strong> on the 'S' key and your <strong>RIGHT INDEX FINGER</strong> on the 'L' key now. <br><br>Press SPACE to continue.</div>","32","","","","","","","","","","","","","","","","","","","",""
"html-keyboard-response","10","264117","0.0-2.0-1.0","y9udf5puv5np8hn","instructions","5ea0ba31ea87f20b8daa6d7a","5f60e3c0a3b16e07647b2ff9","5f60eec57d0bc6010f8210ce","false","12896.81500000006","<div align=left> You will now have time to practice this task.<br><br>Remember: <br> <br><li>Please place your index fingers on the <strong>'S'</strong> and <strong>'L'</strong> keys <br>to respond as fast and accurately as possible.</li><li>Every picture can be classified as either mechanical or non-mechanical.</li><li>If you do not respond in time or commit an error, you will receive a corresponding feedback. </li><li> Please try to respond as <strong> fast </strong> and as <strong> accurately as possible </strong> .<br><li>To ensure optimal results, please minimize distractions and stay focused. </li><br><br>Press SPACE to continue.</div>","32","","","","","","","","","","","","","","","","","","","",""
"html-keyboard-response","11","264822","0.0-2.0-2.0-0.0","y9udf5puv5np8hn","practice_no_cue","5ea0ba31ea87f20b8daa6d7a","5f60e3c0a3b16e07647b2ff9","5f60eec57d0bc6010f8210ce","false","null","<span style=""color: black; font-size: 48px"">N + M</span>","null","","","","resp_prompt","","","","","","","","","","","","","","","",""
"categorize-image","12","267332","0.0-2.0-2.0-1.0","y9udf5puv5np8hn","practice_no_cue","5ea0ba31ea87f20b8daa6d7a","5f60e3c0a3b16e07647b2ff9","5f60eec57d0bc6010f8210ce","true","null","./Stimuli/ImagesPractice/LN15.jpg","null","","","","test","false","N + M","83","","LN","LN15.jpg","forget","old","1","1","start","too_slow","","","",""
"html-keyboard-response","13","268035","0.0-2.0-2.0-0.1","y9udf5puv5np8hn","practice_no_cue","5ea0ba31ea87f20b8daa6d7a","5f60e3c0a3b16e07647b2ff9","5f60eec57d0bc6010f8210ce","false","null","<span style=""color: black; font-size: 48px"">N + M</span>","null","","","","resp_prompt","","","","","","","","","","","","","","","",""
"categorize-image","14","269187","0.0-2.0-2.0-1.1","y9udf5puv5np8hn","practice_no_cue","5ea0ba31ea87f20b8daa6d7a","5f60e3c0a3b16e07647b2ff9","5f60eec57d0bc6010f8210ce","true","642.3249999934342","./Stimuli/ImagesPractice/SN221.jpg","83","","","","test","true","N + M","83","","SN","SN221.jpg","forget","old","2","1","start","left","","","",""
"html-keyboard-response","15","269890","0.0-2.0-2.0-0.2","y9udf5puv5np8hn","practice_no_cue","5ea0ba31ea87f20b8daa6d7a","5f60e3c0a3b16e07647b2ff9","5f60eec57d0bc6010f8210ce","false","null","<span style=""color: black; font-size: 48px"">N + M</span>","null","","","","resp_prompt","","","","","","","","","","","","","","","",""
"categorize-image","16","270943","0.0-2.0-2.0-1.2","y9udf5puv5np8hn","practice_no_cue","5ea0ba31ea87f20b8daa6d7a","5f60e3c0a3b16e07647b2ff9","5f60eec57d0bc6010f8210ce","true","547.9649999906542","./Stimuli/ImagesPractice/LM55.jpg","76","","","","test","true","N + M","76","","LM","LM55.jpg","remember","old","3","1","start","right","","","",""
"html-keyboard-response","17","271648","0.0-2.0-2.0-0.3","y9udf5puv5np8hn","practice_no_cue","5ea0ba31ea87f20b8daa6d7a","5f60e3c0a3b16e07647b2ff9","5f60eec57d0bc6010f8210ce","false","null","<span style=""color: black; font-size: 48px"">M + N</span>","null","","","","resp_prompt","","","","","","","","","","","","","","","",""
"categorize-image","18","272629","0.0-2.0-2.0-1.3","y9udf5puv5np8hn","practice_no_cue","5ea0ba31ea87f20b8daa6d7a","5f60e3c0a3b16e07647b2ff9","5f60eec57d0bc6010f8210ce","true","476.17999999783933","./Stimuli/ImagesPractice/SM62.jpg","83","","","","test","true","M + N","83","","SM","SM62.jpg","forget","old","4","1","start","left","","","",""
"html-keyboard-response","19","273333","0.0-2.0-2.0-0.4","y9udf5puv5np8hn","practice_no_cue","5ea0ba31ea87f20b8daa6d7a","5f60e3c0a3b16e07647b2ff9","5f60eec57d0bc6010f8210ce","false","null","<span style=""color: black; font-size: 48px"">N + M</span>","null","","","","resp_prompt","","","","","","","","","","","","","","","",""
"categorize-image","20","274275","0.0-2.0-2.0-1.4","y9udf5puv5np8hn","practice_no_cue","5ea0ba31ea87f20b8daa6d7a","5f60e3c0a3b16e07647b2ff9","5f60eec57d0bc6010f8210ce","true","436.5749999997206","./Stimuli/ImagesPractice/SM98.jpg","76","","","","test","true","N + M","76","","SM","SM98.jpg","remember","old","5","1","start","right","","","",""
"html-keyboard-response","21","274980","0.0-2.0-2.0-0.5","y9udf5puv5np8hn","practice_no_cue","5ea0ba31ea87f20b8daa6d7a","5f60e3c0a3b16e07647b2ff9","5f60eec57d0bc6010f8210ce","false","null","<span style=""color: black; font-size: 48px"">N + M</span>","null","","","","resp_prompt","","","","","","","","","","","","","","","",""
"categorize-image","22","276020","0.0-2.0-2.0-1.5","y9udf5puv5np8hn","practice_no_cue","5ea0ba31ea87f20b8daa6d7a","5f60e3c0a3b16e07647b2ff9","5f60eec57d0bc6010f8210ce","true","536.5699999965727","./Stimuli/ImagesPractice/LM143.jpg","76","","","","test","true","N + M","76","","LM","LM143.jpg","remember","old","6","1","start","right","","","",""
"html-keyboard-response","23","276725","0.0-2.0-2.0-0.6","y9udf5puv5np8hn","practice_no_cue","5ea0ba31ea87f20b8daa6d7a","5f60e3c0a3b16e07647b2ff9","5f60eec57d0bc6010f8210ce","false","null","<span style=""color: black; font-size: 48px"">N + M</span>","null","","","","resp_prompt","","","","","","","","","","","","","","","",""
"categorize-image","24","277658","0.0-2.0-2.0-1.6","y9udf5puv5np8hn","practice_no_cue","5ea0ba31ea87f20b8daa6d7a","5f60e3c0a3b16e07647b2ff9","5f60eec57d0bc6010f8210ce","true","425.32500000379514","./Stimuli/ImagesPractice/SM61.jpg","76","","","","test","true","N + M","76","","SM","SM61.jpg","remember","old","7","1","start","right","","","",""
"html-keyboard-response","25","278361","0.0-2.0-2.0-0.7","y9udf5puv5np8hn","practice_no_cue","5ea0ba31ea87f20b8daa6d7a","5f60e3c0a3b16e07647b2ff9","5f60eec57d0bc6010f8210ce","false","null","<span style=""color: black; font-size: 48px"">M + N</span>","null","","","","resp_prompt","","","","","","","","","","","","","","","",""
"categorize-image","26","279388","0.0-2.0-2.0-1.7","y9udf5puv5np8hn","practice_no_cue","5ea0ba31ea87f20b8daa6d7a","5f60e3c0a3b16e07647b2ff9","5f60eec57d0bc6010f8210ce","true","522.5700000009965","./Stimuli/ImagesPractice/SN222.jpg","83","","","","test","false","M + N","76","","SN","SN222.jpg","remember","old","8","1","start","left","","","",""
"html-keyboard-response","27","280092","0.0-2.0-2.0-0.8","y9udf5puv5np8hn","practice_no_cue","5ea0ba31ea87f20b8daa6d7a","5f60e3c0a3b16e07647b2ff9","5f60eec57d0bc6010f8210ce","false","null","<span style=""color: black; font-size: 48px"">M + N</span>","null","","","","resp_prompt","","","","","","","","","","","","","","","",""
"categorize-image","28","281024","0.0-2.0-2.0-1.8","y9udf5puv5np8hn","practice_no_cue","5ea0ba31ea87f20b8daa6d7a","5f60e3c0a3b16e07647b2ff9","5f60eec57d0bc6010f8210ce","true","429.245000006631","./Stimuli/ImagesPractice/LM224.jpg","83","","","","test","true","M + N","83","","LM","LM224.jpg","forget","old","9","1","start","left","","","",""
"html-keyboard-response","29","281730","0.0-2.0-2.0-0.9","y9udf5puv5np8hn","practice_no_cue","5ea0ba31ea87f20b8daa6d7a","5f60e3c0a3b16e07647b2ff9","5f60eec57d0bc6010f8210ce","false","null","<span style=""color: black; font-size: 48px"">N + M</span>","null","","","","resp_prompt","","","","","","","","","","","","","","","",""
"categorize-image","30","282932","0.0-2.0-2.0-1.9","y9udf5puv5np8hn","practice_no_cue","5ea0ba31ea87f20b8daa6d7a","5f60e3c0a3b16e07647b2ff9","5f60eec57d0bc6010f8210ce","true","695.7750000001397","./Stimuli/ImagesPractice/LN72.jpg","83","","","","test","true","N + M","83","","LN","LN72.jpg","forget","old","10","1","start","left","","","",""
"html-keyboard-response","31","283637","0.0-2.0-2.0-0.10","y9udf5puv5np8hn","practice_no_cue","5ea0ba31ea87f20b8daa6d7a","5f60e3c0a3b16e07647b2ff9","5f60eec57d0bc6010f8210ce","false","null","<span style=""color: black; font-size: 48px"">M + N</span>","null","","","","resp_prompt","","","","","","","","","","","","","","","",""
"categorize-image","32","284646","0.0-2.0-2.0-1.10","y9udf5puv5np8hn","practice_no_cue","5ea0ba31ea87f20b8daa6d7a","5f60e3c0a3b16e07647b2ff9","5f60eec57d0bc6010f8210ce","true","501.6649999888614","./Stimuli/ImagesPractice/SM35.jpg","83","","","","test","true","M + N","83","","SM","SM35.jpg","forget","old","11","1","start","left","","","",""
"html-keyboard-response","33","285348","0.0-2.0-2.0-0.11","y9udf5puv5np8hn","practice_no_cue","5ea0ba31ea87f20b8daa6d7a","5f60e3c0a3b16e07647b2ff9","5f60eec57d0bc6010f8210ce","false","null","<span style=""color: black; font-size: 48px"">M + N</span>","null","","","","resp_prompt","","","","","","","","","","","","","","","",""
"categorize-image","34","286456","0.0-2.0-2.0-1.11","y9udf5puv5np8hn","practice_no_cue","5ea0ba31ea87f20b8daa6d7a","5f60e3c0a3b16e07647b2ff9","5f60eec57d0bc6010f8210ce","true","601.1750000034226","./Stimuli/ImagesPractice/SN76.jpg","76","","","","test","true","M + N","76","","SN","SN76.jpg","forget","old","12","1","start","right","","","",""
"html-keyboard-response","35","287159","0.0-2.0-2.0-0.12","y9udf5puv5np8hn","practice_no_cue","5ea0ba31ea87f20b8daa6d7a","5f60e3c0a3b16e07647b2ff9","5f60eec57d0bc6010f8210ce","false","null","<span style=""color: black; font-size: 48px"">N + M</span>","null","","","","resp_prompt","","","","","","","","","","","","","","","",""
"categorize-image","36","288526","0.0-2.0-2.0-1.12","y9udf5puv5np8hn","practice_no_cue","5ea0ba31ea87f20b8daa6d7a","5f60e3c0a3b16e07647b2ff9","5f60eec57d0bc6010f8210ce","true","859.8650000058115","./Stimuli/ImagesPractice/SN220.jpg","83","","","","test","true","N + M","83","","SN","SN220.jpg","forget","old","13","1","start","left","","","",""
"html-keyboard-response","37","289228","0.0-2.0-2.0-0.13","y9udf5puv5np8hn","practice_no_cue","5ea0ba31ea87f20b8daa6d7a","5f60e3c0a3b16e07647b2ff9","5f60eec57d0bc6010f8210ce","false","null","<span style=""color: black; font-size: 48px"">M + N</span>","null","","","","resp_prompt","","","","","","","","","","","","","","","",""
"categorize-image","38","290384","0.0-2.0-2.0-1.13","y9udf5puv5np8hn","practice_no_cue","5ea0ba31ea87f20b8daa6d7a","5f60e3c0a3b16e07647b2ff9","5f60eec57d0bc6010f8210ce","true","649.0849999972852","./Stimuli/ImagesPractice/SM97.jpg","83","","","","test","true","M + N","83","","SM","SM97.jpg","remember","old","14","1","start","left","","","",""
"html-keyboard-response","39","291088","0.0-2.0-2.0-0.14","y9udf5puv5np8hn","practice_no_cue","5ea0ba31ea87f20b8daa6d7a","5f60e3c0a3b16e07647b2ff9","5f60eec57d0bc6010f8210ce","false","null","<span style=""color: black; font-size: 48px"">M + N</span>","null","","","","resp_prompt","","","","","","","","","","","","","","","",""
"categorize-image","40","292240","0.0-2.0-2.0-1.14","y9udf5puv5np8hn","practice_no_cue","5ea0ba31ea87f20b8daa6d7a","5f60e3c0a3b16e07647b2ff9","5f60eec57d0bc6010f8210ce","true","646.2100000062492","./Stimuli/ImagesPractice/LN17.jpg","76","","","","test","true","M + N","76","","LN","LN17.jpg","remember","old","15","1","start","right","","","",""
"html-keyboard-response","41","292946","0.0-2.0-2.0-0.15","y9udf5puv5np8hn","practice_no_cue","5ea0ba31ea87f20b8daa6d7a","5f60e3c0a3b16e07647b2ff9","5f60eec57d0bc6010f8210ce","false","null","<span style=""color: black; font-size: 48px"">M + N</span>","null","","","","resp_prompt","","","","","","","","","","","","","","","",""
"categorize-image","42","294212","0.0-2.0-2.0-1.15","y9udf5puv5np8hn","practice_no_cue","5ea0ba31ea87f20b8daa6d7a","5f60e3c0a3b16e07647b2ff9","5f60eec57d0bc6010f8210ce","true","763.4200000029523","./Stimuli/ImagesPractice/SN75.jpg","83","","","","test","false","M + N","76","","SN","SN75.jpg","remember","old","16","1","start","left","","","",""
"html-keyboard-response","43","301954","0.0-2.0-3.0","y9udf5puv5np8hn","break","5ea0ba31ea87f20b8daa6d7a","5f60e3c0a3b16e07647b2ff9","5f60eec57d0bc6010f8210ce","false","7737.885000009555","<p style='font-size: 32px;'>Break</><br><br><br><br><br><p style='font-size: 24px;'>In the last block, you committed 2 errors and did not respond in time on 1 trials.
</p><p style='font-size: 24px;'>Try to respond as fast and accurately as possible in the next block as well! </p><p style='font-size: 24px;'>Press SPACE to continue.</p>","32","","","","","","","","","","","","","","","","","","","",""
"html-keyboard-response","44","308559","0.0-2.0-4.0","y9udf5puv5np8hn","instructions","5ea0ba31ea87f20b8daa6d7a","5f60e3c0a3b16e07647b2ff9","5f60eec57d0bc6010f8210ce","false","6603.134999997565","<div align=left> Great!<br><br>Are you ready to continue?<br><br>If you want to reread the instructions and redo the practice trials, <br>please press „Z“. <br><br>Press SPACE to CONTINUE with the experiment when you are ready. </div>","32","","","","","","","","","","","","","","","","","","","",""
"html-keyboard-response","45","349622","0.0-3.0-0.0","y9udf5puv5np8hn","instructions","5ea0ba31ea87f20b8daa6d7a","5f60e3c0a3b16e07647b2ff9","5f60eec57d0bc6010f8210ce","false","41059.860000008484","<div align=left>Great!<br> <strong>Attention</strong>! You will now receive a second, additional task! <br><br>To this point it was you <strong>first task</strong> to correctly <strong>classify objects</strong>. <br><br>As mentioned in the beginning, we aim to examine how well humans can remember previously learned information.<br>We would like to find out whether our memory improves if we only remember information that is relevant to us. <br><br>Therefore, your <strong>second task</strong> will be to <strong>remember</strong> the pictures you are to categorize. <br> After the learning phase, there will be a memory test phase, in which you will be asked to indicate whether you have seen a picture before or not. <br>Some, but not all pictures shown in the learning phase will appear in the memory test phase.<br>After classifying a picture, you will be told whether you should remember it for the memory test phase or not. <br>Thus, some pictures can be forgotten, whereas others have to be remembered. <br><br>Note: From now on, feedback will only be displayed if you responded incorrectly or not in time.<br><br>Press SPACE to continue.</div>","32","","","","","","","","","","","","","","","","","","","",""
"html-keyboard-response","46","381920","0.0-3.0-1.0","y9udf5puv5np8hn","instructions","5ea0ba31ea87f20b8daa6d7a","5f60e3c0a3b16e07647b2ff9","5f60eec57d0bc6010f8210ce","false","32296.235000001616","<div align=left>In the following part, you will thus have to remember only some pictures. <br>Immediately after seeing and classifying the picture, a symbol will be displayed, indicating whether you should remember or forget the previous picture. <br><br>A <span style='color: dodgerblue; font-size: 28px'>O</span> indicates REMEMBER. That means, you have to remember this picture, because it will be tested later. <br><br>A <span style='color: darkorange; font-size:28px'>Ø</span> indicates FORGET. You do not have to remember this picture. <br><br> As you will have to remember a lot of pictures, it will be hard for you to remember all of them. <br>It will put you at an advantage if you instantly forget the pictures you are not asked to remember. <br> This will make it easier for you to remember the pictures that will be tested afterwards. <br><br>Press SPACE to continue.</div>","32","","","","","","","","","","","","","","","","","","","",""
"html-keyboard-response","47","392459","0.0-3.0-2.0","y9udf5puv5np8hn","instructions","5ea0ba31ea87f20b8daa6d7a","5f60e3c0a3b16e07647b2ff9","5f60eec57d0bc6010f8210ce","false","10537.060000002384","<div align=left> Now you have the chance to practice both tasks together.<br><br>Remember: <br> <br><li>Please place your index fingers on the <strong>'S'</strong> and <strong>'L'</strong> keys <br>to respond as fast and accurately as possible.</li><li>Every picture can be classified as either mechanical or non-mechanical.</li><li>If you do not respond in time or commit an error, you will receive a corresponding feedback. <br>Please try to respond as <strong> fast </strong> and as <strong> accurately as possible </strong>.</li><li> Please remember only the to-be-remembered <span style='color: dodgerblue; font-size: 28px'>O</span> pictures. <br></li><li> Please minimize distractions and stay focused. </li><br><br>Press SPACE to START</div>","32","","","","","","","","","","","","","","","","","","","",""
"html-keyboard-response","48","393165","0.0-3.0-3.0-0.0","y9udf5puv5np8hn","practice_cue","5ea0ba31ea87f20b8daa6d7a","5f60e3c0a3b16e07647b2ff9","5f60eec57d0bc6010f8210ce","false","null","<span style=""color: black; font-size: 48px"">M + N</span>","null","","","","resp_prompt","","","","","","","","","","","","","","","",""
"categorize-image","49","393635","0.0-3.0-3.0-1.0","y9udf5puv5np8hn","practice_cue","5ea0ba31ea87f20b8daa6d7a","5f60e3c0a3b16e07647b2ff9","5f60eec57d0bc6010f8210ce","true","463.43000000342727","./Stimuli/ImagesPractice/SM97.jpg","83","","","","test","true","M + N","83","","SM","SM97.jpg","remember","old","17","2","practice_forget","left","","","",""
"html-keyboard-response","50","395639","0.0-3.0-3.0-3.0","y9udf5puv5np8hn","practice_cue","5ea0ba31ea87f20b8daa6d7a","5f60e3c0a3b16e07647b2ff9","5f60eec57d0bc6010f8210ce","false","null","<div style=""align-items: center; display: flex; color: dodgerblue; font-size: 90px""><b>o</b></div>","null","","","","forget_cue","","","","","","","","","","","","","","","",""
"html-keyboard-response","51","396343","0.0-3.0-3.0-0.1","y9udf5puv5np8hn","practice_cue","5ea0ba31ea87f20b8daa6d7a","5f60e3c0a3b16e07647b2ff9","5f60eec57d0bc6010f8210ce","false","null","<span style=""color: black; font-size: 48px"">N + M</span>","null","","","","resp_prompt","","","","","","","","","","","","","","","",""
"categorize-image","52","396895","0.0-3.0-3.0-1.1","y9udf5puv5np8hn","practice_cue","5ea0ba31ea87f20b8daa6d7a","5f60e3c0a3b16e07647b2ff9","5f60eec57d0bc6010f8210ce","true","547.2650000010617","./Stimuli/ImagesPractice/SM98.jpg","76","","","","test","true","N + M","76","","SM","SM98.jpg","remember","old","18","2","practice_forget","right","","","",""
"html-keyboard-response","53","398897","0.0-3.0-3.0-3.1","y9udf5puv5np8hn","practice_cue","5ea0ba31ea87f20b8daa6d7a","5f60e3c0a3b16e07647b2ff9","5f60eec57d0bc6010f8210ce","false","null","<div style=""align-items: center; display: flex; color: dodgerblue; font-size: 90px""><b>o</b></div>","null","","","","forget_cue","","","","","","","","","","","","","","","",""
"html-keyboard-response","54","399602","0.0-3.0-3.0-0.2","y9udf5puv5np8hn","practice_cue","5ea0ba31ea87f20b8daa6d7a","5f60e3c0a3b16e07647b2ff9","5f60eec57d0bc6010f8210ce","false","null","<span style=""color: black; font-size: 48px"">M + N</span>","null","","","","resp_prompt","","","","","","","","","","","","","","","",""
"categorize-image","55","400070","0.0-3.0-3.0-1.2","y9udf5puv5np8hn","practice_cue","5ea0ba31ea87f20b8daa6d7a","5f60e3c0a3b16e07647b2ff9","5f60eec57d0bc6010f8210ce","true","462.20999999786727","./Stimuli/ImagesPractice/SM35.jpg","83","","","","test","true","M + N","83","","SM","SM35.jpg","forget","old","19","2","practice_forget","left","","","",""
"html-keyboard-response","56","402077","0.0-3.0-3.0-3.2","y9udf5puv5np8hn","practice_cue","5ea0ba31ea87f20b8daa6d7a","5f60e3c0a3b16e07647b2ff9","5f60eec57d0bc6010f8210ce","false","null","<div style=""align-items: center; display: flex; color: darkorange; font-size: 90px""><b>ø</b></div>","null","","","","forget_cue","","","","","","","","","","","","","","","",""
"html-keyboard-response","57","402779","0.0-3.0-3.0-0.3","y9udf5puv5np8hn","practice_cue","5ea0ba31ea87f20b8daa6d7a","5f60e3c0a3b16e07647b2ff9","5f60eec57d0bc6010f8210ce","false","null","<span style=""color: black; font-size: 48px"">M + N</span>","null","","","","resp_prompt","","","","","","","","","","","","","","","",""
"categorize-image","58","403275","0.0-3.0-3.0-1.3","y9udf5puv5np8hn","practice_cue","5ea0ba31ea87f20b8daa6d7a","5f60e3c0a3b16e07647b2ff9","5f60eec57d0bc6010f8210ce","true","490.05000000761356","./Stimuli/ImagesPractice/SN222.jpg","76","","","","test","true","M + N","76","","SN","SN222.jpg","remember","old","20","2","practice_forget","right","","","",""
"html-keyboard-response","59","405280","0.0-3.0-3.0-3.3","y9udf5puv5np8hn","practice_cue","5ea0ba31ea87f20b8daa6d7a","5f60e3c0a3b16e07647b2ff9","5f60eec57d0bc6010f8210ce","false","null","<div style=""align-items: center; display: flex; color: dodgerblue; font-size: 90px""><b>o</b></div>","null","","","","forget_cue","","","","","","","","","","","","","","","",""
"html-keyboard-response","60","405982","0.0-3.0-3.0-0.4","y9udf5puv5np8hn","practice_cue","5ea0ba31ea87f20b8daa6d7a","5f60e3c0a3b16e07647b2ff9","5f60eec57d0bc6010f8210ce","false","null","<span style=""color: black; font-size: 48px"">N + M</span>","null","","","","resp_prompt","","","","","","","","","","","","","","","",""
"categorize-image","61","406419","0.0-3.0-3.0-1.4","y9udf5puv5np8hn","practice_cue","5ea0ba31ea87f20b8daa6d7a","5f60e3c0a3b16e07647b2ff9","5f60eec57d0bc6010f8210ce","true","432.3750000039581","./Stimuli/ImagesPractice/LM143.jpg","76","","","","test","true","N + M","76","","LM","LM143.jpg","remember","old","21","2","practice_forget","right","","","",""
"html-keyboard-response","62","408420","0.0-3.0-3.0-3.4","y9udf5puv5np8hn","practice_cue","5ea0ba31ea87f20b8daa6d7a","5f60e3c0a3b16e07647b2ff9","5f60eec57d0bc6010f8210ce","false","null","<div style=""align-items: center; display: flex; color: dodgerblue; font-size: 90px""><b>o</b></div>","null","","","","forget_cue","","","","","","","","","","","","","","","",""
"html-keyboard-response","63","409127","0.0-3.0-3.0-0.5","y9udf5puv5np8hn","practice_cue","5ea0ba31ea87f20b8daa6d7a","5f60e3c0a3b16e07647b2ff9","5f60eec57d0bc6010f8210ce","false","null","<span style=""color: black; font-size: 48px"">N + M</span>","null","","","","resp_prompt","","","","","","","","","","","","","","","",""
"categorize-image","64","409648","0.0-3.0-3.0-1.5","y9udf5puv5np8hn","practice_cue","5ea0ba31ea87f20b8daa6d7a","5f60e3c0a3b16e07647b2ff9","5f60eec57d0bc6010f8210ce","true","515.7500000059372","./Stimuli/ImagesPractice/LN15.jpg","83","","","","test","true","N + M","83","","LN","LN15.jpg","forget","old","22","2","practice_forget","left","","","",""
"html-keyboard-response","65","411652","0.0-3.0-3.0-3.5","y9udf5puv5np8hn","practice_cue","5ea0ba31ea87f20b8daa6d7a","5f60e3c0a3b16e07647b2ff9","5f60eec57d0bc6010f8210ce","false","null","<div style=""align-items: center; display: flex; color: darkorange; font-size: 90px""><b>ø</b></div>","null","","","","forget_cue","","","","","","","","","","","","","","","",""
"html-keyboard-response","66","412358","0.0-3.0-3.0-0.6","y9udf5puv5np8hn","practice_cue","5ea0ba31ea87f20b8daa6d7a","5f60e3c0a3b16e07647b2ff9","5f60eec57d0bc6010f8210ce","false","null","<span style=""color: black; font-size: 48px"">N + M</span>","null","","","","resp_prompt","","","","","","","","","","","","","","","",""
"categorize-image","67","413060","0.0-3.0-3.0-1.6","y9udf5puv5np8hn","practice_cue","5ea0ba31ea87f20b8daa6d7a","5f60e3c0a3b16e07647b2ff9","5f60eec57d0bc6010f8210ce","true","697.5899999961257","./Stimuli/ImagesPractice/SN221.jpg","83","","","","test","true","N + M","83","","SN","SN221.jpg","forget","old","23","2","practice_forget","left","","","",""
"html-keyboard-response","68","415066","0.0-3.0-3.0-3.6","y9udf5puv5np8hn","practice_cue","5ea0ba31ea87f20b8daa6d7a","5f60e3c0a3b16e07647b2ff9","5f60eec57d0bc6010f8210ce","false","null","<div style=""align-items: center; display: flex; color: darkorange; font-size: 90px""><b>ø</b></div>","null","","","","forget_cue","","","","","","","","","","","","","","","",""
"html-keyboard-response","69","415768","0.0-3.0-3.0-0.7","y9udf5puv5np8hn","practice_cue","5ea0ba31ea87f20b8daa6d7a","5f60e3c0a3b16e07647b2ff9","5f60eec57d0bc6010f8210ce","false","null","<span style=""color: black; font-size: 48px"">M + N</span>","null","","","","resp_prompt","","","","","","","","","","","","","","","",""
"categorize-image","70","416345","0.0-3.0-3.0-1.7","y9udf5puv5np8hn","practice_cue","5ea0ba31ea87f20b8daa6d7a","5f60e3c0a3b16e07647b2ff9","5f60eec57d0bc6010f8210ce","true","571.4999999909196","./Stimuli/ImagesPractice/LM224.jpg","76","","","","test","false","M + N","83","","LM","LM224.jpg","forget","old","24","2","practice_forget","right","","","",""
"html-keyboard-response","71","416849","0.0-3.0-3.0-2.7-0.7","y9udf5puv5np8hn","practice_cue","5ea0ba31ea87f20b8daa6d7a","5f60e3c0a3b16e07647b2ff9","5f60eec57d0bc6010f8210ce","false","null","<span style=""color: red; font-size: 48px"">Error!</span>","null","","","","feedback","","","","","","","","","","","","","","","",""
"html-keyboard-response","72","418852","0.0-3.0-3.0-3.7","y9udf5puv5np8hn","practice_cue","5ea0ba31ea87f20b8daa6d7a","5f60e3c0a3b16e07647b2ff9","5f60eec57d0bc6010f8210ce","false","null","<div style=""align-items: center; display: flex; color: darkorange; font-size: 90px""><b>ø</b></div>","null","","","","forget_cue","","","","","","","","","","","","","","","",""
"html-keyboard-response","73","419558","0.0-3.0-3.0-0.8","y9udf5puv5np8hn","practice_cue","5ea0ba31ea87f20b8daa6d7a","5f60e3c0a3b16e07647b2ff9","5f60eec57d0bc6010f8210ce","false","null","<span style=""color: black; font-size: 48px"">M + N</span>","null","","","","resp_prompt","","","","","","","","","","","","","","","",""
"categorize-image","74","420278","0.0-3.0-3.0-1.8","y9udf5puv5np8hn","practice_cue","5ea0ba31ea87f20b8daa6d7a","5f60e3c0a3b16e07647b2ff9","5f60eec57d0bc6010f8210ce","true","714.7450000047684","./Stimuli/ImagesPractice/LN17.jpg","76","","","","test","true","M + N","76","","LN","LN17.jpg","remember","old","25","2","practice_forget","right","","","",""
"html-keyboard-response","75","422280","0.0-3.0-3.0-3.8","y9udf5puv5np8hn","practice_cue","5ea0ba31ea87f20b8daa6d7a","5f60e3c0a3b16e07647b2ff9","5f60eec57d0bc6010f8210ce","false","null","<div style=""align-items: center; display: flex; color: dodgerblue; font-size: 90px""><b>o</b></div>","null","","","","forget_cue","","","","","","","","","","","","","","","",""
"html-keyboard-response","76","422987","0.0-3.0-3.0-0.9","y9udf5puv5np8hn","practice_cue","5ea0ba31ea87f20b8daa6d7a","5f60e3c0a3b16e07647b2ff9","5f60eec57d0bc6010f8210ce","false","null","<span style=""color: black; font-size: 48px"">M + N</span>","null","","","","resp_prompt","","","","","","","","","","","","","","","",""
"categorize-image","77","423540","0.0-3.0-3.0-1.9","y9udf5puv5np8hn","practice_cue","5ea0ba31ea87f20b8daa6d7a","5f60e3c0a3b16e07647b2ff9","5f60eec57d0bc6010f8210ce","true","547.8500000026543","./Stimuli/ImagesPractice/SN76.jpg","76","","","","test","true","M + N","76","","SN","SN76.jpg","forget","old","26","2","practice_forget","right","","","",""
"html-keyboard-response","78","425545","0.0-3.0-3.0-3.9","y9udf5puv5np8hn","practice_cue","5ea0ba31ea87f20b8daa6d7a","5f60e3c0a3b16e07647b2ff9","5f60eec57d0bc6010f8210ce","false","null","<div style=""align-items: center; display: flex; color: darkorange; font-size: 90px""><b>ø</b></div>","null","","","","forget_cue","","","","","","","","","","","","","","","",""
"html-keyboard-response","79","426247","0.0-3.0-3.0-0.10","y9udf5puv5np8hn","practice_cue","5ea0ba31ea87f20b8daa6d7a","5f60e3c0a3b16e07647b2ff9","5f60eec57d0bc6010f8210ce","false","null","<span style=""color: black; font-size: 48px"">N + M</span>","null","","","","resp_prompt","","","","","","","","","","","","","","","",""
"categorize-image","80","426924","0.0-3.0-3.0-1.10","y9udf5puv5np8hn","practice_cue","5ea0ba31ea87f20b8daa6d7a","5f60e3c0a3b16e07647b2ff9","5f60eec57d0bc6010f8210ce","true","672.709999998915","./Stimuli/ImagesPractice/SM61.jpg","76","","","","test","true","N + M","76","","SM","SM61.jpg","remember","old","27","2","practice_forget","right","","","",""
"html-keyboard-response","81","428930","0.0-3.0-3.0-3.10","y9udf5puv5np8hn","practice_cue","5ea0ba31ea87f20b8daa6d7a","5f60e3c0a3b16e07647b2ff9","5f60eec57d0bc6010f8210ce","false","null","<div style=""align-items: center; display: flex; color: dodgerblue; font-size: 90px""><b>o</b></div>","null","","","","forget_cue","","","","","","","","","","","","","","","",""
"html-keyboard-response","82","429635","0.0-3.0-3.0-0.11","y9udf5puv5np8hn","practice_cue","5ea0ba31ea87f20b8daa6d7a","5f60e3c0a3b16e07647b2ff9","5f60eec57d0bc6010f8210ce","false","null","<span style=""color: black; font-size: 48px"">N + M</span>","null","","","","resp_prompt","","","","","","","","","","","","","","","",""
"categorize-image","83","430288","0.0-3.0-3.0-1.11","y9udf5puv5np8hn","practice_cue","5ea0ba31ea87f20b8daa6d7a","5f60e3c0a3b16e07647b2ff9","5f60eec57d0bc6010f8210ce","true","648.1349999958184","./Stimuli/ImagesPractice/SN220.jpg","83","","","","test","true","N + M","83","","SN","SN220.jpg","forget","old","28","2","practice_forget","left","","","",""
"html-keyboard-response","84","432295","0.0-3.0-3.0-3.11","y9udf5puv5np8hn","practice_cue","5ea0ba31ea87f20b8daa6d7a","5f60e3c0a3b16e07647b2ff9","5f60eec57d0bc6010f8210ce","false","null","<div style=""align-items: center; display: flex; color: darkorange; font-size: 90px""><b>ø</b></div>","null","","","","forget_cue","","","","","","","","","","","","","","","",""
"html-keyboard-response","85","432998","0.0-3.0-3.0-0.12","y9udf5puv5np8hn","practice_cue","5ea0ba31ea87f20b8daa6d7a","5f60e3c0a3b16e07647b2ff9","5f60eec57d0bc6010f8210ce","false","null","<span style=""color: black; font-size: 48px"">N + M</span>","null","","","","resp_prompt","","","","","","","","","","","","","","","",""
"categorize-image","86","433560","0.0-3.0-3.0-1.12","y9udf5puv5np8hn","practice_cue","5ea0ba31ea87f20b8daa6d7a","5f60e3c0a3b16e07647b2ff9","5f60eec57d0bc6010f8210ce","true","556.895000001532","./Stimuli/ImagesPractice/LM55.jpg","76","","","","test","true","N + M","76","","LM","LM55.jpg","remember","old","29","2","practice_forget","right","","","",""
"html-keyboard-response","87","435563","0.0-3.0-3.0-3.12","y9udf5puv5np8hn","practice_cue","5ea0ba31ea87f20b8daa6d7a","5f60e3c0a3b16e07647b2ff9","5f60eec57d0bc6010f8210ce","false","null","<div style=""align-items: center; display: flex; color: dodgerblue; font-size: 90px""><b>o</b></div>","null","","","","forget_cue","","","","","","","","","","","","","","","",""
"html-keyboard-response","88","436265","0.0-3.0-3.0-0.13","y9udf5puv5np8hn","practice_cue","5ea0ba31ea87f20b8daa6d7a","5f60e3c0a3b16e07647b2ff9","5f60eec57d0bc6010f8210ce","false","null","<span style=""color: black; font-size: 48px"">N + M</span>","null","","","","resp_prompt","","","","","","","","","","","","","","","",""
"categorize-image","89","436777","0.0-3.0-3.0-1.13","y9udf5puv5np8hn","practice_cue","5ea0ba31ea87f20b8daa6d7a","5f60e3c0a3b16e07647b2ff9","5f60eec57d0bc6010f8210ce","true","506.9599999987986","./Stimuli/ImagesPractice/LN72.jpg","83","","","","test","true","N + M","83","","LN","LN72.jpg","forget","old","30","2","practice_forget","left","","","",""
"html-keyboard-response","90","438780","0.0-3.0-3.0-3.13","y9udf5puv5np8hn","practice_cue","5ea0ba31ea87f20b8daa6d7a","5f60e3c0a3b16e07647b2ff9","5f60eec57d0bc6010f8210ce","false","null","<div style=""align-items: center; display: flex; color: darkorange; font-size: 90px""><b>ø</b></div>","null","","","","forget_cue","","","","","","","","","","","","","","","",""
"html-keyboard-response","91","439482","0.0-3.0-3.0-0.14","y9udf5puv5np8hn","practice_cue","5ea0ba31ea87f20b8daa6d7a","5f60e3c0a3b16e07647b2ff9","5f60eec57d0bc6010f8210ce","false","null","<span style=""color: black; font-size: 48px"">M + N</span>","null","","","","resp_prompt","","","","","","","","","","","","","","","",""
"categorize-image","92","440100","0.0-3.0-3.0-1.14","y9udf5puv5np8hn","practice_cue","5ea0ba31ea87f20b8daa6d7a","5f60e3c0a3b16e07647b2ff9","5f60eec57d0bc6010f8210ce","true","613.2150000048568","./Stimuli/ImagesPractice/SM62.jpg","83","","","","test","true","M + N","83","","SM","SM62.jpg","forget","old","31","2","practice_forget","left","","","",""
"html-keyboard-response","93","442106","0.0-3.0-3.0-3.14","y9udf5puv5np8hn","practice_cue","5ea0ba31ea87f20b8daa6d7a","5f60e3c0a3b16e07647b2ff9","5f60eec57d0bc6010f8210ce","false","null","<div style=""align-items: center; display: flex; color: darkorange; font-size: 90px""><b>ø</b></div>","null","","","","forget_cue","","","","","","","","","","","","","","","",""
"html-keyboard-response","94","442811","0.0-3.0-3.0-0.15","y9udf5puv5np8hn","practice_cue","5ea0ba31ea87f20b8daa6d7a","5f60e3c0a3b16e07647b2ff9","5f60eec57d0bc6010f8210ce","false","null","<span style=""color: black; font-size: 48px"">M + N</span>","null","","","","resp_prompt","","","","","","","","","","","","","","","",""
"categorize-image","95","443405","0.0-3.0-3.0-1.15","y9udf5puv5np8hn","practice_cue","5ea0ba31ea87f20b8daa6d7a","5f60e3c0a3b16e07647b2ff9","5f60eec57d0bc6010f8210ce","true","588.7500000098953","./Stimuli/ImagesPractice/SN75.jpg","76","","","","test","true","M + N","76","","SN","SN75.jpg","remember","old","32","2","practice_forget","right","","","",""
"html-keyboard-response","96","445408","0.0-3.0-3.0-3.15","y9udf5puv5np8hn","practice_cue","5ea0ba31ea87f20b8daa6d7a","5f60e3c0a3b16e07647b2ff9","5f60eec57d0bc6010f8210ce","false","null","<div style=""align-items: center; display: flex; color: dodgerblue; font-size: 90px""><b>o</b></div>","null","","","","forget_cue","","","","","","","","","","","","","","","",""
"html-keyboard-response","97","448731","0.0-3.0-4.0","y9udf5puv5np8hn","break","5ea0ba31ea87f20b8daa6d7a","5f60e3c0a3b16e07647b2ff9","5f60eec57d0bc6010f8210ce","false","3318.3049999934155","<p style='font-size: 32px;'>Break</><br><br><br><br><br><p style='font-size: 24px;'>In the last block, you committed 1 errors and did not respond in time on 0 trials.
</p><p style='font-size: 24px;'>Try to respond as fast and accurately as possible in the next block as well! </p><p style='font-size: 24px;'>Press SPACE to continue.</p>","32","","","","","","","","","","","","","","","","","","","",""
"html-keyboard-response","98","473010","0.0-3.0-5.0","y9udf5puv5np8hn","instructions","5ea0ba31ea87f20b8daa6d7a","5f60e3c0a3b16e07647b2ff9","5f60eec57d0bc6010f8210ce","false","24277.41999999853","<div align=left> Now, to practice, we kindly ask you to remember as many of the to-be-remembered pictures<br>of the previous learning phase as possible.<br><br>The pictures you were instructed to remember were the pictures followed by a <span style='color: dodgerblue; font-size: 28px'>O</span>.<br><br>In this memory test phase, you will also see some new pictures.<br>It is your task to remember whether you were presented with this specific picture in this study so far or not.<br>If you recognize an object (you have already seen it in this study), it is an OLD object. <br>If you do not recognize an object (you have NOT seen it in this study), it is a NEW object. <br><strong> Attention</strong>: As already mentioned, <span style='color: darkorange; font-size:28px'>Ø</span>-pictures will <strong>never</strong> appear in this memory test (neither as new objects). <br><br>Press SPACE to continue. </div>","32","","","","","","","","","","","","","","","","","","","",""
"html-keyboard-response","99","500963","0.0-3.0-6.0","y9udf5puv5np8hn","instructions","5ea0ba31ea87f20b8daa6d7a","5f60e3c0a3b16e07647b2ff9","5f60eec57d0bc6010f8210ce","false","27949.854999998934","<div align=left> M and N no longer will appear on the left/right of the fixation cross. <br>Instead there will be a note at the bottom of the left or right side  <br>indicating which key you should press for an old or new object:  <br> <br>Press the <strong>right</strong> key to classify an object as <strong>old</strong> and press the <strong>left</strong>, to classify an object as <strong>new</strong>.<br>Please classify the objects as new/old by again placing your index finger on the 'S' and 'L' keys <br>and press them accordingly.<br><br><strong>Old:</strong> This object has been presented before. <br><strong>New:</strong> This object has <strong>not</strong> been presented.<br><br>Now please put your right and left index fingers on the 'S' and 'L' keys of your keyboard. <br>Please respond as fast and as accurately as possible!<br><br>Press SPACE to continue. </div>","32","","","","","","","","","","","","","","","","","","","",""
"categorize-image","100","503276","0.0-3.0-7.0-0.0","y9udf5puv5np8hn","practice_recog","5ea0ba31ea87f20b8daa6d7a","5f60e3c0a3b16e07647b2ff9","5f60eec57d0bc6010f8210ce","true","1804.6650000032969","./Stimuli/ImagesPractice/LM143.jpg","76","","","","test","false","","83","","LM","LM143.jpg","","old","33","3","practice_recog","right","","","",""
"categorize-image","101","504767","0.0-3.0-7.0-0.1","y9udf5puv5np8hn","practice_recog","5ea0ba31ea87f20b8daa6d7a","5f60e3c0a3b16e07647b2ff9","5f60eec57d0bc6010f8210ce","true","983.8749999908032","./Stimuli/ImagesPractice/SM61.jpg","83","","","","test","true","","83","","SM","SM61.jpg","","old","34","3","practice_recog","left","","","",""
"categorize-image","102","505939","0.0-3.0-7.0-0.2","y9udf5puv5np8hn","practice_recog","5ea0ba31ea87f20b8daa6d7a","5f60e3c0a3b16e07647b2ff9","5f60eec57d0bc6010f8210ce","true","664.440000007744","./Stimuli/ImagesPractice/LM55.jpg","83","","","","test","true","","83","","LM","LM55.jpg","","old","35","3","practice_recog","left","","","",""
"categorize-image","103","507220","0.0-3.0-7.0-0.3","y9udf5puv5np8hn","practice_recog","5ea0ba31ea87f20b8daa6d7a","5f60e3c0a3b16e07647b2ff9","5f60eec57d0bc6010f8210ce","true","774.7800000070129","./Stimuli/ImagesPractice/LM230.jpg","76","","","","test","true","","76","","LM","LM230.jpg","","new","36","3","practice_recog","right","","","",""
"categorize-image","104","508553","0.0-3.0-7.0-0.4","y9udf5puv5np8hn","practice_recog","5ea0ba31ea87f20b8daa6d7a","5f60e3c0a3b16e07647b2ff9","5f60eec57d0bc6010f8210ce","true","827.6849999965634","./Stimuli/ImagesPractice/LN17.jpg","83","","","","test","true","","83","","LN","LN17.jpg","","old","37","3","practice_recog","left","","","",""
"categorize-image","105","510503","0.0-3.0-7.0-0.5","y9udf5puv5np8hn","practice_recog","5ea0ba31ea87f20b8daa6d7a","5f60e3c0a3b16e07647b2ff9","5f60eec57d0bc6010f8210ce","true","1444.7950000030687","./Stimuli/ImagesPractice/SN75.jpg","76","","","","test","false","","83","","SN","SN75.jpg","","old","38","3","practice_recog","right","","","",""
"categorize-image","106","512482","0.0-3.0-7.0-0.6","y9udf5puv5np8hn","practice_recog","5ea0ba31ea87f20b8daa6d7a","5f60e3c0a3b16e07647b2ff9","5f60eec57d0bc6010f8210ce","true","1472.1649999992223","./Stimuli/ImagesPractice/LN109.jpg","76","","","","test","true","","76","","LN","LN109.jpg","","new","39","3","practice_recog","right","","","",""
"categorize-image","107","513881","0.0-3.0-7.0-0.7","y9udf5puv5np8hn","practice_recog","5ea0ba31ea87f20b8daa6d7a","5f60e3c0a3b16e07647b2ff9","5f60eec57d0bc6010f8210ce","true","894.799999994575","./Stimuli/ImagesPractice/SN205.jpg","76","","","","test","true","","76","","SN","SN205.jpg","","new","40","3","practice_recog","right","","","",""
"categorize-image","108","515315","0.0-3.0-7.0-0.8","y9udf5puv5np8hn","practice_recog","5ea0ba31ea87f20b8daa6d7a","5f60e3c0a3b16e07647b2ff9","5f60eec57d0bc6010f8210ce","true","926.5250000025844","./Stimuli/ImagesPractice/SM37.jpg","76","","","","test","true","","76","","SM","SM37.jpg","","new","41","3","practice_recog","right","","","",""
"categorize-image","109","516644","0.0-3.0-7.0-0.9","y9udf5puv5np8hn","practice_recog","5ea0ba31ea87f20b8daa6d7a","5f60e3c0a3b16e07647b2ff9","5f60eec57d0bc6010f8210ce","true","824.6500000095693","./Stimuli/ImagesPractice/SM98.jpg","83","","","","test","true","","83","","SM","SM98.jpg","","old","42","3","practice_recog","left","","","",""
"categorize-image","110","518392","0.0-3.0-7.0-0.10","y9udf5puv5np8hn","practice_recog","5ea0ba31ea87f20b8daa6d7a","5f60e3c0a3b16e07647b2ff9","5f60eec57d0bc6010f8210ce","true","1244.474999999511","./Stimuli/ImagesPractice/LM147.jpg","76","","","","test","true","","76","","LM","LM147.jpg","","new","43","3","practice_recog","right","","","",""
"categorize-image","111","519796","0.0-3.0-7.0-0.11","y9udf5puv5np8hn","practice_recog","5ea0ba31ea87f20b8daa6d7a","5f60e3c0a3b16e07647b2ff9","5f60eec57d0bc6010f8210ce","true","899.265000000014","./Stimuli/ImagesPractice/SM97.jpg","83","","","","test","true","","83","","SM","SM97.jpg","","old","44","3","practice_recog","left","","","",""
"categorize-image","112","521459","0.0-3.0-7.0-0.12","y9udf5puv5np8hn","practice_recog","5ea0ba31ea87f20b8daa6d7a","5f60e3c0a3b16e07647b2ff9","5f60eec57d0bc6010f8210ce","true","1154.7500000015134","./Stimuli/ImagesPractice/LN4.jpg","76","","","","test","true","","76","","LN","LN4.jpg","","new","45","3","practice_recog","right","","","",""
"categorize-image","113","522878","0.0-3.0-7.0-0.13","y9udf5puv5np8hn","practice_recog","5ea0ba31ea87f20b8daa6d7a","5f60e3c0a3b16e07647b2ff9","5f60eec57d0bc6010f8210ce","true","911.6249999933643","./Stimuli/ImagesPractice/LN2.jpg","76","","","","test","true","","76","","LN","LN2.jpg","","new","46","3","practice_recog","right","","","",""
"categorize-image","114","524086","0.0-3.0-7.0-0.14","y9udf5puv5np8hn","practice_recog","5ea0ba31ea87f20b8daa6d7a","5f60e3c0a3b16e07647b2ff9","5f60eec57d0bc6010f8210ce","true","701.679999998305","./Stimuli/ImagesPractice/LM239.jpg","76","","","","test","true","","76","","LM","LM239.jpg","","new","47","3","practice_recog","right","","","",""
"categorize-image","115","525398","0.0-3.0-7.0-0.15","y9udf5puv5np8hn","practice_recog","5ea0ba31ea87f20b8daa6d7a","5f60e3c0a3b16e07647b2ff9","5f60eec57d0bc6010f8210ce","true","805.0199999997858","./Stimuli/ImagesPractice/SN222.jpg","83","","","","test","true","","83","","SN","SN222.jpg","","old","48","3","practice_recog","left","","","",""
"html-keyboard-response","116","534892","0.0-3.0-8.0","y9udf5puv5np8hn","instructions","5ea0ba31ea87f20b8daa6d7a","5f60e3c0a3b16e07647b2ff9","5f60eec57d0bc6010f8210ce","false","9492.545000000973","<div align=left> Great!<br><br>Are you ready to continue?<br>If you want to reread the instructions and redo the practice trials, please <br>press „Z“.<br><br>You can proceed when you are ready.<br><br>After the presentation of each object, you will receive an instruction whether to <br>remember or to forget the object.<br>We will test your memory of the following pictures only at the very end of <br>the experiment after all learning blocks are completed. <br><br>Press SPACE to CONTINUE when you are ready. </div>","32","","","","","","","","","","","","","","","","","","","",""
"html-keyboard-response","117","539994","0.0-4.0-0.0","y9udf5puv5np8hn","instructions","5ea0ba31ea87f20b8daa6d7a","5f60e3c0a3b16e07647b2ff9","5f60eec57d0bc6010f8210ce","false","5100.7600000011735","<div align=left> The actual experiment is about to start.<br>The practice trials are over!<br><br>Please always respond both fast and accurately!<br><br>Remember: <br> <br><li> Please place your index fingers on the <strong>'S'</strong> and <strong>'L'</strong> keys <br>to respond as fast and accurately as possible.</li><li> Every picture can be classified as either mechanical or non-mechanical.</li><li> If you do not respond in time or commit an error, you will receive a corresponding feedback.<br> Please try to respond as <strong> fast </strong> and as <strong> accurately as possible </strong>.</li><li> Remember the <span style='color: dodgerblue; font-size: 28px'>O</span> pictures. <br></li><li> Please minimize distractions and stay focused. </li><br><br>Press SPACE to START.</div>","32","","","","","","","","","","","","","","","","","","","",""
"html-keyboard-response","118","540699","0.0-4.0-1.0-0.0","y9udf5puv5np8hn","prime","5ea0ba31ea87f20b8daa6d7a","5f60e3c0a3b16e07647b2ff9","5f60eec57d0bc6010f8210ce","false","null","<span style=""color: black; font-size: 48px"">M + N</span>","null","","","","resp_prompt","","","","","","","","","","","","","","","",""
"categorize-image","119","541214","0.0-4.0-1.0-1.0","y9udf5puv5np8hn","prime","5ea0ba31ea87f20b8daa6d7a","5f60e3c0a3b16e07647b2ff9","5f60eec57d0bc6010f8210ce","true","509.4849999877624","./Stimuli/SelectedImages/SM/SM106.bmp","83","","","","test","true","M + N","83","repetition","SM","SM106.bmp","remember","","49","3","prime1","left","","","",""
"html-keyboard-response","120","543216","0.0-4.0-1.0-3.0","y9udf5puv5np8hn","prime","5ea0ba31ea87f20b8daa6d7a","5f60e3c0a3b16e07647b2ff9","5f60eec57d0bc6010f8210ce","false","null","<div style=""align-items: center; display: flex; color: dodgerblue; font-size: 90px""><b>o</b></div>","null","","","","forget_cue","","","","","","","","","","","","","","","",""
"html-keyboard-response","121","543918","0.0-4.0-1.0-0.1","y9udf5puv5np8hn","prime","5ea0ba31ea87f20b8daa6d7a","5f60e3c0a3b16e07647b2ff9","5f60eec57d0bc6010f8210ce","false","null","<span style=""color: black; font-size: 48px"">M + N</span>","null","","","","resp_prompt","","","","","","","","","","","","","","","",""
"categorize-image","122","544496","0.0-4.0-1.0-1.1","y9udf5puv5np8hn","prime","5ea0ba31ea87f20b8daa6d7a","5f60e3c0a3b16e07647b2ff9","5f60eec57d0bc6010f8210ce","true","573.099999994156","./Stimuli/SelectedImages/SN/SN128.bmp","76","","","","test","true","M + N","76","switch","SN","SN128.bmp","forget","","50","3","prime1","right","","","",""
"html-keyboard-response","123","546499","0.0-4.0-1.0-3.1","y9udf5puv5np8hn","prime","5ea0ba31ea87f20b8daa6d7a","5f60e3c0a3b16e07647b2ff9","5f60eec57d0bc6010f8210ce","false","null","<div style=""align-items: center; display: flex; color: darkorange; font-size: 90px""><b>ø</b></div>","null","","","","forget_cue","","","","","","","","","","","","","","","",""
"html-keyboard-response","124","547202","0.0-4.0-1.0-0.2","y9udf5puv5np8hn","prime","5ea0ba31ea87f20b8daa6d7a","5f60e3c0a3b16e07647b2ff9","5f60eec57d0bc6010f8210ce","false","null","<span style=""color: black; font-size: 48px"">M + N</span>","null","","","","resp_prompt","","","","","","","","","","","","","","","",""
"categorize-image","125","547981","0.0-4.0-1.0-1.2","y9udf5puv5np8hn","prime","5ea0ba31ea87f20b8daa6d7a","5f60e3c0a3b16e07647b2ff9","5f60eec57d0bc6010f8210ce","true","774.424999995972","./Stimuli/SelectedImages/LM/LM157.bmp","83","","","","test","true","M + N","83","repetition","LM","LM157.bmp","forget","","51","3","prime1","left","","","",""
"html-keyboard-response","126","549988","0.0-4.0-1.0-3.2","y9udf5puv5np8hn","prime","5ea0ba31ea87f20b8daa6d7a","5f60e3c0a3b16e07647b2ff9","5f60eec57d0bc6010f8210ce","false","null","<div style=""align-items: center; display: flex; color: darkorange; font-size: 90px""><b>ø</b></div>","null","","","","forget_cue","","","","","","","","","","","","","","","",""
"html-keyboard-response","127","550693","0.0-4.0-1.0-0.3","y9udf5puv5np8hn","prime","5ea0ba31ea87f20b8daa6d7a","5f60e3c0a3b16e07647b2ff9","5f60eec57d0bc6010f8210ce","false","null","<span style=""color: black; font-size: 48px"">M + N</span>","null","","","","resp_prompt","","","","","","","","","","","","","","","",""
"categorize-image","128","551405","0.0-4.0-1.0-1.3","y9udf5puv5np8hn","prime","5ea0ba31ea87f20b8daa6d7a","5f60e3c0a3b16e07647b2ff9","5f60eec57d0bc6010f8210ce","true","707.4949999951059","./Stimuli/SelectedImages/LM/LM59.bmp","83","","","","test","true","M + N","83","repetition","LM","LM59.bmp","remember","","52","3","prime1","left","","","",""
"html-keyboard-response","129","553410","0.0-4.0-1.0-3.3","y9udf5puv5np8hn","prime","5ea0ba31ea87f20b8daa6d7a","5f60e3c0a3b16e07647b2ff9","5f60eec57d0bc6010f8210ce","false","null","<div style=""align-items: center; display: flex; color: dodgerblue; font-size: 90px""><b>o</b></div>","null","","","","forget_cue","","","","","","","","","","","","","","","",""
"html-keyboard-response","130","554117","0.0-4.0-1.0-0.4","y9udf5puv5np8hn","prime","5ea0ba31ea87f20b8daa6d7a","5f60e3c0a3b16e07647b2ff9","5f60eec57d0bc6010f8210ce","false","null","<span style=""color: black; font-size: 48px"">N + M</span>","null","","","","resp_prompt","","","","","","","","","","","","","","","",""
"categorize-image","131","554771","0.0-4.0-1.0-1.4","y9udf5puv5np8hn","prime","5ea0ba31ea87f20b8daa6d7a","5f60e3c0a3b16e07647b2ff9","5f60eec57d0bc6010f8210ce","true","648.4200000122655","./Stimuli/SelectedImages/SM/SM205.bmp","76","","","","test","true","N + M","76","repetition","SM","SM205.bmp","forget","","53","3","prime1","right","","","",""
"html-keyboard-response","132","556774","0.0-4.0-1.0-3.4","y9udf5puv5np8hn","prime","5ea0ba31ea87f20b8daa6d7a","5f60e3c0a3b16e07647b2ff9","5f60eec57d0bc6010f8210ce","false","null","<div style=""align-items: center; display: flex; color: darkorange; font-size: 90px""><b>ø</b></div>","null","","","","forget_cue","","","","","","","","","","","","","","","",""
"html-keyboard-response","133","557477","0.0-4.0-1.0-0.5","y9udf5puv5np8hn","prime","5ea0ba31ea87f20b8daa6d7a","5f60e3c0a3b16e07647b2ff9","5f60eec57d0bc6010f8210ce","false","null","<span style=""color: black; font-size: 48px"">N + M</span>","null","","","","resp_prompt","","","","","","","","","","","","","","","",""
"categorize-image","134","558083","0.0-4.0-1.0-1.5","y9udf5puv5np8hn","prime","5ea0ba31ea87f20b8daa6d7a","5f60e3c0a3b16e07647b2ff9","5f60eec57d0bc6010f8210ce","true","600.2100000041537","./Stimuli/SelectedImages/LN/LN92.bmp","83","","","","test","true","N + M","83","switch","LN","LN92.bmp","remember","","54","3","prime1","left","","","",""
"html-keyboard-response","135","560085","0.0-4.0-1.0-3.5","y9udf5puv5np8hn","prime","5ea0ba31ea87f20b8daa6d7a","5f60e3c0a3b16e07647b2ff9","5f60eec57d0bc6010f8210ce","false","null","<div style=""align-items: center; display: flex; color: dodgerblue; font-size: 90px""><b>o</b></div>","null","","","","forget_cue","","","","","","","","","","","","","","","",""
"html-keyboard-response","136","560787","0.0-4.0-1.0-0.6","y9udf5puv5np8hn","prime","5ea0ba31ea87f20b8daa6d7a","5f60e3c0a3b16e07647b2ff9","5f60eec57d0bc6010f8210ce","false","null","<span style=""color: black; font-size: 48px"">N + M</span>","null","","","","resp_prompt","","","","","","","","","","","","","","","",""
"categorize-image","137","561508","0.0-4.0-1.0-1.6","y9udf5puv5np8hn","prime","5ea0ba31ea87f20b8daa6d7a","5f60e3c0a3b16e07647b2ff9","5f60eec57d0bc6010f8210ce","true","716.5799999929732","./Stimuli/SelectedImages/LM/LM51.bmp","76","","","","test","true","N + M","76","repetition","LM","LM51.bmp","remember","","55","3","prime1","right","","","",""
"html-keyboard-response","138","563514","0.0-4.0-1.0-3.6","y9udf5puv5np8hn","prime","5ea0ba31ea87f20b8daa6d7a","5f60e3c0a3b16e07647b2ff9","5f60eec57d0bc6010f8210ce","false","null","<div style=""align-items: center; display: flex; color: dodgerblue; font-size: 90px""><b>o</b></div>","null","","","","forget_cue","","","","","","","","","","","","","","","",""
"html-keyboard-response","139","564218","0.0-4.0-1.0-0.7","y9udf5puv5np8hn","prime","5ea0ba31ea87f20b8daa6d7a","5f60e3c0a3b16e07647b2ff9","5f60eec57d0bc6010f8210ce","false","null","<span style=""color: black; font-size: 48px"">M + N</span>","null","","","","resp_prompt","","","","","","","","","","","","","","","",""
"categorize-image","140","564669","0.0-4.0-1.0-1.7","y9udf5puv5np8hn","prime","5ea0ba31ea87f20b8daa6d7a","5f60e3c0a3b16e07647b2ff9","5f60eec57d0bc6010f8210ce","true","445.96500000625383","./Stimuli/SelectedImages/LM/LM100.bmp","83","","","","test","true","M + N","83","repetition","LM","LM100.bmp","forget","","56","3","prime1","left","","","",""
"html-keyboard-response","141","566672","0.0-4.0-1.0-3.7","y9udf5puv5np8hn","prime","5ea0ba31ea87f20b8daa6d7a","5f60e3c0a3b16e07647b2ff9","5f60eec57d0bc6010f8210ce","false","null","<div style=""align-items: center; display: flex; color: darkorange; font-size: 90px""><b>ø</b></div>","null","","","","forget_cue","","","","","","","","","","","","","","","",""
"html-keyboard-response","142","567375","0.0-4.0-1.0-0.8","y9udf5puv5np8hn","prime","5ea0ba31ea87f20b8daa6d7a","5f60e3c0a3b16e07647b2ff9","5f60eec57d0bc6010f8210ce","false","null","<span style=""color: black; font-size: 48px"">M + N</span>","null","","","","resp_prompt","","","","","","","","","","","","","","","",""
"categorize-image","143","567919","0.0-4.0-1.0-1.8","y9udf5puv5np8hn","prime","5ea0ba31ea87f20b8daa6d7a","5f60e3c0a3b16e07647b2ff9","5f60eec57d0bc6010f8210ce","true","538.3699999947567","./Stimuli/SelectedImages/LN/LN42.bmp","76","","","","test","true","M + N","76","repetition","LN","LN42.bmp","remember","","57","3","prime1","right","","","",""
"html-keyboard-response","144","569925","0.0-4.0-1.0-3.8","y9udf5puv5np8hn","prime","5ea0ba31ea87f20b8daa6d7a","5f60e3c0a3b16e07647b2ff9","5f60eec57d0bc6010f8210ce","false","null","<div style=""align-items: center; display: flex; color: dodgerblue; font-size: 90px""><b>o</b></div>","null","","","","forget_cue","","","","","","","","","","","","","","","",""
"html-keyboard-response","145","570628","0.0-4.0-1.0-0.9","y9udf5puv5np8hn","prime","5ea0ba31ea87f20b8daa6d7a","5f60e3c0a3b16e07647b2ff9","5f60eec57d0bc6010f8210ce","false","null","<span style=""color: black; font-size: 48px"">M + N</span>","null","","","","resp_prompt","","","","","","","","","","","","","","","",""
"categorize-image","146","571145","0.0-4.0-1.0-1.9","y9udf5puv5np8hn","prime","5ea0ba31ea87f20b8daa6d7a","5f60e3c0a3b16e07647b2ff9","5f60eec57d0bc6010f8210ce","true","512.4400000058813","./Stimuli/SelectedImages/LM/LM129.bmp","83","","","","test","true","M + N","83","repetition","LM","LM129.bmp","remember","","58","3","prime1","left","","","",""
"html-keyboard-response","147","573150","0.0-4.0-1.0-3.9","y9udf5puv5np8hn","prime","5ea0ba31ea87f20b8daa6d7a","5f60e3c0a3b16e07647b2ff9","5f60eec57d0bc6010f8210ce","false","null","<div style=""align-items: center; display: flex; color: dodgerblue; font-size: 90px""><b>o</b></div>","null","","","","forget_cue","","","","","","","","","","","","","","","",""
"html-keyboard-response","148","573855","0.0-4.0-1.0-0.10","y9udf5puv5np8hn","prime","5ea0ba31ea87f20b8daa6d7a","5f60e3c0a3b16e07647b2ff9","5f60eec57d0bc6010f8210ce","false","null","<span style=""color: black; font-size: 48px"">M + N</span>","null","","","","resp_prompt","","","","","","","","","","","","","","","",""
"categorize-image","149","574980","0.0-4.0-1.0-1.10","y9udf5puv5np8hn","prime","5ea0ba31ea87f20b8daa6d7a","5f60e3c0a3b16e07647b2ff9","5f60eec57d0bc6010f8210ce","true","1119.5949999964796","./Stimuli/SelectedImages/SM/SM200.bmp","83","","","","test","true","M + N","83","repetition","SM","SM200.bmp","remember","","59","3","prime1","left","","","",""
"html-keyboard-response","150","576982","0.0-4.0-1.0-3.10","y9udf5puv5np8hn","prime","5ea0ba31ea87f20b8daa6d7a","5f60e3c0a3b16e07647b2ff9","5f60eec57d0bc6010f8210ce","false","null","<div style=""align-items: center; display: flex; color: dodgerblue; font-size: 90px""><b>o</b></div>","null","","","","forget_cue","","","","","","","","","","","","","","","",""
"html-keyboard-response","151","577685","0.0-4.0-1.0-0.11","y9udf5puv5np8hn","prime","5ea0ba31ea87f20b8daa6d7a","5f60e3c0a3b16e07647b2ff9","5f60eec57d0bc6010f8210ce","false","null","<span style=""color: black; font-size: 48px"">N + M</span>","null","","","","resp_prompt","","","","","","","","","","","","","","","",""
"categorize-image","152","578240","0.0-4.0-1.0-1.11","y9udf5puv5np8hn","prime","5ea0ba31ea87f20b8daa6d7a","5f60e3c0a3b16e07647b2ff9","5f60eec57d0bc6010f8210ce","true","550.1599999988684","./Stimuli/SelectedImages/SM/SM78.bmp","76","","","","test","true","N + M","76","switch","SM","SM78.bmp","remember","","60","3","prime1","right","","","",""
"html-keyboard-response","153","580247","0.0-4.0-1.0-3.11","y9udf5puv5np8hn","prime","5ea0ba31ea87f20b8daa6d7a","5f60e3c0a3b16e07647b2ff9","5f60eec57d0bc6010f8210ce","false","null","<div style=""align-items: center; display: flex; color: dodgerblue; font-size: 90px""><b>o</b></div>","null","","","","forget_cue","","","","","","","","","","","","","","","",""
"html-keyboard-response","154","580950","0.0-4.0-1.0-0.12","y9udf5puv5np8hn","prime","5ea0ba31ea87f20b8daa6d7a","5f60e3c0a3b16e07647b2ff9","5f60eec57d0bc6010f8210ce","false","null","<span style=""color: black; font-size: 48px"">N + M</span>","null","","","","resp_prompt","","","","","","","","","","","","","","","",""
"categorize-image","155","581574","0.0-4.0-1.0-1.12","y9udf5puv5np8hn","prime","5ea0ba31ea87f20b8daa6d7a","5f60e3c0a3b16e07647b2ff9","5f60eec57d0bc6010f8210ce","true","619.1449999896577","./Stimuli/SelectedImages/LN/LN59.bmp","83","","","","test","true","N + M","83","switch","LN","LN59.bmp","forget","","61","3","prime1","left","","","",""
"html-keyboard-response","156","583578","0.0-4.0-1.0-3.12","y9udf5puv5np8hn","prime","5ea0ba31ea87f20b8daa6d7a","5f60e3c0a3b16e07647b2ff9","5f60eec57d0bc6010f8210ce","false","null","<div style=""align-items: center; display: flex; color: darkorange; font-size: 90px""><b>ø</b></div>","null","","","","forget_cue","","","","","","","","","","","","","","","",""
"html-keyboard-response","157","584280","0.0-4.0-1.0-0.13","y9udf5puv5np8hn","prime","5ea0ba31ea87f20b8daa6d7a","5f60e3c0a3b16e07647b2ff9","5f60eec57d0bc6010f8210ce","false","null","<span style=""color: black; font-size: 48px"">N + M</span>","null","","","","resp_prompt","","","","","","","","","","","","","","","",""
"categorize-image","158","585176","0.0-4.0-1.0-1.13","y9udf5puv5np8hn","prime","5ea0ba31ea87f20b8daa6d7a","5f60e3c0a3b16e07647b2ff9","5f60eec57d0bc6010f8210ce","true","891.5899999992689","./Stimuli/SelectedImages/LN/LN82.bmp","83","","","","test","true","N + M","83","switch","LN","LN82.bmp","forget","","62","3","prime1","left","","","",""
"html-keyboard-response","159","587183","0.0-4.0-1.0-3.13","y9udf5puv5np8hn","prime","5ea0ba31ea87f20b8daa6d7a","5f60e3c0a3b16e07647b2ff9","5f60eec57d0bc6010f8210ce","false","null","<div style=""align-items: center; display: flex; color: darkorange; font-size: 90px""><b>ø</b></div>","null","","","","forget_cue","","","","","","","","","","","","","","","",""
"html-keyboard-response","160","587884","0.0-4.0-1.0-0.14","y9udf5puv5np8hn","prime","5ea0ba31ea87f20b8daa6d7a","5f60e3c0a3b16e07647b2ff9","5f60eec57d0bc6010f8210ce","false","null","<span style=""color: black; font-size: 48px"">N + M</span>","null","","","","resp_prompt","","","","","","","","","","","","","","","",""
"categorize-image","161","588368","0.0-4.0-1.0-1.14","y9udf5puv5np8hn","prime","5ea0ba31ea87f20b8daa6d7a","5f60e3c0a3b16e07647b2ff9","5f60eec57d0bc6010f8210ce","true","479.075000010198","./Stimuli/SelectedImages/LN/LN177.bmp","83","","","","test","true","N + M","83","repetition","LN","LN177.bmp","forget","","63","3","prime1","left","","","",""
"html-keyboard-response","162","590372","0.0-4.0-1.0-3.14","y9udf5puv5np8hn","prime","5ea0ba31ea87f20b8daa6d7a","5f60e3c0a3b16e07647b2ff9","5f60eec57d0bc6010f8210ce","false","null","<div style=""align-items: center; display: flex; color: darkorange; font-size: 90px""><b>ø</b></div>","null","","","","forget_cue","","","","","","","","","","","","","","","",""
"html-keyboard-response","163","591077","0.0-4.0-1.0-0.15","y9udf5puv5np8hn","prime","5ea0ba31ea87f20b8daa6d7a","5f60e3c0a3b16e07647b2ff9","5f60eec57d0bc6010f8210ce","false","null","<span style=""color: black; font-size: 48px"">M + N</span>","null","","","","resp_prompt","","","","","","","","","","","","","","","",""
"categorize-image","164","591958","0.0-4.0-1.0-1.15","y9udf5puv5np8hn","prime","5ea0ba31ea87f20b8daa6d7a","5f60e3c0a3b16e07647b2ff9","5f60eec57d0bc6010f8210ce","true","875.5850000015926","./Stimuli/SelectedImages/LM/LM235.bmp","83","","","","test","true","M + N","83","switch","LM","LM235.bmp","remember","","64","3","prime1","left","","","",""
"html-keyboard-response","165","593961","0.0-4.0-1.0-3.15","y9udf5puv5np8hn","prime","5ea0ba31ea87f20b8daa6d7a","5f60e3c0a3b16e07647b2ff9","5f60eec57d0bc6010f8210ce","false","null","<div style=""align-items: center; display: flex; color: dodgerblue; font-size: 90px""><b>o</b></div>","null","","","","forget_cue","","","","","","","","","","","","","","","",""
"html-keyboard-response","166","594666","0.0-4.0-1.0-0.16","y9udf5puv5np8hn","prime","5ea0ba31ea87f20b8daa6d7a","5f60e3c0a3b16e07647b2ff9","5f60eec57d0bc6010f8210ce","false","null","<span style=""color: black; font-size: 48px"">N + M</span>","null","","","","resp_prompt","","","","","","","","","","","","","","","",""
"categorize-image","167","595396","0.0-4.0-1.0-1.16","y9udf5puv5np8hn","prime","5ea0ba31ea87f20b8daa6d7a","5f60e3c0a3b16e07647b2ff9","5f60eec57d0bc6010f8210ce","true","724.7899999929359","./Stimuli/SelectedImages/LM/LM167.bmp","76","","","","test","true","N + M","76","switch","LM","LM167.bmp","forget","","65","3","prime1","right","","","",""
"html-keyboard-response","168","597400","0.0-4.0-1.0-3.16","y9udf5puv5np8hn","prime","5ea0ba31ea87f20b8daa6d7a","5f60e3c0a3b16e07647b2ff9","5f60eec57d0bc6010f8210ce","false","null","<div style=""align-items: center; display: flex; color: darkorange; font-size: 90px""><b>ø</b></div>","null","","","","forget_cue","","","","","","","","","","","","","","","",""
"html-keyboard-response","169","598103","0.0-4.0-1.0-0.17","y9udf5puv5np8hn","prime","5ea0ba31ea87f20b8daa6d7a","5f60e3c0a3b16e07647b2ff9","5f60eec57d0bc6010f8210ce","false","null","<span style=""color: black; font-size: 48px"">N + M</span>","null","","","","resp_prompt","","","","","","","","","","","","","","","",""
"categorize-image","170","598765","0.0-4.0-1.0-1.17","y9udf5puv5np8hn","prime","5ea0ba31ea87f20b8daa6d7a","5f60e3c0a3b16e07647b2ff9","5f60eec57d0bc6010f8210ce","true","657.4600000021746","./Stimuli/SelectedImages/SN/SN93.bmp","83","","","","test","true","N + M","83","repetition","SN","SN93.bmp","forget","","66","3","prime1","left","","","",""
"html-keyboard-response","171","600768","0.0-4.0-1.0-3.17","y9udf5puv5np8hn","prime","5ea0ba31ea87f20b8daa6d7a","5f60e3c0a3b16e07647b2ff9","5f60eec57d0bc6010f8210ce","false","null","<div style=""align-items: center; display: flex; color: darkorange; font-size: 90px""><b>ø</b></div>","null","","","","forget_cue","","","","","","","","","","","","","","","",""
"html-keyboard-response","172","601471","0.0-4.0-1.0-0.18","y9udf5puv5np8hn","prime","5ea0ba31ea87f20b8daa6d7a","5f60e3c0a3b16e07647b2ff9","5f60eec57d0bc6010f8210ce","false","null","<span style=""color: black; font-size: 48px"">N + M</span>","null","","","","resp_prompt","","","","","","","","","","","","","","","",""
"categorize-image","173","602134","0.0-4.0-1.0-1.18","y9udf5puv5np8hn","prime","5ea0ba31ea87f20b8daa6d7a","5f60e3c0a3b16e07647b2ff9","5f60eec57d0bc6010f8210ce","true","657.630000001518","./Stimuli/SelectedImages/LM/LM103.bmp","76","","","","test","true","N + M","76","switch","LM","LM103.bmp","forget","","67","3","prime1","right","","","",""
"html-keyboard-response","174","604138","0.0-4.0-1.0-3.18","y9udf5puv5np8hn","prime","5ea0ba31ea87f20b8daa6d7a","5f60e3c0a3b16e07647b2ff9","5f60eec57d0bc6010f8210ce","false","null","<div style=""align-items: center; display: flex; color: darkorange; font-size: 90px""><b>ø</b></div>","null","","","","forget_cue","","","","","","","","","","","","","","","",""
"html-keyboard-response","175","604842","0.0-4.0-1.0-0.19","y9udf5puv5np8hn","prime","5ea0ba31ea87f20b8daa6d7a","5f60e3c0a3b16e07647b2ff9","5f60eec57d0bc6010f8210ce","false","null","<span style=""color: black; font-size: 48px"">N + M</span>","null","","","","resp_prompt","","","","","","","","","","","","","","","",""
"categorize-image","176","605406","0.0-4.0-1.0-1.19","y9udf5puv5np8hn","prime","5ea0ba31ea87f20b8daa6d7a","5f60e3c0a3b16e07647b2ff9","5f60eec57d0bc6010f8210ce","true","560.2550000039628","./Stimuli/SelectedImages/SN/SN182.bmp","83","","","","test","true","N + M","83","repetition","SN","SN182.bmp","remember","","68","3","prime1","left","","","",""
"html-keyboard-response","177","607411","0.0-4.0-1.0-3.19","y9udf5puv5np8hn","prime","5ea0ba31ea87f20b8daa6d7a","5f60e3c0a3b16e07647b2ff9","5f60eec57d0bc6010f8210ce","false","null","<div style=""align-items: center; display: flex; color: dodgerblue; font-size: 90px""><b>o</b></div>","null","","","","forget_cue","","","","","","","","","","","","","","","",""
"html-keyboard-response","178","608119","0.0-4.0-1.0-0.20","y9udf5puv5np8hn","prime","5ea0ba31ea87f20b8daa6d7a","5f60e3c0a3b16e07647b2ff9","5f60eec57d0bc6010f8210ce","false","null","<span style=""color: black; font-size: 48px"">M + N</span>","null","","","","resp_prompt","","","","","","","","","","","","","","","",""
"categorize-image","179","608752","0.0-4.0-1.0-1.20","y9udf5puv5np8hn","prime","5ea0ba31ea87f20b8daa6d7a","5f60e3c0a3b16e07647b2ff9","5f60eec57d0bc6010f8210ce","true","628.0300000071293","./Stimuli/SelectedImages/SN/SN155.bmp","76","","","","test","true","M + N","76","switch","SN","SN155.bmp","remember","","69","3","prime1","right","","","",""
"html-keyboard-response","180","610758","0.0-4.0-1.0-3.20","y9udf5puv5np8hn","prime","5ea0ba31ea87f20b8daa6d7a","5f60e3c0a3b16e07647b2ff9","5f60eec57d0bc6010f8210ce","false","null","<div style=""align-items: center; display: flex; color: dodgerblue; font-size: 90px""><b>o</b></div>","null","","","","forget_cue","","","","","","","","","","","","","","","",""
"html-keyboard-response","181","611460","0.0-4.0-1.0-0.21","y9udf5puv5np8hn","prime","5ea0ba31ea87f20b8daa6d7a","5f60e3c0a3b16e07647b2ff9","5f60eec57d0bc6010f8210ce","false","null","<span style=""color: black; font-size: 48px"">M + N</span>","null","","","","resp_prompt","","","","","","","","","","","","","","","",""
"categorize-image","182","612076","0.0-4.0-1.0-1.21","y9udf5puv5np8hn","prime","5ea0ba31ea87f20b8daa6d7a","5f60e3c0a3b16e07647b2ff9","5f60eec57d0bc6010f8210ce","true","610.1950000011129","./Stimuli/SelectedImages/LM/LM58.bmp","83","","","","test","true","M + N","83","switch","LM","LM58.bmp","forget","","70","3","prime1","left","","","",""
"html-keyboard-response","183","614081","0.0-4.0-1.0-3.21","y9udf5puv5np8hn","prime","5ea0ba31ea87f20b8daa6d7a","5f60e3c0a3b16e07647b2ff9","5f60eec57d0bc6010f8210ce","false","null","<div style=""align-items: center; display: flex; color: darkorange; font-size: 90px""><b>ø</b></div>","null","","","","forget_cue","","","","","","","","","","","","","","","",""
"html-keyboard-response","184","614785","0.0-4.0-1.0-0.22","y9udf5puv5np8hn","prime","5ea0ba31ea87f20b8daa6d7a","5f60e3c0a3b16e07647b2ff9","5f60eec57d0bc6010f8210ce","false","null","<span style=""color: black; font-size: 48px"">M + N</span>","null","","","","resp_prompt","","","","","","","","","","","","","","","",""
"categorize-image","185","615375","0.0-4.0-1.0-1.22","y9udf5puv5np8hn","prime","5ea0ba31ea87f20b8daa6d7a","5f60e3c0a3b16e07647b2ff9","5f60eec57d0bc6010f8210ce","true","584.7550000034971","./Stimuli/SelectedImages/LN/LN131.bmp","76","","","","test","true","M + N","76","switch","LN","LN131.bmp","remember","","71","3","prime1","right","","","",""
"html-keyboard-response","186","617378","0.0-4.0-1.0-3.22","y9udf5puv5np8hn","prime","5ea0ba31ea87f20b8daa6d7a","5f60e3c0a3b16e07647b2ff9","5f60eec57d0bc6010f8210ce","false","null","<div style=""align-items: center; display: flex; color: dodgerblue; font-size: 90px""><b>o</b></div>","null","","","","forget_cue","","","","","","","","","","","","","","","",""
"html-keyboard-response","187","618082","0.0-4.0-1.0-0.23","y9udf5puv5np8hn","prime","5ea0ba31ea87f20b8daa6d7a","5f60e3c0a3b16e07647b2ff9","5f60eec57d0bc6010f8210ce","false","null","<span style=""color: black; font-size: 48px"">N + M</span>","null","","","","resp_prompt","","","","","","","","","","","","","","","",""
"categorize-image","188","618940","0.0-4.0-1.0-1.23","y9udf5puv5np8hn","prime","5ea0ba31ea87f20b8daa6d7a","5f60e3c0a3b16e07647b2ff9","5f60eec57d0bc6010f8210ce","true","853.3250000036787","./Stimuli/SelectedImages/SM/SM17.bmp","76","","","","test","true","N + M","76","repetition","SM","SM17.bmp","remember","","72","3","prime1","right","","","",""
"html-keyboard-response","189","620945","0.0-4.0-1.0-3.23","y9udf5puv5np8hn","prime","5ea0ba31ea87f20b8daa6d7a","5f60e3c0a3b16e07647b2ff9","5f60eec57d0bc6010f8210ce","false","null","<div style=""align-items: center; display: flex; color: dodgerblue; font-size: 90px""><b>o</b></div>","null","","","","forget_cue","","","","","","","","","","","","","","","",""
"html-keyboard-response","190","621649","0.0-4.0-1.0-0.24","y9udf5puv5np8hn","prime","5ea0ba31ea87f20b8daa6d7a","5f60e3c0a3b16e07647b2ff9","5f60eec57d0bc6010f8210ce","false","null","<span style=""color: black; font-size: 48px"">M + N</span>","null","","","","resp_prompt","","","","","","","","","","","","","","","",""
"categorize-image","191","622608","0.0-4.0-1.0-1.24","y9udf5puv5np8hn","prime","5ea0ba31ea87f20b8daa6d7a","5f60e3c0a3b16e07647b2ff9","5f60eec57d0bc6010f8210ce","true","953.8900000043213","./Stimuli/SelectedImages/SN/SN240.bmp","76","","","","test","true","M + N","76","switch","SN","SN240.bmp","forget","","73","3","prime1","right","","","",""
"html-keyboard-response","192","624613","0.0-4.0-1.0-3.24","y9udf5puv5np8hn","prime","5ea0ba31ea87f20b8daa6d7a","5f60e3c0a3b16e07647b2ff9","5f60eec57d0bc6010f8210ce","false","null","<div style=""align-items: center; display: flex; color: darkorange; font-size: 90px""><b>ø</b></div>","null","","","","forget_cue","","","","","","","","","","","","","","","",""
"html-keyboard-response","193","625317","0.0-4.0-1.0-0.25","y9udf5puv5np8hn","prime","5ea0ba31ea87f20b8daa6d7a","5f60e3c0a3b16e07647b2ff9","5f60eec57d0bc6010f8210ce","false","null","<span style=""color: black; font-size: 48px"">M + N</span>","null","","","","resp_prompt","","","","","","","","","","","","","","","",""
"categorize-image","194","626243","0.0-4.0-1.0-1.25","y9udf5puv5np8hn","prime","5ea0ba31ea87f20b8daa6d7a","5f60e3c0a3b16e07647b2ff9","5f60eec57d0bc6010f8210ce","true","921.2350000016158","./Stimuli/SelectedImages/LM/LM209.bmp","83","","","","test","true","M + N","83","switch","LM","LM209.bmp","remember","","74","3","prime1","left","","","",""
"html-keyboard-response","195","628248","0.0-4.0-1.0-3.25","y9udf5puv5np8hn","prime","5ea0ba31ea87f20b8daa6d7a","5f60e3c0a3b16e07647b2ff9","5f60eec57d0bc6010f8210ce","false","null","<div style=""align-items: center; display: flex; color: dodgerblue; font-size: 90px""><b>o</b></div>","null","","","","forget_cue","","","","","","","","","","","","","","","",""
"html-keyboard-response","196","628952","0.0-4.0-1.0-0.26","y9udf5puv5np8hn","prime","5ea0ba31ea87f20b8daa6d7a","5f60e3c0a3b16e07647b2ff9","5f60eec57d0bc6010f8210ce","false","null","<span style=""color: black; font-size: 48px"">N + M</span>","null","","","","resp_prompt","","","","","","","","","","","","","","","",""
"categorize-image","197","629620","0.0-4.0-1.0-1.26","y9udf5puv5np8hn","prime","5ea0ba31ea87f20b8daa6d7a","5f60e3c0a3b16e07647b2ff9","5f60eec57d0bc6010f8210ce","true","663.3900000015274","./Stimuli/SelectedImages/LN/LN166.bmp","83","","","","test","true","N + M","83","repetition","LN","LN166.bmp","remember","","75","3","prime1","left","","","",""
"html-keyboard-response","198","631623","0.0-4.0-1.0-3.26","y9udf5puv5np8hn","prime","5ea0ba31ea87f20b8daa6d7a","5f60e3c0a3b16e07647b2ff9","5f60eec57d0bc6010f8210ce","false","null","<div style=""align-items: center; display: flex; color: dodgerblue; font-size: 90px""><b>o</b></div>","null","","","","forget_cue","","","","","","","","","","","","","","","",""
"html-keyboard-response","199","632326","0.0-4.0-1.0-0.27","y9udf5puv5np8hn","prime","5ea0ba31ea87f20b8daa6d7a","5f60e3c0a3b16e07647b2ff9","5f60eec57d0bc6010f8210ce","false","null","<span style=""color: black; font-size: 48px"">N + M</span>","null","","","","resp_prompt","","","","","","","","","","","","","","","",""
"categorize-image","200","632962","0.0-4.0-1.0-1.27","y9udf5puv5np8hn","prime","5ea0ba31ea87f20b8daa6d7a","5f60e3c0a3b16e07647b2ff9","5f60eec57d0bc6010f8210ce","true","631.22999999905","./Stimuli/SelectedImages/LM/LM179.bmp","76","","","","test","true","N + M","76","switch","LM","LM179.bmp","remember","","76","3","prime1","right","","","",""
"html-keyboard-response","201","634966","0.0-4.0-1.0-3.27","y9udf5puv5np8hn","prime","5ea0ba31ea87f20b8daa6d7a","5f60e3c0a3b16e07647b2ff9","5f60eec57d0bc6010f8210ce","false","null","<div style=""align-items: center; display: flex; color: dodgerblue; font-size: 90px""><b>o</b></div>","null","","","","forget_cue","","","","","","","","","","","","","","","",""
"html-keyboard-response","202","635671","0.0-4.0-1.0-0.28","y9udf5puv5np8hn","prime","5ea0ba31ea87f20b8daa6d7a","5f60e3c0a3b16e07647b2ff9","5f60eec57d0bc6010f8210ce","false","null","<span style=""color: black; font-size: 48px"">N + M</span>","null","","","","resp_prompt","","","","","","","","","","","","","","","",""
"categorize-image","203","636270","0.0-4.0-1.0-1.28","y9udf5puv5np8hn","prime","5ea0ba31ea87f20b8daa6d7a","5f60e3c0a3b16e07647b2ff9","5f60eec57d0bc6010f8210ce","true","591.6950000100769","./Stimuli/SelectedImages/SN/SN64.bmp","83","","","","test","true","N + M","83","switch","SN","SN64.bmp","remember","","77","3","prime1","left","","","",""
"html-keyboard-response","204","638277","0.0-4.0-1.0-3.28","y9udf5puv5np8hn","prime","5ea0ba31ea87f20b8daa6d7a","5f60e3c0a3b16e07647b2ff9","5f60eec57d0bc6010f8210ce","false","null","<div style=""align-items: center; display: flex; color: dodgerblue; font-size: 90px""><b>o</b></div>","null","","","","forget_cue","","","","","","","","","","","","","","","",""
"html-keyboard-response","205","638980","0.0-4.0-1.0-0.29","y9udf5puv5np8hn","prime","5ea0ba31ea87f20b8daa6d7a","5f60e3c0a3b16e07647b2ff9","5f60eec57d0bc6010f8210ce","false","null","<span style=""color: black; font-size: 48px"">M + N</span>","null","","","","resp_prompt","","","","","","","","","","","","","","","",""
"categorize-image","206","639449","0.0-4.0-1.0-1.29","y9udf5puv5np8hn","prime","5ea0ba31ea87f20b8daa6d7a","5f60e3c0a3b16e07647b2ff9","5f60eec57d0bc6010f8210ce","true","464.6199999988312","./Stimuli/SelectedImages/SM/SM207.bmp","83","","","","test","true","M + N","83","repetition","SM","SM207.bmp","forget","","78","3","prime1","left","","","",""
"html-keyboard-response","207","641452","0.0-4.0-1.0-3.29","y9udf5puv5np8hn","prime","5ea0ba31ea87f20b8daa6d7a","5f60e3c0a3b16e07647b2ff9","5f60eec57d0bc6010f8210ce","false","null","<div style=""align-items: center; display: flex; color: darkorange; font-size: 90px""><b>ø</b></div>","null","","","","forget_cue","","","","","","","","","","","","","","","",""
"html-keyboard-response","208","642156","0.0-4.0-1.0-0.30","y9udf5puv5np8hn","prime","5ea0ba31ea87f20b8daa6d7a","5f60e3c0a3b16e07647b2ff9","5f60eec57d0bc6010f8210ce","false","null","<span style=""color: black; font-size: 48px"">N + M</span>","null","","","","resp_prompt","","","","","","","","","","","","","","","",""
"categorize-image","209","642954","0.0-4.0-1.0-1.30","y9udf5puv5np8hn","prime","5ea0ba31ea87f20b8daa6d7a","5f60e3c0a3b16e07647b2ff9","5f60eec57d0bc6010f8210ce","true","793.4099999984028","./Stimuli/SelectedImages/SN/SN181.bmp","83","","","","test","true","N + M","83","repetition","SN","SN181.bmp","remember","","79","3","prime1","left","","","",""
"html-keyboard-response","210","644959","0.0-4.0-1.0-3.30","y9udf5puv5np8hn","prime","5ea0ba31ea87f20b8daa6d7a","5f60e3c0a3b16e07647b2ff9","5f60eec57d0bc6010f8210ce","false","null","<div style=""align-items: center; display: flex; color: dodgerblue; font-size: 90px""><b>o</b></div>","null","","","","forget_cue","","","","","","","","","","","","","","","",""
"html-keyboard-response","211","645666","0.0-4.0-1.0-0.31","y9udf5puv5np8hn","prime","5ea0ba31ea87f20b8daa6d7a","5f60e3c0a3b16e07647b2ff9","5f60eec57d0bc6010f8210ce","false","null","<span style=""color: black; font-size: 48px"">M + N</span>","null","","","","resp_prompt","","","","","","","","","","","","","","","",""
"categorize-image","212","646298","0.0-4.0-1.0-1.31","y9udf5puv5np8hn","prime","5ea0ba31ea87f20b8daa6d7a","5f60e3c0a3b16e07647b2ff9","5f60eec57d0bc6010f8210ce","true","626.7800000059651","./Stimuli/SelectedImages/SN/SN18.bmp","76","","","","test","true","M + N","76","repetition","SN","SN18.bmp","forget","","80","3","prime1","right","","","",""
"html-keyboard-response","213","648301","0.0-4.0-1.0-3.31","y9udf5puv5np8hn","prime","5ea0ba31ea87f20b8daa6d7a","5f60e3c0a3b16e07647b2ff9","5f60eec57d0bc6010f8210ce","false","null","<div style=""align-items: center; display: flex; color: darkorange; font-size: 90px""><b>ø</b></div>","null","","","","forget_cue","","","","","","","","","","","","","","","",""
"html-keyboard-response","214","649003","0.0-4.0-1.0-0.32","y9udf5puv5np8hn","prime","5ea0ba31ea87f20b8daa6d7a","5f60e3c0a3b16e07647b2ff9","5f60eec57d0bc6010f8210ce","false","null","<span style=""color: black; font-size: 48px"">M + N</span>","null","","","","resp_prompt","","","","","","","","","","","","","","","",""
"categorize-image","215","649659","0.0-4.0-1.0-1.32","y9udf5puv5np8hn","prime","5ea0ba31ea87f20b8daa6d7a","5f60e3c0a3b16e07647b2ff9","5f60eec57d0bc6010f8210ce","true","650.950000010198","./Stimuli/SelectedImages/SN/SN140.bmp","76","","","","test","true","M + N","76","switch","SN","SN140.bmp","remember","","81","3","prime1","right","","","",""
"html-keyboard-response","216","651661","0.0-4.0-1.0-3.32","y9udf5puv5np8hn","prime","5ea0ba31ea87f20b8daa6d7a","5f60e3c0a3b16e07647b2ff9","5f60eec57d0bc6010f8210ce","false","null","<div style=""align-items: center; display: flex; color: dodgerblue; font-size: 90px""><b>o</b></div>","null","","","","forget_cue","","","","","","","","","","","","","","","",""
"html-keyboard-response","217","652365","0.0-4.0-1.0-0.33","y9udf5puv5np8hn","prime","5ea0ba31ea87f20b8daa6d7a","5f60e3c0a3b16e07647b2ff9","5f60eec57d0bc6010f8210ce","false","null","<span style=""color: black; font-size: 48px"">N + M</span>","null","","","","resp_prompt","","","","","","","","","","","","","","","",""
"categorize-image","218","653438","0.0-4.0-1.0-1.33","y9udf5puv5np8hn","prime","5ea0ba31ea87f20b8daa6d7a","5f60e3c0a3b16e07647b2ff9","5f60eec57d0bc6010f8210ce","true","1067.704999994021","./Stimuli/SelectedImages/SN/SN187.bmp","83","","","","test","true","N + M","83","switch","SN","SN187.bmp","forget","","82","3","prime1","left","","","",""
"html-keyboard-response","219","655439","0.0-4.0-1.0-3.33","y9udf5puv5np8hn","prime","5ea0ba31ea87f20b8daa6d7a","5f60e3c0a3b16e07647b2ff9","5f60eec57d0bc6010f8210ce","false","null","<div style=""align-items: center; display: flex; color: darkorange; font-size: 90px""><b>ø</b></div>","null","","","","forget_cue","","","","","","","","","","","","","","","",""
"html-keyboard-response","220","656143","0.0-4.0-1.0-0.34","y9udf5puv5np8hn","prime","5ea0ba31ea87f20b8daa6d7a","5f60e3c0a3b16e07647b2ff9","5f60eec57d0bc6010f8210ce","false","null","<span style=""color: black; font-size: 48px"">N + M</span>","null","","","","resp_prompt","","","","","","","","","","","","","","","",""
"categorize-image","221","656817","0.0-4.0-1.0-1.34","y9udf5puv5np8hn","prime","5ea0ba31ea87f20b8daa6d7a","5f60e3c0a3b16e07647b2ff9","5f60eec57d0bc6010f8210ce","true","668.9249999908498","./Stimuli/SelectedImages/SM/SM148.bmp","76","","","","test","true","N + M","76","switch","SM","SM148.bmp","forget","","83","3","prime1","right","","","",""
"html-keyboard-response","222","658818","0.0-4.0-1.0-3.34","y9udf5puv5np8hn","prime","5ea0ba31ea87f20b8daa6d7a","5f60e3c0a3b16e07647b2ff9","5f60eec57d0bc6010f8210ce","false","null","<div style=""align-items: center; display: flex; color: darkorange; font-size: 90px""><b>ø</b></div>","null","","","","forget_cue","","","","","","","","","","","","","","","",""
"html-keyboard-response","223","659522","0.0-4.0-1.0-0.35","y9udf5puv5np8hn","prime","5ea0ba31ea87f20b8daa6d7a","5f60e3c0a3b16e07647b2ff9","5f60eec57d0bc6010f8210ce","false","null","<span style=""color: black; font-size: 48px"">N + M</span>","null","","","","resp_prompt","","","","","","","","","","","","","","","",""
"categorize-image","224","660253","0.0-4.0-1.0-1.35","y9udf5puv5np8hn","prime","5ea0ba31ea87f20b8daa6d7a","5f60e3c0a3b16e07647b2ff9","5f60eec57d0bc6010f8210ce","true","725.7099999987986","./Stimuli/SelectedImages/LN/LN149.bmp","83","","","","test","true","N + M","83","switch","LN","LN149.bmp","remember","","84","3","prime1","left","","","",""
"html-keyboard-response","225","662258","0.0-4.0-1.0-3.35","y9udf5puv5np8hn","prime","5ea0ba31ea87f20b8daa6d7a","5f60e3c0a3b16e07647b2ff9","5f60eec57d0bc6010f8210ce","false","null","<div style=""align-items: center; display: flex; color: dodgerblue; font-size: 90px""><b>o</b></div>","null","","","","forget_cue","","","","","","","","","","","","","","","",""
"html-keyboard-response","226","662962","0.0-4.0-1.0-0.36","y9udf5puv5np8hn","prime","5ea0ba31ea87f20b8daa6d7a","5f60e3c0a3b16e07647b2ff9","5f60eec57d0bc6010f8210ce","false","null","<span style=""color: black; font-size: 48px"">N + M</span>","null","","","","resp_prompt","","","","","","","","","","","","","","","",""
"categorize-image","227","663811","0.0-4.0-1.0-1.36","y9udf5puv5np8hn","prime","5ea0ba31ea87f20b8daa6d7a","5f60e3c0a3b16e07647b2ff9","5f60eec57d0bc6010f8210ce","true","844.4349999917904","./Stimuli/SelectedImages/LM/LM216.bmp","76","","","","test","true","N + M","76","repetition","LM","LM216.bmp","remember","","85","3","prime1","right","","","",""
"html-keyboard-response","228","665817","0.0-4.0-1.0-3.36","y9udf5puv5np8hn","prime","5ea0ba31ea87f20b8daa6d7a","5f60e3c0a3b16e07647b2ff9","5f60eec57d0bc6010f8210ce","false","null","<div style=""align-items: center; display: flex; color: dodgerblue; font-size: 90px""><b>o</b></div>","null","","","","forget_cue","","","","","","","","","","","","","","","",""
"html-keyboard-response","229","666518","0.0-4.0-1.0-0.37","y9udf5puv5np8hn","prime","5ea0ba31ea87f20b8daa6d7a","5f60e3c0a3b16e07647b2ff9","5f60eec57d0bc6010f8210ce","false","null","<span style=""color: black; font-size: 48px"">M + N</span>","null","","","","resp_prompt","","","","","","","","","","","","","","","",""
"categorize-image","230","667532","0.0-4.0-1.0-1.37","y9udf5puv5np8hn","prime","5ea0ba31ea87f20b8daa6d7a","5f60e3c0a3b16e07647b2ff9","5f60eec57d0bc6010f8210ce","true","1008.7800000037532","./Stimuli/SelectedImages/SN/SN111.bmp","76","","","","test","true","M + N","76","repetition","SN","SN111.bmp","remember","","86","3","prime1","right","","","",""
"html-keyboard-response","231","669537","0.0-4.0-1.0-3.37","y9udf5puv5np8hn","prime","5ea0ba31ea87f20b8daa6d7a","5f60e3c0a3b16e07647b2ff9","5f60eec57d0bc6010f8210ce","false","null","<div style=""align-items: center; display: flex; color: dodgerblue; font-size: 90px""><b>o</b></div>","null","","","","forget_cue","","","","","","","","","","","","","","","",""
"html-keyboard-response","232","670241","0.0-4.0-1.0-0.38","y9udf5puv5np8hn","prime","5ea0ba31ea87f20b8daa6d7a","5f60e3c0a3b16e07647b2ff9","5f60eec57d0bc6010f8210ce","false","null","<span style=""color: black; font-size: 48px"">N + M</span>","null","","","","resp_prompt","","","","","","","","","","","","","","","",""
"categorize-image","233","671238","0.0-4.0-1.0-1.38","y9udf5puv5np8hn","prime","5ea0ba31ea87f20b8daa6d7a","5f60e3c0a3b16e07647b2ff9","5f60eec57d0bc6010f8210ce","true","992.2649999934947","./Stimuli/SelectedImages/SN/SN52.bmp","83","","","","test","true","N + M","83","switch","SN","SN52.bmp","forget","","87","3","prime1","left","","","",""
"html-keyboard-response","234","673246","0.0-4.0-1.0-3.38","y9udf5puv5np8hn","prime","5ea0ba31ea87f20b8daa6d7a","5f60e3c0a3b16e07647b2ff9","5f60eec57d0bc6010f8210ce","false","null","<div style=""align-items: center; display: flex; color: darkorange; font-size: 90px""><b>ø</b></div>","null","","","","forget_cue","","","","","","","","","","","","","","","",""
"html-keyboard-response","235","673948","0.0-4.0-1.0-0.39","y9udf5puv5np8hn","prime","5ea0ba31ea87f20b8daa6d7a","5f60e3c0a3b16e07647b2ff9","5f60eec57d0bc6010f8210ce","false","null","<span style=""color: black; font-size: 48px"">N + M</span>","null","","","","resp_prompt","","","","","","","","","","","","","","","",""
"categorize-image","236","674588","0.0-4.0-1.0-1.39","y9udf5puv5np8hn","prime","5ea0ba31ea87f20b8daa6d7a","5f60e3c0a3b16e07647b2ff9","5f60eec57d0bc6010f8210ce","true","634.3099999940023","./Stimuli/SelectedImages/SM/SM213.bmp","76","","","","test","true","N + M","76","repetition","SM","SM213.bmp","remember","","88","3","prime1","right","","","",""
"html-keyboard-response","237","676590","0.0-4.0-1.0-3.39","y9udf5puv5np8hn","prime","5ea0ba31ea87f20b8daa6d7a","5f60e3c0a3b16e07647b2ff9","5f60eec57d0bc6010f8210ce","false","null","<div style=""align-items: center; display: flex; color: dodgerblue; font-size: 90px""><b>o</b></div>","null","","","","forget_cue","","","","","","","","","","","","","","","",""
"html-keyboard-response","238","677295","0.0-4.0-1.0-0.40","y9udf5puv5np8hn","prime","5ea0ba31ea87f20b8daa6d7a","5f60e3c0a3b16e07647b2ff9","5f60eec57d0bc6010f8210ce","false","null","<span style=""color: black; font-size: 48px"">M + N</span>","null","","","","resp_prompt","","","","","","","","","","","","","","","",""
"categorize-image","239","678102","0.0-4.0-1.0-1.40","y9udf5puv5np8hn","prime","5ea0ba31ea87f20b8daa6d7a","5f60e3c0a3b16e07647b2ff9","5f60eec57d0bc6010f8210ce","true","799.5349999982864","./Stimuli/SelectedImages/SM/SM24.bmp","83","","","","test","true","M + N","83","switch","SM","SM24.bmp","remember","","89","3","prime1","left","","","",""
"html-keyboard-response","240","680108","0.0-4.0-1.0-3.40","y9udf5puv5np8hn","prime","5ea0ba31ea87f20b8daa6d7a","5f60e3c0a3b16e07647b2ff9","5f60eec57d0bc6010f8210ce","false","null","<div style=""align-items: center; display: flex; color: dodgerblue; font-size: 90px""><b>o</b></div>","null","","","","forget_cue","","","","","","","","","","","","","","","",""
"html-keyboard-response","241","680810","0.0-4.0-1.0-0.41","y9udf5puv5np8hn","prime","5ea0ba31ea87f20b8daa6d7a","5f60e3c0a3b16e07647b2ff9","5f60eec57d0bc6010f8210ce","false","null","<span style=""color: black; font-size: 48px"">N + M</span>","null","","","","resp_prompt","","","","","","","","","","","","","","","",""
"categorize-image","242","681423","0.0-4.0-1.0-1.41","y9udf5puv5np8hn","prime","5ea0ba31ea87f20b8daa6d7a","5f60e3c0a3b16e07647b2ff9","5f60eec57d0bc6010f8210ce","true","609.1899999883026","./Stimuli/SelectedImages/LN/LN101.bmp","83","","","","test","true","N + M","83","repetition","LN","LN101.bmp","remember","","90","3","prime1","left","","","",""
"html-keyboard-response","243","683429","0.0-4.0-1.0-3.41","y9udf5puv5np8hn","prime","5ea0ba31ea87f20b8daa6d7a","5f60e3c0a3b16e07647b2ff9","5f60eec57d0bc6010f8210ce","false","null","<div style=""align-items: center; display: flex; color: dodgerblue; font-size: 90px""><b>o</b></div>","null","","","","forget_cue","","","","","","","","","","","","","","","",""
"html-keyboard-response","244","684133","0.0-4.0-1.0-0.42","y9udf5puv5np8hn","prime","5ea0ba31ea87f20b8daa6d7a","5f60e3c0a3b16e07647b2ff9","5f60eec57d0bc6010f8210ce","false","null","<span style=""color: black; font-size: 48px"">M + N</span>","null","","","","resp_prompt","","","","","","","","","","","","","","","",""
"categorize-image","245","684878","0.0-4.0-1.0-1.42","y9udf5puv5np8hn","prime","5ea0ba31ea87f20b8daa6d7a","5f60e3c0a3b16e07647b2ff9","5f60eec57d0bc6010f8210ce","true","740.5699999944773","./Stimuli/SelectedImages/LN/LN13.bmp","83","","","","test","false","M + N","76","repetition","LN","LN13.bmp","forget","","91","3","prime1","left","","","",""
"html-keyboard-response","246","685382","0.0-4.0-1.0-2.42-0.42","y9udf5puv5np8hn","prime","5ea0ba31ea87f20b8daa6d7a","5f60e3c0a3b16e07647b2ff9","5f60eec57d0bc6010f8210ce","false","null","<span style=""color: red; font-size: 48px"">Error!</span>","null","","","","feedback","","","","","","","","","","","","","","","",""
"html-keyboard-response","247","687386","0.0-4.0-1.0-3.42","y9udf5puv5np8hn","prime","5ea0ba31ea87f20b8daa6d7a","5f60e3c0a3b16e07647b2ff9","5f60eec57d0bc6010f8210ce","false","null","<div style=""align-items: center; display: flex; color: darkorange; font-size: 90px""><b>ø</b></div>","null","","","","forget_cue","","","","","","","","","","","","","","","",""
"html-keyboard-response","248","688088","0.0-4.0-1.0-0.43","y9udf5puv5np8hn","prime","5ea0ba31ea87f20b8daa6d7a","5f60e3c0a3b16e07647b2ff9","5f60eec57d0bc6010f8210ce","false","null","<span style=""color: black; font-size: 48px"">N + M</span>","null","","","","resp_prompt","","","","","","","","","","","","","","","",""
"categorize-image","249","689035","0.0-4.0-1.0-1.43","y9udf5puv5np8hn","prime","5ea0ba31ea87f20b8daa6d7a","5f60e3c0a3b16e07647b2ff9","5f60eec57d0bc6010f8210ce","true","941.5549999976065","./Stimuli/SelectedImages/SM/SM108.bmp","76","","","","test","true","N + M","76","switch","SM","SM108.bmp","remember","","92","3","prime1","right","","","",""
"html-keyboard-response","250","691039","0.0-4.0-1.0-3.43","y9udf5puv5np8hn","prime","5ea0ba31ea87f20b8daa6d7a","5f60e3c0a3b16e07647b2ff9","5f60eec57d0bc6010f8210ce","false","null","<div style=""align-items: center; display: flex; color: dodgerblue; font-size: 90px""><b>o</b></div>","null","","","","forget_cue","","","","","","","","","","","","","","","",""
"html-keyboard-response","251","691747","0.0-4.0-1.0-0.44","y9udf5puv5np8hn","prime","5ea0ba31ea87f20b8daa6d7a","5f60e3c0a3b16e07647b2ff9","5f60eec57d0bc6010f8210ce","false","null","<span style=""color: black; font-size: 48px"">N + M</span>","null","","","","resp_prompt","","","","","","","","","","","","","","","",""
"categorize-image","252","692250","0.0-4.0-1.0-1.44","y9udf5puv5np8hn","prime","5ea0ba31ea87f20b8daa6d7a","5f60e3c0a3b16e07647b2ff9","5f60eec57d0bc6010f8210ce","true","498.42000000353437","./Stimuli/SelectedImages/LM/LM75.bmp","76","","","","test","true","N + M","76","switch","LM","LM75.bmp","remember","","93","3","prime1","right","","","",""
