"trial_type","trial_index","time_elapsed","internal_node_id","subject","exp_part","prolific_PID","study_ID","session_ID","use","rt","stimulus","key_press","button_pressed","responses","question_order","trial_part","correct","resp_map","correct_resp","probe_condition","category","image","forget_condition","list","trial_num","block_num","block","response","test_part","n_span","sequence","num_spaces"
"pavlovia","0","2","0.0-0.0","lcc2pecy2puec0l","","5e8be450affef10d24343a7f","5f60e3c0a3b16e07647b2ff9","5f6104b6811297046ca266f9","false","","","","","","","","","","","","","","","","","","","","","","",""
"html-keyboard-response","1","7493","0.0-1.0-0.0-0.0","lcc2pecy2puec0l","welcome","5e8be450affef10d24343a7f","5f60e3c0a3b16e07647b2ff9","5f6104b6811297046ca266f9","false","7489.25500002224","<div align=left>Dear participant, <br> thank you for participating in an online study of the Cognition, Action, and Sustainability Unit of the University of Freiburg! <br> <br>The aim of this study is to examine our ability to remember previously learned information. <br>Our goal is to find out, whether our memory improves, when we only remember information that is relevant to us. <br>The experiment will take about 35 minutes to complete. <br> <br>Please, note that you can only participate in this study if you are using a device with a keyboard (PC, Laptop etc.) <br>and not if you are using a mobile device such as a tablet or smartphone.<br> <br>Press 'SPACE' to proceed to the experiment. </div>","32","","","","","","","","","","","","","","","","","","","",""
"html-keyboard-response","2","12135","0.0-1.0-0.0-1.0","lcc2pecy2puec0l","welcome","5e8be450affef10d24343a7f","5f60e3c0a3b16e07647b2ff9","5f6104b6811297046ca266f9","false","4641.434999997728","<div align=left><strong> Time Course of this experiment: </strong> <br><br> <strong> 1.</strong>  First, please fill in some information regarding your demographic data. <br><br> <strong> 2.</strong>  Next, your task will be to classify everyday objects. <br>In addition, you will be asked to remember certain objects and recall them later. <br>Working on these tasks requires your undivided attention and concentration.<br>It is therefore essential that you eliminate any sources of distraction in your  <br>environment and ensure that you will not be disturbed. <br><br><strong> 3.</strong>  At the end of the experiment, you will be asked to answer a few additional questions. <br> <br><strong> Important:</strong> After finishing the experiment, only close the browser window <br> by clicking on the 'end the experiment'-button when you are asked to do so. <br>Closing the browser window prematurely will make the allocation of your participation credit impossible. <br><br> Press 'SPACE' to start the experiment. </div>","32","","","","","","","","","","","","","","","","","","","",""
"html-button-response","3","14507","0.0-1.0-0.0-2.0","lcc2pecy2puec0l","welcome","5e8be450affef10d24343a7f","5f60e3c0a3b16e07647b2ff9","5f6104b6811297046ca266f9","true","2370.56999997003","<div align=left><strong> Informed consent </strong>  <br>The aim of our research is to better understand human behavior and mental processes. <br>In the following study your behavior (e.g. choices, reaction times) will be studied. <br> <br><strong> Voluntariness and Anonymity </strong> <br>Your participation in this study is  <strong> voluntary</strong>.<br>You may withdraw your consent to participate at any time without providing a reason for doing so and without fear of prejudice. <br><br>As no personal data will be collected, <strong>your data and your person cannot be connected after data collection</strong> – the data-set is anonymous. <br>Respectively, deletion of your data will not be possible after data collection has been completed, as we cannot retrace your data-set.<br>The results and anonymized data collected in this study will be published as a scientific publication. <br>This will happen in an <strong>anonymized format</strong>, so that no data can be traced back to a specific person. <br> <br>The anonymized data of this study will be made available to other researchers and/or in a data archive on the Internet as a means of transparency and to enable subsequent re-use. By doing so, this study follows the recommendations of the Deutsche Forschungsgemeinschaft (DFG, German Research Foundation) and Deutsche Gesellschaft für Psychologie (DGPS, German Psychological Society) regarding quality assurance in research.<br>If you have any questions now or after the experiment, please contact our team (experiments@cs.uni-freiburg.de).<br><br><br>I hereby declare, that I understand the above described conditions of participation and I agree to participate under these conditions. <br><br> </div>","","0","","","","","","","","","","","","","","","","","","",""
"html-keyboard-response","4","19553","0.0-1.0-0.0-3.0","lcc2pecy2puec0l","welcome","5e8be450affef10d24343a7f","5f60e3c0a3b16e07647b2ff9","5f6104b6811297046ca266f9","false","5045.335000031628","<div align=left><strong> General information concerning the experiment </strong>  <br> <br>Please follow the instructions:<ol> <li><strong> Do not leave this tab (your browser window) during the experiment and do not reload this tab! </strong>  <br>If you do switch tabs/windows during the experiment (to check your mail or visit another website, for example), <br>the experiment will end automatically and you will <strong>not receive credit</strong> for your participation. <br>Repeated participation or resumption of the experiment is impossible.</li> <br><li>Please close all other programs for the duration of your participation. </li> <br><li>Please mute or turn off your phone and put it out of your reach. </li> <br><li>Please also take off any disturbing accessories (such as wristwatches, bracelets, etc.). </li> <br><li>If you have music playing in the background, please turn it off now. </li> <br></ol>Thank you! <br>Press 'SPACE' to continue. </div>","32","","","","","","","","","","","","","","","","","","","",""
"survey-text","5","25942","0.0-1.0-1.0-0.0","lcc2pecy2puec0l","demographics","5e8be450affef10d24343a7f","5f60e3c0a3b16e07647b2ff9","5f6104b6811297046ca266f9","true","6386.144999996759","","","","{""age"":""28""}","","","","","","","","","","","","","","","","","",""
"survey-multi-choice","6","43818","0.0-1.0-1.0-1.0","lcc2pecy2puec0l","demographics","5e8be450affef10d24343a7f","5f60e3c0a3b16e07647b2ff9","5f6104b6811297046ca266f9","true","17875.060000049416","","","","{""gender"":""male"",""school"":""middle school/secondary school/ graduation from polytechnic high school"",""education"":""Less than high school diploma""}","[0,1,2]","","","","","","","","","","","","","","","","",""
"html-keyboard-response","7","47320","0.0-1.0-2.0","lcc2pecy2puec0l","instructions","5e8be450affef10d24343a7f","5f60e3c0a3b16e07647b2ff9","5f6104b6811297046ca266f9","false","3500.6649999995716","<div align=left> The experiment is now about to start: <br> <br>In the following part, you will be presented pictures of everyday objects. <br>Your first task is to <strong>classify these objects. </strong> <br> <br> You will classify them either as mechanical or non-mechanical objects. <br> <br>Objects that include any kind of technical mechanism (for example, wheels, switches, levers, <br> electronic components) fall under the category of <strong>mechanical</strong> objects. <br>Only objects without any kind of technical mechanism should be classified as <strong>non-mechanical</strong>. <br><br>Press 'SPACE' to continue. </div>","32","","","","","","","","","","","","","","","","","","","",""
"html-keyboard-response","8","72602","0.0-2.0-0.0","lcc2pecy2puec0l","instructions","5e8be450affef10d24343a7f","5f60e3c0a3b16e07647b2ff9","5f6104b6811297046ca266f9","false","25281.094999983907","<div align=justify>You will classify the objects using the <strong>'S'</strong> and the <strong>'L'</strong> keys on your keyboard.<br>For doing so, please place your <strong>left index finger</strong> on the <strong>'S'</strong> key and place your <strong>right index finger</strong> on the <strong>'L'</strong> key. <br><br> Each trial starts with an instruction, indicating which key ('S'/'L') you need to press to classify <br>the object as mechanical (letter M) or non-mechanical (letter N).<br>The instruction <strong>M + N</strong> indicates that, in the current trial, by pressing the left key ('S') you classify the displayed object as mechanical (M) <br> and by pressing the right key ('L') you classify the object as non-mechanical (N). <br>The instruction <strong>N + M</strong> on the other hand indicates that by pressing the left key ('S') you classify the displayed object as non-mechanical (N) <br> and by pressing the right key ('L') you classify the object as mechanical (M). <br><br>Please press the key corresponding to the correct classification as fast as possible as soon as the object is displayed and try to avoid making mistakes.<br>If you do not respond within a 2 second window, a corresponding feedback will be displayed and the next trial will start.<br> The experiment is divided into multiple blocks to give you the opportunity to take a break after each block. <br>First, you can now practice this task. <br><br>Please place your <strong>LEFT INDEX FINGER</strong> on the 'S' key and your <strong>RIGHT INDEX FINGER</strong> on the 'L' key now. <br><br>Press SPACE to continue.</div>","32","","","","","","","","","","","","","","","","","","","",""
"html-keyboard-response","9","84458","0.0-2.0-1.0","lcc2pecy2puec0l","instructions","5e8be450affef10d24343a7f","5f60e3c0a3b16e07647b2ff9","5f6104b6811297046ca266f9","false","11855.534999980591","<div align=left> You will now have time to practice this task.<br><br>Remember: <br> <br><li>Please place your index fingers on the <strong>'S'</strong> and <strong>'L'</strong> keys <br>to respond as fast and accurately as possible.</li><li>Every picture can be classified as either mechanical or non-mechanical.</li><li>If you do not respond in time or commit an error, you will receive a corresponding feedback. </li><li> Please try to respond as <strong> fast </strong> and as <strong> accurately as possible </strong> .<br><li>To ensure optimal results, please minimize distractions and stay focused. </li><br><br>Press SPACE to continue.</div>","32","","","","","","","","","","","","","","","","","","","",""
"html-keyboard-response","10","85160","0.0-2.0-2.0-0.0","lcc2pecy2puec0l","practice_no_cue","5e8be450affef10d24343a7f","5f60e3c0a3b16e07647b2ff9","5f6104b6811297046ca266f9","false","null","<span style=""color: black; font-size: 48px"">M + N</span>","null","","","","resp_prompt","","","","","","","","","","","","","","","",""
"categorize-image","11","87662","0.0-2.0-2.0-1.0","lcc2pecy2puec0l","practice_no_cue","5e8be450affef10d24343a7f","5f60e3c0a3b16e07647b2ff9","5f6104b6811297046ca266f9","true","null","./Stimuli/ImagesPractice/SN222.jpg","null","","","","test","false","M + N","76","","SN","SN222.jpg","remember","old","1","1","start","too_slow","","","",""
"html-keyboard-response","12","88364","0.0-2.0-2.0-0.1","lcc2pecy2puec0l","practice_no_cue","5e8be450affef10d24343a7f","5f60e3c0a3b16e07647b2ff9","5f6104b6811297046ca266f9","false","null","<span style=""color: black; font-size: 48px"">N + M</span>","null","","","","resp_prompt","","","","","","","","","","","","","","","",""
"categorize-image","13","90406","0.0-2.0-2.0-1.1","lcc2pecy2puec0l","practice_no_cue","5e8be450affef10d24343a7f","5f60e3c0a3b16e07647b2ff9","5f6104b6811297046ca266f9","true","1540.7300000078976","./Stimuli/ImagesPractice/LM224.jpg","83","","","","test","false","N + M","76","","LM","LM224.jpg","forget","old","2","1","start","left","","","",""
"html-keyboard-response","14","91108","0.0-2.0-2.0-0.2","lcc2pecy2puec0l","practice_no_cue","5e8be450affef10d24343a7f","5f60e3c0a3b16e07647b2ff9","5f6104b6811297046ca266f9","false","null","<span style=""color: black; font-size: 48px"">N + M</span>","null","","","","resp_prompt","","","","","","","","","","","","","","","",""
"categorize-image","15","92610","0.0-2.0-2.0-1.2","lcc2pecy2puec0l","practice_no_cue","5e8be450affef10d24343a7f","5f60e3c0a3b16e07647b2ff9","5f6104b6811297046ca266f9","true","1000.5349999992177","./Stimuli/ImagesPractice/SN220.jpg","76","","","","test","false","N + M","83","","SN","SN220.jpg","forget","old","3","1","start","right","","","",""
"html-keyboard-response","16","93312","0.0-2.0-2.0-0.3","lcc2pecy2puec0l","practice_no_cue","5e8be450affef10d24343a7f","5f60e3c0a3b16e07647b2ff9","5f6104b6811297046ca266f9","false","null","<span style=""color: black; font-size: 48px"">M + N</span>","null","","","","resp_prompt","","","","","","","","","","","","","","","",""
"categorize-image","17","94008","0.0-2.0-2.0-1.3","lcc2pecy2puec0l","practice_no_cue","5e8be450affef10d24343a7f","5f60e3c0a3b16e07647b2ff9","5f6104b6811297046ca266f9","true","194.7350000264123","./Stimuli/ImagesPractice/SM98.jpg","83","","","","test","true","M + N","83","","SM","SM98.jpg","forget","old","4","1","start","left","","","",""
"html-keyboard-response","18","94710","0.0-2.0-2.0-0.4","lcc2pecy2puec0l","practice_no_cue","5e8be450affef10d24343a7f","5f60e3c0a3b16e07647b2ff9","5f6104b6811297046ca266f9","false","null","<span style=""color: black; font-size: 48px"">N + M</span>","null","","","","resp_prompt","","","","","","","","","","","","","","","",""
"categorize-image","19","95840","0.0-2.0-2.0-1.4","lcc2pecy2puec0l","practice_no_cue","5e8be450affef10d24343a7f","5f60e3c0a3b16e07647b2ff9","5f6104b6811297046ca266f9","true","628.4899999736808","./Stimuli/ImagesPractice/SM62.jpg","83","","","","test","false","N + M","76","","SM","SM62.jpg","remember","old","5","1","start","left","","","",""
"html-keyboard-response","20","96541","0.0-2.0-2.0-0.5","lcc2pecy2puec0l","practice_no_cue","5e8be450affef10d24343a7f","5f60e3c0a3b16e07647b2ff9","5f6104b6811297046ca266f9","false","null","<span style=""color: black; font-size: 48px"">N + M</span>","null","","","","resp_prompt","","","","","","","","","","","","","","","",""
"categorize-image","21","97714","0.0-2.0-2.0-1.5","lcc2pecy2puec0l","practice_no_cue","5e8be450affef10d24343a7f","5f60e3c0a3b16e07647b2ff9","5f6104b6811297046ca266f9","true","671.3200000231154","./Stimuli/ImagesPractice/SM37.jpg","83","","","","test","false","N + M","76","","SM","SM37.jpg","forget","old","6","1","start","left","","","",""
"html-keyboard-response","22","98416","0.0-2.0-2.0-0.6","lcc2pecy2puec0l","practice_no_cue","5e8be450affef10d24343a7f","5f60e3c0a3b16e07647b2ff9","5f6104b6811297046ca266f9","false","null","<span style=""color: black; font-size: 48px"">N + M</span>","null","","","","resp_prompt","","","","","","","","","","","","","","","",""
"categorize-image","23","99218","0.0-2.0-2.0-1.6","lcc2pecy2puec0l","practice_no_cue","5e8be450affef10d24343a7f","5f60e3c0a3b16e07647b2ff9","5f6104b6811297046ca266f9","true","301.4499999699183","./Stimuli/ImagesPractice/LN17.jpg","76","","","","test","false","N + M","83","","LN","LN17.jpg","remember","old","7","1","start","right","","","",""
"html-keyboard-response","24","99920","0.0-2.0-2.0-0.7","lcc2pecy2puec0l","practice_no_cue","5e8be450affef10d24343a7f","5f60e3c0a3b16e07647b2ff9","5f6104b6811297046ca266f9","false","null","<span style=""color: black; font-size: 48px"">M + N</span>","null","","","","resp_prompt","","","","","","","","","","","","","","","",""
"categorize-image","25","101159","0.0-2.0-2.0-1.7","lcc2pecy2puec0l","practice_no_cue","5e8be450affef10d24343a7f","5f60e3c0a3b16e07647b2ff9","5f6104b6811297046ca266f9","true","736.9400000316091","./Stimuli/ImagesPractice/LM55.jpg","76","","","","test","false","M + N","83","","LM","LM55.jpg","remember","old","8","1","start","right","","","",""
"html-keyboard-response","26","101860","0.0-2.0-2.0-0.8","lcc2pecy2puec0l","practice_no_cue","5e8be450affef10d24343a7f","5f60e3c0a3b16e07647b2ff9","5f6104b6811297046ca266f9","false","null","<span style=""color: black; font-size: 48px"">M + N</span>","null","","","","resp_prompt","","","","","","","","","","","","","","","",""
"categorize-image","27","104363","0.0-2.0-2.0-1.8","lcc2pecy2puec0l","practice_no_cue","5e8be450affef10d24343a7f","5f60e3c0a3b16e07647b2ff9","5f6104b6811297046ca266f9","true","null","./Stimuli/ImagesPractice/SN76.jpg","null","","","","test","false","M + N","76","","SN","SN76.jpg","forget","old","9","1","start","too_slow","","","",""
"html-keyboard-response","28","105063","0.0-2.0-2.0-0.9","lcc2pecy2puec0l","practice_no_cue","5e8be450affef10d24343a7f","5f60e3c0a3b16e07647b2ff9","5f6104b6811297046ca266f9","false","null","<span style=""color: black; font-size: 48px"">M + N</span>","null","","","","resp_prompt","","","","","","","","","","","","","","","",""
"categorize-image","29","106503","0.0-2.0-2.0-1.9","lcc2pecy2puec0l","practice_no_cue","5e8be450affef10d24343a7f","5f60e3c0a3b16e07647b2ff9","5f6104b6811297046ca266f9","true","937.8199999919161","./Stimuli/ImagesPractice/LN15.jpg","83","","","","test","false","M + N","76","","LN","LN15.jpg","remember","old","10","1","start","left","","","",""
"html-keyboard-response","30","107204","0.0-2.0-2.0-0.10","lcc2pecy2puec0l","practice_no_cue","5e8be450affef10d24343a7f","5f60e3c0a3b16e07647b2ff9","5f6104b6811297046ca266f9","false","null","<span style=""color: black; font-size: 48px"">M + N</span>","null","","","","resp_prompt","","","","","","","","","","","","","","","",""
"categorize-image","31","108488","0.0-2.0-2.0-1.10","lcc2pecy2puec0l","practice_no_cue","5e8be450affef10d24343a7f","5f60e3c0a3b16e07647b2ff9","5f6104b6811297046ca266f9","true","782.7049999614246","./Stimuli/ImagesPractice/SM61.jpg","83","","","","test","true","M + N","83","","SM","SM61.jpg","remember","old","11","1","start","left","","","",""
"html-keyboard-response","32","109190","0.0-2.0-2.0-0.11","lcc2pecy2puec0l","practice_no_cue","5e8be450affef10d24343a7f","5f60e3c0a3b16e07647b2ff9","5f6104b6811297046ca266f9","false","null","<span style=""color: black; font-size: 48px"">N + M</span>","null","","","","resp_prompt","","","","","","","","","","","","","","","",""
"categorize-image","33","109764","0.0-2.0-2.0-1.11","lcc2pecy2puec0l","practice_no_cue","5e8be450affef10d24343a7f","5f60e3c0a3b16e07647b2ff9","5f6104b6811297046ca266f9","true","72.18999997712672","./Stimuli/ImagesPractice/SN205.jpg","83","","","","test","true","N + M","83","","SN","SN205.jpg","remember","old","12","1","start","left","","","",""
"html-keyboard-response","34","110465","0.0-2.0-2.0-0.12","lcc2pecy2puec0l","practice_no_cue","5e8be450affef10d24343a7f","5f60e3c0a3b16e07647b2ff9","5f6104b6811297046ca266f9","false","null","<span style=""color: black; font-size: 48px"">M + N</span>","null","","","","resp_prompt","","","","","","","","","","","","","","","",""
"categorize-image","35","111259","0.0-2.0-2.0-1.12","lcc2pecy2puec0l","practice_no_cue","5e8be450affef10d24343a7f","5f60e3c0a3b16e07647b2ff9","5f6104b6811297046ca266f9","true","292.01500001363456","./Stimuli/ImagesPractice/SN221.jpg","83","","","","test","false","M + N","76","","SN","SN221.jpg","forget","old","13","1","start","left","","","",""
"html-keyboard-response","36","111961","0.0-2.0-2.0-0.13","lcc2pecy2puec0l","practice_no_cue","5e8be450affef10d24343a7f","5f60e3c0a3b16e07647b2ff9","5f6104b6811297046ca266f9","false","null","<span style=""color: black; font-size: 48px"">N + M</span>","null","","","","resp_prompt","","","","","","","","","","","","","","","",""
"categorize-image","37","112753","0.0-2.0-2.0-1.13","lcc2pecy2puec0l","practice_no_cue","5e8be450affef10d24343a7f","5f60e3c0a3b16e07647b2ff9","5f6104b6811297046ca266f9","true","290.70499999215826","./Stimuli/ImagesPractice/SM35.jpg","83","","","","test","false","N + M","76","","SM","SM35.jpg","forget","old","14","1","start","left","","","",""
"html-keyboard-response","38","113454","0.0-2.0-2.0-0.14","lcc2pecy2puec0l","practice_no_cue","5e8be450affef10d24343a7f","5f60e3c0a3b16e07647b2ff9","5f6104b6811297046ca266f9","false","null","<span style=""color: black; font-size: 48px"">M + N</span>","null","","","","resp_prompt","","","","","","","","","","","","","","","",""
"categorize-image","39","114248","0.0-2.0-2.0-1.14","lcc2pecy2puec0l","practice_no_cue","5e8be450affef10d24343a7f","5f60e3c0a3b16e07647b2ff9","5f6104b6811297046ca266f9","true","292.7800000179559","./Stimuli/ImagesPractice/SN75.jpg","83","","","","test","false","M + N","76","","SN","SN75.jpg","forget","old","15","1","start","left","","","",""
"html-keyboard-response","40","114949","0.0-2.0-2.0-0.15","lcc2pecy2puec0l","practice_no_cue","5e8be450affef10d24343a7f","5f60e3c0a3b16e07647b2ff9","5f6104b6811297046ca266f9","false","null","<span style=""color: black; font-size: 48px"">N + M</span>","null","","","","resp_prompt","","","","","","","","","","","","","","","",""
"categorize-image","41","115468","0.0-2.0-2.0-1.15","lcc2pecy2puec0l","practice_no_cue","5e8be450affef10d24343a7f","5f60e3c0a3b16e07647b2ff9","5f6104b6811297046ca266f9","true","17.269999952986836","./Stimuli/ImagesPractice/LN2.jpg","76","","","","test","false","N + M","83","","LN","LN2.jpg","remember","old","16","1","start","right","","","",""
"html-keyboard-response","42","120599","0.0-2.0-3.0","lcc2pecy2puec0l","break","5e8be450affef10d24343a7f","5f60e3c0a3b16e07647b2ff9","5f6104b6811297046ca266f9","false","5130.215000011958","<p style='font-size: 32px;'>Break</><br><br><br><br><br><p style='font-size: 24px;'>In the last block, you committed 11 errors and did not respond in time on 2 trials.
</p><p style='font-size: 24px;'>Try to respond as fast and accurately as possible in the next block as well! </p><p style='font-size: 24px;'>Press SPACE to continue.</p>","32","","","","","","","","","","","","","","","","","","","",""
"html-keyboard-response","43","126286","0.0-2.0-4.0","lcc2pecy2puec0l","instructions","5e8be450affef10d24343a7f","5f60e3c0a3b16e07647b2ff9","5f6104b6811297046ca266f9","false","5685.694999992847","<div align=left> Great!<br><br>Are you ready to continue?<br><br>If you want to reread the instructions and redo the practice trials, <br>please press „Z“. <br><br>Press SPACE to CONTINUE with the experiment when you are ready. </div>","90","","","","","","","","","","","","","","","","","","","",""
"html-keyboard-response","44","153917","0.0-2.1-0.1","lcc2pecy2puec0l","instructions","5e8be450affef10d24343a7f","5f60e3c0a3b16e07647b2ff9","5f6104b6811297046ca266f9","false","27630.13000000501","<div align=justify>You will classify the objects using the <strong>'S'</strong> and the <strong>'L'</strong> keys on your keyboard.<br>For doing so, please place your <strong>left index finger</strong> on the <strong>'S'</strong> key and place your <strong>right index finger</strong> on the <strong>'L'</strong> key. <br><br> Each trial starts with an instruction, indicating which key ('S'/'L') you need to press to classify <br>the object as mechanical (letter M) or non-mechanical (letter N).<br>The instruction <strong>M + N</strong> indicates that, in the current trial, by pressing the left key ('S') you classify the displayed object as mechanical (M) <br> and by pressing the right key ('L') you classify the object as non-mechanical (N). <br>The instruction <strong>N + M</strong> on the other hand indicates that by pressing the left key ('S') you classify the displayed object as non-mechanical (N) <br> and by pressing the right key ('L') you classify the object as mechanical (M). <br><br>Please press the key corresponding to the correct classification as fast as possible as soon as the object is displayed and try to avoid making mistakes.<br>If you do not respond within a 2 second window, a corresponding feedback will be displayed and the next trial will start.<br> The experiment is divided into multiple blocks to give you the opportunity to take a break after each block. <br>First, you can now practice this task. <br><br>Please place your <strong>LEFT INDEX FINGER</strong> on the 'S' key and your <strong>RIGHT INDEX FINGER</strong> on the 'L' key now. <br><br>Press SPACE to continue.</div>","32","","","","","","","","","","","","","","","","","","","",""
"html-keyboard-response","45","154931","0.0-2.1-1.1","lcc2pecy2puec0l","instructions","5e8be450affef10d24343a7f","5f60e3c0a3b16e07647b2ff9","5f6104b6811297046ca266f9","false","1013.0050000152551","<div align=left> You will now have time to practice this task.<br><br>Remember: <br> <br><li>Please place your index fingers on the <strong>'S'</strong> and <strong>'L'</strong> keys <br>to respond as fast and accurately as possible.</li><li>Every picture can be classified as either mechanical or non-mechanical.</li><li>If you do not respond in time or commit an error, you will receive a corresponding feedback. </li><li> Please try to respond as <strong> fast </strong> and as <strong> accurately as possible </strong> .<br><li>To ensure optimal results, please minimize distractions and stay focused. </li><br><br>Press SPACE to continue.</div>","32","","","","","","","","","","","","","","","","","","","",""
"html-keyboard-response","46","155633","0.0-2.1-2.1-0.16","lcc2pecy2puec0l","practice_no_cue","5e8be450affef10d24343a7f","5f60e3c0a3b16e07647b2ff9","5f6104b6811297046ca266f9","false","null","<span style=""color: black; font-size: 48px"">M + N</span>","null","","","","resp_prompt","","","","","","","","","","","","","","","",""
"categorize-image","47","156615","0.0-2.1-2.1-1.16","lcc2pecy2puec0l","practice_no_cue","5e8be450affef10d24343a7f","5f60e3c0a3b16e07647b2ff9","5f6104b6811297046ca266f9","true","480.12999998172745","./Stimuli/ImagesPractice/SM98.jpg","83","","","","test","true","M + N","83","","SM","SM98.jpg","forget","old","17","2","practice_forget","left","","","",""
"html-keyboard-response","48","157316","0.0-2.1-2.1-0.17","lcc2pecy2puec0l","practice_no_cue","5e8be450affef10d24343a7f","5f60e3c0a3b16e07647b2ff9","5f6104b6811297046ca266f9","false","null","<span style=""color: black; font-size: 48px"">N + M</span>","null","","","","resp_prompt","","","","","","","","","","","","","","","",""
"categorize-image","49","159818","0.0-2.1-2.1-1.17","lcc2pecy2puec0l","practice_no_cue","5e8be450affef10d24343a7f","5f60e3c0a3b16e07647b2ff9","5f6104b6811297046ca266f9","true","null","./Stimuli/ImagesPractice/LN2.jpg","null","","","","test","false","N + M","83","","LN","LN2.jpg","remember","old","18","2","practice_forget","too_slow","","","",""
"html-keyboard-response","50","160519","0.0-2.1-2.1-0.18","lcc2pecy2puec0l","practice_no_cue","5e8be450affef10d24343a7f","5f60e3c0a3b16e07647b2ff9","5f6104b6811297046ca266f9","false","null","<span style=""color: black; font-size: 48px"">N + M</span>","null","","","","resp_prompt","","","","","","","","","","","","","","","",""
"categorize-image","51","161782","0.0-2.1-2.1-1.18","lcc2pecy2puec0l","practice_no_cue","5e8be450affef10d24343a7f","5f60e3c0a3b16e07647b2ff9","5f6104b6811297046ca266f9","true","760.9900000388734","./Stimuli/ImagesPractice/SN205.jpg","76","","","","test","false","N + M","83","","SN","SN205.jpg","remember","old","19","2","practice_forget","right","","","",""
"html-keyboard-response","52","162483","0.0-2.1-2.1-0.19","lcc2pecy2puec0l","practice_no_cue","5e8be450affef10d24343a7f","5f60e3c0a3b16e07647b2ff9","5f6104b6811297046ca266f9","false","null","<span style=""color: black; font-size: 48px"">M + N</span>","null","","","","resp_prompt","","","","","","","","","","","","","","","",""
"categorize-image","53","163355","0.0-2.1-2.1-1.19","lcc2pecy2puec0l","practice_no_cue","5e8be450affef10d24343a7f","5f60e3c0a3b16e07647b2ff9","5f6104b6811297046ca266f9","true","369.8749999748543","./Stimuli/ImagesPractice/SN221.jpg","83","","","","test","false","M + N","76","","SN","SN221.jpg","forget","old","20","2","practice_forget","left","","","",""
"html-keyboard-response","54","164056","0.0-2.1-2.1-0.20","lcc2pecy2puec0l","practice_no_cue","5e8be450affef10d24343a7f","5f60e3c0a3b16e07647b2ff9","5f6104b6811297046ca266f9","false","null","<span style=""color: black; font-size: 48px"">N + M</span>","null","","","","resp_prompt","","","","","","","","","","","","","","","",""
"categorize-image","55","165129","0.0-2.1-2.1-1.20","lcc2pecy2puec0l","practice_no_cue","5e8be450affef10d24343a7f","5f60e3c0a3b16e07647b2ff9","5f6104b6811297046ca266f9","true","572.2450000466779","./Stimuli/ImagesPractice/SM62.jpg","76","","","","test","true","N + M","76","","SM","SM62.jpg","remember","old","21","2","practice_forget","right","","","",""
"html-keyboard-response","56","165831","0.0-2.1-2.1-0.21","lcc2pecy2puec0l","practice_no_cue","5e8be450affef10d24343a7f","5f60e3c0a3b16e07647b2ff9","5f6104b6811297046ca266f9","false","null","<span style=""color: black; font-size: 48px"">M + N</span>","null","","","","resp_prompt","","","","","","","","","","","","","","","",""
"categorize-image","57","167063","0.0-2.1-2.1-1.21","lcc2pecy2puec0l","practice_no_cue","5e8be450affef10d24343a7f","5f60e3c0a3b16e07647b2ff9","5f6104b6811297046ca266f9","true","730.3349999710917","./Stimuli/ImagesPractice/SN75.jpg","76","","","","test","true","M + N","76","","SN","SN75.jpg","forget","old","22","2","practice_forget","right","","","",""
"html-keyboard-response","58","167764","0.0-2.1-2.1-0.22","lcc2pecy2puec0l","practice_no_cue","5e8be450affef10d24343a7f","5f60e3c0a3b16e07647b2ff9","5f6104b6811297046ca266f9","false","null","<span style=""color: black; font-size: 48px"">M + N</span>","null","","","","resp_prompt","","","","","","","","","","","","","","","",""
"categorize-image","59","169009","0.0-2.1-2.1-1.22","lcc2pecy2puec0l","practice_no_cue","5e8be450affef10d24343a7f","5f60e3c0a3b16e07647b2ff9","5f6104b6811297046ca266f9","true","741.7449999484234","./Stimuli/ImagesPractice/SN76.jpg","83","","","","test","false","M + N","76","","SN","SN76.jpg","forget","old","23","2","practice_forget","left","","","",""
"html-keyboard-response","60","169710","0.0-2.1-2.1-0.23","lcc2pecy2puec0l","practice_no_cue","5e8be450affef10d24343a7f","5f60e3c0a3b16e07647b2ff9","5f6104b6811297046ca266f9","false","null","<span style=""color: black; font-size: 48px"">M + N</span>","null","","","","resp_prompt","","","","","","","","","","","","","","","",""
"categorize-image","61","170710","0.0-2.1-2.1-1.23","lcc2pecy2puec0l","practice_no_cue","5e8be450affef10d24343a7f","5f60e3c0a3b16e07647b2ff9","5f6104b6811297046ca266f9","true","498.12000000383705","./Stimuli/ImagesPractice/SM61.jpg","76","","","","test","false","M + N","83","","SM","SM61.jpg","remember","old","24","2","practice_forget","right","","","",""
"html-keyboard-response","62","171412","0.0-2.1-2.1-0.24","lcc2pecy2puec0l","practice_no_cue","5e8be450affef10d24343a7f","5f60e3c0a3b16e07647b2ff9","5f6104b6811297046ca266f9","false","null","<span style=""color: black; font-size: 48px"">M + N</span>","null","","","","resp_prompt","","","","","","","","","","","","","","","",""
"categorize-image","63","172466","0.0-2.1-2.1-1.24","lcc2pecy2puec0l","practice_no_cue","5e8be450affef10d24343a7f","5f60e3c0a3b16e07647b2ff9","5f6104b6811297046ca266f9","true","553.6199999623932","./Stimuli/ImagesPractice/LN15.jpg","76","","","","test","true","M + N","76","","LN","LN15.jpg","remember","old","25","2","practice_forget","right","","","",""
"html-keyboard-response","64","173167","0.0-2.1-2.1-0.25","lcc2pecy2puec0l","practice_no_cue","5e8be450affef10d24343a7f","5f60e3c0a3b16e07647b2ff9","5f6104b6811297046ca266f9","false","null","<span style=""color: black; font-size: 48px"">N + M</span>","null","","","","resp_prompt","","","","","","","","","","","","","","","",""
"categorize-image","65","174280","0.0-2.1-2.1-1.25","lcc2pecy2puec0l","practice_no_cue","5e8be450affef10d24343a7f","5f60e3c0a3b16e07647b2ff9","5f6104b6811297046ca266f9","true","611.559999990277","./Stimuli/ImagesPractice/SM37.jpg","83","","","","test","false","N + M","76","","SM","SM37.jpg","forget","old","26","2","practice_forget","left","","","",""
"html-keyboard-response","66","174982","0.0-2.1-2.1-0.26","lcc2pecy2puec0l","practice_no_cue","5e8be450affef10d24343a7f","5f60e3c0a3b16e07647b2ff9","5f6104b6811297046ca266f9","false","null","<span style=""color: black; font-size: 48px"">M + N</span>","null","","","","resp_prompt","","","","","","","","","","","","","","","",""
"categorize-image","67","175959","0.0-2.1-2.1-1.26","lcc2pecy2puec0l","practice_no_cue","5e8be450affef10d24343a7f","5f60e3c0a3b16e07647b2ff9","5f6104b6811297046ca266f9","true","476.07000003336","./Stimuli/ImagesPractice/LM55.jpg","83","","","","test","true","M + N","83","","LM","LM55.jpg","remember","old","27","2","practice_forget","left","","","",""
"html-keyboard-response","68","176660","0.0-2.1-2.1-0.27","lcc2pecy2puec0l","practice_no_cue","5e8be450affef10d24343a7f","5f60e3c0a3b16e07647b2ff9","5f6104b6811297046ca266f9","false","null","<span style=""color: black; font-size: 48px"">N + M</span>","null","","","","resp_prompt","","","","","","","","","","","","","","","",""
"categorize-image","69","177783","0.0-2.1-2.1-1.27","lcc2pecy2puec0l","practice_no_cue","5e8be450affef10d24343a7f","5f60e3c0a3b16e07647b2ff9","5f6104b6811297046ca266f9","true","622.1249999944121","./Stimuli/ImagesPractice/SM35.jpg","83","","","","test","false","N + M","76","","SM","SM35.jpg","forget","old","28","2","practice_forget","left","","","",""
"html-keyboard-response","70","178485","0.0-2.1-2.1-0.28","lcc2pecy2puec0l","practice_no_cue","5e8be450affef10d24343a7f","5f60e3c0a3b16e07647b2ff9","5f6104b6811297046ca266f9","false","null","<span style=""color: black; font-size: 48px"">M + N</span>","null","","","","resp_prompt","","","","","","","","","","","","","","","",""
"categorize-image","71","179277","0.0-2.1-2.1-1.28","lcc2pecy2puec0l","practice_no_cue","5e8be450affef10d24343a7f","5f60e3c0a3b16e07647b2ff9","5f6104b6811297046ca266f9","true","290.86999996798113","./Stimuli/ImagesPractice/SN222.jpg","83","","","","test","false","M + N","76","","SN","SN222.jpg","remember","old","29","2","practice_forget","left","","","",""
"html-keyboard-response","72","179978","0.0-2.1-2.1-0.29","lcc2pecy2puec0l","practice_no_cue","5e8be450affef10d24343a7f","5f60e3c0a3b16e07647b2ff9","5f6104b6811297046ca266f9","false","null","<span style=""color: black; font-size: 48px"">N + M</span>","null","","","","resp_prompt","","","","","","","","","","","","","","","",""
"categorize-image","73","180780","0.0-2.1-2.1-1.29","lcc2pecy2puec0l","practice_no_cue","5e8be450affef10d24343a7f","5f60e3c0a3b16e07647b2ff9","5f6104b6811297046ca266f9","true","300.7400000351481","./Stimuli/ImagesPractice/LM224.jpg","76","","","","test","true","N + M","76","","LM","LM224.jpg","forget","old","30","2","practice_forget","right","","","",""
"html-keyboard-response","74","181481","0.0-2.1-2.1-0.30","lcc2pecy2puec0l","practice_no_cue","5e8be450affef10d24343a7f","5f60e3c0a3b16e07647b2ff9","5f6104b6811297046ca266f9","false","null","<span style=""color: black; font-size: 48px"">N + M</span>","null","","","","resp_prompt","","","","","","","","","","","","","","","",""
"categorize-image","75","182340","0.0-2.1-2.1-1.30","lcc2pecy2puec0l","practice_no_cue","5e8be450affef10d24343a7f","5f60e3c0a3b16e07647b2ff9","5f6104b6811297046ca266f9","true","357.70499997306615","./Stimuli/ImagesPractice/SN220.jpg","76","","","","test","false","N + M","83","","SN","SN220.jpg","forget","old","31","2","practice_forget","right","","","",""
"html-keyboard-response","76","183041","0.0-2.1-2.1-0.31","lcc2pecy2puec0l","practice_no_cue","5e8be450affef10d24343a7f","5f60e3c0a3b16e07647b2ff9","5f6104b6811297046ca266f9","false","null","<span style=""color: black; font-size: 48px"">N + M</span>","null","","","","resp_prompt","","","","","","","","","","","","","","","",""
"categorize-image","77","183725","0.0-2.1-2.1-1.31","lcc2pecy2puec0l","practice_no_cue","5e8be450affef10d24343a7f","5f60e3c0a3b16e07647b2ff9","5f6104b6811297046ca266f9","true","182.10000003455207","./Stimuli/ImagesPractice/LN17.jpg","76","","","","test","false","N + M","83","","LN","LN17.jpg","remember","old","32","2","practice_forget","right","","","",""
"html-keyboard-response","78","188778","0.0-2.1-3.1","lcc2pecy2puec0l","break","5e8be450affef10d24343a7f","5f60e3c0a3b16e07647b2ff9","5f6104b6811297046ca266f9","false","5051.834999991115","<p style='font-size: 32px;'>Break</><br><br><br><br><br><p style='font-size: 24px;'>In the last block, you committed 9 errors and did not respond in time on 1 trials.
</p><p style='font-size: 24px;'>Try to respond as fast and accurately as possible in the next block as well! </p><p style='font-size: 24px;'>Press SPACE to continue.</p>","32","","","","","","","","","","","","","","","","","","","",""
"html-keyboard-response","79","194248","0.0-2.1-4.1","lcc2pecy2puec0l","instructions","5e8be450affef10d24343a7f","5f60e3c0a3b16e07647b2ff9","5f6104b6811297046ca266f9","false","5468.894999998156","<div align=left> Great!<br><br>Are you ready to continue?<br><br>If you want to reread the instructions and redo the practice trials, <br>please press „Z“. <br><br>Press SPACE to CONTINUE with the experiment when you are ready. </div>","32","","","","","","","","","","","","","","","","","","","",""
"html-keyboard-response","80","195436","0.0-3.0-0.0","lcc2pecy2puec0l","instructions","5e8be450affef10d24343a7f","5f60e3c0a3b16e07647b2ff9","5f6104b6811297046ca266f9","false","1187.3150000465102","<div align=left>Great!<br> <strong>Attention</strong>! You will now receive a second, additional task! <br><br>To this point it was you <strong>first task</strong> to correctly <strong>classify objects</strong>. <br><br>As mentioned in the beginning, we aim to examine how well humans can remember previously learned information.<br>We would like to find out whether our memory improves if we only remember information that is relevant to us. <br><br>Therefore, your <strong>second task</strong> will be to <strong>remember</strong> the pictures you are to categorize. <br> After the learning phase, there will be a memory test phase, in which you will be asked to indicate whether you have seen a picture before or not. <br>Some, but not all pictures shown in the learning phase will appear in the memory test phase.<br>After classifying a picture, you will be told whether you should remember it for the memory test phase or not. <br>Thus, some pictures can be forgotten, whereas others have to be remembered. <br><br>Note: From now on, feedback will only be displayed if you responded incorrectly or not in time.<br><br>Press SPACE to continue.</div>","32","","","","","","","","","","","","","","","","","","","",""
"html-keyboard-response","81","220176","0.0-3.0-1.0","lcc2pecy2puec0l","instructions","5e8be450affef10d24343a7f","5f60e3c0a3b16e07647b2ff9","5f6104b6811297046ca266f9","false","24739.80500001926","<div align=left>In the following part, you will thus have to remember only some pictures. <br>Immediately after seeing and classifying the picture, a symbol will be displayed, indicating whether you should remember or forget the previous picture. <br><br>A <span style='color: dodgerblue; font-size: 28px'>O</span> indicates REMEMBER. That means, you have to remember this picture, because it will be tested later. <br><br>A <span style='color: darkorange; font-size:28px'>Ø</span> indicates FORGET. You do not have to remember this picture. <br><br> As you will have to remember a lot of pictures, it will be hard for you to remember all of them. <br>It will put you at an advantage if you instantly forget the pictures you are not asked to remember. <br> This will make it easier for you to remember the pictures that will be tested afterwards. <br><br>Press SPACE to continue.</div>","32","","","","","","","","","","","","","","","","","","","",""
"html-keyboard-response","82","227854","0.0-3.0-2.0","lcc2pecy2puec0l","instructions","5e8be450affef10d24343a7f","5f60e3c0a3b16e07647b2ff9","5f6104b6811297046ca266f9","false","7677.064999996219","<div align=left> Now you have the chance to practice both tasks together.<br><br>Remember: <br> <br><li>Please place your index fingers on the <strong>'S'</strong> and <strong>'L'</strong> keys <br>to respond as fast and accurately as possible.</li><li>Every picture can be classified as either mechanical or non-mechanical.</li><li>If you do not respond in time or commit an error, you will receive a corresponding feedback. <br>Please try to respond as <strong> fast </strong> and as <strong> accurately as possible </strong>.</li><li> Please remember only the to-be-remembered <span style='color: dodgerblue; font-size: 28px'>O</span> pictures. <br></li><li> Please minimize distractions and stay focused. </li><br><br>Press SPACE to START</div>","32","","","","","","","","","","","","","","","","","","","",""
"html-keyboard-response","83","228556","0.0-3.0-3.0-0.0","lcc2pecy2puec0l","practice_cue","5e8be450affef10d24343a7f","5f60e3c0a3b16e07647b2ff9","5f6104b6811297046ca266f9","false","null","<span style=""color: black; font-size: 48px"">M + N</span>","null","","","","resp_prompt","","","","","","","","","","","","","","","",""
"categorize-image","84","229388","0.0-3.0-3.0-1.0","lcc2pecy2puec0l","practice_cue","5e8be450affef10d24343a7f","5f60e3c0a3b16e07647b2ff9","5f6104b6811297046ca266f9","true","829.3700000504032","./Stimuli/ImagesPractice/LM55.jpg","83","","","","test","true","M + N","83","","LM","LM55.jpg","remember","old","33","3","practice_forget","left","","","",""
"html-keyboard-response","85","231389","0.0-3.0-3.0-3.0","lcc2pecy2puec0l","practice_cue","5e8be450affef10d24343a7f","5f60e3c0a3b16e07647b2ff9","5f6104b6811297046ca266f9","false","null","<div style=""align-items: center; display: flex; color: dodgerblue; font-size: 90px""><b>o</b></div>","null","","","","forget_cue","","","","","","","","","","","","","","","",""
"html-keyboard-response","86","232090","0.0-3.0-3.0-0.1","lcc2pecy2puec0l","practice_cue","5e8be450affef10d24343a7f","5f60e3c0a3b16e07647b2ff9","5f6104b6811297046ca266f9","false","null","<span style=""color: black; font-size: 48px"">N + M</span>","null","","","","resp_prompt","","","","","","","","","","","","","","","",""
"categorize-image","87","234096","0.0-3.0-3.0-1.1","lcc2pecy2puec0l","practice_cue","5e8be450affef10d24343a7f","5f60e3c0a3b16e07647b2ff9","5f6104b6811297046ca266f9","true","null","./Stimuli/ImagesPractice/LN17.jpg","null","","","","test","false","N + M","83","","LN","LN17.jpg","remember","old","34","3","practice_forget","too_slow","","","",""
"html-keyboard-response","88","234597","0.0-3.0-3.0-2.1-0.1","lcc2pecy2puec0l","practice_cue","5e8be450affef10d24343a7f","5f60e3c0a3b16e07647b2ff9","5f6104b6811297046ca266f9","false","null","<span style=""color: red; font-size: 48px"">Too slow!</span>","null","","","","feedback","","","","","","","","","","","","","","","",""
"html-keyboard-response","89","236598","0.0-3.0-3.0-3.1","lcc2pecy2puec0l","practice_cue","5e8be450affef10d24343a7f","5f60e3c0a3b16e07647b2ff9","5f6104b6811297046ca266f9","false","null","<div style=""align-items: center; display: flex; color: dodgerblue; font-size: 90px""><b>o</b></div>","null","","","","forget_cue","","","","","","","","","","","","","","","",""
"html-keyboard-response","90","237299","0.0-3.0-3.0-0.2","lcc2pecy2puec0l","practice_cue","5e8be450affef10d24343a7f","5f60e3c0a3b16e07647b2ff9","5f6104b6811297046ca266f9","false","null","<span style=""color: black; font-size: 48px"">M + N</span>","null","","","","resp_prompt","","","","","","","","","","","","","","","",""
"categorize-image","91","237945","0.0-3.0-3.0-1.2","lcc2pecy2puec0l","practice_cue","5e8be450affef10d24343a7f","5f60e3c0a3b16e07647b2ff9","5f6104b6811297046ca266f9","true","643.0549999931827","./Stimuli/ImagesPractice/SN222.jpg","76","","","","test","true","M + N","76","","SN","SN222.jpg","remember","old","35","3","practice_forget","right","","","",""
"html-keyboard-response","92","239946","0.0-3.0-3.0-3.2","lcc2pecy2puec0l","practice_cue","5e8be450affef10d24343a7f","5f60e3c0a3b16e07647b2ff9","5f6104b6811297046ca266f9","false","null","<div style=""align-items: center; display: flex; color: dodgerblue; font-size: 90px""><b>o</b></div>","null","","","","forget_cue","","","","","","","","","","","","","","","",""
"html-keyboard-response","93","240648","0.0-3.0-3.0-0.3","lcc2pecy2puec0l","practice_cue","5e8be450affef10d24343a7f","5f60e3c0a3b16e07647b2ff9","5f6104b6811297046ca266f9","false","null","<span style=""color: black; font-size: 48px"">N + M</span>","null","","","","resp_prompt","","","","","","","","","","","","","","","",""
"categorize-image","94","241396","0.0-3.0-3.0-1.3","lcc2pecy2puec0l","practice_cue","5e8be450affef10d24343a7f","5f60e3c0a3b16e07647b2ff9","5f6104b6811297046ca266f9","true","745.1400000136346","./Stimuli/ImagesPractice/SM62.jpg","83","","","","test","false","N + M","76","","SM","SM62.jpg","remember","old","36","3","practice_forget","left","","","",""
"html-keyboard-response","95","241897","0.0-3.0-3.0-2.3-0.3","lcc2pecy2puec0l","practice_cue","5e8be450affef10d24343a7f","5f60e3c0a3b16e07647b2ff9","5f6104b6811297046ca266f9","false","null","<span style=""color: red; font-size: 48px"">Error!</span>","null","","","","feedback","","","","","","","","","","","","","","","",""
"html-keyboard-response","96","243898","0.0-3.0-3.0-3.3","lcc2pecy2puec0l","practice_cue","5e8be450affef10d24343a7f","5f60e3c0a3b16e07647b2ff9","5f6104b6811297046ca266f9","false","null","<div style=""align-items: center; display: flex; color: dodgerblue; font-size: 90px""><b>o</b></div>","null","","","","forget_cue","","","","","","","","","","","","","","","",""
"html-keyboard-response","97","244599","0.0-3.0-3.0-0.4","lcc2pecy2puec0l","practice_cue","5e8be450affef10d24343a7f","5f60e3c0a3b16e07647b2ff9","5f6104b6811297046ca266f9","false","null","<span style=""color: black; font-size: 48px"">M + N</span>","null","","","","resp_prompt","","","","","","","","","","","","","","","",""
"categorize-image","98","245049","0.0-3.0-3.0-1.4","lcc2pecy2puec0l","practice_cue","5e8be450affef10d24343a7f","5f60e3c0a3b16e07647b2ff9","5f6104b6811297046ca266f9","true","447.2449999884702","./Stimuli/ImagesPractice/SM61.jpg","76","","","","test","false","M + N","83","","SM","SM61.jpg","remember","old","37","3","practice_forget","right","","","",""
"html-keyboard-response","99","245550","0.0-3.0-3.0-2.4-0.4","lcc2pecy2puec0l","practice_cue","5e8be450affef10d24343a7f","5f60e3c0a3b16e07647b2ff9","5f6104b6811297046ca266f9","false","null","<span style=""color: red; font-size: 48px"">Error!</span>","null","","","","feedback","","","","","","","","","","","","","","","",""
"html-keyboard-response","100","247551","0.0-3.0-3.0-3.4","lcc2pecy2puec0l","practice_cue","5e8be450affef10d24343a7f","5f60e3c0a3b16e07647b2ff9","5f6104b6811297046ca266f9","false","null","<div style=""align-items: center; display: flex; color: dodgerblue; font-size: 90px""><b>o</b></div>","null","","","","forget_cue","","","","","","","","","","","","","","","",""
"html-keyboard-response","101","248252","0.0-3.0-3.0-0.5","lcc2pecy2puec0l","practice_cue","5e8be450affef10d24343a7f","5f60e3c0a3b16e07647b2ff9","5f6104b6811297046ca266f9","false","null","<span style=""color: black; font-size: 48px"">N + M</span>","null","","","","resp_prompt","","","","","","","","","","","","","","","",""
"categorize-image","102","249186","0.0-3.0-3.0-1.5","lcc2pecy2puec0l","practice_cue","5e8be450affef10d24343a7f","5f60e3c0a3b16e07647b2ff9","5f6104b6811297046ca266f9","true","930.9600000269711","./Stimuli/ImagesPractice/LN2.jpg","83","","","","test","true","N + M","83","","LN","LN2.jpg","remember","old","38","3","practice_forget","left","","","",""
"html-keyboard-response","103","251187","0.0-3.0-3.0-3.5","lcc2pecy2puec0l","practice_cue","5e8be450affef10d24343a7f","5f60e3c0a3b16e07647b2ff9","5f6104b6811297046ca266f9","false","null","<div style=""align-items: center; display: flex; color: dodgerblue; font-size: 90px""><b>o</b></div>","null","","","","forget_cue","","","","","","","","","","","","","","","",""
"html-keyboard-response","104","251889","0.0-3.0-3.0-0.6","lcc2pecy2puec0l","practice_cue","5e8be450affef10d24343a7f","5f60e3c0a3b16e07647b2ff9","5f6104b6811297046ca266f9","false","null","<span style=""color: black; font-size: 48px"">M + N</span>","null","","","","resp_prompt","","","","","","","","","","","","","","","",""
"categorize-image","105","253894","0.0-3.0-3.0-1.6","lcc2pecy2puec0l","practice_cue","5e8be450affef10d24343a7f","5f60e3c0a3b16e07647b2ff9","5f6104b6811297046ca266f9","true","null","./Stimuli/ImagesPractice/SN76.jpg","null","","","","test","false","M + N","76","","SN","SN76.jpg","forget","old","39","3","practice_forget","too_slow","","","",""
"html-keyboard-response","106","254396","0.0-3.0-3.0-2.6-0.6","lcc2pecy2puec0l","practice_cue","5e8be450affef10d24343a7f","5f60e3c0a3b16e07647b2ff9","5f6104b6811297046ca266f9","false","null","<span style=""color: red; font-size: 48px"">Too slow!</span>","null","","","","feedback","","","","","","","","","","","","","","","",""
"html-keyboard-response","107","256396","0.0-3.0-3.0-3.6","lcc2pecy2puec0l","practice_cue","5e8be450affef10d24343a7f","5f60e3c0a3b16e07647b2ff9","5f6104b6811297046ca266f9","false","null","<div style=""align-items: center; display: flex; color: darkorange; font-size: 90px""><b>ø</b></div>","null","","","","forget_cue","","","","","","","","","","","","","","","",""
"html-keyboard-response","108","257097","0.0-3.0-3.0-0.7","lcc2pecy2puec0l","practice_cue","5e8be450affef10d24343a7f","5f60e3c0a3b16e07647b2ff9","5f6104b6811297046ca266f9","false","null","<span style=""color: black; font-size: 48px"">N + M</span>","null","","","","resp_prompt","","","","","","","","","","","","","","","",""
"categorize-image","109","257319","0.0-3.0-3.0-1.7","lcc2pecy2puec0l","practice_cue","5e8be450affef10d24343a7f","5f60e3c0a3b16e07647b2ff9","5f6104b6811297046ca266f9","true","218.70999998645857","./Stimuli/ImagesPractice/LM224.jpg","76","","","","test","true","N + M","76","","LM","LM224.jpg","forget","old","40","3","practice_forget","right","","","",""
"html-keyboard-response","110","259320","0.0-3.0-3.0-3.7","lcc2pecy2puec0l","practice_cue","5e8be450affef10d24343a7f","5f60e3c0a3b16e07647b2ff9","5f6104b6811297046ca266f9","false","null","<div style=""align-items: center; display: flex; color: darkorange; font-size: 90px""><b>ø</b></div>","null","","","","forget_cue","","","","","","","","","","","","","","","",""
"html-keyboard-response","111","260020","0.0-3.0-3.0-0.8","lcc2pecy2puec0l","practice_cue","5e8be450affef10d24343a7f","5f60e3c0a3b16e07647b2ff9","5f6104b6811297046ca266f9","false","null","<span style=""color: black; font-size: 48px"">N + M</span>","null","","","","resp_prompt","","","","","","","","","","","","","","","",""
"categorize-image","112","260749","0.0-3.0-3.0-1.8","lcc2pecy2puec0l","practice_cue","5e8be450affef10d24343a7f","5f60e3c0a3b16e07647b2ff9","5f6104b6811297046ca266f9","true","726.1750000179745","./Stimuli/ImagesPractice/SM37.jpg","83","","","","test","false","N + M","76","","SM","SM37.jpg","forget","old","41","3","practice_forget","left","","","",""
"html-keyboard-response","113","261250","0.0-3.0-3.0-2.8-0.8","lcc2pecy2puec0l","practice_cue","5e8be450affef10d24343a7f","5f60e3c0a3b16e07647b2ff9","5f6104b6811297046ca266f9","false","null","<span style=""color: red; font-size: 48px"">Error!</span>","null","","","","feedback","","","","","","","","","","","","","","","",""
"html-keyboard-response","114","263252","0.0-3.0-3.0-3.8","lcc2pecy2puec0l","practice_cue","5e8be450affef10d24343a7f","5f60e3c0a3b16e07647b2ff9","5f6104b6811297046ca266f9","false","null","<div style=""align-items: center; display: flex; color: darkorange; font-size: 90px""><b>ø</b></div>","null","","","","forget_cue","","","","","","","","","","","","","","","",""
"html-keyboard-response","115","263953","0.0-3.0-3.0-0.9","lcc2pecy2puec0l","practice_cue","5e8be450affef10d24343a7f","5f60e3c0a3b16e07647b2ff9","5f6104b6811297046ca266f9","false","null","<span style=""color: black; font-size: 48px"">M + N</span>","null","","","","resp_prompt","","","","","","","","","","","","","","","",""
"categorize-image","116","264599","0.0-3.0-3.0-1.9","lcc2pecy2puec0l","practice_cue","5e8be450affef10d24343a7f","5f60e3c0a3b16e07647b2ff9","5f6104b6811297046ca266f9","true","643.1100000045262","./Stimuli/ImagesPractice/SN75.jpg","76","","","","test","true","M + N","76","","SN","SN75.jpg","forget","old","42","3","practice_forget","right","","","",""
"html-keyboard-response","117","266601","0.0-3.0-3.0-3.9","lcc2pecy2puec0l","practice_cue","5e8be450affef10d24343a7f","5f60e3c0a3b16e07647b2ff9","5f6104b6811297046ca266f9","false","null","<div style=""align-items: center; display: flex; color: darkorange; font-size: 90px""><b>ø</b></div>","null","","","","forget_cue","","","","","","","","","","","","","","","",""
"html-keyboard-response","118","267301","0.0-3.0-3.0-0.10","lcc2pecy2puec0l","practice_cue","5e8be450affef10d24343a7f","5f60e3c0a3b16e07647b2ff9","5f6104b6811297046ca266f9","false","null","<span style=""color: black; font-size: 48px"">N + M</span>","null","","","","resp_prompt","","","","","","","","","","","","","","","",""
"categorize-image","119","267766","0.0-3.0-3.0-1.10","lcc2pecy2puec0l","practice_cue","5e8be450affef10d24343a7f","5f60e3c0a3b16e07647b2ff9","5f6104b6811297046ca266f9","true","461.8600000394508","./Stimuli/ImagesPractice/SM35.jpg","83","","","","test","false","N + M","76","","SM","SM35.jpg","forget","old","43","3","practice_forget","left","","","",""
"html-keyboard-response","120","268267","0.0-3.0-3.0-2.10-0.10","lcc2pecy2puec0l","practice_cue","5e8be450affef10d24343a7f","5f60e3c0a3b16e07647b2ff9","5f6104b6811297046ca266f9","false","null","<span style=""color: red; font-size: 48px"">Error!</span>","null","","","","feedback","","","","","","","","","","","","","","","",""
"html-keyboard-response","121","270268","0.0-3.0-3.0-3.10","lcc2pecy2puec0l","practice_cue","5e8be450affef10d24343a7f","5f60e3c0a3b16e07647b2ff9","5f6104b6811297046ca266f9","false","null","<div style=""align-items: center; display: flex; color: darkorange; font-size: 90px""><b>ø</b></div>","null","","","","forget_cue","","","","","","","","","","","","","","","",""
"html-keyboard-response","122","270969","0.0-3.0-3.0-0.11","lcc2pecy2puec0l","practice_cue","5e8be450affef10d24343a7f","5f60e3c0a3b16e07647b2ff9","5f6104b6811297046ca266f9","false","null","<span style=""color: black; font-size: 48px"">M + N</span>","null","","","","resp_prompt","","","","","","","","","","","","","","","",""
"categorize-image","123","271752","0.0-3.0-3.0-1.11","lcc2pecy2puec0l","practice_cue","5e8be450affef10d24343a7f","5f60e3c0a3b16e07647b2ff9","5f6104b6811297046ca266f9","true","780.2349999547005","./Stimuli/ImagesPractice/SM98.jpg","83","","","","test","true","M + N","83","","SM","SM98.jpg","forget","old","44","3","practice_forget","left","","","",""
"html-keyboard-response","124","273753","0.0-3.0-3.0-3.11","lcc2pecy2puec0l","practice_cue","5e8be450affef10d24343a7f","5f60e3c0a3b16e07647b2ff9","5f6104b6811297046ca266f9","false","null","<div style=""align-items: center; display: flex; color: darkorange; font-size: 90px""><b>ø</b></div>","null","","","","forget_cue","","","","","","","","","","","","","","","",""
"html-keyboard-response","125","274453","0.0-3.0-3.0-0.12","lcc2pecy2puec0l","practice_cue","5e8be450affef10d24343a7f","5f60e3c0a3b16e07647b2ff9","5f6104b6811297046ca266f9","false","null","<span style=""color: black; font-size: 48px"">N + M</span>","null","","","","resp_prompt","","","","","","","","","","","","","","","",""
"categorize-image","126","275120","0.0-3.0-3.0-1.12","lcc2pecy2puec0l","practice_cue","5e8be450affef10d24343a7f","5f60e3c0a3b16e07647b2ff9","5f6104b6811297046ca266f9","true","663.620000006631","./Stimuli/ImagesPractice/SN205.jpg","76","","","","test","false","N + M","83","","SN","SN205.jpg","remember","old","45","3","practice_forget","right","","","",""
"html-keyboard-response","127","275621","0.0-3.0-3.0-2.12-0.12","lcc2pecy2puec0l","practice_cue","5e8be450affef10d24343a7f","5f60e3c0a3b16e07647b2ff9","5f6104b6811297046ca266f9","false","null","<span style=""color: red; font-size: 48px"">Error!</span>","null","","","","feedback","","","","","","","","","","","","","","","",""
"html-keyboard-response","128","277622","0.0-3.0-3.0-3.12","lcc2pecy2puec0l","practice_cue","5e8be450affef10d24343a7f","5f60e3c0a3b16e07647b2ff9","5f6104b6811297046ca266f9","false","null","<div style=""align-items: center; display: flex; color: dodgerblue; font-size: 90px""><b>o</b></div>","null","","","","forget_cue","","","","","","","","","","","","","","","",""
"html-keyboard-response","129","278323","0.0-3.0-3.0-0.13","lcc2pecy2puec0l","practice_cue","5e8be450affef10d24343a7f","5f60e3c0a3b16e07647b2ff9","5f6104b6811297046ca266f9","false","null","<span style=""color: black; font-size: 48px"">M + N</span>","null","","","","resp_prompt","","","","","","","","","","","","","","","",""
"categorize-image","130","279418","0.0-3.0-3.0-1.13","lcc2pecy2puec0l","practice_cue","5e8be450affef10d24343a7f","5f60e3c0a3b16e07647b2ff9","5f6104b6811297046ca266f9","true","1092.0850000111386","./Stimuli/ImagesPractice/LN15.jpg","76","","","","test","true","M + N","76","","LN","LN15.jpg","remember","old","46","3","practice_forget","right","","","",""
"html-keyboard-response","131","281419","0.0-3.0-3.0-3.13","lcc2pecy2puec0l","practice_cue","5e8be450affef10d24343a7f","5f60e3c0a3b16e07647b2ff9","5f6104b6811297046ca266f9","false","null","<div style=""align-items: center; display: flex; color: dodgerblue; font-size: 90px""><b>o</b></div>","null","","","","forget_cue","","","","","","","","","","","","","","","",""
"html-keyboard-response","132","282120","0.0-3.0-3.0-0.14","lcc2pecy2puec0l","practice_cue","5e8be450affef10d24343a7f","5f60e3c0a3b16e07647b2ff9","5f6104b6811297046ca266f9","false","null","<span style=""color: black; font-size: 48px"">N + M</span>","null","","","","resp_prompt","","","","","","","","","","","","","","","",""
"categorize-image","133","282901","0.0-3.0-3.0-1.14","lcc2pecy2puec0l","practice_cue","5e8be450affef10d24343a7f","5f60e3c0a3b16e07647b2ff9","5f6104b6811297046ca266f9","true","779.1549999965355","./Stimuli/ImagesPractice/SN220.jpg","76","","","","test","false","N + M","83","","SN","SN220.jpg","forget","old","47","3","practice_forget","right","","","",""
"html-keyboard-response","134","283402","0.0-3.0-3.0-2.14-0.14","lcc2pecy2puec0l","practice_cue","5e8be450affef10d24343a7f","5f60e3c0a3b16e07647b2ff9","5f6104b6811297046ca266f9","false","null","<span style=""color: red; font-size: 48px"">Error!</span>","null","","","","feedback","","","","","","","","","","","","","","","",""
"html-keyboard-response","135","285404","0.0-3.0-3.0-3.14","lcc2pecy2puec0l","practice_cue","5e8be450affef10d24343a7f","5f60e3c0a3b16e07647b2ff9","5f6104b6811297046ca266f9","false","null","<div style=""align-items: center; display: flex; color: darkorange; font-size: 90px""><b>ø</b></div>","null","","","","forget_cue","","","","","","","","","","","","","","","",""
"html-keyboard-response","136","286104","0.0-3.0-3.0-0.15","lcc2pecy2puec0l","practice_cue","5e8be450affef10d24343a7f","5f60e3c0a3b16e07647b2ff9","5f6104b6811297046ca266f9","false","null","<span style=""color: black; font-size: 48px"">M + N</span>","null","","","","resp_prompt","","","","","","","","","","","","","","","",""
"categorize-image","137","286111","0.0-3.0-3.0-1.15","lcc2pecy2puec0l","practice_cue","5e8be450affef10d24343a7f","5f60e3c0a3b16e07647b2ff9","5f6104b6811297046ca266f9","true","3.930000006221235","./Stimuli/ImagesPractice/SN221.jpg","83","","","","test","false","M + N","76","","SN","SN221.jpg","forget","old","48","3","practice_forget","left","","","",""
"html-keyboard-response","138","286612","0.0-3.0-3.0-2.15-0.15","lcc2pecy2puec0l","practice_cue","5e8be450affef10d24343a7f","5f60e3c0a3b16e07647b2ff9","5f6104b6811297046ca266f9","false","null","<span style=""color: red; font-size: 48px"">Error!</span>","null","","","","feedback","","","","","","","","","","","","","","","",""
"html-keyboard-response","139","288613","0.0-3.0-3.0-3.15","lcc2pecy2puec0l","practice_cue","5e8be450affef10d24343a7f","5f60e3c0a3b16e07647b2ff9","5f6104b6811297046ca266f9","false","null","<div style=""align-items: center; display: flex; color: darkorange; font-size: 90px""><b>ø</b></div>","null","","","","forget_cue","","","","","","","","","","","","","","","",""
"html-keyboard-response","140","293888","0.0-3.0-4.0","lcc2pecy2puec0l","break","5e8be450affef10d24343a7f","5f60e3c0a3b16e07647b2ff9","5f6104b6811297046ca266f9","false","5274.604999984149","<p style='font-size: 32px;'>Break</><br><br><br><br><br><p style='font-size: 24px;'>In the last block, you committed 7 errors and did not respond in time on 2 trials.
</p><p style='font-size: 24px;'>Try to respond as fast and accurately as possible in the next block as well! </p><p style='font-size: 24px;'>Press SPACE to continue.</p>","32","","","","","","","","","","","","","","","","","","","",""
"html-keyboard-response","141","320160","0.0-3.0-5.0","lcc2pecy2puec0l","instructions","5e8be450affef10d24343a7f","5f60e3c0a3b16e07647b2ff9","5f6104b6811297046ca266f9","false","26270.595000009052","<div align=left> Now, to practice, we kindly ask you to remember as many of the to-be-remembered pictures<br>of the previous learning phase as possible.<br><br>The pictures you were instructed to remember were the pictures followed by a <span style='color: dodgerblue; font-size: 28px'>O</span>.<br><br>In this memory test phase, you will also see some new pictures.<br>It is your task to remember whether you were presented with this specific picture in this study so far or not.<br>If you recognize an object (you have already seen it in this study), it is an OLD object. <br>If you do not recognize an object (you have NOT seen it in this study), it is a NEW object. <br><strong> Attention</strong>: As already mentioned, <span style='color: darkorange; font-size:28px'>Ø</span>-pictures will <strong>never</strong> appear in this memory test (neither as new objects). <br><br>Press SPACE to continue. </div>","32","","","","","","","","","","","","","","","","","","","",""
"html-keyboard-response","142","331553","0.0-3.0-6.0","lcc2pecy2puec0l","instructions","5e8be450affef10d24343a7f","5f60e3c0a3b16e07647b2ff9","5f6104b6811297046ca266f9","false","11391.944999981206","<div align=left> M and N no longer will appear on the left/right of the fixation cross. <br>Instead there will be a note at the bottom of the left or right side  <br>indicating which key you should press for an old or new object:  <br> <br>Press the <strong>right</strong> key to classify an object as <strong>old</strong> and press the <strong>left</strong>, to classify an object as <strong>new</strong>.<br>Please classify the objects as new/old by again placing your index finger on the 'S' and 'L' keys <br>and press them accordingly.<br><br><strong>Old:</strong> This object has been presented before. <br><strong>New:</strong> This object has <strong>not</strong> been presented.<br><br>Now please put your right and left index fingers on the 'S' and 'L' keys of your keyboard. <br>Please respond as fast and as accurately as possible!<br><br>Press SPACE to continue. </div>","32","","","","","","","","","","","","","","","","","","","",""
"categorize-image","143","334120","0.0-3.0-7.0-0.0","lcc2pecy2puec0l","practice_recog","5e8be450affef10d24343a7f","5f60e3c0a3b16e07647b2ff9","5f6104b6811297046ca266f9","true","2065.405000001192","./Stimuli/ImagesPractice/LN72.jpg","76","","","","test","true","","76","","LN","LN72.jpg","","new","49","4","practice_recog","right","","","",""
"categorize-image","144","336269","0.0-3.0-7.0-0.1","lcc2pecy2puec0l","practice_recog","5e8be450affef10d24343a7f","5f60e3c0a3b16e07647b2ff9","5f6104b6811297046ca266f9","true","1648.520000046119","./Stimuli/ImagesPractice/LN109.jpg","76","","","","test","true","","76","","LN","LN109.jpg","","new","50","4","practice_recog","right","","","",""
"categorize-image","145","337677","0.0-3.0-7.0-0.2","lcc2pecy2puec0l","practice_recog","5e8be450affef10d24343a7f","5f60e3c0a3b16e07647b2ff9","5f6104b6811297046ca266f9","true","906.0049999970943","./Stimuli/ImagesPractice/LM230.jpg","76","","","","test","true","","76","","LM","LM230.jpg","","new","51","4","practice_recog","right","","","",""
"categorize-image","146","338799","0.0-3.0-7.0-0.3","lcc2pecy2puec0l","practice_recog","5e8be450affef10d24343a7f","5f60e3c0a3b16e07647b2ff9","5f6104b6811297046ca266f9","true","620.8199999528006","./Stimuli/ImagesPractice/LM143.jpg","76","","","","test","true","","76","","LM","LM143.jpg","","new","52","4","practice_recog","right","","","",""
"categorize-image","147","340064","0.0-3.0-7.0-0.4","lcc2pecy2puec0l","practice_recog","5e8be450affef10d24343a7f","5f60e3c0a3b16e07647b2ff9","5f6104b6811297046ca266f9","true","764.8199999821372","./Stimuli/ImagesPractice/LN17.jpg","83","","","","test","true","","83","","LN","LN17.jpg","","old","53","4","practice_recog","left","","","",""
"categorize-image","148","341385","0.0-3.0-7.0-0.5","lcc2pecy2puec0l","practice_recog","5e8be450affef10d24343a7f","5f60e3c0a3b16e07647b2ff9","5f6104b6811297046ca266f9","true","819.1349999979138","./Stimuli/ImagesPractice/SN222.jpg","83","","","","test","true","","83","","SN","SN222.jpg","","old","54","4","practice_recog","left","","","",""
"categorize-image","149","342661","0.0-3.0-7.0-0.6","lcc2pecy2puec0l","practice_recog","5e8be450affef10d24343a7f","5f60e3c0a3b16e07647b2ff9","5f6104b6811297046ca266f9","true","774.37999995891","./Stimuli/ImagesPractice/LM55.jpg","83","","","","test","true","","83","","LM","LM55.jpg","","old","55","4","practice_recog","left","","","",""
"categorize-image","150","344099","0.0-3.0-7.0-0.7","lcc2pecy2puec0l","practice_recog","5e8be450affef10d24343a7f","5f60e3c0a3b16e07647b2ff9","5f6104b6811297046ca266f9","true","936.1749999807216","./Stimuli/ImagesPractice/LN4.jpg","76","","","","test","true","","76","","LN","LN4.jpg","","new","56","4","practice_recog","right","","","",""
"categorize-image","151","345396","0.0-3.0-7.0-0.8","lcc2pecy2puec0l","practice_recog","5e8be450affef10d24343a7f","5f60e3c0a3b16e07647b2ff9","5f6104b6811297046ca266f9","true","795.6499999854714","./Stimuli/ImagesPractice/LM239.jpg","76","","","","test","true","","76","","LM","LM239.jpg","","new","57","4","practice_recog","right","","","",""
"categorize-image","152","347077","0.0-3.0-7.0-0.9","lcc2pecy2puec0l","practice_recog","5e8be450affef10d24343a7f","5f60e3c0a3b16e07647b2ff9","5f6104b6811297046ca266f9","true","1178.9949999656528","./Stimuli/ImagesPractice/SN205.jpg","83","","","","test","true","","83","","SN","SN205.jpg","","old","58","4","practice_recog","left","","","",""
"categorize-image","153","348462","0.0-3.0-7.0-0.10","lcc2pecy2puec0l","practice_recog","5e8be450affef10d24343a7f","5f60e3c0a3b16e07647b2ff9","5f6104b6811297046ca266f9","true","883.8400000240654","./Stimuli/ImagesPractice/SM61.jpg","83","","","","test","true","","83","","SM","SM61.jpg","","old","59","4","practice_recog","left","","","",""
"categorize-image","154","349826","0.0-3.0-7.0-0.11","lcc2pecy2puec0l","practice_recog","5e8be450affef10d24343a7f","5f60e3c0a3b16e07647b2ff9","5f6104b6811297046ca266f9","true","862.3900000238791","./Stimuli/ImagesPractice/SM62.jpg","83","","","","test","true","","83","","SM","SM62.jpg","","old","60","4","practice_recog","left","","","",""
"categorize-image","155","351679","0.0-3.0-7.0-0.12","lcc2pecy2puec0l","practice_recog","5e8be450affef10d24343a7f","5f60e3c0a3b16e07647b2ff9","5f6104b6811297046ca266f9","true","1351.6350000281818","./Stimuli/ImagesPractice/LM147.jpg","76","","","","test","true","","76","","LM","LM147.jpg","","new","61","4","practice_recog","right","","","",""
"categorize-image","156","353165","0.0-3.0-7.0-0.13","lcc2pecy2puec0l","practice_recog","5e8be450affef10d24343a7f","5f60e3c0a3b16e07647b2ff9","5f6104b6811297046ca266f9","true","984.5849999692291","./Stimuli/ImagesPractice/LN15.jpg","83","","","","test","true","","83","","LN","LN15.jpg","","old","62","4","practice_recog","left","","","",""
"categorize-image","157","354713","0.0-3.0-7.0-0.14","lcc2pecy2puec0l","practice_recog","5e8be450affef10d24343a7f","5f60e3c0a3b16e07647b2ff9","5f6104b6811297046ca266f9","true","1046.1950000026263","./Stimuli/ImagesPractice/SM97.jpg","76","","","","test","true","","76","","SM","SM97.jpg","","new","63","4","practice_recog","right","","","",""
"categorize-image","158","356438","0.0-3.0-7.0-0.15","lcc2pecy2puec0l","practice_recog","5e8be450affef10d24343a7f","5f60e3c0a3b16e07647b2ff9","5f6104b6811297046ca266f9","true","1223.3699999633245","./Stimuli/ImagesPractice/LN2.jpg","83","","","","test","true","","83","","LN","LN2.jpg","","old","64","4","practice_recog","left","","","",""
"html-keyboard-response","159","358989","0.0-3.0-8.0","lcc2pecy2puec0l","instructions","5e8be450affef10d24343a7f","5f60e3c0a3b16e07647b2ff9","5f6104b6811297046ca266f9","false","2550.730000017211","<div align=left> Great!<br><br>Are you ready to continue?<br>If you want to reread the instructions and redo the practice trials, please <br>press „Z“.<br><br>You can proceed when you are ready.<br><br>After the presentation of each object, you will receive an instruction whether to <br>remember or to forget the object.<br>We will test your memory of the following pictures only at the very end of <br>the experiment after all learning blocks are completed. <br><br>Press SPACE to CONTINUE when you are ready. </div>","32","","","","","","","","","","","","","","","","","","","",""
"html-keyboard-response","160","360680","0.0-4.0-0.0","lcc2pecy2puec0l","instructions","5e8be450affef10d24343a7f","5f60e3c0a3b16e07647b2ff9","5f6104b6811297046ca266f9","false","1690.3650000458583","<div align=left> The actual experiment is about to start.<br>The practice trials are over!<br><br>Please always respond both fast and accurately!<br><br>Remember: <br> <br><li> Please place your index fingers on the <strong>'S'</strong> and <strong>'L'</strong> keys <br>to respond as fast and accurately as possible.</li><li> Every picture can be classified as either mechanical or non-mechanical.</li><li> If you do not respond in time or commit an error, you will receive a corresponding feedback.<br> Please try to respond as <strong> fast </strong> and as <strong> accurately as possible </strong>.</li><li> Remember the <span style='color: dodgerblue; font-size: 28px'>O</span> pictures. <br></li><li> Please minimize distractions and stay focused. </li><br><br>Press SPACE to START.</div>","32","","","","","","","","","","","","","","","","","","","",""
"html-keyboard-response","161","361382","0.0-4.0-1.0-0.0","lcc2pecy2puec0l","prime","5e8be450affef10d24343a7f","5f60e3c0a3b16e07647b2ff9","5f6104b6811297046ca266f9","false","null","<span style=""color: black; font-size: 48px"">M + N</span>","null","","","","resp_prompt","","","","","","","","","","","","","","","",""
"categorize-image","162","362018","0.0-4.0-1.0-1.0","lcc2pecy2puec0l","prime","5e8be450affef10d24343a7f","5f60e3c0a3b16e07647b2ff9","5f6104b6811297046ca266f9","true","633.6599999922328","./Stimuli/SelectedImages/SN/SN18.bmp","83","","","","test","false","M + N","76","repetition","SN","SN18.bmp","forget","","65","4","prime1","left","","","",""
"html-keyboard-response","163","362519","0.0-4.0-1.0-2.0-0.0","lcc2pecy2puec0l","prime","5e8be450affef10d24343a7f","5f60e3c0a3b16e07647b2ff9","5f6104b6811297046ca266f9","false","null","<span style=""color: red; font-size: 48px"">Error!</span>","null","","","","feedback","","","","","","","","","","","","","","","",""
"html-keyboard-response","164","364520","0.0-4.0-1.0-3.0","lcc2pecy2puec0l","prime","5e8be450affef10d24343a7f","5f60e3c0a3b16e07647b2ff9","5f6104b6811297046ca266f9","false","null","<div style=""align-items: center; display: flex; color: darkorange; font-size: 90px""><b>ø</b></div>","null","","","","forget_cue","","","","","","","","","","","","","","","",""
"html-keyboard-response","165","365222","0.0-4.0-1.0-0.1","lcc2pecy2puec0l","prime","5e8be450affef10d24343a7f","5f60e3c0a3b16e07647b2ff9","5f6104b6811297046ca266f9","false","null","<span style=""color: black; font-size: 48px"">N + M</span>","null","","","","resp_prompt","","","","","","","","","","","","","","","",""
"categorize-image","166","365619","0.0-4.0-1.0-1.1","lcc2pecy2puec0l","prime","5e8be450affef10d24343a7f","5f60e3c0a3b16e07647b2ff9","5f6104b6811297046ca266f9","true","394.74000001791865","./Stimuli/SelectedImages/LN/LN12.bmp","76","","","","test","false","N + M","83","switch","LN","LN12.bmp","forget","","66","4","prime1","right","","","",""
"html-keyboard-response","167","366120","0.0-4.0-1.0-2.1-0.1","lcc2pecy2puec0l","prime","5e8be450affef10d24343a7f","5f60e3c0a3b16e07647b2ff9","5f6104b6811297046ca266f9","false","null","<span style=""color: red; font-size: 48px"">Error!</span>","null","","","","feedback","","","","","","","","","","","","","","","",""
"html-keyboard-response","168","368122","0.0-4.0-1.0-3.1","lcc2pecy2puec0l","prime","5e8be450affef10d24343a7f","5f60e3c0a3b16e07647b2ff9","5f6104b6811297046ca266f9","false","null","<div style=""align-items: center; display: flex; color: darkorange; font-size: 90px""><b>ø</b></div>","null","","","","forget_cue","","","","","","","","","","","","","","","",""
"html-keyboard-response","169","368823","0.0-4.0-1.0-0.2","lcc2pecy2puec0l","prime","5e8be450affef10d24343a7f","5f60e3c0a3b16e07647b2ff9","5f6104b6811297046ca266f9","false","null","<span style=""color: black; font-size: 48px"">M + N</span>","null","","","","resp_prompt","","","","","","","","","","","","","","","",""
"categorize-image","170","368881","0.0-4.0-1.0-1.2","lcc2pecy2puec0l","prime","5e8be450affef10d24343a7f","5f60e3c0a3b16e07647b2ff9","5f6104b6811297046ca266f9","true","56.1199999647215","./Stimuli/SelectedImages/SN/SN179.bmp","83","","","","test","false","M + N","76","switch","SN","SN179.bmp","forget","","67","4","prime1","left","","","",""
"html-keyboard-response","171","369383","0.0-4.0-1.0-2.2-0.2","lcc2pecy2puec0l","prime","5e8be450affef10d24343a7f","5f60e3c0a3b16e07647b2ff9","5f6104b6811297046ca266f9","false","null","<span style=""color: red; font-size: 48px"">Error!</span>","null","","","","feedback","","","","","","","","","","","","","","","",""
"html-keyboard-response","172","371384","0.0-4.0-1.0-3.2","lcc2pecy2puec0l","prime","5e8be450affef10d24343a7f","5f60e3c0a3b16e07647b2ff9","5f6104b6811297046ca266f9","false","null","<div style=""align-items: center; display: flex; color: darkorange; font-size: 90px""><b>ø</b></div>","null","","","","forget_cue","","","","","","","","","","","","","","","",""
"html-keyboard-response","173","372085","0.0-4.0-1.0-0.3","lcc2pecy2puec0l","prime","5e8be450affef10d24343a7f","5f60e3c0a3b16e07647b2ff9","5f6104b6811297046ca266f9","false","null","<span style=""color: black; font-size: 48px"">M + N</span>","null","","","","resp_prompt","","","","","","","","","","","","","","","",""
"categorize-image","174","372791","0.0-4.0-1.0-1.3","lcc2pecy2puec0l","prime","5e8be450affef10d24343a7f","5f60e3c0a3b16e07647b2ff9","5f6104b6811297046ca266f9","true","702.4500000406988","./Stimuli/SelectedImages/SM/SM108.bmp","83","","","","test","true","M + N","83","repetition","SM","SM108.bmp","remember","","68","4","prime1","left","","","",""
"html-keyboard-response","175","374793","0.0-4.0-1.0-3.3","lcc2pecy2puec0l","prime","5e8be450affef10d24343a7f","5f60e3c0a3b16e07647b2ff9","5f6104b6811297046ca266f9","false","null","<div style=""align-items: center; display: flex; color: dodgerblue; font-size: 90px""><b>o</b></div>","null","","","","forget_cue","","","","","","","","","","","","","","","",""
"html-keyboard-response","176","375494","0.0-4.0-1.0-0.4","lcc2pecy2puec0l","prime","5e8be450affef10d24343a7f","5f60e3c0a3b16e07647b2ff9","5f6104b6811297046ca266f9","false","null","<span style=""color: black; font-size: 48px"">M + N</span>","null","","","","resp_prompt","","","","","","","","","","","","","","","",""
"categorize-image","177","377499","0.0-4.0-1.0-1.4","lcc2pecy2puec0l","prime","5e8be450affef10d24343a7f","5f60e3c0a3b16e07647b2ff9","5f6104b6811297046ca266f9","true","null","./Stimuli/SelectedImages/SM/SM24.bmp","null","","","","test","false","M + N","83","repetition","SM","SM24.bmp","forget","","69","4","prime1","too_slow","","","",""
"html-keyboard-response","178","378000","0.0-4.0-1.0-2.4-0.4","lcc2pecy2puec0l","prime","5e8be450affef10d24343a7f","5f60e3c0a3b16e07647b2ff9","5f6104b6811297046ca266f9","false","null","<span style=""color: red; font-size: 48px"">Too slow!</span>","null","","","","feedback","","","","","","","","","","","","","","","",""
"html-keyboard-response","179","380001","0.0-4.0-1.0-3.4","lcc2pecy2puec0l","prime","5e8be450affef10d24343a7f","5f60e3c0a3b16e07647b2ff9","5f6104b6811297046ca266f9","false","null","<div style=""align-items: center; display: flex; color: darkorange; font-size: 90px""><b>ø</b></div>","null","","","","forget_cue","","","","","","","","","","","","","","","",""
"html-keyboard-response","180","380702","0.0-4.0-1.0-0.5","lcc2pecy2puec0l","prime","5e8be450affef10d24343a7f","5f60e3c0a3b16e07647b2ff9","5f6104b6811297046ca266f9","false","null","<span style=""color: black; font-size: 48px"">M + N</span>","null","","","","resp_prompt","","","","","","","","","","","","","","","",""
"categorize-image","181","380739","0.0-4.0-1.0-1.5","lcc2pecy2puec0l","prime","5e8be450affef10d24343a7f","5f60e3c0a3b16e07647b2ff9","5f6104b6811297046ca266f9","true","34.56000000005588","./Stimuli/SelectedImages/LM/LM235.bmp","83","","","","test","true","M + N","83","switch","LM","LM235.bmp","forget","","70","4","prime1","left","","","",""
"html-keyboard-response","182","382741","0.0-4.0-1.0-3.5","lcc2pecy2puec0l","prime","5e8be450affef10d24343a7f","5f60e3c0a3b16e07647b2ff9","5f6104b6811297046ca266f9","false","null","<div style=""align-items: center; display: flex; color: darkorange; font-size: 90px""><b>ø</b></div>","null","","","","forget_cue","","","","","","","","","","","","","","","",""
"html-keyboard-response","183","383441","0.0-4.0-1.0-0.6","lcc2pecy2puec0l","prime","5e8be450affef10d24343a7f","5f60e3c0a3b16e07647b2ff9","5f6104b6811297046ca266f9","false","null","<span style=""color: black; font-size: 48px"">M + N</span>","null","","","","resp_prompt","","","","","","","","","","","","","","","",""
"categorize-image","184","383751","0.0-4.0-1.0-1.6","lcc2pecy2puec0l","prime","5e8be450affef10d24343a7f","5f60e3c0a3b16e07647b2ff9","5f6104b6811297046ca266f9","true","306.429999996908","./Stimuli/SelectedImages/SN/SN27.bmp","76","","","","test","true","M + N","76","repetition","SN","SN27.bmp","remember","","71","4","prime1","right","","","",""
"html-keyboard-response","185","385752","0.0-4.0-1.0-3.6","lcc2pecy2puec0l","prime","5e8be450affef10d24343a7f","5f60e3c0a3b16e07647b2ff9","5f6104b6811297046ca266f9","false","null","<div style=""align-items: center; display: flex; color: dodgerblue; font-size: 90px""><b>o</b></div>","null","","","","forget_cue","","","","","","","","","","","","","","","",""
"html-keyboard-response","186","386453","0.0-4.0-1.0-0.7","lcc2pecy2puec0l","prime","5e8be450affef10d24343a7f","5f60e3c0a3b16e07647b2ff9","5f6104b6811297046ca266f9","false","null","<span style=""color: black; font-size: 48px"">M + N</span>","null","","","","resp_prompt","","","","","","","","","","","","","","","",""
"categorize-image","187","386818","0.0-4.0-1.0-1.7","lcc2pecy2puec0l","prime","5e8be450affef10d24343a7f","5f60e3c0a3b16e07647b2ff9","5f6104b6811297046ca266f9","true","362.0750000118278","./Stimuli/SelectedImages/SM/SM148.bmp","76","","","","test","false","M + N","83","repetition","SM","SM148.bmp","forget","","72","4","prime1","right","","","",""
"html-keyboard-response","188","387319","0.0-4.0-1.0-2.7-0.7","lcc2pecy2puec0l","prime","5e8be450affef10d24343a7f","5f60e3c0a3b16e07647b2ff9","5f6104b6811297046ca266f9","false","null","<span style=""color: red; font-size: 48px"">Error!</span>","null","","","","feedback","","","","","","","","","","","","","","","",""
"html-keyboard-response","189","389321","0.0-4.0-1.0-3.7","lcc2pecy2puec0l","prime","5e8be450affef10d24343a7f","5f60e3c0a3b16e07647b2ff9","5f6104b6811297046ca266f9","false","null","<div style=""align-items: center; display: flex; color: darkorange; font-size: 90px""><b>ø</b></div>","null","","","","forget_cue","","","","","","","","","","","","","","","",""
"html-keyboard-response","190","390022","0.0-4.0-1.0-0.8","lcc2pecy2puec0l","prime","5e8be450affef10d24343a7f","5f60e3c0a3b16e07647b2ff9","5f6104b6811297046ca266f9","false","null","<span style=""color: black; font-size: 48px"">N + M</span>","null","","","","resp_prompt","","","","","","","","","","","","","","","",""
"categorize-image","191","390739","0.0-4.0-1.0-1.8","lcc2pecy2puec0l","prime","5e8be450affef10d24343a7f","5f60e3c0a3b16e07647b2ff9","5f6104b6811297046ca266f9","true","714.5000000018626","./Stimuli/SelectedImages/LN/LN166.bmp","76","","","","test","false","N + M","83","switch","LN","LN166.bmp","remember","","73","4","prime1","right","","","",""
"html-keyboard-response","192","391240","0.0-4.0-1.0-2.8-0.8","lcc2pecy2puec0l","prime","5e8be450affef10d24343a7f","5f60e3c0a3b16e07647b2ff9","5f6104b6811297046ca266f9","false","null","<span style=""color: red; font-size: 48px"">Error!</span>","null","","","","feedback","","","","","","","","","","","","","","","",""
"html-keyboard-response","193","393241","0.0-4.0-1.0-3.8","lcc2pecy2puec0l","prime","5e8be450affef10d24343a7f","5f60e3c0a3b16e07647b2ff9","5f6104b6811297046ca266f9","false","null","<div style=""align-items: center; display: flex; color: dodgerblue; font-size: 90px""><b>o</b></div>","null","","","","forget_cue","","","","","","","","","","","","","","","",""
"html-keyboard-response","194","393942","0.0-4.0-1.0-0.9","lcc2pecy2puec0l","prime","5e8be450affef10d24343a7f","5f60e3c0a3b16e07647b2ff9","5f6104b6811297046ca266f9","false","null","<span style=""color: black; font-size: 48px"">N + M</span>","null","","","","resp_prompt","","","","","","","","","","","","","","","",""
"categorize-image","195","394942","0.0-4.0-1.0-1.9","lcc2pecy2puec0l","prime","5e8be450affef10d24343a7f","5f60e3c0a3b16e07647b2ff9","5f6104b6811297046ca266f9","true","997.449999966193","./Stimuli/SelectedImages/LM/LM59.bmp","83","","","","test","false","N + M","76","repetition","LM","LM59.bmp","forget","","74","4","prime1","left","","","",""
"html-keyboard-response","196","395443","0.0-4.0-1.0-2.9-0.9","lcc2pecy2puec0l","prime","5e8be450affef10d24343a7f","5f60e3c0a3b16e07647b2ff9","5f6104b6811297046ca266f9","false","null","<span style=""color: red; font-size: 48px"">Error!</span>","null","","","","feedback","","","","","","","","","","","","","","","",""
"html-keyboard-response","197","397444","0.0-4.0-1.0-3.9","lcc2pecy2puec0l","prime","5e8be450affef10d24343a7f","5f60e3c0a3b16e07647b2ff9","5f6104b6811297046ca266f9","false","null","<div style=""align-items: center; display: flex; color: darkorange; font-size: 90px""><b>ø</b></div>","null","","","","forget_cue","","","","","","","","","","","","","","","",""
"html-keyboard-response","198","398145","0.0-4.0-1.0-0.10","lcc2pecy2puec0l","prime","5e8be450affef10d24343a7f","5f60e3c0a3b16e07647b2ff9","5f6104b6811297046ca266f9","false","null","<span style=""color: black; font-size: 48px"">M + N</span>","null","","","","resp_prompt","","","","","","","","","","","","","","","",""
"categorize-image","199","398414","0.0-4.0-1.0-1.10","lcc2pecy2puec0l","prime","5e8be450affef10d24343a7f","5f60e3c0a3b16e07647b2ff9","5f6104b6811297046ca266f9","true","266.24500000616536","./Stimuli/SelectedImages/LM/LM58.bmp","76","","","","test","false","M + N","83","repetition","LM","LM58.bmp","forget","","75","4","prime1","right","","","",""
"html-keyboard-response","200","398915","0.0-4.0-1.0-2.10-0.10","lcc2pecy2puec0l","prime","5e8be450affef10d24343a7f","5f60e3c0a3b16e07647b2ff9","5f6104b6811297046ca266f9","false","null","<span style=""color: red; font-size: 48px"">Error!</span>","null","","","","feedback","","","","","","","","","","","","","","","",""
"html-keyboard-response","201","400917","0.0-4.0-1.0-3.10","lcc2pecy2puec0l","prime","5e8be450affef10d24343a7f","5f60e3c0a3b16e07647b2ff9","5f6104b6811297046ca266f9","false","null","<div style=""align-items: center; display: flex; color: darkorange; font-size: 90px""><b>ø</b></div>","null","","","","forget_cue","","","","","","","","","","","","","","","",""
"html-keyboard-response","202","401618","0.0-4.0-1.0-0.11","lcc2pecy2puec0l","prime","5e8be450affef10d24343a7f","5f60e3c0a3b16e07647b2ff9","5f6104b6811297046ca266f9","false","null","<span style=""color: black; font-size: 48px"">M + N</span>","null","","","","resp_prompt","","","","","","","","","","","","","","","",""
"categorize-image","203","402282","0.0-4.0-1.0-1.11","lcc2pecy2puec0l","prime","5e8be450affef10d24343a7f","5f60e3c0a3b16e07647b2ff9","5f6104b6811297046ca266f9","true","661.0900000086986","./Stimuli/SelectedImages/LN/LN59.bmp","83","","","","test","false","M + N","76","switch","LN","LN59.bmp","forget","","76","4","prime1","left","","","",""
"html-keyboard-response","204","402783","0.0-4.0-1.0-2.11-0.11","lcc2pecy2puec0l","prime","5e8be450affef10d24343a7f","5f60e3c0a3b16e07647b2ff9","5f6104b6811297046ca266f9","false","null","<span style=""color: red; font-size: 48px"">Error!</span>","null","","","","feedback","","","","","","","","","","","","","","","",""
"html-keyboard-response","205","404785","0.0-4.0-1.0-3.11","lcc2pecy2puec0l","prime","5e8be450affef10d24343a7f","5f60e3c0a3b16e07647b2ff9","5f6104b6811297046ca266f9","false","null","<div style=""align-items: center; display: flex; color: darkorange; font-size: 90px""><b>ø</b></div>","null","","","","forget_cue","","","","","","","","","","","","","","","",""
"html-keyboard-response","206","405486","0.0-4.0-1.0-0.12","lcc2pecy2puec0l","prime","5e8be450affef10d24343a7f","5f60e3c0a3b16e07647b2ff9","5f6104b6811297046ca266f9","false","null","<span style=""color: black; font-size: 48px"">M + N</span>","null","","","","resp_prompt","","","","","","","","","","","","","","","",""
"categorize-image","207","405752","0.0-4.0-1.0-1.12","lcc2pecy2puec0l","prime","5e8be450affef10d24343a7f","5f60e3c0a3b16e07647b2ff9","5f6104b6811297046ca266f9","true","263.76999996136874","./Stimuli/SelectedImages/LN/LN13.bmp","76","","","","test","true","M + N","76","switch","LN","LN13.bmp","remember","","77","4","prime1","right","","","",""
"html-keyboard-response","208","407753","0.0-4.0-1.0-3.12","lcc2pecy2puec0l","prime","5e8be450affef10d24343a7f","5f60e3c0a3b16e07647b2ff9","5f6104b6811297046ca266f9","false","null","<div style=""align-items: center; display: flex; color: dodgerblue; font-size: 90px""><b>o</b></div>","null","","","","forget_cue","","","","","","","","","","","","","","","",""
"html-keyboard-response","209","408454","0.0-4.0-1.0-0.13","lcc2pecy2puec0l","prime","5e8be450affef10d24343a7f","5f60e3c0a3b16e07647b2ff9","5f6104b6811297046ca266f9","false","null","<span style=""color: black; font-size: 48px"">M + N</span>","null","","","","resp_prompt","","","","","","","","","","","","","","","",""
"categorize-image","210","408843","0.0-4.0-1.0-1.13","lcc2pecy2puec0l","prime","5e8be450affef10d24343a7f","5f60e3c0a3b16e07647b2ff9","5f6104b6811297046ca266f9","true","386.5499999956228","./Stimuli/SelectedImages/LN/LN82.bmp","76","","","","test","true","M + N","76","repetition","LN","LN82.bmp","forget","","78","4","prime1","right","","","",""
"html-keyboard-response","211","410844","0.0-4.0-1.0-3.13","lcc2pecy2puec0l","prime","5e8be450affef10d24343a7f","5f60e3c0a3b16e07647b2ff9","5f6104b6811297046ca266f9","false","null","<div style=""align-items: center; display: flex; color: darkorange; font-size: 90px""><b>ø</b></div>","null","","","","forget_cue","","","","","","","","","","","","","","","",""
"html-keyboard-response","212","411545","0.0-4.0-1.0-0.14","lcc2pecy2puec0l","prime","5e8be450affef10d24343a7f","5f60e3c0a3b16e07647b2ff9","5f6104b6811297046ca266f9","false","null","<span style=""color: black; font-size: 48px"">M + N</span>","null","","","","resp_prompt","","","","","","","","","","","","","","","",""
"categorize-image","213","411956","0.0-4.0-1.0-1.14","lcc2pecy2puec0l","prime","5e8be450affef10d24343a7f","5f60e3c0a3b16e07647b2ff9","5f6104b6811297046ca266f9","true","407.8299999819137","./Stimuli/SelectedImages/SN/SN155.bmp","76","","","","test","true","M + N","76","repetition","SN","SN155.bmp","forget","","79","4","prime1","right","","","",""
"html-keyboard-response","214","413956","0.0-4.0-1.0-3.14","lcc2pecy2puec0l","prime","5e8be450affef10d24343a7f","5f60e3c0a3b16e07647b2ff9","5f6104b6811297046ca266f9","false","null","<div style=""align-items: center; display: flex; color: darkorange; font-size: 90px""><b>ø</b></div>","null","","","","forget_cue","","","","","","","","","","","","","","","",""
"html-keyboard-response","215","414657","0.0-4.0-1.0-0.15","lcc2pecy2puec0l","prime","5e8be450affef10d24343a7f","5f60e3c0a3b16e07647b2ff9","5f6104b6811297046ca266f9","false","null","<span style=""color: black; font-size: 48px"">M + N</span>","null","","","","resp_prompt","","","","","","","","","","","","","","","",""
"categorize-image","216","415351","0.0-4.0-1.0-1.15","lcc2pecy2puec0l","prime","5e8be450affef10d24343a7f","5f60e3c0a3b16e07647b2ff9","5f6104b6811297046ca266f9","true","691.5100000333041","./Stimuli/SelectedImages/SN/SN128.bmp","76","","","","test","true","M + N","76","switch","SN","SN128.bmp","remember","","80","4","prime1","right","","","",""
"html-keyboard-response","217","417352","0.0-4.0-1.0-3.15","lcc2pecy2puec0l","prime","5e8be450affef10d24343a7f","5f60e3c0a3b16e07647b2ff9","5f6104b6811297046ca266f9","false","null","<div style=""align-items: center; display: flex; color: dodgerblue; font-size: 90px""><b>o</b></div>","null","","","","forget_cue","","","","","","","","","","","","","","","",""
"html-keyboard-response","218","418053","0.0-4.0-1.0-0.16","lcc2pecy2puec0l","prime","5e8be450affef10d24343a7f","5f60e3c0a3b16e07647b2ff9","5f6104b6811297046ca266f9","false","null","<span style=""color: black; font-size: 48px"">M + N</span>","null","","","","resp_prompt","","","","","","","","","","","","","","","",""
"categorize-image","219","418782","0.0-4.0-1.0-1.16","lcc2pecy2puec0l","prime","5e8be450affef10d24343a7f","5f60e3c0a3b16e07647b2ff9","5f6104b6811297046ca266f9","true","725.9649999905378","./Stimuli/SelectedImages/SM/SM76.bmp","83","","","","test","true","M + N","83","repetition","SM","SM76.bmp","remember","","81","4","prime1","left","","","",""
"html-keyboard-response","220","420783","0.0-4.0-1.0-3.16","lcc2pecy2puec0l","prime","5e8be450affef10d24343a7f","5f60e3c0a3b16e07647b2ff9","5f6104b6811297046ca266f9","false","null","<div style=""align-items: center; display: flex; color: dodgerblue; font-size: 90px""><b>o</b></div>","null","","","","forget_cue","","","","","","","","","","","","","","","",""
"html-keyboard-response","221","421484","0.0-4.0-1.0-0.17","lcc2pecy2puec0l","prime","5e8be450affef10d24343a7f","5f60e3c0a3b16e07647b2ff9","5f6104b6811297046ca266f9","false","null","<span style=""color: black; font-size: 48px"">N + M</span>","null","","","","resp_prompt","","","","","","","","","","","","","","","",""
"categorize-image","222","422156","0.0-4.0-1.0-1.17","lcc2pecy2puec0l","prime","5e8be450affef10d24343a7f","5f60e3c0a3b16e07647b2ff9","5f6104b6811297046ca266f9","true","669.614999962505","./Stimuli/SelectedImages/SM/SM73.bmp","83","","","","test","false","N + M","76","switch","SM","SM73.bmp","forget","","82","4","prime1","left","","","",""
"html-keyboard-response","223","422657","0.0-4.0-1.0-2.17-0.17","lcc2pecy2puec0l","prime","5e8be450affef10d24343a7f","5f60e3c0a3b16e07647b2ff9","5f6104b6811297046ca266f9","false","null","<span style=""color: red; font-size: 48px"">Error!</span>","null","","","","feedback","","","","","","","","","","","","","","","",""
"html-keyboard-response","224","424658","0.0-4.0-1.0-3.17","lcc2pecy2puec0l","prime","5e8be450affef10d24343a7f","5f60e3c0a3b16e07647b2ff9","5f6104b6811297046ca266f9","false","null","<div style=""align-items: center; display: flex; color: darkorange; font-size: 90px""><b>ø</b></div>","null","","","","forget_cue","","","","","","","","","","","","","","","",""
"html-keyboard-response","225","425359","0.0-4.0-1.0-0.18","lcc2pecy2puec0l","prime","5e8be450affef10d24343a7f","5f60e3c0a3b16e07647b2ff9","5f6104b6811297046ca266f9","false","null","<span style=""color: black; font-size: 48px"">N + M</span>","null","","","","resp_prompt","","","","","","","","","","","","","","","",""
"categorize-image","226","425912","0.0-4.0-1.0-1.18","lcc2pecy2puec0l","prime","5e8be450affef10d24343a7f","5f60e3c0a3b16e07647b2ff9","5f6104b6811297046ca266f9","true","549.7699999832548","./Stimuli/SelectedImages/LN/LN9.bmp","76","","","","test","false","N + M","83","repetition","LN","LN9.bmp","remember","","83","4","prime1","right","","","",""
"html-keyboard-response","227","426413","0.0-4.0-1.0-2.18-0.18","lcc2pecy2puec0l","prime","5e8be450affef10d24343a7f","5f60e3c0a3b16e07647b2ff9","5f6104b6811297046ca266f9","false","null","<span style=""color: red; font-size: 48px"">Error!</span>","null","","","","feedback","","","","","","","","","","","","","","","",""
"html-keyboard-response","228","428415","0.0-4.0-1.0-3.18","lcc2pecy2puec0l","prime","5e8be450affef10d24343a7f","5f60e3c0a3b16e07647b2ff9","5f6104b6811297046ca266f9","false","null","<div style=""align-items: center; display: flex; color: dodgerblue; font-size: 90px""><b>o</b></div>","null","","","","forget_cue","","","","","","","","","","","","","","","",""
"html-keyboard-response","229","429116","0.0-4.0-1.0-0.19","lcc2pecy2puec0l","prime","5e8be450affef10d24343a7f","5f60e3c0a3b16e07647b2ff9","5f6104b6811297046ca266f9","false","null","<span style=""color: black; font-size: 48px"">N + M</span>","null","","","","resp_prompt","","","","","","","","","","","","","","","",""
"categorize-image","230","429722","0.0-4.0-1.0-1.19","lcc2pecy2puec0l","prime","5e8be450affef10d24343a7f","5f60e3c0a3b16e07647b2ff9","5f6104b6811297046ca266f9","true","603.5050000064075","./Stimuli/SelectedImages/SN/SN111.bmp","76","","","","test","false","N + M","83","repetition","SN","SN111.bmp","remember","","84","4","prime1","right","","","",""
"html-keyboard-response","231","430223","0.0-4.0-1.0-2.19-0.19","lcc2pecy2puec0l","prime","5e8be450affef10d24343a7f","5f60e3c0a3b16e07647b2ff9","5f6104b6811297046ca266f9","false","null","<span style=""color: red; font-size: 48px"">Error!</span>","null","","","","feedback","","","","","","","","","","","","","","","",""
"html-keyboard-response","232","432224","0.0-4.0-1.0-3.19","lcc2pecy2puec0l","prime","5e8be450affef10d24343a7f","5f60e3c0a3b16e07647b2ff9","5f6104b6811297046ca266f9","false","null","<div style=""align-items: center; display: flex; color: dodgerblue; font-size: 90px""><b>o</b></div>","null","","","","forget_cue","","","","","","","","","","","","","","","",""
"html-keyboard-response","233","432926","0.0-4.0-1.0-0.20","lcc2pecy2puec0l","prime","5e8be450affef10d24343a7f","5f60e3c0a3b16e07647b2ff9","5f6104b6811297046ca266f9","false","null","<span style=""color: black; font-size: 48px"">N + M</span>","null","","","","resp_prompt","","","","","","","","","","","","","","","",""
"categorize-image","234","433129","0.0-4.0-1.0-1.20","lcc2pecy2puec0l","prime","5e8be450affef10d24343a7f","5f60e3c0a3b16e07647b2ff9","5f6104b6811297046ca266f9","true","200.6800000090152","./Stimuli/SelectedImages/SN/SN187.bmp","83","","","","test","true","N + M","83","switch","SN","SN187.bmp","forget","","85","4","prime1","left","","","",""
"html-keyboard-response","235","435130","0.0-4.0-1.0-3.20","lcc2pecy2puec0l","prime","5e8be450affef10d24343a7f","5f60e3c0a3b16e07647b2ff9","5f6104b6811297046ca266f9","false","null","<div style=""align-items: center; display: flex; color: darkorange; font-size: 90px""><b>ø</b></div>","null","","","","forget_cue","","","","","","","","","","","","","","","",""
"html-keyboard-response","236","435831","0.0-4.0-1.0-0.21","lcc2pecy2puec0l","prime","5e8be450affef10d24343a7f","5f60e3c0a3b16e07647b2ff9","5f6104b6811297046ca266f9","false","null","<span style=""color: black; font-size: 48px"">M + N</span>","null","","","","resp_prompt","","","","","","","","","","","","","","","",""
"categorize-image","237","436088","0.0-4.0-1.0-1.21","lcc2pecy2puec0l","prime","5e8be450affef10d24343a7f","5f60e3c0a3b16e07647b2ff9","5f6104b6811297046ca266f9","true","254.19999996665865","./Stimuli/SelectedImages/LN/LN101.bmp","83","","","","test","false","M + N","76","repetition","LN","LN101.bmp","remember","","86","4","prime1","left","","","",""
"html-keyboard-response","238","436589","0.0-4.0-1.0-2.21-0.21","lcc2pecy2puec0l","prime","5e8be450affef10d24343a7f","5f60e3c0a3b16e07647b2ff9","5f6104b6811297046ca266f9","false","null","<span style=""color: red; font-size: 48px"">Error!</span>","null","","","","feedback","","","","","","","","","","","","","","","",""
"html-keyboard-response","239","438590","0.0-4.0-1.0-3.21","lcc2pecy2puec0l","prime","5e8be450affef10d24343a7f","5f60e3c0a3b16e07647b2ff9","5f6104b6811297046ca266f9","false","null","<div style=""align-items: center; display: flex; color: dodgerblue; font-size: 90px""><b>o</b></div>","null","","","","forget_cue","","","","","","","","","","","","","","","",""
"html-keyboard-response","240","439291","0.0-4.0-1.0-0.22","lcc2pecy2puec0l","prime","5e8be450affef10d24343a7f","5f60e3c0a3b16e07647b2ff9","5f6104b6811297046ca266f9","false","null","<span style=""color: black; font-size: 48px"">N + M</span>","null","","","","resp_prompt","","","","","","","","","","","","","","","",""
"categorize-image","241","440302","0.0-4.0-1.0-1.22","lcc2pecy2puec0l","prime","5e8be450affef10d24343a7f","5f60e3c0a3b16e07647b2ff9","5f6104b6811297046ca266f9","true","1008.6400000145659","./Stimuli/SelectedImages/SN/SN60.bmp","76","","","","test","false","N + M","83","switch","SN","SN60.bmp","remember","","87","4","prime1","right","","","",""
"html-keyboard-response","242","440804","0.0-4.0-1.0-2.22-0.22","lcc2pecy2puec0l","prime","5e8be450affef10d24343a7f","5f60e3c0a3b16e07647b2ff9","5f6104b6811297046ca266f9","false","null","<span style=""color: red; font-size: 48px"">Error!</span>","null","","","","feedback","","","","","","","","","","","","","","","",""
"html-keyboard-response","243","442805","0.0-4.0-1.0-3.22","lcc2pecy2puec0l","prime","5e8be450affef10d24343a7f","5f60e3c0a3b16e07647b2ff9","5f6104b6811297046ca266f9","false","null","<div style=""align-items: center; display: flex; color: dodgerblue; font-size: 90px""><b>o</b></div>","null","","","","forget_cue","","","","","","","","","","","","","","","",""
"html-keyboard-response","244","443506","0.0-4.0-1.0-0.23","lcc2pecy2puec0l","prime","5e8be450affef10d24343a7f","5f60e3c0a3b16e07647b2ff9","5f6104b6811297046ca266f9","false","null","<span style=""color: black; font-size: 48px"">N + M</span>","null","","","","resp_prompt","","","","","","","","","","","","","","","",""
"categorize-image","245","444061","0.0-4.0-1.0-1.23","lcc2pecy2puec0l","prime","5e8be450affef10d24343a7f","5f60e3c0a3b16e07647b2ff9","5f6104b6811297046ca266f9","true","550.8300000219606","./Stimuli/SelectedImages/LM/LM179.bmp","83","","","","test","false","N + M","76","repetition","LM","LM179.bmp","remember","","88","4","prime1","left","","","",""
"html-keyboard-response","246","444562","0.0-4.0-1.0-2.23-0.23","lcc2pecy2puec0l","prime","5e8be450affef10d24343a7f","5f60e3c0a3b16e07647b2ff9","5f6104b6811297046ca266f9","false","null","<span style=""color: red; font-size: 48px"">Error!</span>","null","","","","feedback","","","","","","","","","","","","","","","",""
