"trial_type","trial_index","time_elapsed","internal_node_id","subject","exp_part","prolific_PID","study_ID","session_ID","use","rt","stimulus","key_press","button_pressed","responses","question_order","trial_part","correct","resp_map","correct_resp","probe_condition","category","image","forget_condition","list","trial_num","block_num","block","response","test_part","n_span","sequence","num_spaces"
"pavlovia","0","15","0.0-0.0","1c55jllykuya04v","","5f58acaca3b2560285b19ab9","5f60e3c0a3b16e07647b2ff9","5f60ecc8f6803801743e5adc","false","","","","","","","","","","","","","","","","","","","","","","",""
"html-keyboard-response","1","13115","0.0-1.0-0.0-0.0","1c55jllykuya04v","welcome","5f58acaca3b2560285b19ab9","5f60e3c0a3b16e07647b2ff9","5f60ecc8f6803801743e5adc","false","13091.184999997495","<div align=left>Dear participant, <br> thank you for participating in an online study of the Cognition, Action, and Sustainability Unit of the University of Freiburg! <br> <br>The aim of this study is to examine our ability to remember previously learned information. <br>Our goal is to find out, whether our memory improves, when we only remember information that is relevant to us. <br>The experiment will take about 35 minutes to complete. <br> <br>Please, note that you can only participate in this study if you are using a device with a keyboard (PC, Laptop etc.) <br>and not if you are using a mobile device such as a tablet or smartphone.<br> <br>Press 'SPACE' to proceed to the experiment. </div>","32","","","","","","","","","","","","","","","","","","","",""
"html-keyboard-response","2","35310","0.0-1.0-0.0-1.0","1c55jllykuya04v","welcome","5f58acaca3b2560285b19ab9","5f60e3c0a3b16e07647b2ff9","5f60ecc8f6803801743e5adc","false","22191.26999999571","<div align=left><strong> Time Course of this experiment: </strong> <br><br> <strong> 1.</strong>  First, please fill in some information regarding your demographic data. <br><br> <strong> 2.</strong>  Next, your task will be to classify everyday objects. <br>In addition, you will be asked to remember certain objects and recall them later. <br>Working on these tasks requires your undivided attention and concentration.<br>It is therefore essential that you eliminate any sources of distraction in your  <br>environment and ensure that you will not be disturbed. <br><br><strong> 3.</strong>  At the end of the experiment, you will be asked to answer a few additional questions. <br> <br><strong> Important:</strong> After finishing the experiment, only close the browser window <br> by clicking on the 'end the experiment'-button when you are asked to do so. <br>Closing the browser window prematurely will make the allocation of your participation credit impossible. <br><br> Press 'SPACE' to start the experiment. </div>","32","","","","","","","","","","","","","","","","","","","",""
"html-button-response","3","44669","0.0-1.0-0.0-2.0","1c55jllykuya04v","welcome","5f58acaca3b2560285b19ab9","5f60e3c0a3b16e07647b2ff9","5f60ecc8f6803801743e5adc","true","9353.484999999637","<div align=left><strong> Informed consent </strong>  <br>The aim of our research is to better understand human behavior and mental processes. <br>In the following study your behavior (e.g. choices, reaction times) will be studied. <br> <br><strong> Voluntariness and Anonymity </strong> <br>Your participation in this study is  <strong> voluntary</strong>.<br>You may withdraw your consent to participate at any time without providing a reason for doing so and without fear of prejudice. <br><br>As no personal data will be collected, <strong>your data and your person cannot be connected after data collection</strong> – the data-set is anonymous. <br>Respectively, deletion of your data will not be possible after data collection has been completed, as we cannot retrace your data-set.<br>The results and anonymized data collected in this study will be published as a scientific publication. <br>This will happen in an <strong>anonymized format</strong>, so that no data can be traced back to a specific person. <br> <br>The anonymized data of this study will be made available to other researchers and/or in a data archive on the Internet as a means of transparency and to enable subsequent re-use. By doing so, this study follows the recommendations of the Deutsche Forschungsgemeinschaft (DFG, German Research Foundation) and Deutsche Gesellschaft für Psychologie (DGPS, German Psychological Society) regarding quality assurance in research.<br>If you have any questions now or after the experiment, please contact our team (experiments@cs.uni-freiburg.de).<br><br><br>I hereby declare, that I understand the above described conditions of participation and I agree to participate under these conditions. <br><br> </div>","","0","","","","","","","","","","","","","","","","","","",""
"html-keyboard-response","4","66512","0.0-1.0-0.0-3.0","1c55jllykuya04v","welcome","5f58acaca3b2560285b19ab9","5f60e3c0a3b16e07647b2ff9","5f60ecc8f6803801743e5adc","false","21838.86000000348","<div align=left><strong> General information concerning the experiment </strong>  <br> <br>Please follow the instructions:<ol> <li><strong> Do not leave this tab (your browser window) during the experiment and do not reload this tab! </strong>  <br>If you do switch tabs/windows during the experiment (to check your mail or visit another website, for example), <br>the experiment will end automatically and you will <strong>not receive credit</strong> for your participation. <br>Repeated participation or resumption of the experiment is impossible.</li> <br><li>Please close all other programs for the duration of your participation. </li> <br><li>Please mute or turn off your phone and put it out of your reach. </li> <br><li>Please also take off any disturbing accessories (such as wristwatches, bracelets, etc.). </li> <br><li>If you have music playing in the background, please turn it off now. </li> <br></ol>Thank you! <br>Press 'SPACE' to continue. </div>","32","","","","","","","","","","","","","","","","","","","",""
"survey-text","5","70122","0.0-1.0-1.0-0.0","1c55jllykuya04v","demographics","5f58acaca3b2560285b19ab9","5f60e3c0a3b16e07647b2ff9","5f60ecc8f6803801743e5adc","true","3595.390000002226","","","","{""age"":""29""}","","","","","","","","","","","","","","","","","",""
"survey-multi-choice","6","116304","0.0-1.0-1.0-1.0","1c55jllykuya04v","demographics","5f58acaca3b2560285b19ab9","5f60e3c0a3b16e07647b2ff9","5f60ecc8f6803801743e5adc","true","46175.4549999896","","","","{""gender"":""female"",""school"":""high school"",""education"":""Completed university degree or equivalent""}","[0,1,2]","","","","","","","","","","","","","","","","",""
"html-keyboard-response","7","133423","0.0-1.0-2.0","1c55jllykuya04v","instructions","5f58acaca3b2560285b19ab9","5f60e3c0a3b16e07647b2ff9","5f60ecc8f6803801743e5adc","false","17103.645000010147","<div align=left> The experiment is now about to start: <br> <br>In the following part, you will be presented pictures of everyday objects. <br>Your first task is to <strong>classify these objects. </strong> <br> <br> You will classify them either as mechanical or non-mechanical objects. <br> <br>Objects that include any kind of technical mechanism (for example, wheels, switches, levers, <br> electronic components) fall under the category of <strong>mechanical</strong> objects. <br>Only objects without any kind of technical mechanism should be classified as <strong>non-mechanical</strong>. <br><br>Press 'SPACE' to continue. </div>","32","","","","","","","","","","","","","","","","","","","",""
"html-keyboard-response","8","175130","0.0-2.0-0.0","1c55jllykuya04v","instructions","5f58acaca3b2560285b19ab9","5f60e3c0a3b16e07647b2ff9","5f60ecc8f6803801743e5adc","false","41704.744999995455","<div align=justify>You will classify the objects using the <strong>'S'</strong> and the <strong>'L'</strong> keys on your keyboard.<br>For doing so, please place your <strong>left index finger</strong> on the <strong>'S'</strong> key and place your <strong>right index finger</strong> on the <strong>'L'</strong> key. <br><br> Each trial starts with an instruction, indicating which key ('S'/'L') you need to press to classify <br>the object as mechanical (letter M) or non-mechanical (letter N).<br>The instruction <strong>M + N</strong> indicates that, in the current trial, by pressing the left key ('S') you classify the displayed object as mechanical (M) <br> and by pressing the right key ('L') you classify the object as non-mechanical (N). <br>The instruction <strong>N + M</strong> on the other hand indicates that by pressing the left key ('S') you classify the displayed object as non-mechanical (N) <br> and by pressing the right key ('L') you classify the object as mechanical (M). <br><br>Please press the key corresponding to the correct classification as fast as possible as soon as the object is displayed and try to avoid making mistakes.<br>If you do not respond within a 2 second window, a corresponding feedback will be displayed and the next trial will start.<br> The experiment is divided into multiple blocks to give you the opportunity to take a break after each block. <br>First, you can now practice this task. <br><br>Please place your <strong>LEFT INDEX FINGER</strong> on the 'S' key and your <strong>RIGHT INDEX FINGER</strong> on the 'L' key now. <br><br>Press SPACE to continue.</div>","32","","","","","","","","","","","","","","","","","","","",""
"html-keyboard-response","9","185110","0.0-2.0-1.0","1c55jllykuya04v","instructions","5f58acaca3b2560285b19ab9","5f60e3c0a3b16e07647b2ff9","5f60ecc8f6803801743e5adc","false","9976.555000001099","<div align=left> You will now have time to practice this task.<br><br>Remember: <br> <br><li>Please place your index fingers on the <strong>'S'</strong> and <strong>'L'</strong> keys <br>to respond as fast and accurately as possible.</li><li>Every picture can be classified as either mechanical or non-mechanical.</li><li>If you do not respond in time or commit an error, you will receive a corresponding feedback. </li><li> Please try to respond as <strong> fast </strong> and as <strong> accurately as possible </strong> .<br><li>To ensure optimal results, please minimize distractions and stay focused. </li><br><br>Press SPACE to continue.</div>","32","","","","","","","","","","","","","","","","","","","",""
"html-keyboard-response","10","185816","0.0-2.0-2.0-0.0","1c55jllykuya04v","practice_no_cue","5f58acaca3b2560285b19ab9","5f60e3c0a3b16e07647b2ff9","5f60ecc8f6803801743e5adc","false","null","<span style=""color: black; font-size: 48px"">N + M</span>","null","","","","resp_prompt","","","","","","","","","","","","","","","",""
"categorize-image","11","187820","0.0-2.0-2.0-1.0","1c55jllykuya04v","practice_no_cue","5f58acaca3b2560285b19ab9","5f60e3c0a3b16e07647b2ff9","5f60ecc8f6803801743e5adc","true","1498.0199999990873","./Stimuli/ImagesPractice/LM55.jpg","76","","","","test","true","N + M","76","","LM","LM55.jpg","forget","old","1","1","start","right","","","",""
"html-keyboard-response","12","188524","0.0-2.0-2.0-0.1","1c55jllykuya04v","practice_no_cue","5f58acaca3b2560285b19ab9","5f60e3c0a3b16e07647b2ff9","5f60ecc8f6803801743e5adc","false","null","<span style=""color: black; font-size: 48px"">M + N</span>","null","","","","resp_prompt","","","","","","","","","","","","","","","",""
"categorize-image","13","190868","0.0-2.0-2.0-1.1","1c55jllykuya04v","practice_no_cue","5f58acaca3b2560285b19ab9","5f60e3c0a3b16e07647b2ff9","5f60ecc8f6803801743e5adc","true","1840.7250000018394","./Stimuli/ImagesPractice/LN17.jpg","76","","","","test","true","M + N","76","","LN","LN17.jpg","remember","old","2","1","start","right","","","",""
"html-keyboard-response","14","191571","0.0-2.0-2.0-0.2","1c55jllykuya04v","practice_no_cue","5f58acaca3b2560285b19ab9","5f60e3c0a3b16e07647b2ff9","5f60ecc8f6803801743e5adc","false","null","<span style=""color: black; font-size: 48px"">N + M</span>","null","","","","resp_prompt","","","","","","","","","","","","","","","",""
"categorize-image","15","193314","0.0-2.0-2.0-1.2","1c55jllykuya04v","practice_no_cue","5f58acaca3b2560285b19ab9","5f60e3c0a3b16e07647b2ff9","5f60ecc8f6803801743e5adc","true","1237.9950000031386","./Stimuli/ImagesPractice/LM230.jpg","83","","","","test","false","N + M","76","","LM","LM230.jpg","remember","old","3","1","start","left","","","",""
"html-keyboard-response","16","194017","0.0-2.0-2.0-0.3","1c55jllykuya04v","practice_no_cue","5f58acaca3b2560285b19ab9","5f60e3c0a3b16e07647b2ff9","5f60ecc8f6803801743e5adc","false","null","<span style=""color: black; font-size: 48px"">M + N</span>","null","","","","resp_prompt","","","","","","","","","","","","","","","",""
"categorize-image","17","195786","0.0-2.0-2.0-1.3","1c55jllykuya04v","practice_no_cue","5f58acaca3b2560285b19ab9","5f60e3c0a3b16e07647b2ff9","5f60ecc8f6803801743e5adc","true","1264.7350000042934","./Stimuli/ImagesPractice/LM224.jpg","83","","","","test","true","M + N","83","","LM","LM224.jpg","forget","old","4","1","start","left","","","",""
"html-keyboard-response","18","196489","0.0-2.0-2.0-0.4","1c55jllykuya04v","practice_no_cue","5f58acaca3b2560285b19ab9","5f60e3c0a3b16e07647b2ff9","5f60ecc8f6803801743e5adc","false","null","<span style=""color: black; font-size: 48px"">N + M</span>","null","","","","resp_prompt","","","","","","","","","","","","","","","",""
"categorize-image","19","198731","0.0-2.0-2.0-1.4","1c55jllykuya04v","practice_no_cue","5f58acaca3b2560285b19ab9","5f60e3c0a3b16e07647b2ff9","5f60ecc8f6803801743e5adc","true","1739.0999999915948","./Stimuli/ImagesPractice/SN205.jpg","83","","","","test","true","N + M","83","","SN","SN205.jpg","forget","old","5","1","start","left","","","",""
"html-keyboard-response","20","199433","0.0-2.0-2.0-0.5","1c55jllykuya04v","practice_no_cue","5f58acaca3b2560285b19ab9","5f60e3c0a3b16e07647b2ff9","5f60ecc8f6803801743e5adc","false","null","<span style=""color: black; font-size: 48px"">N + M</span>","null","","","","resp_prompt","","","","","","","","","","","","","","","",""
"categorize-image","21","201335","0.0-2.0-2.0-1.5","1c55jllykuya04v","practice_no_cue","5f58acaca3b2560285b19ab9","5f60e3c0a3b16e07647b2ff9","5f60ecc8f6803801743e5adc","true","1395.4999999987194","./Stimuli/ImagesPractice/LN2.jpg","83","","","","test","true","N + M","83","","LN","LN2.jpg","remember","old","6","1","start","left","","","",""
"html-keyboard-response","22","202038","0.0-2.0-2.0-0.6","1c55jllykuya04v","practice_no_cue","5f58acaca3b2560285b19ab9","5f60e3c0a3b16e07647b2ff9","5f60ecc8f6803801743e5adc","false","null","<span style=""color: black; font-size: 48px"">N + M</span>","null","","","","resp_prompt","","","","","","","","","","","","","","","",""
"categorize-image","23","203615","0.0-2.0-2.0-1.6","1c55jllykuya04v","practice_no_cue","5f58acaca3b2560285b19ab9","5f60e3c0a3b16e07647b2ff9","5f60ecc8f6803801743e5adc","true","1071.9700000045123","./Stimuli/ImagesPractice/LN15.jpg","83","","","","test","true","N + M","83","","LN","LN15.jpg","remember","old","7","1","start","left","","","",""
"html-keyboard-response","24","204317","0.0-2.0-2.0-0.7","1c55jllykuya04v","practice_no_cue","5f58acaca3b2560285b19ab9","5f60e3c0a3b16e07647b2ff9","5f60ecc8f6803801743e5adc","false","null","<span style=""color: black; font-size: 48px"">N + M</span>","null","","","","resp_prompt","","","","","","","","","","","","","","","",""
"categorize-image","25","205805","0.0-2.0-2.0-1.7","1c55jllykuya04v","practice_no_cue","5f58acaca3b2560285b19ab9","5f60e3c0a3b16e07647b2ff9","5f60ecc8f6803801743e5adc","true","984.0799999947194","./Stimuli/ImagesPractice/LN72.jpg","83","","","","test","true","N + M","83","","LN","LN72.jpg","forget","old","8","1","start","left","","","",""
"html-keyboard-response","26","206511","0.0-2.0-2.0-0.8","1c55jllykuya04v","practice_no_cue","5f58acaca3b2560285b19ab9","5f60e3c0a3b16e07647b2ff9","5f60ecc8f6803801743e5adc","false","null","<span style=""color: black; font-size: 48px"">M + N</span>","null","","","","resp_prompt","","","","","","","","","","","","","","","",""
"categorize-image","27","208048","0.0-2.0-2.0-1.8","1c55jllykuya04v","practice_no_cue","5f58acaca3b2560285b19ab9","5f60e3c0a3b16e07647b2ff9","5f60ecc8f6803801743e5adc","true","1032.774999999674","./Stimuli/ImagesPractice/LN4.jpg","76","","","","test","true","M + N","76","","LN","LN4.jpg","forget","old","9","1","start","right","","","",""
"html-keyboard-response","28","208750","0.0-2.0-2.0-0.9","1c55jllykuya04v","practice_no_cue","5f58acaca3b2560285b19ab9","5f60e3c0a3b16e07647b2ff9","5f60ecc8f6803801743e5adc","false","null","<span style=""color: black; font-size: 48px"">M + N</span>","null","","","","resp_prompt","","","","","","","","","","","","","","","",""
"categorize-image","29","210255","0.0-2.0-2.0-1.9","1c55jllykuya04v","practice_no_cue","5f58acaca3b2560285b19ab9","5f60e3c0a3b16e07647b2ff9","5f60ecc8f6803801743e5adc","true","1000.8099999977276","./Stimuli/ImagesPractice/SM35.jpg","83","","","","test","true","M + N","83","","SM","SM35.jpg","forget","old","10","1","start","left","","","",""
"html-keyboard-response","30","210957","0.0-2.0-2.0-0.10","1c55jllykuya04v","practice_no_cue","5f58acaca3b2560285b19ab9","5f60e3c0a3b16e07647b2ff9","5f60ecc8f6803801743e5adc","false","null","<span style=""color: black; font-size: 48px"">N + M</span>","null","","","","resp_prompt","","","","","","","","","","","","","","","",""
"categorize-image","31","212876","0.0-2.0-2.0-1.10","1c55jllykuya04v","practice_no_cue","5f58acaca3b2560285b19ab9","5f60e3c0a3b16e07647b2ff9","5f60ecc8f6803801743e5adc","true","1414.6949999994831","./Stimuli/ImagesPractice/SN222.jpg","83","","","","test","true","N + M","83","","SN","SN222.jpg","forget","old","11","1","start","left","","","",""
"html-keyboard-response","32","213578","0.0-2.0-2.0-0.11","1c55jllykuya04v","practice_no_cue","5f58acaca3b2560285b19ab9","5f60e3c0a3b16e07647b2ff9","5f60ecc8f6803801743e5adc","false","null","<span style=""color: black; font-size: 48px"">M + N</span>","null","","","","resp_prompt","","","","","","","","","","","","","","","",""
"categorize-image","33","214840","0.0-2.0-2.0-1.11","1c55jllykuya04v","practice_no_cue","5f58acaca3b2560285b19ab9","5f60e3c0a3b16e07647b2ff9","5f60ecc8f6803801743e5adc","true","757.7949999977136","./Stimuli/ImagesPractice/SN221.jpg","76","","","","test","true","M + N","76","","SN","SN221.jpg","forget","old","12","1","start","right","","","",""
"html-keyboard-response","34","215542","0.0-2.0-2.0-0.12","1c55jllykuya04v","practice_no_cue","5f58acaca3b2560285b19ab9","5f60e3c0a3b16e07647b2ff9","5f60ecc8f6803801743e5adc","false","null","<span style=""color: black; font-size: 48px"">N + M</span>","null","","","","resp_prompt","","","","","","","","","","","","","","","",""
"categorize-image","35","217688","0.0-2.0-2.0-1.12","1c55jllykuya04v","practice_no_cue","5f58acaca3b2560285b19ab9","5f60e3c0a3b16e07647b2ff9","5f60ecc8f6803801743e5adc","true","1642.8549999982351","./Stimuli/ImagesPractice/LN109.jpg","83","","","","test","true","N + M","83","","LN","LN109.jpg","remember","old","13","1","start","left","","","",""
"html-keyboard-response","36","218391","0.0-2.0-2.0-0.13","1c55jllykuya04v","practice_no_cue","5f58acaca3b2560285b19ab9","5f60e3c0a3b16e07647b2ff9","5f60ecc8f6803801743e5adc","false","null","<span style=""color: black; font-size: 48px"">M + N</span>","null","","","","resp_prompt","","","","","","","","","","","","","","","",""
"categorize-image","37","219919","0.0-2.0-2.0-1.13","1c55jllykuya04v","practice_no_cue","5f58acaca3b2560285b19ab9","5f60e3c0a3b16e07647b2ff9","5f60ecc8f6803801743e5adc","true","1024.1099999984726","./Stimuli/ImagesPractice/LM147.jpg","83","","","","test","true","M + N","83","","LM","LM147.jpg","remember","old","14","1","start","left","","","",""
"html-keyboard-response","38","220622","0.0-2.0-2.0-0.14","1c55jllykuya04v","practice_no_cue","5f58acaca3b2560285b19ab9","5f60e3c0a3b16e07647b2ff9","5f60ecc8f6803801743e5adc","false","null","<span style=""color: black; font-size: 48px"">M + N</span>","null","","","","resp_prompt","","","","","","","","","","","","","","","",""
"categorize-image","39","222024","0.0-2.0-2.0-1.14","1c55jllykuya04v","practice_no_cue","5f58acaca3b2560285b19ab9","5f60e3c0a3b16e07647b2ff9","5f60ecc8f6803801743e5adc","true","898.605000009411","./Stimuli/ImagesPractice/SM98.jpg","83","","","","test","true","M + N","83","","SM","SM98.jpg","remember","old","15","1","start","left","","","",""
"html-keyboard-response","40","222727","0.0-2.0-2.0-0.15","1c55jllykuya04v","practice_no_cue","5f58acaca3b2560285b19ab9","5f60e3c0a3b16e07647b2ff9","5f60ecc8f6803801743e5adc","false","null","<span style=""color: black; font-size: 48px"">M + N</span>","null","","","","resp_prompt","","","","","","","","","","","","","","","",""
"categorize-image","41","224018","0.0-2.0-2.0-1.15","1c55jllykuya04v","practice_no_cue","5f58acaca3b2560285b19ab9","5f60e3c0a3b16e07647b2ff9","5f60ecc8f6803801743e5adc","true","786.1899999988964","./Stimuli/ImagesPractice/SM97.jpg","83","","","","test","true","M + N","83","","SM","SM97.jpg","remember","old","16","1","start","left","","","",""
"html-keyboard-response","42","228455","0.0-2.0-3.0","1c55jllykuya04v","break","5f58acaca3b2560285b19ab9","5f60e3c0a3b16e07647b2ff9","5f60ecc8f6803801743e5adc","false","4429.480000006151","<p style='font-size: 32px;'>Break</><br><br><br><br><br><p style='font-size: 24px;'>In the last block, you committed 1 errors and did not respond in time on 0 trials.
</p><p style='font-size: 24px;'>Try to respond as fast and accurately as possible in the next block as well! </p><p style='font-size: 24px;'>Press SPACE to continue.</p>","32","","","","","","","","","","","","","","","","","","","",""
"html-keyboard-response","43","234198","0.0-2.0-4.0","1c55jllykuya04v","instructions","5f58acaca3b2560285b19ab9","5f60e3c0a3b16e07647b2ff9","5f60ecc8f6803801743e5adc","false","5740.304999999353","<div align=left> Great!<br><br>Are you ready to continue?<br><br>If you want to reread the instructions and redo the practice trials, <br>please press „Z“. <br><br>Press SPACE to CONTINUE with the experiment when you are ready. </div>","32","","","","","","","","","","","","","","","","","","","",""
"html-keyboard-response","44","257173","0.0-3.0-0.0","1c55jllykuya04v","instructions","5f58acaca3b2560285b19ab9","5f60e3c0a3b16e07647b2ff9","5f60ecc8f6803801743e5adc","false","22970.95000000263","<div align=left>Great!<br> <strong>Attention</strong>! You will now receive a second, additional task! <br><br>To this point it was you <strong>first task</strong> to correctly <strong>classify objects</strong>. <br><br>As mentioned in the beginning, we aim to examine how well humans can remember previously learned information.<br>We would like to find out whether our memory improves if we only remember information that is relevant to us. <br><br>Therefore, your <strong>second task</strong> will be to <strong>remember</strong> the pictures you are to categorize. <br> After the learning phase, there will be a memory test phase, in which you will be asked to indicate whether you have seen a picture before or not. <br>Some, but not all pictures shown in the learning phase will appear in the memory test phase.<br>After classifying a picture, you will be told whether you should remember it for the memory test phase or not. <br>Thus, some pictures can be forgotten, whereas others have to be remembered. <br><br>Note: From now on, feedback will only be displayed if you responded incorrectly or not in time.<br><br>Press SPACE to continue.</div>","32","","","","","","","","","","","","","","","","","","","",""
"html-keyboard-response","45","274776","0.0-3.0-1.0","1c55jllykuya04v","instructions","5f58acaca3b2560285b19ab9","5f60e3c0a3b16e07647b2ff9","5f60ecc8f6803801743e5adc","false","17600.915000002715","<div align=left>In the following part, you will thus have to remember only some pictures. <br>Immediately after seeing and classifying the picture, a symbol will be displayed, indicating whether you should remember or forget the previous picture. <br><br>A <span style='color: dodgerblue; font-size: 28px'>O</span> indicates REMEMBER. That means, you have to remember this picture, because it will be tested later. <br><br>A <span style='color: darkorange; font-size:28px'>Ø</span> indicates FORGET. You do not have to remember this picture. <br><br> As you will have to remember a lot of pictures, it will be hard for you to remember all of them. <br>It will put you at an advantage if you instantly forget the pictures you are not asked to remember. <br> This will make it easier for you to remember the pictures that will be tested afterwards. <br><br>Press SPACE to continue.</div>","32","","","","","","","","","","","","","","","","","","","",""
"html-keyboard-response","46","284134","0.0-3.0-2.0","1c55jllykuya04v","instructions","5f58acaca3b2560285b19ab9","5f60e3c0a3b16e07647b2ff9","5f60ecc8f6803801743e5adc","false","9355.584999997518","<div align=left> Now you have the chance to practice both tasks together.<br><br>Remember: <br> <br><li>Please place your index fingers on the <strong>'S'</strong> and <strong>'L'</strong> keys <br>to respond as fast and accurately as possible.</li><li>Every picture can be classified as either mechanical or non-mechanical.</li><li>If you do not respond in time or commit an error, you will receive a corresponding feedback. <br>Please try to respond as <strong> fast </strong> and as <strong> accurately as possible </strong>.</li><li> Please remember only the to-be-remembered <span style='color: dodgerblue; font-size: 28px'>O</span> pictures. <br></li><li> Please minimize distractions and stay focused. </li><br><br>Press SPACE to START</div>","32","","","","","","","","","","","","","","","","","","","",""
"html-keyboard-response","47","284837","0.0-3.0-3.0-0.0","1c55jllykuya04v","practice_cue","5f58acaca3b2560285b19ab9","5f60e3c0a3b16e07647b2ff9","5f60ecc8f6803801743e5adc","false","null","<span style=""color: black; font-size: 48px"">M + N</span>","null","","","","resp_prompt","","","","","","","","","","","","","","","",""
"categorize-image","48","285803","0.0-3.0-3.0-1.0","1c55jllykuya04v","practice_cue","5f58acaca3b2560285b19ab9","5f60e3c0a3b16e07647b2ff9","5f60ecc8f6803801743e5adc","true","957.7149999968242","./Stimuli/ImagesPractice/SN221.jpg","76","","","","test","true","M + N","76","","SN","SN221.jpg","forget","old","17","2","practice_forget","right","","","",""
"html-keyboard-response","49","287806","0.0-3.0-3.0-3.0","1c55jllykuya04v","practice_cue","5f58acaca3b2560285b19ab9","5f60e3c0a3b16e07647b2ff9","5f60ecc8f6803801743e5adc","false","null","<div style=""align-items: center; display: flex; color: darkorange; font-size: 90px""><b>ø</b></div>","null","","","","forget_cue","","","","","","","","","","","","","","","",""
"html-keyboard-response","50","288509","0.0-3.0-3.0-0.1","1c55jllykuya04v","practice_cue","5f58acaca3b2560285b19ab9","5f60e3c0a3b16e07647b2ff9","5f60ecc8f6803801743e5adc","false","null","<span style=""color: black; font-size: 48px"">N + M</span>","null","","","","resp_prompt","","","","","","","","","","","","","","","",""
"categorize-image","51","289497","0.0-3.0-3.0-1.1","1c55jllykuya04v","practice_cue","5f58acaca3b2560285b19ab9","5f60e3c0a3b16e07647b2ff9","5f60ecc8f6803801743e5adc","true","981.8550000054529","./Stimuli/ImagesPractice/LN72.jpg","83","","","","test","true","N + M","83","","LN","LN72.jpg","forget","old","18","2","practice_forget","left","","","",""
"html-keyboard-response","52","291499","0.0-3.0-3.0-3.1","1c55jllykuya04v","practice_cue","5f58acaca3b2560285b19ab9","5f60e3c0a3b16e07647b2ff9","5f60ecc8f6803801743e5adc","false","null","<div style=""align-items: center; display: flex; color: darkorange; font-size: 90px""><b>ø</b></div>","null","","","","forget_cue","","","","","","","","","","","","","","","",""
"html-keyboard-response","53","292202","0.0-3.0-3.0-0.2","1c55jllykuya04v","practice_cue","5f58acaca3b2560285b19ab9","5f60e3c0a3b16e07647b2ff9","5f60ecc8f6803801743e5adc","false","null","<span style=""color: black; font-size: 48px"">N + M</span>","null","","","","resp_prompt","","","","","","","","","","","","","","","",""
"categorize-image","54","293048","0.0-3.0-3.0-1.2","1c55jllykuya04v","practice_cue","5f58acaca3b2560285b19ab9","5f60e3c0a3b16e07647b2ff9","5f60ecc8f6803801743e5adc","true","839.2100000055507","./Stimuli/ImagesPractice/LM55.jpg","76","","","","test","true","N + M","76","","LM","LM55.jpg","forget","old","19","2","practice_forget","right","","","",""
"html-keyboard-response","55","295050","0.0-3.0-3.0-3.2","1c55jllykuya04v","practice_cue","5f58acaca3b2560285b19ab9","5f60e3c0a3b16e07647b2ff9","5f60ecc8f6803801743e5adc","false","null","<div style=""align-items: center; display: flex; color: darkorange; font-size: 90px""><b>ø</b></div>","null","","","","forget_cue","","","","","","","","","","","","","","","",""
"html-keyboard-response","56","295752","0.0-3.0-3.0-0.3","1c55jllykuya04v","practice_cue","5f58acaca3b2560285b19ab9","5f60e3c0a3b16e07647b2ff9","5f60ecc8f6803801743e5adc","false","null","<span style=""color: black; font-size: 48px"">N + M</span>","null","","","","resp_prompt","","","","","","","","","","","","","","","",""
"categorize-image","57","296821","0.0-3.0-3.0-1.3","1c55jllykuya04v","practice_cue","5f58acaca3b2560285b19ab9","5f60e3c0a3b16e07647b2ff9","5f60ecc8f6803801743e5adc","true","1063.945000001695","./Stimuli/ImagesPractice/LN15.jpg","83","","","","test","true","N + M","83","","LN","LN15.jpg","remember","old","20","2","practice_forget","left","","","",""
"html-keyboard-response","58","298824","0.0-3.0-3.0-3.3","1c55jllykuya04v","practice_cue","5f58acaca3b2560285b19ab9","5f60e3c0a3b16e07647b2ff9","5f60ecc8f6803801743e5adc","false","null","<div style=""align-items: center; display: flex; color: dodgerblue; font-size: 90px""><b>o</b></div>","null","","","","forget_cue","","","","","","","","","","","","","","","",""
"html-keyboard-response","59","299526","0.0-3.0-3.0-0.4","1c55jllykuya04v","practice_cue","5f58acaca3b2560285b19ab9","5f60e3c0a3b16e07647b2ff9","5f60ecc8f6803801743e5adc","false","null","<span style=""color: black; font-size: 48px"">M + N</span>","null","","","","resp_prompt","","","","","","","","","","","","","","","",""
"categorize-image","60","300503","0.0-3.0-3.0-1.4","1c55jllykuya04v","practice_cue","5f58acaca3b2560285b19ab9","5f60e3c0a3b16e07647b2ff9","5f60ecc8f6803801743e5adc","true","969.5399999909569","./Stimuli/ImagesPractice/SM97.jpg","83","","","","test","true","M + N","83","","SM","SM97.jpg","remember","old","21","2","practice_forget","left","","","",""
"html-keyboard-response","61","302506","0.0-3.0-3.0-3.4","1c55jllykuya04v","practice_cue","5f58acaca3b2560285b19ab9","5f60e3c0a3b16e07647b2ff9","5f60ecc8f6803801743e5adc","false","null","<div style=""align-items: center; display: flex; color: dodgerblue; font-size: 90px""><b>o</b></div>","null","","","","forget_cue","","","","","","","","","","","","","","","",""
"html-keyboard-response","62","303208","0.0-3.0-3.0-0.5","1c55jllykuya04v","practice_cue","5f58acaca3b2560285b19ab9","5f60e3c0a3b16e07647b2ff9","5f60ecc8f6803801743e5adc","false","null","<span style=""color: black; font-size: 48px"">M + N</span>","null","","","","resp_prompt","","","","","","","","","","","","","","","",""
"categorize-image","63","303844","0.0-3.0-3.0-1.5","1c55jllykuya04v","practice_cue","5f58acaca3b2560285b19ab9","5f60e3c0a3b16e07647b2ff9","5f60ecc8f6803801743e5adc","true","628.8950000016484","./Stimuli/ImagesPractice/SM35.jpg","83","","","","test","true","M + N","83","","SM","SM35.jpg","forget","old","22","2","practice_forget","left","","","",""
"html-keyboard-response","64","305847","0.0-3.0-3.0-3.5","1c55jllykuya04v","practice_cue","5f58acaca3b2560285b19ab9","5f60e3c0a3b16e07647b2ff9","5f60ecc8f6803801743e5adc","false","null","<div style=""align-items: center; display: flex; color: darkorange; font-size: 90px""><b>ø</b></div>","null","","","","forget_cue","","","","","","","","","","","","","","","",""
"html-keyboard-response","65","306549","0.0-3.0-3.0-0.6","1c55jllykuya04v","practice_cue","5f58acaca3b2560285b19ab9","5f60e3c0a3b16e07647b2ff9","5f60ecc8f6803801743e5adc","false","null","<span style=""color: black; font-size: 48px"">N + M</span>","null","","","","resp_prompt","","","","","","","","","","","","","","","",""
"categorize-image","66","307455","0.0-3.0-3.0-1.6","1c55jllykuya04v","practice_cue","5f58acaca3b2560285b19ab9","5f60e3c0a3b16e07647b2ff9","5f60ecc8f6803801743e5adc","true","899.6250000054715","./Stimuli/ImagesPractice/SN222.jpg","83","","","","test","true","N + M","83","","SN","SN222.jpg","forget","old","23","2","practice_forget","left","","","",""
"html-keyboard-response","67","309458","0.0-3.0-3.0-3.6","1c55jllykuya04v","practice_cue","5f58acaca3b2560285b19ab9","5f60e3c0a3b16e07647b2ff9","5f60ecc8f6803801743e5adc","false","null","<div style=""align-items: center; display: flex; color: darkorange; font-size: 90px""><b>ø</b></div>","null","","","","forget_cue","","","","","","","","","","","","","","","",""
"html-keyboard-response","68","310160","0.0-3.0-3.0-0.7","1c55jllykuya04v","practice_cue","5f58acaca3b2560285b19ab9","5f60e3c0a3b16e07647b2ff9","5f60ecc8f6803801743e5adc","false","null","<span style=""color: black; font-size: 48px"">N + M</span>","null","","","","resp_prompt","","","","","","","","","","","","","","","",""
"categorize-image","69","310863","0.0-3.0-3.0-1.7","1c55jllykuya04v","practice_cue","5f58acaca3b2560285b19ab9","5f60e3c0a3b16e07647b2ff9","5f60ecc8f6803801743e5adc","true","695.689999993192","./Stimuli/ImagesPractice/SN205.jpg","83","","","","test","true","N + M","83","","SN","SN205.jpg","forget","old","24","2","practice_forget","left","","","",""
"html-keyboard-response","70","312866","0.0-3.0-3.0-3.7","1c55jllykuya04v","practice_cue","5f58acaca3b2560285b19ab9","5f60e3c0a3b16e07647b2ff9","5f60ecc8f6803801743e5adc","false","null","<div style=""align-items: center; display: flex; color: darkorange; font-size: 90px""><b>ø</b></div>","null","","","","forget_cue","","","","","","","","","","","","","","","",""
"html-keyboard-response","71","313568","0.0-3.0-3.0-0.8","1c55jllykuya04v","practice_cue","5f58acaca3b2560285b19ab9","5f60e3c0a3b16e07647b2ff9","5f60ecc8f6803801743e5adc","false","null","<span style=""color: black; font-size: 48px"">N + M</span>","null","","","","resp_prompt","","","","","","","","","","","","","","","",""
"categorize-image","72","314284","0.0-3.0-3.0-1.8","1c55jllykuya04v","practice_cue","5f58acaca3b2560285b19ab9","5f60e3c0a3b16e07647b2ff9","5f60ecc8f6803801743e5adc","true","709.595000007539","./Stimuli/ImagesPractice/LN2.jpg","83","","","","test","true","N + M","83","","LN","LN2.jpg","remember","old","25","2","practice_forget","left","","","",""
"html-keyboard-response","73","316287","0.0-3.0-3.0-3.8","1c55jllykuya04v","practice_cue","5f58acaca3b2560285b19ab9","5f60e3c0a3b16e07647b2ff9","5f60ecc8f6803801743e5adc","false","null","<div style=""align-items: center; display: flex; color: dodgerblue; font-size: 90px""><b>o</b></div>","null","","","","forget_cue","","","","","","","","","","","","","","","",""
"html-keyboard-response","74","316989","0.0-3.0-3.0-0.9","1c55jllykuya04v","practice_cue","5f58acaca3b2560285b19ab9","5f60e3c0a3b16e07647b2ff9","5f60ecc8f6803801743e5adc","false","null","<span style=""color: black; font-size: 48px"">N + M</span>","null","","","","resp_prompt","","","","","","","","","","","","","","","",""
"categorize-image","75","317880","0.0-3.0-3.0-1.9","1c55jllykuya04v","practice_cue","5f58acaca3b2560285b19ab9","5f60e3c0a3b16e07647b2ff9","5f60ecc8f6803801743e5adc","true","884.1499999980442","./Stimuli/ImagesPractice/LN109.jpg","83","","","","test","true","N + M","83","","LN","LN109.jpg","remember","old","26","2","practice_forget","left","","","",""
"html-keyboard-response","76","319882","0.0-3.0-3.0-3.9","1c55jllykuya04v","practice_cue","5f58acaca3b2560285b19ab9","5f60e3c0a3b16e07647b2ff9","5f60ecc8f6803801743e5adc","false","null","<div style=""align-items: center; display: flex; color: dodgerblue; font-size: 90px""><b>o</b></div>","null","","","","forget_cue","","","","","","","","","","","","","","","",""
"html-keyboard-response","77","320584","0.0-3.0-3.0-0.10","1c55jllykuya04v","practice_cue","5f58acaca3b2560285b19ab9","5f60e3c0a3b16e07647b2ff9","5f60ecc8f6803801743e5adc","false","null","<span style=""color: black; font-size: 48px"">M + N</span>","null","","","","resp_prompt","","","","","","","","","","","","","","","",""
"categorize-image","78","321451","0.0-3.0-3.0-1.10","1c55jllykuya04v","practice_cue","5f58acaca3b2560285b19ab9","5f60e3c0a3b16e07647b2ff9","5f60ecc8f6803801743e5adc","true","855.0000000104774","./Stimuli/ImagesPractice/LM224.jpg","83","","","","test","true","M + N","83","","LM","LM224.jpg","forget","old","27","2","practice_forget","left","","","",""
"html-keyboard-response","79","323453","0.0-3.0-3.0-3.10","1c55jllykuya04v","practice_cue","5f58acaca3b2560285b19ab9","5f60e3c0a3b16e07647b2ff9","5f60ecc8f6803801743e5adc","false","null","<div style=""align-items: center; display: flex; color: darkorange; font-size: 90px""><b>ø</b></div>","null","","","","forget_cue","","","","","","","","","","","","","","","",""
"html-keyboard-response","80","324155","0.0-3.0-3.0-0.11","1c55jllykuya04v","practice_cue","5f58acaca3b2560285b19ab9","5f60e3c0a3b16e07647b2ff9","5f60ecc8f6803801743e5adc","false","null","<span style=""color: black; font-size: 48px"">M + N</span>","null","","","","resp_prompt","","","","","","","","","","","","","","","",""
"categorize-image","81","325763","0.0-3.0-3.0-1.11","1c55jllykuya04v","practice_cue","5f58acaca3b2560285b19ab9","5f60e3c0a3b16e07647b2ff9","5f60ecc8f6803801743e5adc","true","1600.109999999404","./Stimuli/ImagesPractice/LM147.jpg","76","","","","test","false","M + N","83","","LM","LM147.jpg","remember","old","28","2","practice_forget","right","","","",""
"html-keyboard-response","82","326266","0.0-3.0-3.0-2.11-0.11","1c55jllykuya04v","practice_cue","5f58acaca3b2560285b19ab9","5f60e3c0a3b16e07647b2ff9","5f60ecc8f6803801743e5adc","false","null","<span style=""color: red; font-size: 48px"">Error!</span>","null","","","","feedback","","","","","","","","","","","","","","","",""
"html-keyboard-response","83","328269","0.0-3.0-3.0-3.11","1c55jllykuya04v","practice_cue","5f58acaca3b2560285b19ab9","5f60e3c0a3b16e07647b2ff9","5f60ecc8f6803801743e5adc","false","null","<div style=""align-items: center; display: flex; color: dodgerblue; font-size: 90px""><b>o</b></div>","null","","","","forget_cue","","","","","","","","","","","","","","","",""
"html-keyboard-response","84","328971","0.0-3.0-3.0-0.12","1c55jllykuya04v","practice_cue","5f58acaca3b2560285b19ab9","5f60e3c0a3b16e07647b2ff9","5f60ecc8f6803801743e5adc","false","null","<span style=""color: black; font-size: 48px"">M + N</span>","null","","","","resp_prompt","","","","","","","","","","","","","","","",""
"categorize-image","85","329657","0.0-3.0-3.0-1.12","1c55jllykuya04v","practice_cue","5f58acaca3b2560285b19ab9","5f60e3c0a3b16e07647b2ff9","5f60ecc8f6803801743e5adc","true","678.7750000075903","./Stimuli/ImagesPractice/LN4.jpg","76","","","","test","true","M + N","76","","LN","LN4.jpg","forget","old","29","2","practice_forget","right","","","",""
"html-keyboard-response","86","331660","0.0-3.0-3.0-3.12","1c55jllykuya04v","practice_cue","5f58acaca3b2560285b19ab9","5f60e3c0a3b16e07647b2ff9","5f60ecc8f6803801743e5adc","false","null","<div style=""align-items: center; display: flex; color: darkorange; font-size: 90px""><b>ø</b></div>","null","","","","forget_cue","","","","","","","","","","","","","","","",""
"html-keyboard-response","87","332362","0.0-3.0-3.0-0.13","1c55jllykuya04v","practice_cue","5f58acaca3b2560285b19ab9","5f60e3c0a3b16e07647b2ff9","5f60ecc8f6803801743e5adc","false","null","<span style=""color: black; font-size: 48px"">M + N</span>","null","","","","resp_prompt","","","","","","","","","","","","","","","",""
"categorize-image","88","333043","0.0-3.0-3.0-1.13","1c55jllykuya04v","practice_cue","5f58acaca3b2560285b19ab9","5f60e3c0a3b16e07647b2ff9","5f60ecc8f6803801743e5adc","true","674.2749999975786","./Stimuli/ImagesPractice/LN17.jpg","76","","","","test","true","M + N","76","","LN","LN17.jpg","remember","old","30","2","practice_forget","right","","","",""
"html-keyboard-response","89","335046","0.0-3.0-3.0-3.13","1c55jllykuya04v","practice_cue","5f58acaca3b2560285b19ab9","5f60e3c0a3b16e07647b2ff9","5f60ecc8f6803801743e5adc","false","null","<div style=""align-items: center; display: flex; color: dodgerblue; font-size: 90px""><b>o</b></div>","null","","","","forget_cue","","","","","","","","","","","","","","","",""
"html-keyboard-response","90","335748","0.0-3.0-3.0-0.14","1c55jllykuya04v","practice_cue","5f58acaca3b2560285b19ab9","5f60e3c0a3b16e07647b2ff9","5f60ecc8f6803801743e5adc","false","null","<span style=""color: black; font-size: 48px"">M + N</span>","null","","","","resp_prompt","","","","","","","","","","","","","","","",""
"categorize-image","91","336489","0.0-3.0-3.0-1.14","1c55jllykuya04v","practice_cue","5f58acaca3b2560285b19ab9","5f60e3c0a3b16e07647b2ff9","5f60ecc8f6803801743e5adc","true","735.0049999949988","./Stimuli/ImagesPractice/SM98.jpg","83","","","","test","true","M + N","83","","SM","SM98.jpg","remember","old","31","2","practice_forget","left","","","",""
"html-keyboard-response","92","338491","0.0-3.0-3.0-3.14","1c55jllykuya04v","practice_cue","5f58acaca3b2560285b19ab9","5f60e3c0a3b16e07647b2ff9","5f60ecc8f6803801743e5adc","false","null","<div style=""align-items: center; display: flex; color: dodgerblue; font-size: 90px""><b>o</b></div>","null","","","","forget_cue","","","","","","","","","","","","","","","",""
"html-keyboard-response","93","339194","0.0-3.0-3.0-0.15","1c55jllykuya04v","practice_cue","5f58acaca3b2560285b19ab9","5f60e3c0a3b16e07647b2ff9","5f60ecc8f6803801743e5adc","false","null","<span style=""color: black; font-size: 48px"">N + M</span>","null","","","","resp_prompt","","","","","","","","","","","","","","","",""
"categorize-image","94","340049","0.0-3.0-3.0-1.15","1c55jllykuya04v","practice_cue","5f58acaca3b2560285b19ab9","5f60e3c0a3b16e07647b2ff9","5f60ecc8f6803801743e5adc","true","847.8800000011688","./Stimuli/ImagesPractice/LM230.jpg","76","","","","test","true","N + M","76","","LM","LM230.jpg","remember","old","32","2","practice_forget","right","","","",""
"html-keyboard-response","95","342052","0.0-3.0-3.0-3.15","1c55jllykuya04v","practice_cue","5f58acaca3b2560285b19ab9","5f60e3c0a3b16e07647b2ff9","5f60ecc8f6803801743e5adc","false","null","<div style=""align-items: center; display: flex; color: dodgerblue; font-size: 90px""><b>o</b></div>","null","","","","forget_cue","","","","","","","","","","","","","","","",""
"html-keyboard-response","96","345424","0.0-3.0-4.0","1c55jllykuya04v","break","5f58acaca3b2560285b19ab9","5f60e3c0a3b16e07647b2ff9","5f60ecc8f6803801743e5adc","false","3366.280000002007","<p style='font-size: 32px;'>Break</><br><br><br><br><br><p style='font-size: 24px;'>In the last block, you committed 1 errors and did not respond in time on 0 trials.
</p><p style='font-size: 24px;'>Try to respond as fast and accurately as possible in the next block as well! </p><p style='font-size: 24px;'>Press SPACE to continue.</p>","32","","","","","","","","","","","","","","","","","","","",""
"html-keyboard-response","97","361386","0.0-3.0-5.0","1c55jllykuya04v","instructions","5f58acaca3b2560285b19ab9","5f60e3c0a3b16e07647b2ff9","5f60ecc8f6803801743e5adc","false","15959.564999997383","<div align=left> Now, to practice, we kindly ask you to remember as many of the to-be-remembered pictures<br>of the previous learning phase as possible.<br><br>The pictures you were instructed to remember were the pictures followed by a <span style='color: dodgerblue; font-size: 28px'>O</span>.<br><br>In this memory test phase, you will also see some new pictures.<br>It is your task to remember whether you were presented with this specific picture in this study so far or not.<br>If you recognize an object (you have already seen it in this study), it is an OLD object. <br>If you do not recognize an object (you have NOT seen it in this study), it is a NEW object. <br><strong> Attention</strong>: As already mentioned, <span style='color: darkorange; font-size:28px'>Ø</span>-pictures will <strong>never</strong> appear in this memory test (neither as new objects). <br><br>Press SPACE to continue. </div>","32","","","","","","","","","","","","","","","","","","","",""
"html-keyboard-response","98","383427","0.0-3.0-6.0","1c55jllykuya04v","instructions","5f58acaca3b2560285b19ab9","5f60e3c0a3b16e07647b2ff9","5f60ecc8f6803801743e5adc","false","22037.804999999935","<div align=left> M and N no longer will appear on the left/right of the fixation cross. <br>Instead there will be a note at the bottom of the left or right side  <br>indicating which key you should press for an old or new object:  <br> <br>Press the <strong>right</strong> key to classify an object as <strong>old</strong> and press the <strong>left</strong>, to classify an object as <strong>new</strong>.<br>Please classify the objects as new/old by again placing your index finger on the 'S' and 'L' keys <br>and press them accordingly.<br><br><strong>Old:</strong> This object has been presented before. <br><strong>New:</strong> This object has <strong>not</strong> been presented.<br><br>Now please put your right and left index fingers on the 'S' and 'L' keys of your keyboard. <br>Please respond as fast and as accurately as possible!<br><br>Press SPACE to continue. </div>","32","","","","","","","","","","","","","","","","","","","",""
"categorize-image","99","386684","0.0-3.0-7.0-0.0","1c55jllykuya04v","practice_recog","5f58acaca3b2560285b19ab9","5f60e3c0a3b16e07647b2ff9","5f60ecc8f6803801743e5adc","true","2749.6350000001257","./Stimuli/ImagesPractice/LN15.jpg","76","","","","test","true","","76","","LN","LN15.jpg","","old","33","3","practice_recog","right","","","",""
"categorize-image","100","388519","0.0-3.0-7.0-0.1","1c55jllykuya04v","practice_recog","5f58acaca3b2560285b19ab9","5f60e3c0a3b16e07647b2ff9","5f60ecc8f6803801743e5adc","true","1330.0649999873713","./Stimuli/ImagesPractice/LN2.jpg","76","","","","test","true","","76","","LN","LN2.jpg","","old","34","3","practice_recog","right","","","",""
"categorize-image","101","390113","0.0-3.0-7.0-0.2","1c55jllykuya04v","practice_recog","5f58acaca3b2560285b19ab9","5f60e3c0a3b16e07647b2ff9","5f60ecc8f6803801743e5adc","true","1088.7499999953434","./Stimuli/ImagesPractice/SM61.jpg","83","","","","test","true","","83","","SM","SM61.jpg","","new","35","3","practice_recog","left","","","",""
"categorize-image","102","392122","0.0-3.0-7.0-0.3","1c55jllykuya04v","practice_recog","5f58acaca3b2560285b19ab9","5f60e3c0a3b16e07647b2ff9","5f60ecc8f6803801743e5adc","true","1504.1150000033667","./Stimuli/ImagesPractice/LM230.jpg","83","","","","test","false","","76","","LM","LM230.jpg","","old","36","3","practice_recog","left","","","",""
"categorize-image","103","393828","0.0-3.0-7.0-0.4","1c55jllykuya04v","practice_recog","5f58acaca3b2560285b19ab9","5f60e3c0a3b16e07647b2ff9","5f60ecc8f6803801743e5adc","true","1202.0149999880232","./Stimuli/ImagesPractice/SM98.jpg","76","","","","test","true","","76","","SM","SM98.jpg","","old","37","3","practice_recog","right","","","",""
"categorize-image","104","395600","0.0-3.0-7.0-0.5","1c55jllykuya04v","practice_recog","5f58acaca3b2560285b19ab9","5f60e3c0a3b16e07647b2ff9","5f60ecc8f6803801743e5adc","true","1267.5900000031106","./Stimuli/ImagesPractice/SN76.jpg","83","","","","test","true","","83","","SN","SN76.jpg","","new","38","3","practice_recog","left","","","",""
"categorize-image","105","397894","0.0-3.0-7.0-0.6","1c55jllykuya04v","practice_recog","5f58acaca3b2560285b19ab9","5f60e3c0a3b16e07647b2ff9","5f60ecc8f6803801743e5adc","true","1790.5299999983981","./Stimuli/ImagesPractice/LM143.jpg","83","","","","test","true","","83","","LM","LM143.jpg","","new","39","3","practice_recog","left","","","",""
"categorize-image","106","399316","0.0-3.0-7.0-0.7","1c55jllykuya04v","practice_recog","5f58acaca3b2560285b19ab9","5f60e3c0a3b16e07647b2ff9","5f60ecc8f6803801743e5adc","true","917.1400000050198","./Stimuli/ImagesPractice/LN17.jpg","76","","","","test","true","","76","","LN","LN17.jpg","","old","40","3","practice_recog","right","","","",""
"categorize-image","107","400752","0.0-3.0-7.0-0.8","1c55jllykuya04v","practice_recog","5f58acaca3b2560285b19ab9","5f60e3c0a3b16e07647b2ff9","5f60ecc8f6803801743e5adc","true","931.0300000070129","./Stimuli/ImagesPractice/SN220.jpg","83","","","","test","true","","83","","SN","SN220.jpg","","new","41","3","practice_recog","left","","","",""
"categorize-image","108","402234","0.0-3.0-7.0-0.9","1c55jllykuya04v","practice_recog","5f58acaca3b2560285b19ab9","5f60e3c0a3b16e07647b2ff9","5f60ecc8f6803801743e5adc","true","977.855000004638","./Stimuli/ImagesPractice/SM97.jpg","76","","","","test","true","","76","","SM","SM97.jpg","","old","42","3","practice_recog","right","","","",""
"categorize-image","109","403535","0.0-3.0-7.0-0.10","1c55jllykuya04v","practice_recog","5f58acaca3b2560285b19ab9","5f60e3c0a3b16e07647b2ff9","5f60ecc8f6803801743e5adc","true","796.5649999969173","./Stimuli/ImagesPractice/SN75.jpg","83","","","","test","true","","83","","SN","SN75.jpg","","new","43","3","practice_recog","left","","","",""
"categorize-image","110","404988","0.0-3.0-7.0-0.11","1c55jllykuya04v","practice_recog","5f58acaca3b2560285b19ab9","5f60e3c0a3b16e07647b2ff9","5f60ecc8f6803801743e5adc","true","947.7699999988545","./Stimuli/ImagesPractice/LM147.jpg","76","","","","test","true","","76","","LM","LM147.jpg","","old","44","3","practice_recog","right","","","",""
"categorize-image","111","406444","0.0-3.0-7.0-0.12","1c55jllykuya04v","practice_recog","5f58acaca3b2560285b19ab9","5f60e3c0a3b16e07647b2ff9","5f60ecc8f6803801743e5adc","true","952.8800000116462","./Stimuli/ImagesPractice/SM37.jpg","83","","","","test","true","","83","","SM","SM37.jpg","","new","45","3","practice_recog","left","","","",""
"categorize-image","112","407987","0.0-3.0-7.0-0.13","1c55jllykuya04v","practice_recog","5f58acaca3b2560285b19ab9","5f60e3c0a3b16e07647b2ff9","5f60ecc8f6803801743e5adc","true","1038.6900000012247","./Stimuli/ImagesPractice/SM62.jpg","83","","","","test","true","","83","","SM","SM62.jpg","","new","46","3","practice_recog","left","","","",""
"categorize-image","113","409249","0.0-3.0-7.0-0.14","1c55jllykuya04v","practice_recog","5f58acaca3b2560285b19ab9","5f60e3c0a3b16e07647b2ff9","5f60ecc8f6803801743e5adc","true","759.0849999978673","./Stimuli/ImagesPractice/LM239.jpg","83","","","","test","true","","83","","LM","LM239.jpg","","new","47","3","practice_recog","left","","","",""
"categorize-image","114","410589","0.0-3.0-7.0-0.15","1c55jllykuya04v","practice_recog","5f58acaca3b2560285b19ab9","5f60e3c0a3b16e07647b2ff9","5f60ecc8f6803801743e5adc","true","835.3249999927357","./Stimuli/ImagesPractice/LN109.jpg","76","","","","test","true","","76","","LN","LN109.jpg","","old","48","3","practice_recog","right","","","",""
"html-keyboard-response","115","423725","0.0-3.0-8.0","1c55jllykuya04v","instructions","5f58acaca3b2560285b19ab9","5f60e3c0a3b16e07647b2ff9","5f60ecc8f6803801743e5adc","false","13133.554999993066","<div align=left> Great!<br><br>Are you ready to continue?<br>If you want to reread the instructions and redo the practice trials, please <br>press „Z“.<br><br>You can proceed when you are ready.<br><br>After the presentation of each object, you will receive an instruction whether to <br>remember or to forget the object.<br>We will test your memory of the following pictures only at the very end of <br>the experiment after all learning blocks are completed. <br><br>Press SPACE to CONTINUE when you are ready. </div>","32","","","","","","","","","","","","","","","","","","","",""
"html-keyboard-response","116","434554","0.0-4.0-0.0","1c55jllykuya04v","instructions","5f58acaca3b2560285b19ab9","5f60e3c0a3b16e07647b2ff9","5f60ecc8f6803801743e5adc","false","10826.58999999694","<div align=left> The actual experiment is about to start.<br>The practice trials are over!<br><br>Please always respond both fast and accurately!<br><br>Remember: <br> <br><li> Please place your index fingers on the <strong>'S'</strong> and <strong>'L'</strong> keys <br>to respond as fast and accurately as possible.</li><li> Every picture can be classified as either mechanical or non-mechanical.</li><li> If you do not respond in time or commit an error, you will receive a corresponding feedback.<br> Please try to respond as <strong> fast </strong> and as <strong> accurately as possible </strong>.</li><li> Remember the <span style='color: dodgerblue; font-size: 28px'>O</span> pictures. <br></li><li> Please minimize distractions and stay focused. </li><br><br>Press SPACE to START.</div>","32","","","","","","","","","","","","","","","","","","","",""
"html-keyboard-response","117","435257","0.0-4.0-1.0-0.0","1c55jllykuya04v","prime","5f58acaca3b2560285b19ab9","5f60e3c0a3b16e07647b2ff9","5f60ecc8f6803801743e5adc","false","null","<span style=""color: black; font-size: 48px"">N + M</span>","null","","","","resp_prompt","","","","","","","","","","","","","","","",""
"categorize-image","118","436217","0.0-4.0-1.0-1.0","1c55jllykuya04v","prime","5f58acaca3b2560285b19ab9","5f60e3c0a3b16e07647b2ff9","5f60ecc8f6803801743e5adc","true","951.535000000149","./Stimuli/SelectedImages/LN/LN101.bmp","83","","","","test","true","N + M","83","repetition","LN","LN101.bmp","remember","","49","3","prime1","left","","","",""
"html-keyboard-response","119","438220","0.0-4.0-1.0-3.0","1c55jllykuya04v","prime","5f58acaca3b2560285b19ab9","5f60e3c0a3b16e07647b2ff9","5f60ecc8f6803801743e5adc","false","null","<div style=""align-items: center; display: flex; color: dodgerblue; font-size: 90px""><b>o</b></div>","null","","","","forget_cue","","","","","","","","","","","","","","","",""
"html-keyboard-response","120","438922","0.0-4.0-1.0-0.1","1c55jllykuya04v","prime","5f58acaca3b2560285b19ab9","5f60e3c0a3b16e07647b2ff9","5f60ecc8f6803801743e5adc","false","null","<span style=""color: black; font-size: 48px"">N + M</span>","null","","","","resp_prompt","","","","","","","","","","","","","","","",""
"categorize-image","121","439764","0.0-4.0-1.0-1.1","1c55jllykuya04v","prime","5f58acaca3b2560285b19ab9","5f60e3c0a3b16e07647b2ff9","5f60ecc8f6803801743e5adc","true","834.3500000046333","./Stimuli/SelectedImages/SN/SN181.bmp","83","","","","test","true","N + M","83","repetition","SN","SN181.bmp","forget","","50","3","prime1","left","","","",""
"html-keyboard-response","122","441766","0.0-4.0-1.0-3.1","1c55jllykuya04v","prime","5f58acaca3b2560285b19ab9","5f60e3c0a3b16e07647b2ff9","5f60ecc8f6803801743e5adc","false","null","<div style=""align-items: center; display: flex; color: darkorange; font-size: 90px""><b>ø</b></div>","null","","","","forget_cue","","","","","","","","","","","","","","","",""
"html-keyboard-response","123","442468","0.0-4.0-1.0-0.2","1c55jllykuya04v","prime","5f58acaca3b2560285b19ab9","5f60e3c0a3b16e07647b2ff9","5f60ecc8f6803801743e5adc","false","null","<span style=""color: black; font-size: 48px"">M + N</span>","null","","","","resp_prompt","","","","","","","","","","","","","","","",""
"categorize-image","124","443421","0.0-4.0-1.0-1.2","1c55jllykuya04v","prime","5f58acaca3b2560285b19ab9","5f60e3c0a3b16e07647b2ff9","5f60ecc8f6803801743e5adc","true","947.3500000021886","./Stimuli/SelectedImages/SM/SM213.bmp","83","","","","test","true","M + N","83","repetition","SM","SM213.bmp","remember","","51","3","prime1","left","","","",""
"html-keyboard-response","125","445424","0.0-4.0-1.0-3.2","1c55jllykuya04v","prime","5f58acaca3b2560285b19ab9","5f60e3c0a3b16e07647b2ff9","5f60ecc8f6803801743e5adc","false","null","<div style=""align-items: center; display: flex; color: dodgerblue; font-size: 90px""><b>o</b></div>","null","","","","forget_cue","","","","","","","","","","","","","","","",""
"html-keyboard-response","126","446127","0.0-4.0-1.0-0.3","1c55jllykuya04v","prime","5f58acaca3b2560285b19ab9","5f60e3c0a3b16e07647b2ff9","5f60ecc8f6803801743e5adc","false","null","<span style=""color: black; font-size: 48px"">N + M</span>","null","","","","resp_prompt","","","","","","","","","","","","","","","",""
"categorize-image","127","447072","0.0-4.0-1.0-1.3","1c55jllykuya04v","prime","5f58acaca3b2560285b19ab9","5f60e3c0a3b16e07647b2ff9","5f60ecc8f6803801743e5adc","true","938.2150000019465","./Stimuli/SelectedImages/LN/LN150.bmp","83","","","","test","true","N + M","83","repetition","LN","LN150.bmp","forget","","52","3","prime1","left","","","",""
"html-keyboard-response","128","449075","0.0-4.0-1.0-3.3","1c55jllykuya04v","prime","5f58acaca3b2560285b19ab9","5f60e3c0a3b16e07647b2ff9","5f60ecc8f6803801743e5adc","false","null","<div style=""align-items: center; display: flex; color: darkorange; font-size: 90px""><b>ø</b></div>","null","","","","forget_cue","","","","","","","","","","","","","","","",""
"html-keyboard-response","129","449777","0.0-4.0-1.0-0.4","1c55jllykuya04v","prime","5f58acaca3b2560285b19ab9","5f60e3c0a3b16e07647b2ff9","5f60ecc8f6803801743e5adc","false","null","<span style=""color: black; font-size: 48px"">M + N</span>","null","","","","resp_prompt","","","","","","","","","","","","","","","",""
"categorize-image","130","450575","0.0-4.0-1.0-1.4","1c55jllykuya04v","prime","5f58acaca3b2560285b19ab9","5f60e3c0a3b16e07647b2ff9","5f60ecc8f6803801743e5adc","true","791.0649999976158","./Stimuli/SelectedImages/SN/SN60.bmp","76","","","","test","true","M + N","76","repetition","SN","SN60.bmp","forget","","53","3","prime1","right","","","",""
"html-keyboard-response","131","452578","0.0-4.0-1.0-3.4","1c55jllykuya04v","prime","5f58acaca3b2560285b19ab9","5f60e3c0a3b16e07647b2ff9","5f60ecc8f6803801743e5adc","false","null","<div style=""align-items: center; display: flex; color: darkorange; font-size: 90px""><b>ø</b></div>","null","","","","forget_cue","","","","","","","","","","","","","","","",""
"html-keyboard-response","132","453280","0.0-4.0-1.0-0.5","1c55jllykuya04v","prime","5f58acaca3b2560285b19ab9","5f60e3c0a3b16e07647b2ff9","5f60ecc8f6803801743e5adc","false","null","<span style=""color: black; font-size: 48px"">N + M</span>","null","","","","resp_prompt","","","","","","","","","","","","","","","",""
"categorize-image","133","454083","0.0-4.0-1.0-1.5","1c55jllykuya04v","prime","5f58acaca3b2560285b19ab9","5f60e3c0a3b16e07647b2ff9","5f60ecc8f6803801743e5adc","true","795.3299999935552","./Stimuli/SelectedImages/SN/SN179.bmp","83","","","","test","true","N + M","83","switch","SN","SN179.bmp","forget","","54","3","prime1","left","","","",""
"html-keyboard-response","134","456086","0.0-4.0-1.0-3.5","1c55jllykuya04v","prime","5f58acaca3b2560285b19ab9","5f60e3c0a3b16e07647b2ff9","5f60ecc8f6803801743e5adc","false","null","<div style=""align-items: center; display: flex; color: darkorange; font-size: 90px""><b>ø</b></div>","null","","","","forget_cue","","","","","","","","","","","","","","","",""
"html-keyboard-response","135","456788","0.0-4.0-1.0-0.6","1c55jllykuya04v","prime","5f58acaca3b2560285b19ab9","5f60e3c0a3b16e07647b2ff9","5f60ecc8f6803801743e5adc","false","null","<span style=""color: black; font-size: 48px"">N + M</span>","null","","","","resp_prompt","","","","","","","","","","","","","","","",""
"categorize-image","136","457973","0.0-4.0-1.0-1.6","1c55jllykuya04v","prime","5f58acaca3b2560285b19ab9","5f60e3c0a3b16e07647b2ff9","5f60ecc8f6803801743e5adc","true","1178.794999999809","./Stimuli/SelectedImages/SM/SM184.bmp","76","","","","test","true","N + M","76","repetition","SM","SM184.bmp","forget","","55","3","prime1","right","","","",""
"html-keyboard-response","137","459975","0.0-4.0-1.0-3.6","1c55jllykuya04v","prime","5f58acaca3b2560285b19ab9","5f60e3c0a3b16e07647b2ff9","5f60ecc8f6803801743e5adc","false","null","<div style=""align-items: center; display: flex; color: darkorange; font-size: 90px""><b>ø</b></div>","null","","","","forget_cue","","","","","","","","","","","","","","","",""
"html-keyboard-response","138","460678","0.0-4.0-1.0-0.7","1c55jllykuya04v","prime","5f58acaca3b2560285b19ab9","5f60e3c0a3b16e07647b2ff9","5f60ecc8f6803801743e5adc","false","null","<span style=""color: black; font-size: 48px"">M + N</span>","null","","","","resp_prompt","","","","","","","","","","","","","","","",""
"categorize-image","139","461333","0.0-4.0-1.0-1.7","1c55jllykuya04v","prime","5f58acaca3b2560285b19ab9","5f60e3c0a3b16e07647b2ff9","5f60ecc8f6803801743e5adc","true","648.7950000009732","./Stimuli/SelectedImages/SN/SN27.bmp","76","","","","test","true","M + N","76","repetition","SN","SN27.bmp","forget","","56","3","prime1","right","","","",""
"html-keyboard-response","140","463336","0.0-4.0-1.0-3.7","1c55jllykuya04v","prime","5f58acaca3b2560285b19ab9","5f60e3c0a3b16e07647b2ff9","5f60ecc8f6803801743e5adc","false","null","<div style=""align-items: center; display: flex; color: darkorange; font-size: 90px""><b>ø</b></div>","null","","","","forget_cue","","","","","","","","","","","","","","","",""
"html-keyboard-response","141","464039","0.0-4.0-1.0-0.8","1c55jllykuya04v","prime","5f58acaca3b2560285b19ab9","5f60e3c0a3b16e07647b2ff9","5f60ecc8f6803801743e5adc","false","null","<span style=""color: black; font-size: 48px"">N + M</span>","null","","","","resp_prompt","","","","","","","","","","","","","","","",""
"categorize-image","142","464759","0.0-4.0-1.0-1.8","1c55jllykuya04v","prime","5f58acaca3b2560285b19ab9","5f60e3c0a3b16e07647b2ff9","5f60ecc8f6803801743e5adc","true","714.1750000009779","./Stimuli/SelectedImages/SN/SN155.bmp","83","","","","test","true","N + M","83","switch","SN","SN155.bmp","remember","","57","3","prime1","left","","","",""
"html-keyboard-response","143","466761","0.0-4.0-1.0-3.8","1c55jllykuya04v","prime","5f58acaca3b2560285b19ab9","5f60e3c0a3b16e07647b2ff9","5f60ecc8f6803801743e5adc","false","null","<div style=""align-items: center; display: flex; color: dodgerblue; font-size: 90px""><b>o</b></div>","null","","","","forget_cue","","","","","","","","","","","","","","","",""
"html-keyboard-response","144","467463","0.0-4.0-1.0-0.9","1c55jllykuya04v","prime","5f58acaca3b2560285b19ab9","5f60e3c0a3b16e07647b2ff9","5f60ecc8f6803801743e5adc","false","null","<span style=""color: black; font-size: 48px"">N + M</span>","null","","","","resp_prompt","","","","","","","","","","","","","","","",""
"categorize-image","145","468234","0.0-4.0-1.0-1.9","1c55jllykuya04v","prime","5f58acaca3b2560285b19ab9","5f60e3c0a3b16e07647b2ff9","5f60ecc8f6803801743e5adc","true","764.5099999936065","./Stimuli/SelectedImages/LM/LM58.bmp","76","","","","test","true","N + M","76","repetition","LM","LM58.bmp","remember","","58","3","prime1","right","","","",""
"html-keyboard-response","146","470238","0.0-4.0-1.0-3.9","1c55jllykuya04v","prime","5f58acaca3b2560285b19ab9","5f60e3c0a3b16e07647b2ff9","5f60ecc8f6803801743e5adc","false","null","<div style=""align-items: center; display: flex; color: dodgerblue; font-size: 90px""><b>o</b></div>","null","","","","forget_cue","","","","","","","","","","","","","","","",""
"html-keyboard-response","147","470941","0.0-4.0-1.0-0.10","1c55jllykuya04v","prime","5f58acaca3b2560285b19ab9","5f60e3c0a3b16e07647b2ff9","5f60ecc8f6803801743e5adc","false","null","<span style=""color: black; font-size: 48px"">N + M</span>","null","","","","resp_prompt","","","","","","","","","","","","","","","",""
"categorize-image","148","471591","0.0-4.0-1.0-1.10","1c55jllykuya04v","prime","5f58acaca3b2560285b19ab9","5f60e3c0a3b16e07647b2ff9","5f60ecc8f6803801743e5adc","true","643.5500000079628","./Stimuli/SelectedImages/SN/SN18.bmp","83","","","","test","true","N + M","83","repetition","SN","SN18.bmp","remember","","59","3","prime1","left","","","",""
"html-keyboard-response","149","473594","0.0-4.0-1.0-3.10","1c55jllykuya04v","prime","5f58acaca3b2560285b19ab9","5f60e3c0a3b16e07647b2ff9","5f60ecc8f6803801743e5adc","false","null","<div style=""align-items: center; display: flex; color: dodgerblue; font-size: 90px""><b>o</b></div>","null","","","","forget_cue","","","","","","","","","","","","","","","",""
"html-keyboard-response","150","474296","0.0-4.0-1.0-0.11","1c55jllykuya04v","prime","5f58acaca3b2560285b19ab9","5f60e3c0a3b16e07647b2ff9","5f60ecc8f6803801743e5adc","false","null","<span style=""color: black; font-size: 48px"">N + M</span>","null","","","","resp_prompt","","","","","","","","","","","","","","","",""
"categorize-image","151","475459","0.0-4.0-1.0-1.11","1c55jllykuya04v","prime","5f58acaca3b2560285b19ab9","5f60e3c0a3b16e07647b2ff9","5f60ecc8f6803801743e5adc","true","1156.9049999961862","./Stimuli/SelectedImages/LM/LM129.bmp","76","","","","test","true","N + M","76","switch","LM","LM129.bmp","remember","","60","3","prime1","right","","","",""
"html-keyboard-response","152","477462","0.0-4.0-1.0-3.11","1c55jllykuya04v","prime","5f58acaca3b2560285b19ab9","5f60e3c0a3b16e07647b2ff9","5f60ecc8f6803801743e5adc","false","null","<div style=""align-items: center; display: flex; color: dodgerblue; font-size: 90px""><b>o</b></div>","null","","","","forget_cue","","","","","","","","","","","","","","","",""
"html-keyboard-response","153","478165","0.0-4.0-1.0-0.12","1c55jllykuya04v","prime","5f58acaca3b2560285b19ab9","5f60e3c0a3b16e07647b2ff9","5f60ecc8f6803801743e5adc","false","null","<span style=""color: black; font-size: 48px"">M + N</span>","null","","","","resp_prompt","","","","","","","","","","","","","","","",""
"categorize-image","154","478937","0.0-4.0-1.0-1.12","1c55jllykuya04v","prime","5f58acaca3b2560285b19ab9","5f60e3c0a3b16e07647b2ff9","5f60ecc8f6803801743e5adc","true","765.2749999979278","./Stimuli/SelectedImages/LN/LN59.bmp","76","","","","test","true","M + N","76","repetition","LN","LN59.bmp","forget","","61","3","prime1","right","","","",""
"html-keyboard-response","155","480940","0.0-4.0-1.0-3.12","1c55jllykuya04v","prime","5f58acaca3b2560285b19ab9","5f60e3c0a3b16e07647b2ff9","5f60ecc8f6803801743e5adc","false","null","<div style=""align-items: center; display: flex; color: darkorange; font-size: 90px""><b>ø</b></div>","null","","","","forget_cue","","","","","","","","","","","","","","","",""
"html-keyboard-response","156","481642","0.0-4.0-1.0-0.13","1c55jllykuya04v","prime","5f58acaca3b2560285b19ab9","5f60e3c0a3b16e07647b2ff9","5f60ecc8f6803801743e5adc","false","null","<span style=""color: black; font-size: 48px"">M + N</span>","null","","","","resp_prompt","","","","","","","","","","","","","","","",""
"categorize-image","157","482390","0.0-4.0-1.0-1.13","1c55jllykuya04v","prime","5f58acaca3b2560285b19ab9","5f60e3c0a3b16e07647b2ff9","5f60ecc8f6803801743e5adc","true","741.2199999962468","./Stimuli/SelectedImages/SM/SM195.bmp","83","","","","test","true","M + N","83","repetition","SM","SM195.bmp","remember","","62","3","prime1","left","","","",""
"html-keyboard-response","158","484393","0.0-4.0-1.0-3.13","1c55jllykuya04v","prime","5f58acaca3b2560285b19ab9","5f60e3c0a3b16e07647b2ff9","5f60ecc8f6803801743e5adc","false","null","<div style=""align-items: center; display: flex; color: dodgerblue; font-size: 90px""><b>o</b></div>","null","","","","forget_cue","","","","","","","","","","","","","","","",""
"html-keyboard-response","159","485095","0.0-4.0-1.0-0.14","1c55jllykuya04v","prime","5f58acaca3b2560285b19ab9","5f60e3c0a3b16e07647b2ff9","5f60ecc8f6803801743e5adc","false","null","<span style=""color: black; font-size: 48px"">N + M</span>","null","","","","resp_prompt","","","","","","","","","","","","","","","",""
"categorize-image","160","486162","0.0-4.0-1.0-1.14","1c55jllykuya04v","prime","5f58acaca3b2560285b19ab9","5f60e3c0a3b16e07647b2ff9","5f60ecc8f6803801743e5adc","true","1059.5049999974435","./Stimuli/SelectedImages/SM/SM128.bmp","76","","","","test","true","N + M","76","repetition","SM","SM128.bmp","forget","","63","3","prime1","right","","","",""
"html-keyboard-response","161","488167","0.0-4.0-1.0-3.14","1c55jllykuya04v","prime","5f58acaca3b2560285b19ab9","5f60e3c0a3b16e07647b2ff9","5f60ecc8f6803801743e5adc","false","null","<div style=""align-items: center; display: flex; color: darkorange; font-size: 90px""><b>ø</b></div>","null","","","","forget_cue","","","","","","","","","","","","","","","",""
"html-keyboard-response","162","488869","0.0-4.0-1.0-0.15","1c55jllykuya04v","prime","5f58acaca3b2560285b19ab9","5f60e3c0a3b16e07647b2ff9","5f60ecc8f6803801743e5adc","false","null","<span style=""color: black; font-size: 48px"">M + N</span>","null","","","","resp_prompt","","","","","","","","","","","","","","","",""
"categorize-image","163","489690","0.0-4.0-1.0-1.15","1c55jllykuya04v","prime","5f58acaca3b2560285b19ab9","5f60e3c0a3b16e07647b2ff9","5f60ecc8f6803801743e5adc","true","816.690000006929","./Stimuli/SelectedImages/LM/LM103.bmp","83","","","","test","true","M + N","83","repetition","LM","LM103.bmp","remember","","64","3","prime1","left","","","",""
"html-keyboard-response","164","491693","0.0-4.0-1.0-3.15","1c55jllykuya04v","prime","5f58acaca3b2560285b19ab9","5f60e3c0a3b16e07647b2ff9","5f60ecc8f6803801743e5adc","false","null","<div style=""align-items: center; display: flex; color: dodgerblue; font-size: 90px""><b>o</b></div>","null","","","","forget_cue","","","","","","","","","","","","","","","",""
"html-keyboard-response","165","492395","0.0-4.0-1.0-0.16","1c55jllykuya04v","prime","5f58acaca3b2560285b19ab9","5f60e3c0a3b16e07647b2ff9","5f60ecc8f6803801743e5adc","false","null","<span style=""color: black; font-size: 48px"">N + M</span>","null","","","","resp_prompt","","","","","","","","","","","","","","","",""
"categorize-image","166","494402","0.0-4.0-1.0-1.16","1c55jllykuya04v","prime","5f58acaca3b2560285b19ab9","5f60e3c0a3b16e07647b2ff9","5f60ecc8f6803801743e5adc","true","null","./Stimuli/SelectedImages/SN/SN140.bmp","null","","","","test","false","N + M","83","repetition","SN","SN140.bmp","remember","","65","3","prime1","too_slow","","","",""
"html-keyboard-response","167","494904","0.0-4.0-1.0-2.16-0.16","1c55jllykuya04v","prime","5f58acaca3b2560285b19ab9","5f60e3c0a3b16e07647b2ff9","5f60ecc8f6803801743e5adc","false","null","<span style=""color: red; font-size: 48px"">Too slow!</span>","null","","","","feedback","","","","","","","","","","","","","","","",""
"html-keyboard-response","168","496905","0.0-4.0-1.0-3.16","1c55jllykuya04v","prime","5f58acaca3b2560285b19ab9","5f60e3c0a3b16e07647b2ff9","5f60ecc8f6803801743e5adc","false","null","<div style=""align-items: center; display: flex; color: dodgerblue; font-size: 90px""><b>o</b></div>","null","","","","forget_cue","","","","","","","","","","","","","","","",""
"html-keyboard-response","169","497607","0.0-4.0-1.0-0.17","1c55jllykuya04v","prime","5f58acaca3b2560285b19ab9","5f60e3c0a3b16e07647b2ff9","5f60ecc8f6803801743e5adc","false","null","<span style=""color: black; font-size: 48px"">M + N</span>","null","","","","resp_prompt","","","","","","","","","","","","","","","",""
"categorize-image","170","498324","0.0-4.0-1.0-1.17","1c55jllykuya04v","prime","5f58acaca3b2560285b19ab9","5f60e3c0a3b16e07647b2ff9","5f60ecc8f6803801743e5adc","true","713.8750000012806","./Stimuli/SelectedImages/SN/SN49.bmp","76","","","","test","true","M + N","76","switch","SN","SN49.bmp","forget","","66","3","prime1","right","","","",""
"html-keyboard-response","171","500326","0.0-4.0-1.0-3.17","1c55jllykuya04v","prime","5f58acaca3b2560285b19ab9","5f60e3c0a3b16e07647b2ff9","5f60ecc8f6803801743e5adc","false","null","<div style=""align-items: center; display: flex; color: darkorange; font-size: 90px""><b>ø</b></div>","null","","","","forget_cue","","","","","","","","","","","","","","","",""
"html-keyboard-response","172","501029","0.0-4.0-1.0-0.18","1c55jllykuya04v","prime","5f58acaca3b2560285b19ab9","5f60e3c0a3b16e07647b2ff9","5f60ecc8f6803801743e5adc","false","null","<span style=""color: black; font-size: 48px"">N + M</span>","null","","","","resp_prompt","","","","","","","","","","","","","","","",""
"categorize-image","173","501686","0.0-4.0-1.0-1.18","1c55jllykuya04v","prime","5f58acaca3b2560285b19ab9","5f60e3c0a3b16e07647b2ff9","5f60ecc8f6803801743e5adc","true","650.3800000064075","./Stimuli/SelectedImages/SM/SM148.bmp","76","","","","test","true","N + M","76","switch","SM","SM148.bmp","remember","","67","3","prime1","right","","","",""
"html-keyboard-response","174","503689","0.0-4.0-1.0-3.18","1c55jllykuya04v","prime","5f58acaca3b2560285b19ab9","5f60e3c0a3b16e07647b2ff9","5f60ecc8f6803801743e5adc","false","null","<div style=""align-items: center; display: flex; color: dodgerblue; font-size: 90px""><b>o</b></div>","null","","","","forget_cue","","","","","","","","","","","","","","","",""
"html-keyboard-response","175","504392","0.0-4.0-1.0-0.19","1c55jllykuya04v","prime","5f58acaca3b2560285b19ab9","5f60e3c0a3b16e07647b2ff9","5f60ecc8f6803801743e5adc","false","null","<span style=""color: black; font-size: 48px"">N + M</span>","null","","","","resp_prompt","","","","","","","","","","","","","","","",""
"categorize-image","176","505063","0.0-4.0-1.0-1.19","1c55jllykuya04v","prime","5f58acaca3b2560285b19ab9","5f60e3c0a3b16e07647b2ff9","5f60ecc8f6803801743e5adc","true","664.8849999910453","./Stimuli/SelectedImages/LN/LN9.bmp","83","","","","test","true","N + M","83","switch","LN","LN9.bmp","forget","","68","3","prime1","left","","","",""
"html-keyboard-response","177","507066","0.0-4.0-1.0-3.19","1c55jllykuya04v","prime","5f58acaca3b2560285b19ab9","5f60e3c0a3b16e07647b2ff9","5f60ecc8f6803801743e5adc","false","null","<div style=""align-items: center; display: flex; color: darkorange; font-size: 90px""><b>ø</b></div>","null","","","","forget_cue","","","","","","","","","","","","","","","",""
"html-keyboard-response","178","507768","0.0-4.0-1.0-0.20","1c55jllykuya04v","prime","5f58acaca3b2560285b19ab9","5f60e3c0a3b16e07647b2ff9","5f60ecc8f6803801743e5adc","false","null","<span style=""color: black; font-size: 48px"">N + M</span>","null","","","","resp_prompt","","","","","","","","","","","","","","","",""
"categorize-image","179","508562","0.0-4.0-1.0-1.20","1c55jllykuya04v","prime","5f58acaca3b2560285b19ab9","5f60e3c0a3b16e07647b2ff9","5f60ecc8f6803801743e5adc","true","787.5300000014249","./Stimuli/SelectedImages/SM/SM205.bmp","76","","","","test","true","N + M","76","switch","SM","SM205.bmp","forget","","69","3","prime1","right","","","",""
"html-keyboard-response","180","510564","0.0-4.0-1.0-3.20","1c55jllykuya04v","prime","5f58acaca3b2560285b19ab9","5f60e3c0a3b16e07647b2ff9","5f60ecc8f6803801743e5adc","false","null","<div style=""align-items: center; display: flex; color: darkorange; font-size: 90px""><b>ø</b></div>","null","","","","forget_cue","","","","","","","","","","","","","","","",""
"html-keyboard-response","181","511266","0.0-4.0-1.0-0.21","1c55jllykuya04v","prime","5f58acaca3b2560285b19ab9","5f60e3c0a3b16e07647b2ff9","5f60ecc8f6803801743e5adc","false","null","<span style=""color: black; font-size: 48px"">N + M</span>","null","","","","resp_prompt","","","","","","","","","","","","","","","",""
"categorize-image","182","511811","0.0-4.0-1.0-1.21","1c55jllykuya04v","prime","5f58acaca3b2560285b19ab9","5f60e3c0a3b16e07647b2ff9","5f60ecc8f6803801743e5adc","true","539.7200000006706","./Stimuli/SelectedImages/LN/LN12.bmp","83","","","","test","true","N + M","83","switch","LN","LN12.bmp","remember","","70","3","prime1","left","","","",""
"html-keyboard-response","183","513814","0.0-4.0-1.0-3.21","1c55jllykuya04v","prime","5f58acaca3b2560285b19ab9","5f60e3c0a3b16e07647b2ff9","5f60ecc8f6803801743e5adc","false","null","<div style=""align-items: center; display: flex; color: dodgerblue; font-size: 90px""><b>o</b></div>","null","","","","forget_cue","","","","","","","","","","","","","","","",""
"html-keyboard-response","184","514517","0.0-4.0-1.0-0.22","1c55jllykuya04v","prime","5f58acaca3b2560285b19ab9","5f60e3c0a3b16e07647b2ff9","5f60ecc8f6803801743e5adc","false","null","<span style=""color: black; font-size: 48px"">M + N</span>","null","","","","resp_prompt","","","","","","","","","","","","","","","",""
"categorize-image","185","515186","0.0-4.0-1.0-1.22","1c55jllykuya04v","prime","5f58acaca3b2560285b19ab9","5f60e3c0a3b16e07647b2ff9","5f60ecc8f6803801743e5adc","true","664.3800000019837","./Stimuli/SelectedImages/SN/SN52.bmp","76","","","","test","true","M + N","76","switch","SN","SN52.bmp","remember","","71","3","prime1","right","","","",""
"html-keyboard-response","186","517188","0.0-4.0-1.0-3.22","1c55jllykuya04v","prime","5f58acaca3b2560285b19ab9","5f60e3c0a3b16e07647b2ff9","5f60ecc8f6803801743e5adc","false","null","<div style=""align-items: center; display: flex; color: dodgerblue; font-size: 90px""><b>o</b></div>","null","","","","forget_cue","","","","","","","","","","","","","","","",""
"html-keyboard-response","187","517891","0.0-4.0-1.0-0.23","1c55jllykuya04v","prime","5f58acaca3b2560285b19ab9","5f60e3c0a3b16e07647b2ff9","5f60ecc8f6803801743e5adc","false","null","<span style=""color: black; font-size: 48px"">M + N</span>","null","","","","resp_prompt","","","","","","","","","","","","","","","",""
"categorize-image","188","518632","0.0-4.0-1.0-1.23","1c55jllykuya04v","prime","5f58acaca3b2560285b19ab9","5f60e3c0a3b16e07647b2ff9","5f60ecc8f6803801743e5adc","true","734.6549999929266","./Stimuli/SelectedImages/LN/LN166.bmp","76","","","","test","true","M + N","76","switch","LN","LN166.bmp","forget","","72","3","prime1","right","","","",""
"html-keyboard-response","189","520635","0.0-4.0-1.0-3.23","1c55jllykuya04v","prime","5f58acaca3b2560285b19ab9","5f60e3c0a3b16e07647b2ff9","5f60ecc8f6803801743e5adc","false","null","<div style=""align-items: center; display: flex; color: darkorange; font-size: 90px""><b>ø</b></div>","null","","","","forget_cue","","","","","","","","","","","","","","","",""
"html-keyboard-response","190","521337","0.0-4.0-1.0-0.24","1c55jllykuya04v","prime","5f58acaca3b2560285b19ab9","5f60e3c0a3b16e07647b2ff9","5f60ecc8f6803801743e5adc","false","null","<span style=""color: black; font-size: 48px"">M + N</span>","null","","","","resp_prompt","","","","","","","","","","","","","","","",""
"categorize-image","191","522033","0.0-4.0-1.0-1.24","1c55jllykuya04v","prime","5f58acaca3b2560285b19ab9","5f60e3c0a3b16e07647b2ff9","5f60ecc8f6803801743e5adc","true","688.4050000080606","./Stimuli/SelectedImages/LN/LN13.bmp","76","","","","test","true","M + N","76","switch","LN","LN13.bmp","forget","","73","3","prime1","right","","","",""
"html-keyboard-response","192","524036","0.0-4.0-1.0-3.24","1c55jllykuya04v","prime","5f58acaca3b2560285b19ab9","5f60e3c0a3b16e07647b2ff9","5f60ecc8f6803801743e5adc","false","null","<div style=""align-items: center; display: flex; color: darkorange; font-size: 90px""><b>ø</b></div>","null","","","","forget_cue","","","","","","","","","","","","","","","",""
"html-keyboard-response","193","524739","0.0-4.0-1.0-0.25","1c55jllykuya04v","prime","5f58acaca3b2560285b19ab9","5f60e3c0a3b16e07647b2ff9","5f60ecc8f6803801743e5adc","false","null","<span style=""color: black; font-size: 48px"">M + N</span>","null","","","","resp_prompt","","","","","","","","","","","","","","","",""
"categorize-image","194","525351","0.0-4.0-1.0-1.25","1c55jllykuya04v","prime","5f58acaca3b2560285b19ab9","5f60e3c0a3b16e07647b2ff9","5f60ecc8f6803801743e5adc","true","605.3200000023935","./Stimuli/SelectedImages/LM/LM57.bmp","83","","","","test","true","M + N","83","switch","LM","LM57.bmp","forget","","74","3","prime1","left","","","",""
"html-keyboard-response","195","527354","0.0-4.0-1.0-3.25","1c55jllykuya04v","prime","5f58acaca3b2560285b19ab9","5f60e3c0a3b16e07647b2ff9","5f60ecc8f6803801743e5adc","false","null","<div style=""align-items: center; display: flex; color: darkorange; font-size: 90px""><b>ø</b></div>","null","","","","forget_cue","","","","","","","","","","","","","","","",""
"html-keyboard-response","196","528057","0.0-4.0-1.0-0.26","1c55jllykuya04v","prime","5f58acaca3b2560285b19ab9","5f60e3c0a3b16e07647b2ff9","5f60ecc8f6803801743e5adc","false","null","<span style=""color: black; font-size: 48px"">M + N</span>","null","","","","resp_prompt","","","","","","","","","","","","","","","",""
"categorize-image","197","528725","0.0-4.0-1.0-1.26","1c55jllykuya04v","prime","5f58acaca3b2560285b19ab9","5f60e3c0a3b16e07647b2ff9","5f60ecc8f6803801743e5adc","true","662.2099999949569","./Stimuli/SelectedImages/SM/SM207.bmp","83","","","","test","true","M + N","83","switch","SM","SM207.bmp","remember","","75","3","prime1","left","","","",""
"html-keyboard-response","198","530727","0.0-4.0-1.0-3.26","1c55jllykuya04v","prime","5f58acaca3b2560285b19ab9","5f60e3c0a3b16e07647b2ff9","5f60ecc8f6803801743e5adc","false","null","<div style=""align-items: center; display: flex; color: dodgerblue; font-size: 90px""><b>o</b></div>","null","","","","forget_cue","","","","","","","","","","","","","","","",""
"html-keyboard-response","199","531429","0.0-4.0-1.0-0.27","1c55jllykuya04v","prime","5f58acaca3b2560285b19ab9","5f60e3c0a3b16e07647b2ff9","5f60ecc8f6803801743e5adc","false","null","<span style=""color: black; font-size: 48px"">N + M</span>","null","","","","resp_prompt","","","","","","","","","","","","","","","",""
"categorize-image","200","532067","0.0-4.0-1.0-1.27","1c55jllykuya04v","prime","5f58acaca3b2560285b19ab9","5f60e3c0a3b16e07647b2ff9","5f60ecc8f6803801743e5adc","true","629.1199999977835","./Stimuli/SelectedImages/LM/LM157.bmp","76","","","","test","true","N + M","76","switch","LM","LM157.bmp","remember","","76","3","prime1","right","","","",""
"html-keyboard-response","201","534069","0.0-4.0-1.0-3.27","1c55jllykuya04v","prime","5f58acaca3b2560285b19ab9","5f60e3c0a3b16e07647b2ff9","5f60ecc8f6803801743e5adc","false","null","<div style=""align-items: center; display: flex; color: dodgerblue; font-size: 90px""><b>o</b></div>","null","","","","forget_cue","","","","","","","","","","","","","","","",""
"html-keyboard-response","202","534771","0.0-4.0-1.0-0.28","1c55jllykuya04v","prime","5f58acaca3b2560285b19ab9","5f60e3c0a3b16e07647b2ff9","5f60ecc8f6803801743e5adc","false","null","<span style=""color: black; font-size: 48px"">M + N</span>","null","","","","resp_prompt","","","","","","","","","","","","","","","",""
"categorize-image","203","535388","0.0-4.0-1.0-1.28","1c55jllykuya04v","prime","5f58acaca3b2560285b19ab9","5f60e3c0a3b16e07647b2ff9","5f60ecc8f6803801743e5adc","true","610.160000011092","./Stimuli/SelectedImages/SM/SM24.bmp","83","","","","test","true","M + N","83","switch","SM","SM24.bmp","forget","","77","3","prime1","left","","","",""
"html-keyboard-response","204","537391","0.0-4.0-1.0-3.28","1c55jllykuya04v","prime","5f58acaca3b2560285b19ab9","5f60e3c0a3b16e07647b2ff9","5f60ecc8f6803801743e5adc","false","null","<div style=""align-items: center; display: flex; color: darkorange; font-size: 90px""><b>ø</b></div>","null","","","","forget_cue","","","","","","","","","","","","","","","",""
"html-keyboard-response","205","538094","0.0-4.0-1.0-0.29","1c55jllykuya04v","prime","5f58acaca3b2560285b19ab9","5f60e3c0a3b16e07647b2ff9","5f60ecc8f6803801743e5adc","false","null","<span style=""color: black; font-size: 48px"">N + M</span>","null","","","","resp_prompt","","","","","","","","","","","","","","","",""
"categorize-image","206","538640","0.0-4.0-1.0-1.29","1c55jllykuya04v","prime","5f58acaca3b2560285b19ab9","5f60e3c0a3b16e07647b2ff9","5f60ecc8f6803801743e5adc","true","542.1749999950407","./Stimuli/SelectedImages/SM/SM200.bmp","76","","","","test","true","N + M","76","repetition","SM","SM200.bmp","remember","","78","3","prime1","right","","","",""
"html-keyboard-response","207","540642","0.0-4.0-1.0-3.29","1c55jllykuya04v","prime","5f58acaca3b2560285b19ab9","5f60e3c0a3b16e07647b2ff9","5f60ecc8f6803801743e5adc","false","null","<div style=""align-items: center; display: flex; color: dodgerblue; font-size: 90px""><b>o</b></div>","null","","","","forget_cue","","","","","","","","","","","","","","","",""
"html-keyboard-response","208","541344","0.0-4.0-1.0-0.30","1c55jllykuya04v","prime","5f58acaca3b2560285b19ab9","5f60e3c0a3b16e07647b2ff9","5f60ecc8f6803801743e5adc","false","null","<span style=""color: black; font-size: 48px"">N + M</span>","null","","","","resp_prompt","","","","","","","","","","","","","","","",""
"categorize-image","209","541834","0.0-4.0-1.0-1.30","1c55jllykuya04v","prime","5f58acaca3b2560285b19ab9","5f60e3c0a3b16e07647b2ff9","5f60ecc8f6803801743e5adc","true","485.62500000116415","./Stimuli/SelectedImages/SM/SM108.bmp","76","","","","test","true","N + M","76","switch","SM","SM108.bmp","forget","","79","3","prime1","right","","","",""
"html-keyboard-response","210","543835","0.0-4.0-1.0-3.30","1c55jllykuya04v","prime","5f58acaca3b2560285b19ab9","5f60e3c0a3b16e07647b2ff9","5f60ecc8f6803801743e5adc","false","null","<div style=""align-items: center; display: flex; color: darkorange; font-size: 90px""><b>ø</b></div>","null","","","","forget_cue","","","","","","","","","","","","","","","",""
"html-keyboard-response","211","544537","0.0-4.0-1.0-0.31","1c55jllykuya04v","prime","5f58acaca3b2560285b19ab9","5f60e3c0a3b16e07647b2ff9","5f60ecc8f6803801743e5adc","false","null","<span style=""color: black; font-size: 48px"">M + N</span>","null","","","","resp_prompt","","","","","","","","","","","","","","","",""
"categorize-image","212","545216","0.0-4.0-1.0-1.31","1c55jllykuya04v","prime","5f58acaca3b2560285b19ab9","5f60e3c0a3b16e07647b2ff9","5f60ecc8f6803801743e5adc","true","675.8200000040233","./Stimuli/SelectedImages/LN/LN92.bmp","76","","","","test","true","M + N","76","repetition","LN","LN92.bmp","remember","","80","3","prime1","right","","","",""
"html-keyboard-response","213","547218","0.0-4.0-1.0-3.31","1c55jllykuya04v","prime","5f58acaca3b2560285b19ab9","5f60e3c0a3b16e07647b2ff9","5f60ecc8f6803801743e5adc","false","null","<div style=""align-items: center; display: flex; color: dodgerblue; font-size: 90px""><b>o</b></div>","null","","","","forget_cue","","","","","","","","","","","","","","","",""
"html-keyboard-response","214","547919","0.0-4.0-1.0-0.32","1c55jllykuya04v","prime","5f58acaca3b2560285b19ab9","5f60e3c0a3b16e07647b2ff9","5f60ecc8f6803801743e5adc","false","null","<span style=""color: black; font-size: 48px"">M + N</span>","null","","","","resp_prompt","","","","","","","","","","","","","","","",""
"categorize-image","215","548561","0.0-4.0-1.0-1.32","1c55jllykuya04v","prime","5f58acaca3b2560285b19ab9","5f60e3c0a3b16e07647b2ff9","5f60ecc8f6803801743e5adc","true","638.1400000100257","./Stimuli/SelectedImages/LM/LM216.bmp","83","","","","test","true","M + N","83","switch","LM","LM216.bmp","remember","","81","3","prime1","left","","","",""
"html-keyboard-response","216","550563","0.0-4.0-1.0-3.32","1c55jllykuya04v","prime","5f58acaca3b2560285b19ab9","5f60e3c0a3b16e07647b2ff9","5f60ecc8f6803801743e5adc","false","null","<div style=""align-items: center; display: flex; color: dodgerblue; font-size: 90px""><b>o</b></div>","null","","","","forget_cue","","","","","","","","","","","","","","","",""
"html-keyboard-response","217","551265","0.0-4.0-1.0-0.33","1c55jllykuya04v","prime","5f58acaca3b2560285b19ab9","5f60e3c0a3b16e07647b2ff9","5f60ecc8f6803801743e5adc","false","null","<span style=""color: black; font-size: 48px"">M + N</span>","null","","","","resp_prompt","","","","","","","","","","","","","","","",""
"categorize-image","218","551963","0.0-4.0-1.0-1.33","1c55jllykuya04v","prime","5f58acaca3b2560285b19ab9","5f60e3c0a3b16e07647b2ff9","5f60ecc8f6803801743e5adc","true","691.739999994752","./Stimuli/SelectedImages/SN/SN187.bmp","76","","","","test","true","M + N","76","repetition","SN","SN187.bmp","remember","","82","3","prime1","right","","","",""
"html-keyboard-response","219","553965","0.0-4.0-1.0-3.33","1c55jllykuya04v","prime","5f58acaca3b2560285b19ab9","5f60e3c0a3b16e07647b2ff9","5f60ecc8f6803801743e5adc","false","null","<div style=""align-items: center; display: flex; color: dodgerblue; font-size: 90px""><b>o</b></div>","null","","","","forget_cue","","","","","","","","","","","","","","","",""
"html-keyboard-response","220","554667","0.0-4.0-1.0-0.34","1c55jllykuya04v","prime","5f58acaca3b2560285b19ab9","5f60e3c0a3b16e07647b2ff9","5f60ecc8f6803801743e5adc","false","null","<span style=""color: black; font-size: 48px"">M + N</span>","null","","","","resp_prompt","","","","","","","","","","","","","","","",""
"categorize-image","221","555435","0.0-4.0-1.0-1.34","1c55jllykuya04v","prime","5f58acaca3b2560285b19ab9","5f60e3c0a3b16e07647b2ff9","5f60ecc8f6803801743e5adc","true","761.5550000045914","./Stimuli/SelectedImages/LN/LN131.bmp","76","","","","test","true","M + N","76","switch","LN","LN131.bmp","remember","","83","3","prime1","right","","","",""
"html-keyboard-response","222","557437","0.0-4.0-1.0-3.34","1c55jllykuya04v","prime","5f58acaca3b2560285b19ab9","5f60e3c0a3b16e07647b2ff9","5f60ecc8f6803801743e5adc","false","null","<div style=""align-items: center; display: flex; color: dodgerblue; font-size: 90px""><b>o</b></div>","null","","","","forget_cue","","","","","","","","","","","","","","","",""
"html-keyboard-response","223","558140","0.0-4.0-1.0-0.35","1c55jllykuya04v","prime","5f58acaca3b2560285b19ab9","5f60e3c0a3b16e07647b2ff9","5f60ecc8f6803801743e5adc","false","null","<span style=""color: black; font-size: 48px"">N + M</span>","null","","","","resp_prompt","","","","","","","","","","","","","","","",""
"categorize-image","224","558874","0.0-4.0-1.0-1.35","1c55jllykuya04v","prime","5f58acaca3b2560285b19ab9","5f60e3c0a3b16e07647b2ff9","5f60ecc8f6803801743e5adc","true","728.224999998929","./Stimuli/SelectedImages/LN/LN82.bmp","83","","","","test","true","N + M","83","switch","LN","LN82.bmp","remember","","84","3","prime1","left","","","",""
"html-keyboard-response","225","560877","0.0-4.0-1.0-3.35","1c55jllykuya04v","prime","5f58acaca3b2560285b19ab9","5f60e3c0a3b16e07647b2ff9","5f60ecc8f6803801743e5adc","false","null","<div style=""align-items: center; display: flex; color: dodgerblue; font-size: 90px""><b>o</b></div>","null","","","","forget_cue","","","","","","","","","","","","","","","",""
"html-keyboard-response","226","561580","0.0-4.0-1.0-0.36","1c55jllykuya04v","prime","5f58acaca3b2560285b19ab9","5f60e3c0a3b16e07647b2ff9","5f60ecc8f6803801743e5adc","false","null","<span style=""color: black; font-size: 48px"">M + N</span>","null","","","","resp_prompt","","","","","","","","","","","","","","","",""
"categorize-image","227","562244","0.0-4.0-1.0-1.36","1c55jllykuya04v","prime","5f58acaca3b2560285b19ab9","5f60e3c0a3b16e07647b2ff9","5f60ecc8f6803801743e5adc","true","657.2700000106124","./Stimuli/SelectedImages/LN/LN28.bmp","76","","","","test","true","M + N","76","repetition","LN","LN28.bmp","remember","","85","3","prime1","right","","","",""
"html-keyboard-response","228","564247","0.0-4.0-1.0-3.36","1c55jllykuya04v","prime","5f58acaca3b2560285b19ab9","5f60e3c0a3b16e07647b2ff9","5f60ecc8f6803801743e5adc","false","null","<div style=""align-items: center; display: flex; color: dodgerblue; font-size: 90px""><b>o</b></div>","null","","","","forget_cue","","","","","","","","","","","","","","","",""
"html-keyboard-response","229","564949","0.0-4.0-1.0-0.37","1c55jllykuya04v","prime","5f58acaca3b2560285b19ab9","5f60e3c0a3b16e07647b2ff9","5f60ecc8f6803801743e5adc","false","null","<span style=""color: black; font-size: 48px"">M + N</span>","null","","","","resp_prompt","","","","","","","","","","","","","","","",""
"categorize-image","230","565867","0.0-4.0-1.0-1.37","1c55jllykuya04v","prime","5f58acaca3b2560285b19ab9","5f60e3c0a3b16e07647b2ff9","5f60ecc8f6803801743e5adc","true","911.2850000092294","./Stimuli/SelectedImages/LM/LM150.bmp","83","","","","test","true","M + N","83","repetition","LM","LM150.bmp","remember","","86","3","prime1","left","","","",""
"html-keyboard-response","231","567870","0.0-4.0-1.0-3.37","1c55jllykuya04v","prime","5f58acaca3b2560285b19ab9","5f60e3c0a3b16e07647b2ff9","5f60ecc8f6803801743e5adc","false","null","<div style=""align-items: center; display: flex; color: dodgerblue; font-size: 90px""><b>o</b></div>","null","","","","forget_cue","","","","","","","","","","","","","","","",""
"html-keyboard-response","232","568572","0.0-4.0-1.0-0.38","1c55jllykuya04v","prime","5f58acaca3b2560285b19ab9","5f60e3c0a3b16e07647b2ff9","5f60ecc8f6803801743e5adc","false","null","<span style=""color: black; font-size: 48px"">N + M</span>","null","","","","resp_prompt","","","","","","","","","","","","","","","",""
"categorize-image","233","569274","0.0-4.0-1.0-1.38","1c55jllykuya04v","prime","5f58acaca3b2560285b19ab9","5f60e3c0a3b16e07647b2ff9","5f60ecc8f6803801743e5adc","true","696.1699999956181","./Stimuli/SelectedImages/LN/LN42.bmp","83","","","","test","true","N + M","83","repetition","LN","LN42.bmp","forget","","87","3","prime1","left","","","",""
"html-keyboard-response","234","571276","0.0-4.0-1.0-3.38","1c55jllykuya04v","prime","5f58acaca3b2560285b19ab9","5f60e3c0a3b16e07647b2ff9","5f60ecc8f6803801743e5adc","false","null","<div style=""align-items: center; display: flex; color: darkorange; font-size: 90px""><b>ø</b></div>","null","","","","forget_cue","","","","","","","","","","","","","","","",""
"html-keyboard-response","235","571979","0.0-4.0-1.0-0.39","1c55jllykuya04v","prime","5f58acaca3b2560285b19ab9","5f60e3c0a3b16e07647b2ff9","5f60ecc8f6803801743e5adc","false","null","<span style=""color: black; font-size: 48px"">M + N</span>","null","","","","resp_prompt","","","","","","","","","","","","","","","",""
"categorize-image","236","572681","0.0-4.0-1.0-1.39","1c55jllykuya04v","prime","5f58acaca3b2560285b19ab9","5f60e3c0a3b16e07647b2ff9","5f60ecc8f6803801743e5adc","true","695.1650000119116","./Stimuli/SelectedImages/LN/LN177.bmp","76","","","","test","true","M + N","76","repetition","LN","LN177.bmp","forget","","88","3","prime1","right","","","",""
"html-keyboard-response","237","574684","0.0-4.0-1.0-3.39","1c55jllykuya04v","prime","5f58acaca3b2560285b19ab9","5f60e3c0a3b16e07647b2ff9","5f60ecc8f6803801743e5adc","false","null","<div style=""align-items: center; display: flex; color: darkorange; font-size: 90px""><b>ø</b></div>","null","","","","forget_cue","","","","","","","","","","","","","","","",""
"html-keyboard-response","238","575387","0.0-4.0-1.0-0.40","1c55jllykuya04v","prime","5f58acaca3b2560285b19ab9","5f60e3c0a3b16e07647b2ff9","5f60ecc8f6803801743e5adc","false","null","<span style=""color: black; font-size: 48px"">N + M</span>","null","","","","resp_prompt","","","","","","","","","","","","","","","",""
"categorize-image","239","576305","0.0-4.0-1.0-1.40","1c55jllykuya04v","prime","5f58acaca3b2560285b19ab9","5f60e3c0a3b16e07647b2ff9","5f60ecc8f6803801743e5adc","true","911.3349999970524","./Stimuli/SelectedImages/LM/LM48.bmp","76","","","","test","true","N + M","76","repetition","LM","LM48.bmp","forget","","89","3","prime1","right","","","",""
"html-keyboard-response","240","578307","0.0-4.0-1.0-3.40","1c55jllykuya04v","prime","5f58acaca3b2560285b19ab9","5f60e3c0a3b16e07647b2ff9","5f60ecc8f6803801743e5adc","false","null","<div style=""align-items: center; display: flex; color: darkorange; font-size: 90px""><b>ø</b></div>","null","","","","forget_cue","","","","","","","","","","","","","","","",""
"html-keyboard-response","241","579009","0.0-4.0-1.0-0.41","1c55jllykuya04v","prime","5f58acaca3b2560285b19ab9","5f60e3c0a3b16e07647b2ff9","5f60ecc8f6803801743e5adc","false","null","<span style=""color: black; font-size: 48px"">M + N</span>","null","","","","resp_prompt","","","","","","","","","","","","","","","",""
"categorize-image","242","579732","0.0-4.0-1.0-1.41","1c55jllykuya04v","prime","5f58acaca3b2560285b19ab9","5f60e3c0a3b16e07647b2ff9","5f60ecc8f6803801743e5adc","true","716.245000003255","./Stimuli/SelectedImages/SN/SN64.bmp","76","","","","test","true","M + N","76","repetition","SN","SN64.bmp","remember","","90","3","prime1","right","","","",""
"html-keyboard-response","243","581734","0.0-4.0-1.0-3.41","1c55jllykuya04v","prime","5f58acaca3b2560285b19ab9","5f60e3c0a3b16e07647b2ff9","5f60ecc8f6803801743e5adc","false","null","<div style=""align-items: center; display: flex; color: dodgerblue; font-size: 90px""><b>o</b></div>","null","","","","forget_cue","","","","","","","","","","","","","","","",""
"html-keyboard-response","244","582437","0.0-4.0-1.0-0.42","1c55jllykuya04v","prime","5f58acaca3b2560285b19ab9","5f60e3c0a3b16e07647b2ff9","5f60ecc8f6803801743e5adc","false","null","<span style=""color: black; font-size: 48px"">N + M</span>","null","","","","resp_prompt","","","","","","","","","","","","","","","",""
"categorize-image","245","583128","0.0-4.0-1.0-1.42","1c55jllykuya04v","prime","5f58acaca3b2560285b19ab9","5f60e3c0a3b16e07647b2ff9","5f60ecc8f6803801743e5adc","true","685.5900000082329","./Stimuli/SelectedImages/LM/LM179.bmp","76","","","","test","true","N + M","76","switch","LM","LM179.bmp","forget","","91","3","prime1","right","","","",""
"html-keyboard-response","246","585131","0.0-4.0-1.0-3.42","1c55jllykuya04v","prime","5f58acaca3b2560285b19ab9","5f60e3c0a3b16e07647b2ff9","5f60ecc8f6803801743e5adc","false","null","<div style=""align-items: center; display: flex; color: darkorange; font-size: 90px""><b>ø</b></div>","null","","","","forget_cue","","","","","","","","","","","","","","","",""
"html-keyboard-response","247","585833","0.0-4.0-1.0-0.43","1c55jllykuya04v","prime","5f58acaca3b2560285b19ab9","5f60e3c0a3b16e07647b2ff9","5f60ecc8f6803801743e5adc","false","null","<span style=""color: black; font-size: 48px"">N + M</span>","null","","","","resp_prompt","","","","","","","","","","","","","","","",""
"categorize-image","248","586511","0.0-4.0-1.0-1.43","1c55jllykuya04v","prime","5f58acaca3b2560285b19ab9","5f60e3c0a3b16e07647b2ff9","5f60ecc8f6803801743e5adc","true","671.5599999879487","./Stimuli/SelectedImages/SN/SN128.bmp","83","","","","test","true","N + M","83","switch","SN","SN128.bmp","forget","","92","3","prime1","left","","","",""
"html-keyboard-response","249","588514","0.0-4.0-1.0-3.43","1c55jllykuya04v","prime","5f58acaca3b2560285b19ab9","5f60e3c0a3b16e07647b2ff9","5f60ecc8f6803801743e5adc","false","null","<div style=""align-items: center; display: flex; color: darkorange; font-size: 90px""><b>ø</b></div>","null","","","","forget_cue","","","","","","","","","","","","","","","",""
"html-keyboard-response","250","589218","0.0-4.0-1.0-0.44","1c55jllykuya04v","prime","5f58acaca3b2560285b19ab9","5f60e3c0a3b16e07647b2ff9","5f60ecc8f6803801743e5adc","false","null","<span style=""color: black; font-size: 48px"">N + M</span>","null","","","","resp_prompt","","","","","","","","","","","","","","","",""
"categorize-image","251","589879","0.0-4.0-1.0-1.44","1c55jllykuya04v","prime","5f58acaca3b2560285b19ab9","5f60e3c0a3b16e07647b2ff9","5f60ecc8f6803801743e5adc","true","655.0149999966379","./Stimuli/SelectedImages/LM/LM209.bmp","76","","","","test","true","N + M","76","switch","LM","LM209.bmp","forget","","93","3","prime1","right","","","",""
"html-keyboard-response","252","591881","0.0-4.0-1.0-3.44","1c55jllykuya04v","prime","5f58acaca3b2560285b19ab9","5f60e3c0a3b16e07647b2ff9","5f60ecc8f6803801743e5adc","false","null","<div style=""align-items: center; display: flex; color: darkorange; font-size: 90px""><b>ø</b></div>","null","","","","forget_cue","","","","","","","","","","","","","","","",""
