"trial_type","trial_index","time_elapsed","internal_node_id","subject","exp_part","prolific_PID","study_ID","session_ID","use","rt","stimulus","key_press","button_pressed","responses","question_order","trial_part","correct","resp_map","correct_resp","probe_condition","category","image","forget_condition","list","trial_num","block_num","block","response","test_part","n_span","sequence","num_spaces"
"pavlovia","0","3","0.0-0.0","0x0y6k8c48wm0pb","","5eced49f680aa62e1e265eee","5f60e3c0a3b16e07647b2ff9","5f60e9bda7772600093b06ee","false","","","","","","","","","","","","","","","","","","","","","","",""
"html-keyboard-response","1","31198","0.0-1.0-0.0-0.0","0x0y6k8c48wm0pb","welcome","5eced49f680aa62e1e265eee","5f60e3c0a3b16e07647b2ff9","5f60e9bda7772600093b06ee","false","31189.654999994673","<div align=left>Dear participant, <br> thank you for participating in an online study of the Cognition, Action, and Sustainability Unit of the University of Freiburg! <br> <br>The aim of this study is to examine our ability to remember previously learned information. <br>Our goal is to find out, whether our memory improves, when we only remember information that is relevant to us. <br>The experiment will take about 35 minutes to complete. <br> <br>Please, note that you can only participate in this study if you are using a device with a keyboard (PC, Laptop etc.) <br>and not if you are using a mobile device such as a tablet or smartphone.<br> <br>Press 'SPACE' to proceed to the experiment. </div>","32","","","","","","","","","","","","","","","","","","","",""
"html-keyboard-response","2","36738","0.0-1.0-0.0-1.0","0x0y6k8c48wm0pb","welcome","5eced49f680aa62e1e265eee","5f60e3c0a3b16e07647b2ff9","5f60e9bda7772600093b06ee","false","5538.534999999683","<div align=left><strong> Time Course of this experiment: </strong> <br><br> <strong> 1.</strong>  First, please fill in some information regarding your demographic data. <br><br> <strong> 2.</strong>  Next, your task will be to classify everyday objects. <br>In addition, you will be asked to remember certain objects and recall them later. <br>Working on these tasks requires your undivided attention and concentration.<br>It is therefore essential that you eliminate any sources of distraction in your  <br>environment and ensure that you will not be disturbed. <br><br><strong> 3.</strong>  At the end of the experiment, you will be asked to answer a few additional questions. <br> <br><strong> Important:</strong> After finishing the experiment, only close the browser window <br> by clicking on the 'end the experiment'-button when you are asked to do so. <br>Closing the browser window prematurely will make the allocation of your participation credit impossible. <br><br> Press 'SPACE' to start the experiment. </div>","32","","","","","","","","","","","","","","","","","","","",""
"html-button-response","3","38108","0.0-1.0-0.0-2.0","0x0y6k8c48wm0pb","welcome","5eced49f680aa62e1e265eee","5f60e3c0a3b16e07647b2ff9","5f60e9bda7772600093b06ee","true","1368.4549999888986","<div align=left><strong> Informed consent </strong>  <br>The aim of our research is to better understand human behavior and mental processes. <br>In the following study your behavior (e.g. choices, reaction times) will be studied. <br> <br><strong> Voluntariness and Anonymity </strong> <br>Your participation in this study is  <strong> voluntary</strong>.<br>You may withdraw your consent to participate at any time without providing a reason for doing so and without fear of prejudice. <br><br>As no personal data will be collected, <strong>your data and your person cannot be connected after data collection</strong> – the data-set is anonymous. <br>Respectively, deletion of your data will not be possible after data collection has been completed, as we cannot retrace your data-set.<br>The results and anonymized data collected in this study will be published as a scientific publication. <br>This will happen in an <strong>anonymized format</strong>, so that no data can be traced back to a specific person. <br> <br>The anonymized data of this study will be made available to other researchers and/or in a data archive on the Internet as a means of transparency and to enable subsequent re-use. By doing so, this study follows the recommendations of the Deutsche Forschungsgemeinschaft (DFG, German Research Foundation) and Deutsche Gesellschaft für Psychologie (DGPS, German Psychological Society) regarding quality assurance in research.<br>If you have any questions now or after the experiment, please contact our team (experiments@cs.uni-freiburg.de).<br><br><br>I hereby declare, that I understand the above described conditions of participation and I agree to participate under these conditions. <br><br> </div>","","0","","","","","","","","","","","","","","","","","","",""
"html-keyboard-response","4","43491","0.0-1.0-0.0-3.0","0x0y6k8c48wm0pb","welcome","5eced49f680aa62e1e265eee","5f60e3c0a3b16e07647b2ff9","5f60e9bda7772600093b06ee","false","5380.8699999935925","<div align=left><strong> General information concerning the experiment </strong>  <br> <br>Please follow the instructions:<ol> <li><strong> Do not leave this tab (your browser window) during the experiment and do not reload this tab! </strong>  <br>If you do switch tabs/windows during the experiment (to check your mail or visit another website, for example), <br>the experiment will end automatically and you will <strong>not receive credit</strong> for your participation. <br>Repeated participation or resumption of the experiment is impossible.</li> <br><li>Please close all other programs for the duration of your participation. </li> <br><li>Please mute or turn off your phone and put it out of your reach. </li> <br><li>Please also take off any disturbing accessories (such as wristwatches, bracelets, etc.). </li> <br><li>If you have music playing in the background, please turn it off now. </li> <br></ol>Thank you! <br>Press 'SPACE' to continue. </div>","32","","","","","","","","","","","","","","","","","","","",""
"survey-text","5","46168","0.0-1.0-1.0-0.0","0x0y6k8c48wm0pb","demographics","5eced49f680aa62e1e265eee","5f60e3c0a3b16e07647b2ff9","5f60e9bda7772600093b06ee","true","2669.694999989588","","","","{""age"":""30""}","","","","","","","","","","","","","","","","","",""
"survey-multi-choice","6","58793","0.0-1.0-1.0-1.0","0x0y6k8c48wm0pb","demographics","5eced49f680aa62e1e265eee","5f60e3c0a3b16e07647b2ff9","5f60e9bda7772600093b06ee","true","12622.33000001288","","","","{""gender"":""male"",""school"":""high school"",""education"":""High school graduate, diploma or equivalent""}","[0,1,2]","","","","","","","","","","","","","","","","",""
"html-keyboard-response","7","60417","0.0-1.0-2.0","0x0y6k8c48wm0pb","instructions","5eced49f680aa62e1e265eee","5f60e3c0a3b16e07647b2ff9","5f60e9bda7772600093b06ee","false","1619.6599999966566","<div align=left> The experiment is now about to start: <br> <br>In the following part, you will be presented pictures of everyday objects. <br>Your first task is to <strong>classify these objects. </strong> <br> <br> You will classify them either as mechanical or non-mechanical objects. <br> <br>Objects that include any kind of technical mechanism (for example, wheels, switches, levers, <br> electronic components) fall under the category of <strong>mechanical</strong> objects. <br>Only objects without any kind of technical mechanism should be classified as <strong>non-mechanical</strong>. <br><br>Press 'SPACE' to continue. </div>","32","","","","","","","","","","","","","","","","","","","",""
"html-keyboard-response","8","90074","0.0-2.0-0.0","0x0y6k8c48wm0pb","instructions","5eced49f680aa62e1e265eee","5f60e3c0a3b16e07647b2ff9","5f60e9bda7772600093b06ee","false","29655.849999981","<div align=justify>You will classify the objects using the <strong>'S'</strong> and the <strong>'L'</strong> keys on your keyboard.<br>For doing so, please place your <strong>left index finger</strong> on the <strong>'S'</strong> key and place your <strong>right index finger</strong> on the <strong>'L'</strong> key. <br><br> Each trial starts with an instruction, indicating which key ('S'/'L') you need to press to classify <br>the object as mechanical (letter M) or non-mechanical (letter N).<br>The instruction <strong>M + N</strong> indicates that, in the current trial, by pressing the left key ('S') you classify the displayed object as mechanical (M) <br> and by pressing the right key ('L') you classify the object as non-mechanical (N). <br>The instruction <strong>N + M</strong> on the other hand indicates that by pressing the left key ('S') you classify the displayed object as non-mechanical (N) <br> and by pressing the right key ('L') you classify the object as mechanical (M). <br><br>Please press the key corresponding to the correct classification as fast as possible as soon as the object is displayed and try to avoid making mistakes.<br>If you do not respond within a 2 second window, a corresponding feedback will be displayed and the next trial will start.<br> The experiment is divided into multiple blocks to give you the opportunity to take a break after each block. <br>First, you can now practice this task. <br><br>Please place your <strong>LEFT INDEX FINGER</strong> on the 'S' key and your <strong>RIGHT INDEX FINGER</strong> on the 'L' key now. <br><br>Press SPACE to continue.</div>","32","","","","","","","","","","","","","","","","","","","",""
"html-keyboard-response","9","92858","0.0-2.0-1.0","0x0y6k8c48wm0pb","instructions","5eced49f680aa62e1e265eee","5f60e3c0a3b16e07647b2ff9","5f60e9bda7772600093b06ee","false","2782.0449999999255","<div align=left> You will now have time to practice this task.<br><br>Remember: <br> <br><li>Please place your index fingers on the <strong>'S'</strong> and <strong>'L'</strong> keys <br>to respond as fast and accurately as possible.</li><li>Every picture can be classified as either mechanical or non-mechanical.</li><li>If you do not respond in time or commit an error, you will receive a corresponding feedback. </li><li> Please try to respond as <strong> fast </strong> and as <strong> accurately as possible </strong> .<br><li>To ensure optimal results, please minimize distractions and stay focused. </li><br><br>Press SPACE to continue.</div>","32","","","","","","","","","","","","","","","","","","","",""
"html-keyboard-response","10","93563","0.0-2.0-2.0-0.0","0x0y6k8c48wm0pb","practice_no_cue","5eced49f680aa62e1e265eee","5f60e3c0a3b16e07647b2ff9","5f60e9bda7772600093b06ee","false","null","<span style=""color: black; font-size: 48px"">N + M</span>","null","","","","resp_prompt","","","","","","","","","","","","","","","",""
"categorize-image","11","96078","0.0-2.0-2.0-1.0","0x0y6k8c48wm0pb","practice_no_cue","5eced49f680aa62e1e265eee","5f60e3c0a3b16e07647b2ff9","5f60e9bda7772600093b06ee","true","null","./Stimuli/ImagesPractice/SN220.jpg","null","","","","test","false","N + M","83","","SN","SN220.jpg","forget","old","1","1","start","too_slow","","","",""
"html-keyboard-response","12","96794","0.0-2.0-2.0-0.1","0x0y6k8c48wm0pb","practice_no_cue","5eced49f680aa62e1e265eee","5f60e3c0a3b16e07647b2ff9","5f60e9bda7772600093b06ee","false","null","<span style=""color: black; font-size: 48px"">M + N</span>","null","","","","resp_prompt","","","","","","","","","","","","","","","",""
"categorize-image","13","98157","0.0-2.0-2.0-1.1","0x0y6k8c48wm0pb","practice_no_cue","5eced49f680aa62e1e265eee","5f60e3c0a3b16e07647b2ff9","5f60e9bda7772600093b06ee","true","853.4849999996368","./Stimuli/ImagesPractice/SM98.jpg","83","","","","test","true","M + N","83","","SM","SM98.jpg","remember","old","2","1","start","left","","","",""
"html-keyboard-response","14","98861","0.0-2.0-2.0-0.2","0x0y6k8c48wm0pb","practice_no_cue","5eced49f680aa62e1e265eee","5f60e3c0a3b16e07647b2ff9","5f60e9bda7772600093b06ee","false","null","<span style=""color: black; font-size: 48px"">N + M</span>","null","","","","resp_prompt","","","","","","","","","","","","","","","",""
"categorize-image","15","100223","0.0-2.0-2.0-1.2","0x0y6k8c48wm0pb","practice_no_cue","5eced49f680aa62e1e265eee","5f60e3c0a3b16e07647b2ff9","5f60e9bda7772600093b06ee","true","858.7249999982305","./Stimuli/ImagesPractice/SN76.jpg","76","","","","test","false","N + M","83","","SN","SN76.jpg","forget","old","3","1","start","right","","","",""
"html-keyboard-response","16","100929","0.0-2.0-2.0-0.3","0x0y6k8c48wm0pb","practice_no_cue","5eced49f680aa62e1e265eee","5f60e3c0a3b16e07647b2ff9","5f60e9bda7772600093b06ee","false","null","<span style=""color: black; font-size: 48px"">M + N</span>","null","","","","resp_prompt","","","","","","","","","","","","","","","",""
"categorize-image","17","102139","0.0-2.0-2.0-1.3","0x0y6k8c48wm0pb","practice_no_cue","5eced49f680aa62e1e265eee","5f60e3c0a3b16e07647b2ff9","5f60e9bda7772600093b06ee","true","695.3250000078697","./Stimuli/ImagesPractice/SN205.jpg","76","","","","test","true","M + N","76","","SN","SN205.jpg","forget","old","4","1","start","right","","","",""
"html-keyboard-response","18","102849","0.0-2.0-2.0-0.4","0x0y6k8c48wm0pb","practice_no_cue","5eced49f680aa62e1e265eee","5f60e3c0a3b16e07647b2ff9","5f60e9bda7772600093b06ee","false","null","<span style=""color: black; font-size: 48px"">N + M</span>","null","","","","resp_prompt","","","","","","","","","","","","","","","",""
"categorize-image","19","104217","0.0-2.0-2.0-1.4","0x0y6k8c48wm0pb","practice_no_cue","5eced49f680aa62e1e265eee","5f60e3c0a3b16e07647b2ff9","5f60e9bda7772600093b06ee","true","855.150000017602","./Stimuli/ImagesPractice/LM55.jpg","83","","","","test","false","N + M","76","","LM","LM55.jpg","forget","old","5","1","start","left","","","",""
"html-keyboard-response","20","104932","0.0-2.0-2.0-0.5","0x0y6k8c48wm0pb","practice_no_cue","5eced49f680aa62e1e265eee","5f60e3c0a3b16e07647b2ff9","5f60e9bda7772600093b06ee","false","null","<span style=""color: black; font-size: 48px"">M + N</span>","null","","","","resp_prompt","","","","","","","","","","","","","","","",""
"categorize-image","21","106280","0.0-2.0-2.0-1.5","0x0y6k8c48wm0pb","practice_no_cue","5eced49f680aa62e1e265eee","5f60e3c0a3b16e07647b2ff9","5f60e9bda7772600093b06ee","true","835.9749999945052","./Stimuli/ImagesPractice/LM239.jpg","76","","","","test","false","M + N","83","","LM","LM239.jpg","remember","old","6","1","start","right","","","",""
"html-keyboard-response","22","106986","0.0-2.0-2.0-0.6","0x0y6k8c48wm0pb","practice_no_cue","5eced49f680aa62e1e265eee","5f60e3c0a3b16e07647b2ff9","5f60e9bda7772600093b06ee","false","null","<span style=""color: black; font-size: 48px"">M + N</span>","null","","","","resp_prompt","","","","","","","","","","","","","","","",""
"categorize-image","23","108208","0.0-2.0-2.0-1.6","0x0y6k8c48wm0pb","practice_no_cue","5eced49f680aa62e1e265eee","5f60e3c0a3b16e07647b2ff9","5f60e9bda7772600093b06ee","true","709.8199999891222","./Stimuli/ImagesPractice/SN221.jpg","76","","","","test","true","M + N","76","","SN","SN221.jpg","forget","old","7","1","start","right","","","",""
"html-keyboard-response","24","108914","0.0-2.0-2.0-0.7","0x0y6k8c48wm0pb","practice_no_cue","5eced49f680aa62e1e265eee","5f60e3c0a3b16e07647b2ff9","5f60e9bda7772600093b06ee","false","null","<span style=""color: black; font-size: 48px"">N + M</span>","null","","","","resp_prompt","","","","","","","","","","","","","","","",""
"categorize-image","25","110094","0.0-2.0-2.0-1.7","0x0y6k8c48wm0pb","practice_no_cue","5eced49f680aa62e1e265eee","5f60e3c0a3b16e07647b2ff9","5f60e9bda7772600093b06ee","true","670.2299999888055","./Stimuli/ImagesPractice/SM61.jpg","76","","","","test","true","N + M","76","","SM","SM61.jpg","remember","old","8","1","start","right","","","",""
"html-keyboard-response","26","110800","0.0-2.0-2.0-0.8","0x0y6k8c48wm0pb","practice_no_cue","5eced49f680aa62e1e265eee","5f60e3c0a3b16e07647b2ff9","5f60e9bda7772600093b06ee","false","null","<span style=""color: black; font-size: 48px"">N + M</span>","null","","","","resp_prompt","","","","","","","","","","","","","","","",""
"categorize-image","27","112196","0.0-2.0-2.0-1.8","0x0y6k8c48wm0pb","practice_no_cue","5eced49f680aa62e1e265eee","5f60e3c0a3b16e07647b2ff9","5f60e9bda7772600093b06ee","true","880.7899999956135","./Stimuli/ImagesPractice/LN2.jpg","76","","","","test","false","N + M","83","","LN","LN2.jpg","remember","old","9","1","start","right","","","",""
"html-keyboard-response","28","112906","0.0-2.0-2.0-0.9","0x0y6k8c48wm0pb","practice_no_cue","5eced49f680aa62e1e265eee","5f60e3c0a3b16e07647b2ff9","5f60e9bda7772600093b06ee","false","null","<span style=""color: black; font-size: 48px"">M + N</span>","null","","","","resp_prompt","","","","","","","","","","","","","","","",""
"categorize-image","29","114425","0.0-2.0-2.0-1.9","0x0y6k8c48wm0pb","practice_no_cue","5eced49f680aa62e1e265eee","5f60e3c0a3b16e07647b2ff9","5f60e9bda7772600093b06ee","true","1013.3149999892339","./Stimuli/ImagesPractice/LN17.jpg","76","","","","test","true","M + N","76","","LN","LN17.jpg","forget","old","10","1","start","right","","","",""
"html-keyboard-response","30","115129","0.0-2.0-2.0-0.10","0x0y6k8c48wm0pb","practice_no_cue","5eced49f680aa62e1e265eee","5f60e3c0a3b16e07647b2ff9","5f60e9bda7772600093b06ee","false","null","<span style=""color: black; font-size: 48px"">N + M</span>","null","","","","resp_prompt","","","","","","","","","","","","","","","",""
"categorize-image","31","116507","0.0-2.0-2.0-1.10","0x0y6k8c48wm0pb","practice_no_cue","5eced49f680aa62e1e265eee","5f60e3c0a3b16e07647b2ff9","5f60e9bda7772600093b06ee","true","863.0750000011176","./Stimuli/ImagesPractice/SM97.jpg","76","","","","test","true","N + M","76","","SM","SM97.jpg","forget","old","11","1","start","right","","","",""
"html-keyboard-response","32","117213","0.0-2.0-2.0-0.11","0x0y6k8c48wm0pb","practice_no_cue","5eced49f680aa62e1e265eee","5f60e3c0a3b16e07647b2ff9","5f60e9bda7772600093b06ee","false","null","<span style=""color: black; font-size: 48px"">N + M</span>","null","","","","resp_prompt","","","","","","","","","","","","","","","",""
"categorize-image","33","118407","0.0-2.0-2.0-1.11","0x0y6k8c48wm0pb","practice_no_cue","5eced49f680aa62e1e265eee","5f60e3c0a3b16e07647b2ff9","5f60e9bda7772600093b06ee","true","683.7799999921117","./Stimuli/ImagesPractice/SM62.jpg","76","","","","test","true","N + M","76","","SM","SM62.jpg","remember","old","12","1","start","right","","","",""
"html-keyboard-response","34","119113","0.0-2.0-2.0-0.12","0x0y6k8c48wm0pb","practice_no_cue","5eced49f680aa62e1e265eee","5f60e3c0a3b16e07647b2ff9","5f60e9bda7772600093b06ee","false","null","<span style=""color: black; font-size: 48px"">M + N</span>","null","","","","resp_prompt","","","","","","","","","","","","","","","",""
"categorize-image","35","120368","0.0-2.0-2.0-1.12","0x0y6k8c48wm0pb","practice_no_cue","5eced49f680aa62e1e265eee","5f60e3c0a3b16e07647b2ff9","5f60e9bda7772600093b06ee","true","751.4800000062678","./Stimuli/ImagesPractice/LM143.jpg","83","","","","test","true","M + N","83","","LM","LM143.jpg","remember","old","13","1","start","left","","","",""
"html-keyboard-response","36","121078","0.0-2.0-2.0-0.13","0x0y6k8c48wm0pb","practice_no_cue","5eced49f680aa62e1e265eee","5f60e3c0a3b16e07647b2ff9","5f60e9bda7772600093b06ee","false","null","<span style=""color: black; font-size: 48px"">N + M</span>","null","","","","resp_prompt","","","","","","","","","","","","","","","",""
"categorize-image","37","122303","0.0-2.0-2.0-1.13","0x0y6k8c48wm0pb","practice_no_cue","5eced49f680aa62e1e265eee","5f60e3c0a3b16e07647b2ff9","5f60e9bda7772600093b06ee","true","715.0300000212155","./Stimuli/ImagesPractice/LM224.jpg","76","","","","test","true","N + M","76","","LM","LM224.jpg","remember","old","14","1","start","right","","","",""
"html-keyboard-response","38","123007","0.0-2.0-2.0-0.14","0x0y6k8c48wm0pb","practice_no_cue","5eced49f680aa62e1e265eee","5f60e3c0a3b16e07647b2ff9","5f60e9bda7772600093b06ee","false","null","<span style=""color: black; font-size: 48px"">M + N</span>","null","","","","resp_prompt","","","","","","","","","","","","","","","",""
"categorize-image","39","124266","0.0-2.0-2.0-1.14","0x0y6k8c48wm0pb","practice_no_cue","5eced49f680aa62e1e265eee","5f60e3c0a3b16e07647b2ff9","5f60e9bda7772600093b06ee","true","745.11999997776","./Stimuli/ImagesPractice/LN72.jpg","76","","","","test","true","M + N","76","","LN","LN72.jpg","forget","old","15","1","start","right","","","",""
"html-keyboard-response","40","124971","0.0-2.0-2.0-0.15","0x0y6k8c48wm0pb","practice_no_cue","5eced49f680aa62e1e265eee","5f60e3c0a3b16e07647b2ff9","5f60e9bda7772600093b06ee","false","null","<span style=""color: black; font-size: 48px"">M + N</span>","null","","","","resp_prompt","","","","","","","","","","","","","","","",""
"categorize-image","41","126213","0.0-2.0-2.0-1.15","0x0y6k8c48wm0pb","practice_no_cue","5eced49f680aa62e1e265eee","5f60e3c0a3b16e07647b2ff9","5f60e9bda7772600093b06ee","true","733.1249999988358","./Stimuli/ImagesPractice/SM35.jpg","83","","","","test","true","M + N","83","","SM","SM35.jpg","remember","old","16","1","start","left","","","",""
"html-keyboard-response","42","131322","0.0-2.0-3.0","0x0y6k8c48wm0pb","break","5eced49f680aa62e1e265eee","5f60e3c0a3b16e07647b2ff9","5f60e9bda7772600093b06ee","false","5106.789999990724","<p style='font-size: 32px;'>Break</><br><br><br><br><br><p style='font-size: 24px;'>In the last block, you committed 4 errors and did not respond in time on 1 trials.
</p><p style='font-size: 24px;'>Try to respond as fast and accurately as possible in the next block as well! </p><p style='font-size: 24px;'>Press SPACE to continue.</p>","32","","","","","","","","","","","","","","","","","","","",""
"html-keyboard-response","43","134682","0.0-2.0-4.0","0x0y6k8c48wm0pb","instructions","5eced49f680aa62e1e265eee","5f60e3c0a3b16e07647b2ff9","5f60e9bda7772600093b06ee","false","3357.869999977993","<div align=left> Great!<br><br>Are you ready to continue?<br><br>If you want to reread the instructions and redo the practice trials, <br>please press „Z“. <br><br>Press SPACE to CONTINUE with the experiment when you are ready. </div>","32","","","","","","","","","","","","","","","","","","","",""
"html-keyboard-response","44","150042","0.0-3.0-0.0","0x0y6k8c48wm0pb","instructions","5eced49f680aa62e1e265eee","5f60e3c0a3b16e07647b2ff9","5f60e9bda7772600093b06ee","false","15357.9000000027","<div align=left>Great!<br> <strong>Attention</strong>! You will now receive a second, additional task! <br><br>To this point it was you <strong>first task</strong> to correctly <strong>classify objects</strong>. <br><br>As mentioned in the beginning, we aim to examine how well humans can remember previously learned information.<br>We would like to find out whether our memory improves if we only remember information that is relevant to us. <br><br>Therefore, your <strong>second task</strong> will be to <strong>remember</strong> the pictures you are to categorize. <br> After the learning phase, there will be a memory test phase, in which you will be asked to indicate whether you have seen a picture before or not. <br>Some, but not all pictures shown in the learning phase will appear in the memory test phase.<br>After classifying a picture, you will be told whether you should remember it for the memory test phase or not. <br>Thus, some pictures can be forgotten, whereas others have to be remembered. <br><br>Note: From now on, feedback will only be displayed if you responded incorrectly or not in time.<br><br>Press SPACE to continue.</div>","32","","","","","","","","","","","","","","","","","","","",""
"html-keyboard-response","45","163786","0.0-3.0-1.0","0x0y6k8c48wm0pb","instructions","5eced49f680aa62e1e265eee","5f60e3c0a3b16e07647b2ff9","5f60e9bda7772600093b06ee","false","13742.404999997234","<div align=left>In the following part, you will thus have to remember only some pictures. <br>Immediately after seeing and classifying the picture, a symbol will be displayed, indicating whether you should remember or forget the previous picture. <br><br>A <span style='color: dodgerblue; font-size: 28px'>O</span> indicates REMEMBER. That means, you have to remember this picture, because it will be tested later. <br><br>A <span style='color: darkorange; font-size:28px'>Ø</span> indicates FORGET. You do not have to remember this picture. <br><br> As you will have to remember a lot of pictures, it will be hard for you to remember all of them. <br>It will put you at an advantage if you instantly forget the pictures you are not asked to remember. <br> This will make it easier for you to remember the pictures that will be tested afterwards. <br><br>Press SPACE to continue.</div>","32","","","","","","","","","","","","","","","","","","","",""
"html-keyboard-response","46","168674","0.0-3.0-2.0","0x0y6k8c48wm0pb","instructions","5eced49f680aa62e1e265eee","5f60e3c0a3b16e07647b2ff9","5f60e9bda7772600093b06ee","false","4885.745000006864","<div align=left> Now you have the chance to practice both tasks together.<br><br>Remember: <br> <br><li>Please place your index fingers on the <strong>'S'</strong> and <strong>'L'</strong> keys <br>to respond as fast and accurately as possible.</li><li>Every picture can be classified as either mechanical or non-mechanical.</li><li>If you do not respond in time or commit an error, you will receive a corresponding feedback. <br>Please try to respond as <strong> fast </strong> and as <strong> accurately as possible </strong>.</li><li> Please remember only the to-be-remembered <span style='color: dodgerblue; font-size: 28px'>O</span> pictures. <br></li><li> Please minimize distractions and stay focused. </li><br><br>Press SPACE to START</div>","32","","","","","","","","","","","","","","","","","","","",""
"html-keyboard-response","47","169389","0.0-3.0-3.0-0.0","0x0y6k8c48wm0pb","practice_cue","5eced49f680aa62e1e265eee","5f60e3c0a3b16e07647b2ff9","5f60e9bda7772600093b06ee","false","null","<span style=""color: black; font-size: 48px"">M + N</span>","null","","","","resp_prompt","","","","","","","","","","","","","","","",""
"categorize-image","48","169932","0.0-3.0-3.0-1.0","0x0y6k8c48wm0pb","practice_cue","5eced49f680aa62e1e265eee","5f60e3c0a3b16e07647b2ff9","5f60e9bda7772600093b06ee","true","537.7450000087265","./Stimuli/ImagesPractice/LN17.jpg","76","","","","test","true","M + N","76","","LN","LN17.jpg","forget","old","17","2","practice_forget","right","","","",""
"html-keyboard-response","49","171941","0.0-3.0-3.0-3.0","0x0y6k8c48wm0pb","practice_cue","5eced49f680aa62e1e265eee","5f60e3c0a3b16e07647b2ff9","5f60e9bda7772600093b06ee","false","null","<div style=""align-items: center; display: flex; color: darkorange; font-size: 90px""><b>ø</b></div>","null","","","","forget_cue","","","","","","","","","","","","","","","",""
"html-keyboard-response","50","172646","0.0-3.0-3.0-0.1","0x0y6k8c48wm0pb","practice_cue","5eced49f680aa62e1e265eee","5f60e3c0a3b16e07647b2ff9","5f60e9bda7772600093b06ee","false","null","<span style=""color: black; font-size: 48px"">N + M</span>","null","","","","resp_prompt","","","","","","","","","","","","","","","",""
"categorize-image","51","173676","0.0-3.0-3.0-1.1","0x0y6k8c48wm0pb","practice_cue","5eced49f680aa62e1e265eee","5f60e3c0a3b16e07647b2ff9","5f60e9bda7772600093b06ee","true","1025.7950000232086","./Stimuli/ImagesPractice/LM224.jpg","76","","","","test","true","N + M","76","","LM","LM224.jpg","remember","old","18","2","practice_forget","right","","","",""
"html-keyboard-response","52","175693","0.0-3.0-3.0-3.1","0x0y6k8c48wm0pb","practice_cue","5eced49f680aa62e1e265eee","5f60e3c0a3b16e07647b2ff9","5f60e9bda7772600093b06ee","false","null","<div style=""align-items: center; display: flex; color: dodgerblue; font-size: 90px""><b>o</b></div>","null","","","","forget_cue","","","","","","","","","","","","","","","",""
"html-keyboard-response","53","176398","0.0-3.0-3.0-0.2","0x0y6k8c48wm0pb","practice_cue","5eced49f680aa62e1e265eee","5f60e3c0a3b16e07647b2ff9","5f60e9bda7772600093b06ee","false","null","<span style=""color: black; font-size: 48px"">N + M</span>","null","","","","resp_prompt","","","","","","","","","","","","","","","",""
"categorize-image","54","177045","0.0-3.0-3.0-1.2","0x0y6k8c48wm0pb","practice_cue","5eced49f680aa62e1e265eee","5f60e3c0a3b16e07647b2ff9","5f60e9bda7772600093b06ee","true","642.0450000150595","./Stimuli/ImagesPractice/LM55.jpg","76","","","","test","true","N + M","76","","LM","LM55.jpg","forget","old","19","2","practice_forget","right","","","",""
"html-keyboard-response","55","179048","0.0-3.0-3.0-3.2","0x0y6k8c48wm0pb","practice_cue","5eced49f680aa62e1e265eee","5f60e3c0a3b16e07647b2ff9","5f60e9bda7772600093b06ee","false","null","<div style=""align-items: center; display: flex; color: darkorange; font-size: 90px""><b>ø</b></div>","null","","","","forget_cue","","","","","","","","","","","","","","","",""
"html-keyboard-response","56","179749","0.0-3.0-3.0-0.3","0x0y6k8c48wm0pb","practice_cue","5eced49f680aa62e1e265eee","5f60e3c0a3b16e07647b2ff9","5f60e9bda7772600093b06ee","false","null","<span style=""color: black; font-size: 48px"">M + N</span>","null","","","","resp_prompt","","","","","","","","","","","","","","","",""
"categorize-image","57","180324","0.0-3.0-3.0-1.3","0x0y6k8c48wm0pb","practice_cue","5eced49f680aa62e1e265eee","5f60e3c0a3b16e07647b2ff9","5f60e9bda7772600093b06ee","true","571.4100000041071","./Stimuli/ImagesPractice/SM98.jpg","83","","","","test","true","M + N","83","","SM","SM98.jpg","remember","old","20","2","practice_forget","left","","","",""
"html-keyboard-response","58","182334","0.0-3.0-3.0-3.3","0x0y6k8c48wm0pb","practice_cue","5eced49f680aa62e1e265eee","5f60e3c0a3b16e07647b2ff9","5f60e9bda7772600093b06ee","false","null","<div style=""align-items: center; display: flex; color: dodgerblue; font-size: 90px""><b>o</b></div>","null","","","","forget_cue","","","","","","","","","","","","","","","",""
"html-keyboard-response","59","183039","0.0-3.0-3.0-0.4","0x0y6k8c48wm0pb","practice_cue","5eced49f680aa62e1e265eee","5f60e3c0a3b16e07647b2ff9","5f60e9bda7772600093b06ee","false","null","<span style=""color: black; font-size: 48px"">N + M</span>","null","","","","resp_prompt","","","","","","","","","","","","","","","",""
"categorize-image","60","183652","0.0-3.0-3.0-1.4","0x0y6k8c48wm0pb","practice_cue","5eced49f680aa62e1e265eee","5f60e3c0a3b16e07647b2ff9","5f60e9bda7772600093b06ee","true","608.860000007553","./Stimuli/ImagesPractice/SM62.jpg","76","","","","test","true","N + M","76","","SM","SM62.jpg","remember","old","21","2","practice_forget","right","","","",""
"html-keyboard-response","61","185662","0.0-3.0-3.0-3.4","0x0y6k8c48wm0pb","practice_cue","5eced49f680aa62e1e265eee","5f60e3c0a3b16e07647b2ff9","5f60e9bda7772600093b06ee","false","null","<div style=""align-items: center; display: flex; color: dodgerblue; font-size: 90px""><b>o</b></div>","null","","","","forget_cue","","","","","","","","","","","","","","","",""
"html-keyboard-response","62","186366","0.0-3.0-3.0-0.5","0x0y6k8c48wm0pb","practice_cue","5eced49f680aa62e1e265eee","5f60e3c0a3b16e07647b2ff9","5f60e9bda7772600093b06ee","false","null","<span style=""color: black; font-size: 48px"">M + N</span>","null","","","","resp_prompt","","","","","","","","","","","","","","","",""
"categorize-image","63","186972","0.0-3.0-3.0-1.5","0x0y6k8c48wm0pb","practice_cue","5eced49f680aa62e1e265eee","5f60e3c0a3b16e07647b2ff9","5f60e9bda7772600093b06ee","true","601.8050000129733","./Stimuli/ImagesPractice/LM143.jpg","83","","","","test","true","M + N","83","","LM","LM143.jpg","remember","old","22","2","practice_forget","left","","","",""
"html-keyboard-response","64","188977","0.0-3.0-3.0-3.5","0x0y6k8c48wm0pb","practice_cue","5eced49f680aa62e1e265eee","5f60e3c0a3b16e07647b2ff9","5f60e9bda7772600093b06ee","false","null","<div style=""align-items: center; display: flex; color: dodgerblue; font-size: 90px""><b>o</b></div>","null","","","","forget_cue","","","","","","","","","","","","","","","",""
"html-keyboard-response","65","189680","0.0-3.0-3.0-0.6","0x0y6k8c48wm0pb","practice_cue","5eced49f680aa62e1e265eee","5f60e3c0a3b16e07647b2ff9","5f60e9bda7772600093b06ee","false","null","<span style=""color: black; font-size: 48px"">M + N</span>","null","","","","resp_prompt","","","","","","","","","","","","","","","",""
"categorize-image","66","190212","0.0-3.0-3.0-1.6","0x0y6k8c48wm0pb","practice_cue","5eced49f680aa62e1e265eee","5f60e3c0a3b16e07647b2ff9","5f60e9bda7772600093b06ee","true","528.6999999952968","./Stimuli/ImagesPractice/SM35.jpg","83","","","","test","true","M + N","83","","SM","SM35.jpg","remember","old","23","2","practice_forget","left","","","",""
"html-keyboard-response","67","192220","0.0-3.0-3.0-3.6","0x0y6k8c48wm0pb","practice_cue","5eced49f680aa62e1e265eee","5f60e3c0a3b16e07647b2ff9","5f60e9bda7772600093b06ee","false","null","<div style=""align-items: center; display: flex; color: dodgerblue; font-size: 90px""><b>o</b></div>","null","","","","forget_cue","","","","","","","","","","","","","","","",""
"html-keyboard-response","68","192924","0.0-3.0-3.0-0.7","0x0y6k8c48wm0pb","practice_cue","5eced49f680aa62e1e265eee","5f60e3c0a3b16e07647b2ff9","5f60e9bda7772600093b06ee","false","null","<span style=""color: black; font-size: 48px"">N + M</span>","null","","","","resp_prompt","","","","","","","","","","","","","","","",""
"categorize-image","69","193643","0.0-3.0-3.0-1.7","0x0y6k8c48wm0pb","practice_cue","5eced49f680aa62e1e265eee","5f60e3c0a3b16e07647b2ff9","5f60e9bda7772600093b06ee","true","715.6799999938812","./Stimuli/ImagesPractice/SN76.jpg","83","","","","test","true","N + M","83","","SN","SN76.jpg","forget","old","24","2","practice_forget","left","","","",""
"html-keyboard-response","70","195649","0.0-3.0-3.0-3.7","0x0y6k8c48wm0pb","practice_cue","5eced49f680aa62e1e265eee","5f60e3c0a3b16e07647b2ff9","5f60e9bda7772600093b06ee","false","null","<div style=""align-items: center; display: flex; color: darkorange; font-size: 90px""><b>ø</b></div>","null","","","","forget_cue","","","","","","","","","","","","","","","",""
"html-keyboard-response","71","196358","0.0-3.0-3.0-0.8","0x0y6k8c48wm0pb","practice_cue","5eced49f680aa62e1e265eee","5f60e3c0a3b16e07647b2ff9","5f60e9bda7772600093b06ee","false","null","<span style=""color: black; font-size: 48px"">M + N</span>","null","","","","resp_prompt","","","","","","","","","","","","","","","",""
"categorize-image","72","196988","0.0-3.0-3.0-1.8","0x0y6k8c48wm0pb","practice_cue","5eced49f680aa62e1e265eee","5f60e3c0a3b16e07647b2ff9","5f60e9bda7772600093b06ee","true","625.7849999819882","./Stimuli/ImagesPractice/LM239.jpg","83","","","","test","true","M + N","83","","LM","LM239.jpg","remember","old","25","2","practice_forget","left","","","",""
"html-keyboard-response","73","198993","0.0-3.0-3.0-3.8","0x0y6k8c48wm0pb","practice_cue","5eced49f680aa62e1e265eee","5f60e3c0a3b16e07647b2ff9","5f60e9bda7772600093b06ee","false","null","<div style=""align-items: center; display: flex; color: dodgerblue; font-size: 90px""><b>o</b></div>","null","","","","forget_cue","","","","","","","","","","","","","","","",""
"html-keyboard-response","74","199695","0.0-3.0-3.0-0.9","0x0y6k8c48wm0pb","practice_cue","5eced49f680aa62e1e265eee","5f60e3c0a3b16e07647b2ff9","5f60e9bda7772600093b06ee","false","null","<span style=""color: black; font-size: 48px"">M + N</span>","null","","","","resp_prompt","","","","","","","","","","","","","","","",""
"categorize-image","75","200164","0.0-3.0-3.0-1.9","0x0y6k8c48wm0pb","practice_cue","5eced49f680aa62e1e265eee","5f60e3c0a3b16e07647b2ff9","5f60e9bda7772600093b06ee","true","464.35499997460283","./Stimuli/ImagesPractice/LN72.jpg","76","","","","test","true","M + N","76","","LN","LN72.jpg","forget","old","26","2","practice_forget","right","","","",""
"html-keyboard-response","76","202165","0.0-3.0-3.0-3.9","0x0y6k8c48wm0pb","practice_cue","5eced49f680aa62e1e265eee","5f60e3c0a3b16e07647b2ff9","5f60e9bda7772600093b06ee","false","null","<div style=""align-items: center; display: flex; color: darkorange; font-size: 90px""><b>ø</b></div>","null","","","","forget_cue","","","","","","","","","","","","","","","",""
"html-keyboard-response","77","202867","0.0-3.0-3.0-0.10","0x0y6k8c48wm0pb","practice_cue","5eced49f680aa62e1e265eee","5f60e3c0a3b16e07647b2ff9","5f60e9bda7772600093b06ee","false","null","<span style=""color: black; font-size: 48px"">N + M</span>","null","","","","resp_prompt","","","","","","","","","","","","","","","",""
"categorize-image","78","203485","0.0-3.0-3.0-1.10","0x0y6k8c48wm0pb","practice_cue","5eced49f680aa62e1e265eee","5f60e3c0a3b16e07647b2ff9","5f60e9bda7772600093b06ee","true","610.8749999839347","./Stimuli/ImagesPractice/LN2.jpg","83","","","","test","true","N + M","83","","LN","LN2.jpg","remember","old","27","2","practice_forget","left","","","",""
"html-keyboard-response","79","205494","0.0-3.0-3.0-3.10","0x0y6k8c48wm0pb","practice_cue","5eced49f680aa62e1e265eee","5f60e3c0a3b16e07647b2ff9","5f60e9bda7772600093b06ee","false","null","<div style=""align-items: center; display: flex; color: dodgerblue; font-size: 90px""><b>o</b></div>","null","","","","forget_cue","","","","","","","","","","","","","","","",""
"html-keyboard-response","80","206197","0.0-3.0-3.0-0.11","0x0y6k8c48wm0pb","practice_cue","5eced49f680aa62e1e265eee","5f60e3c0a3b16e07647b2ff9","5f60e9bda7772600093b06ee","false","null","<span style=""color: black; font-size: 48px"">M + N</span>","null","","","","resp_prompt","","","","","","","","","","","","","","","",""
"categorize-image","81","206924","0.0-3.0-3.0-1.11","0x0y6k8c48wm0pb","practice_cue","5eced49f680aa62e1e265eee","5f60e3c0a3b16e07647b2ff9","5f60e9bda7772600093b06ee","true","722.940000006929","./Stimuli/ImagesPractice/SN221.jpg","76","","","","test","true","M + N","76","","SN","SN221.jpg","forget","old","28","2","practice_forget","right","","","",""
"html-keyboard-response","82","208937","0.0-3.0-3.0-3.11","0x0y6k8c48wm0pb","practice_cue","5eced49f680aa62e1e265eee","5f60e3c0a3b16e07647b2ff9","5f60e9bda7772600093b06ee","false","null","<div style=""align-items: center; display: flex; color: darkorange; font-size: 90px""><b>ø</b></div>","null","","","","forget_cue","","","","","","","","","","","","","","","",""
"html-keyboard-response","83","209638","0.0-3.0-3.0-0.12","0x0y6k8c48wm0pb","practice_cue","5eced49f680aa62e1e265eee","5f60e3c0a3b16e07647b2ff9","5f60e9bda7772600093b06ee","false","null","<span style=""color: black; font-size: 48px"">N + M</span>","null","","","","resp_prompt","","","","","","","","","","","","","","","",""
"categorize-image","84","210275","0.0-3.0-3.0-1.12","0x0y6k8c48wm0pb","practice_cue","5eced49f680aa62e1e265eee","5f60e3c0a3b16e07647b2ff9","5f60e9bda7772600093b06ee","true","633.7599999969825","./Stimuli/ImagesPractice/SN220.jpg","83","","","","test","true","N + M","83","","SN","SN220.jpg","forget","old","29","2","practice_forget","left","","","",""
"html-keyboard-response","85","212279","0.0-3.0-3.0-3.12","0x0y6k8c48wm0pb","practice_cue","5eced49f680aa62e1e265eee","5f60e3c0a3b16e07647b2ff9","5f60e9bda7772600093b06ee","false","null","<div style=""align-items: center; display: flex; color: darkorange; font-size: 90px""><b>ø</b></div>","null","","","","forget_cue","","","","","","","","","","","","","","","",""
"html-keyboard-response","86","212980","0.0-3.0-3.0-0.13","0x0y6k8c48wm0pb","practice_cue","5eced49f680aa62e1e265eee","5f60e3c0a3b16e07647b2ff9","5f60e9bda7772600093b06ee","false","null","<span style=""color: black; font-size: 48px"">N + M</span>","null","","","","resp_prompt","","","","","","","","","","","","","","","",""
"categorize-image","87","213524","0.0-3.0-3.0-1.13","0x0y6k8c48wm0pb","practice_cue","5eced49f680aa62e1e265eee","5f60e3c0a3b16e07647b2ff9","5f60e9bda7772600093b06ee","true","539.3150000018068","./Stimuli/ImagesPractice/SM97.jpg","76","","","","test","true","N + M","76","","SM","SM97.jpg","forget","old","30","2","practice_forget","right","","","",""
"html-keyboard-response","88","215538","0.0-3.0-3.0-3.13","0x0y6k8c48wm0pb","practice_cue","5eced49f680aa62e1e265eee","5f60e3c0a3b16e07647b2ff9","5f60e9bda7772600093b06ee","false","null","<div style=""align-items: center; display: flex; color: darkorange; font-size: 90px""><b>ø</b></div>","null","","","","forget_cue","","","","","","","","","","","","","","","",""
"html-keyboard-response","89","216242","0.0-3.0-3.0-0.14","0x0y6k8c48wm0pb","practice_cue","5eced49f680aa62e1e265eee","5f60e3c0a3b16e07647b2ff9","5f60e9bda7772600093b06ee","false","null","<span style=""color: black; font-size: 48px"">N + M</span>","null","","","","resp_prompt","","","","","","","","","","","","","","","",""
"categorize-image","90","217060","0.0-3.0-3.0-1.14","0x0y6k8c48wm0pb","practice_cue","5eced49f680aa62e1e265eee","5f60e3c0a3b16e07647b2ff9","5f60e9bda7772600093b06ee","true","813.9749999972992","./Stimuli/ImagesPractice/SM61.jpg","83","","","","test","false","N + M","76","","SM","SM61.jpg","remember","old","31","2","practice_forget","left","","","",""
"html-keyboard-response","91","217574","0.0-3.0-3.0-2.14-0.14","0x0y6k8c48wm0pb","practice_cue","5eced49f680aa62e1e265eee","5f60e3c0a3b16e07647b2ff9","5f60e9bda7772600093b06ee","false","null","<span style=""color: red; font-size: 48px"">Error!</span>","null","","","","feedback","","","","","","","","","","","","","","","",""
"html-keyboard-response","92","219583","0.0-3.0-3.0-3.14","0x0y6k8c48wm0pb","practice_cue","5eced49f680aa62e1e265eee","5f60e3c0a3b16e07647b2ff9","5f60e9bda7772600093b06ee","false","null","<div style=""align-items: center; display: flex; color: dodgerblue; font-size: 90px""><b>o</b></div>","null","","","","forget_cue","","","","","","","","","","","","","","","",""
"html-keyboard-response","93","220289","0.0-3.0-3.0-0.15","0x0y6k8c48wm0pb","practice_cue","5eced49f680aa62e1e265eee","5f60e3c0a3b16e07647b2ff9","5f60e9bda7772600093b06ee","false","null","<span style=""color: black; font-size: 48px"">M + N</span>","null","","","","resp_prompt","","","","","","","","","","","","","","","",""
"categorize-image","94","220940","0.0-3.0-3.0-1.15","0x0y6k8c48wm0pb","practice_cue","5eced49f680aa62e1e265eee","5f60e3c0a3b16e07647b2ff9","5f60e9bda7772600093b06ee","true","646.615000005113","./Stimuli/ImagesPractice/SN205.jpg","76","","","","test","true","M + N","76","","SN","SN205.jpg","forget","old","32","2","practice_forget","right","","","",""
"html-keyboard-response","95","222953","0.0-3.0-3.0-3.15","0x0y6k8c48wm0pb","practice_cue","5eced49f680aa62e1e265eee","5f60e3c0a3b16e07647b2ff9","5f60e9bda7772600093b06ee","false","null","<div style=""align-items: center; display: flex; color: darkorange; font-size: 90px""><b>ø</b></div>","null","","","","forget_cue","","","","","","","","","","","","","","","",""
"html-keyboard-response","96","225418","0.0-3.0-4.0","0x0y6k8c48wm0pb","break","5eced49f680aa62e1e265eee","5f60e3c0a3b16e07647b2ff9","5f60e9bda7772600093b06ee","false","2462.8000000084285","<p style='font-size: 32px;'>Break</><br><br><br><br><br><p style='font-size: 24px;'>In the last block, you committed 1 errors and did not respond in time on 0 trials.
</p><p style='font-size: 24px;'>Try to respond as fast and accurately as possible in the next block as well! </p><p style='font-size: 24px;'>Press SPACE to continue.</p>","32","","","","","","","","","","","","","","","","","","","",""
"html-keyboard-response","97","243402","0.0-3.0-5.0","0x0y6k8c48wm0pb","instructions","5eced49f680aa62e1e265eee","5f60e3c0a3b16e07647b2ff9","5f60e9bda7772600093b06ee","false","17982.680000015534","<div align=left> Now, to practice, we kindly ask you to remember as many of the to-be-remembered pictures<br>of the previous learning phase as possible.<br><br>The pictures you were instructed to remember were the pictures followed by a <span style='color: dodgerblue; font-size: 28px'>O</span>.<br><br>In this memory test phase, you will also see some new pictures.<br>It is your task to remember whether you were presented with this specific picture in this study so far or not.<br>If you recognize an object (you have already seen it in this study), it is an OLD object. <br>If you do not recognize an object (you have NOT seen it in this study), it is a NEW object. <br><strong> Attention</strong>: As already mentioned, <span style='color: darkorange; font-size:28px'>Ø</span>-pictures will <strong>never</strong> appear in this memory test (neither as new objects). <br><br>Press SPACE to continue. </div>","32","","","","","","","","","","","","","","","","","","","",""
"html-keyboard-response","98","259778","0.0-3.0-6.0","0x0y6k8c48wm0pb","instructions","5eced49f680aa62e1e265eee","5f60e3c0a3b16e07647b2ff9","5f60e9bda7772600093b06ee","false","16373.794999992242","<div align=left> M and N no longer will appear on the left/right of the fixation cross. <br>Instead there will be a note at the bottom of the left or right side  <br>indicating which key you should press for an old or new object:  <br> <br>Press the <strong>right</strong> key to classify an object as <strong>old</strong> and press the <strong>left</strong>, to classify an object as <strong>new</strong>.<br>Please classify the objects as new/old by again placing your index finger on the 'S' and 'L' keys <br>and press them accordingly.<br><br><strong>Old:</strong> This object has been presented before. <br><strong>New:</strong> This object has <strong>not</strong> been presented.<br><br>Now please put your right and left index fingers on the 'S' and 'L' keys of your keyboard. <br>Please respond as fast and as accurately as possible!<br><br>Press SPACE to continue. </div>","32","","","","","","","","","","","","","","","","","","","",""
"categorize-image","99","261970","0.0-3.0-7.0-0.0","0x0y6k8c48wm0pb","practice_recog","5eced49f680aa62e1e265eee","5f60e3c0a3b16e07647b2ff9","5f60e9bda7772600093b06ee","true","1676.2549999984913","./Stimuli/ImagesPractice/LM143.jpg","76","","","","test","true","","76","","LM","LM143.jpg","","old","33","3","practice_recog","right","","","",""
"categorize-image","100","263569","0.0-3.0-7.0-0.1","0x0y6k8c48wm0pb","practice_recog","5eced49f680aa62e1e265eee","5f60e3c0a3b16e07647b2ff9","5f60e9bda7772600093b06ee","true","1092.5699999788776","./Stimuli/ImagesPractice/SM62.jpg","76","","","","test","true","","76","","SM","SM62.jpg","","old","34","3","practice_recog","right","","","",""
"categorize-image","101","264766","0.0-3.0-7.0-0.2","0x0y6k8c48wm0pb","practice_recog","5eced49f680aa62e1e265eee","5f60e3c0a3b16e07647b2ff9","5f60e9bda7772600093b06ee","true","694.1750000114553","./Stimuli/ImagesPractice/SN222.jpg","83","","","","test","true","","83","","SN","SN222.jpg","","new","35","3","practice_recog","left","","","",""
"categorize-image","102","266144","0.0-3.0-7.0-0.3","0x0y6k8c48wm0pb","practice_recog","5eced49f680aa62e1e265eee","5f60e3c0a3b16e07647b2ff9","5f60e9bda7772600093b06ee","true","862.0349999982864","./Stimuli/ImagesPractice/SM35.jpg","76","","","","test","true","","76","","SM","SM35.jpg","","old","36","3","practice_recog","right","","","",""
"categorize-image","103","267811","0.0-3.0-7.0-0.4","0x0y6k8c48wm0pb","practice_recog","5eced49f680aa62e1e265eee","5f60e3c0a3b16e07647b2ff9","5f60e9bda7772600093b06ee","true","1160.0549999857321","./Stimuli/ImagesPractice/SM61.jpg","76","","","","test","true","","76","","SM","SM61.jpg","","old","37","3","practice_recog","right","","","",""
"categorize-image","104","269050","0.0-3.0-7.0-0.5","0x0y6k8c48wm0pb","practice_recog","5eced49f680aa62e1e265eee","5f60e3c0a3b16e07647b2ff9","5f60e9bda7772600093b06ee","true","732.6049999974202","./Stimuli/ImagesPractice/SM37.jpg","83","","","","test","true","","83","","SM","SM37.jpg","","new","38","3","practice_recog","left","","","",""
"categorize-image","105","270290","0.0-3.0-7.0-0.6","0x0y6k8c48wm0pb","practice_recog","5eced49f680aa62e1e265eee","5f60e3c0a3b16e07647b2ff9","5f60e9bda7772600093b06ee","true","733.6150000046473","./Stimuli/ImagesPractice/LM230.jpg","83","","","","test","true","","83","","LM","LM230.jpg","","new","39","3","practice_recog","left","","","",""
"categorize-image","106","271530","0.0-3.0-7.0-0.7","0x0y6k8c48wm0pb","practice_recog","5eced49f680aa62e1e265eee","5f60e3c0a3b16e07647b2ff9","5f60e9bda7772600093b06ee","true","733.9849999989383","./Stimuli/ImagesPractice/LN15.jpg","76","","","","test","false","","83","","LN","LN15.jpg","","new","40","3","practice_recog","right","","","",""
"categorize-image","107","273383","0.0-3.0-7.0-0.8","0x0y6k8c48wm0pb","practice_recog","5eced49f680aa62e1e265eee","5f60e3c0a3b16e07647b2ff9","5f60e9bda7772600093b06ee","true","1341.0349999903701","./Stimuli/ImagesPractice/LN4.jpg","83","","","","test","true","","83","","LN","LN4.jpg","","new","41","3","practice_recog","left","","","",""
"categorize-image","108","274543","0.0-3.0-7.0-0.9","0x0y6k8c48wm0pb","practice_recog","5eced49f680aa62e1e265eee","5f60e3c0a3b16e07647b2ff9","5f60e9bda7772600093b06ee","true","656.6950000124052","./Stimuli/ImagesPractice/LN109.jpg","83","","","","test","true","","83","","LN","LN109.jpg","","new","42","3","practice_recog","left","","","",""
"categorize-image","109","275843","0.0-3.0-7.0-0.10","0x0y6k8c48wm0pb","practice_recog","5eced49f680aa62e1e265eee","5f60e3c0a3b16e07647b2ff9","5f60e9bda7772600093b06ee","true","791.54499998549","./Stimuli/ImagesPractice/LM224.jpg","76","","","","test","true","","76","","LM","LM224.jpg","","old","43","3","practice_recog","right","","","",""
"categorize-image","110","277101","0.0-3.0-7.0-0.11","0x0y6k8c48wm0pb","practice_recog","5eced49f680aa62e1e265eee","5f60e3c0a3b16e07647b2ff9","5f60e9bda7772600093b06ee","true","748.0599999835249","./Stimuli/ImagesPractice/SM98.jpg","76","","","","test","true","","76","","SM","SM98.jpg","","old","44","3","practice_recog","right","","","",""
"categorize-image","111","278295","0.0-3.0-7.0-0.12","0x0y6k8c48wm0pb","practice_recog","5eced49f680aa62e1e265eee","5f60e3c0a3b16e07647b2ff9","5f60e9bda7772600093b06ee","true","689.8649999930058","./Stimuli/ImagesPractice/SN75.jpg","83","","","","test","true","","83","","SN","SN75.jpg","","new","45","3","practice_recog","left","","","",""
"categorize-image","112","279583","0.0-3.0-7.0-0.13","0x0y6k8c48wm0pb","practice_recog","5eced49f680aa62e1e265eee","5f60e3c0a3b16e07647b2ff9","5f60e9bda7772600093b06ee","true","784.2700000037439","./Stimuli/ImagesPractice/LM147.jpg","83","","","","test","true","","83","","LM","LM147.jpg","","new","46","3","practice_recog","left","","","",""
"categorize-image","113","280669","0.0-3.0-7.0-0.14","0x0y6k8c48wm0pb","practice_recog","5eced49f680aa62e1e265eee","5f60e3c0a3b16e07647b2ff9","5f60e9bda7772600093b06ee","true","576.6050000092946","./Stimuli/ImagesPractice/LM239.jpg","76","","","","test","true","","76","","LM","LM239.jpg","","old","47","3","practice_recog","right","","","",""
"categorize-image","114","281890","0.0-3.0-7.0-0.15","0x0y6k8c48wm0pb","practice_recog","5eced49f680aa62e1e265eee","5f60e3c0a3b16e07647b2ff9","5f60e9bda7772600093b06ee","true","713.5199999902397","./Stimuli/ImagesPractice/LN2.jpg","83","","","","test","false","","76","","LN","LN2.jpg","","old","48","3","practice_recog","left","","","",""
"html-keyboard-response","115","284449","0.0-3.0-8.0","0x0y6k8c48wm0pb","instructions","5eced49f680aa62e1e265eee","5f60e3c0a3b16e07647b2ff9","5f60e9bda7772600093b06ee","false","2557.1249999920838","<div align=left> Great!<br><br>Are you ready to continue?<br>If you want to reread the instructions and redo the practice trials, please <br>press „Z“.<br><br>You can proceed when you are ready.<br><br>After the presentation of each object, you will receive an instruction whether to <br>remember or to forget the object.<br>We will test your memory of the following pictures only at the very end of <br>the experiment after all learning blocks are completed. <br><br>Press SPACE to CONTINUE when you are ready. </div>","32","","","","","","","","","","","","","","","","","","","",""
"html-keyboard-response","116","285937","0.0-4.0-0.0","0x0y6k8c48wm0pb","instructions","5eced49f680aa62e1e265eee","5f60e3c0a3b16e07647b2ff9","5f60e9bda7772600093b06ee","false","1486.6650000039954","<div align=left> The actual experiment is about to start.<br>The practice trials are over!<br><br>Please always respond both fast and accurately!<br><br>Remember: <br> <br><li> Please place your index fingers on the <strong>'S'</strong> and <strong>'L'</strong> keys <br>to respond as fast and accurately as possible.</li><li> Every picture can be classified as either mechanical or non-mechanical.</li><li> If you do not respond in time or commit an error, you will receive a corresponding feedback.<br> Please try to respond as <strong> fast </strong> and as <strong> accurately as possible </strong>.</li><li> Remember the <span style='color: dodgerblue; font-size: 28px'>O</span> pictures. <br></li><li> Please minimize distractions and stay focused. </li><br><br>Press SPACE to START.</div>","32","","","","","","","","","","","","","","","","","","","",""
"html-keyboard-response","117","286654","0.0-4.0-1.0-0.0","0x0y6k8c48wm0pb","prime","5eced49f680aa62e1e265eee","5f60e3c0a3b16e07647b2ff9","5f60e9bda7772600093b06ee","false","null","<span style=""color: black; font-size: 48px"">M + N</span>","null","","","","resp_prompt","","","","","","","","","","","","","","","",""
"categorize-image","118","287492","0.0-4.0-1.0-1.0","0x0y6k8c48wm0pb","prime","5eced49f680aa62e1e265eee","5f60e3c0a3b16e07647b2ff9","5f60e9bda7772600093b06ee","true","833.1900000048336","./Stimuli/SelectedImages/LN/LN131.bmp","76","","","","test","true","M + N","76","repetition","LN","LN131.bmp","remember","","49","3","prime1","right","","","",""
"html-keyboard-response","119","289502","0.0-4.0-1.0-3.0","0x0y6k8c48wm0pb","prime","5eced49f680aa62e1e265eee","5f60e3c0a3b16e07647b2ff9","5f60e9bda7772600093b06ee","false","null","<div style=""align-items: center; display: flex; color: dodgerblue; font-size: 90px""><b>o</b></div>","null","","","","forget_cue","","","","","","","","","","","","","","","",""
"html-keyboard-response","120","290212","0.0-4.0-1.0-0.1","0x0y6k8c48wm0pb","prime","5eced49f680aa62e1e265eee","5f60e3c0a3b16e07647b2ff9","5f60e9bda7772600093b06ee","false","null","<span style=""color: black; font-size: 48px"">M + N</span>","null","","","","resp_prompt","","","","","","","","","","","","","","","",""
"categorize-image","121","291131","0.0-4.0-1.0-1.1","0x0y6k8c48wm0pb","prime","5eced49f680aa62e1e265eee","5f60e3c0a3b16e07647b2ff9","5f60e9bda7772600093b06ee","true","914.7499999962747","./Stimuli/SelectedImages/LM/LM75.bmp","83","","","","test","true","M + N","83","repetition","LM","LM75.bmp","forget","","50","3","prime1","left","","","",""
"html-keyboard-response","122","293137","0.0-4.0-1.0-3.1","0x0y6k8c48wm0pb","prime","5eced49f680aa62e1e265eee","5f60e3c0a3b16e07647b2ff9","5f60e9bda7772600093b06ee","false","null","<div style=""align-items: center; display: flex; color: darkorange; font-size: 90px""><b>ø</b></div>","null","","","","forget_cue","","","","","","","","","","","","","","","",""
"html-keyboard-response","123","293838","0.0-4.0-1.0-0.2","0x0y6k8c48wm0pb","prime","5eced49f680aa62e1e265eee","5f60e3c0a3b16e07647b2ff9","5f60e9bda7772600093b06ee","false","null","<span style=""color: black; font-size: 48px"">M + N</span>","null","","","","resp_prompt","","","","","","","","","","","","","","","",""
"categorize-image","124","294387","0.0-4.0-1.0-1.2","0x0y6k8c48wm0pb","prime","5eced49f680aa62e1e265eee","5f60e3c0a3b16e07647b2ff9","5f60e9bda7772600093b06ee","true","545.3850000048988","./Stimuli/SelectedImages/LN/LN92.bmp","76","","","","test","true","M + N","76","repetition","LN","LN92.bmp","forget","","51","3","prime1","right","","","",""
"html-keyboard-response","125","296389","0.0-4.0-1.0-3.2","0x0y6k8c48wm0pb","prime","5eced49f680aa62e1e265eee","5f60e3c0a3b16e07647b2ff9","5f60e9bda7772600093b06ee","false","null","<div style=""align-items: center; display: flex; color: darkorange; font-size: 90px""><b>ø</b></div>","null","","","","forget_cue","","","","","","","","","","","","","","","",""
"html-keyboard-response","126","297091","0.0-4.0-1.0-0.3","0x0y6k8c48wm0pb","prime","5eced49f680aa62e1e265eee","5f60e3c0a3b16e07647b2ff9","5f60e9bda7772600093b06ee","false","null","<span style=""color: black; font-size: 48px"">N + M</span>","null","","","","resp_prompt","","","","","","","","","","","","","","","",""
"categorize-image","127","297699","0.0-4.0-1.0-1.3","0x0y6k8c48wm0pb","prime","5eced49f680aa62e1e265eee","5f60e3c0a3b16e07647b2ff9","5f60e9bda7772600093b06ee","true","603.7650000071153","./Stimuli/SelectedImages/SM/SM200.bmp","76","","","","test","true","N + M","76","switch","SM","SM200.bmp","forget","","52","3","prime1","right","","","",""
"html-keyboard-response","128","299709","0.0-4.0-1.0-3.3","0x0y6k8c48wm0pb","prime","5eced49f680aa62e1e265eee","5f60e3c0a3b16e07647b2ff9","5f60e9bda7772600093b06ee","false","null","<div style=""align-items: center; display: flex; color: darkorange; font-size: 90px""><b>ø</b></div>","null","","","","forget_cue","","","","","","","","","","","","","","","",""
"html-keyboard-response","129","300413","0.0-4.0-1.0-0.4","0x0y6k8c48wm0pb","prime","5eced49f680aa62e1e265eee","5f60e3c0a3b16e07647b2ff9","5f60e9bda7772600093b06ee","false","null","<span style=""color: black; font-size: 48px"">N + M</span>","null","","","","resp_prompt","","","","","","","","","","","","","","","",""
"categorize-image","130","300955","0.0-4.0-1.0-1.4","0x0y6k8c48wm0pb","prime","5eced49f680aa62e1e265eee","5f60e3c0a3b16e07647b2ff9","5f60e9bda7772600093b06ee","true","538.0399999849033","./Stimuli/SelectedImages/SM/SM108.bmp","76","","","","test","true","N + M","76","repetition","SM","SM108.bmp","forget","","53","3","prime1","right","","","",""
"html-keyboard-response","131","302970","0.0-4.0-1.0-3.4","0x0y6k8c48wm0pb","prime","5eced49f680aa62e1e265eee","5f60e3c0a3b16e07647b2ff9","5f60e9bda7772600093b06ee","false","null","<div style=""align-items: center; display: flex; color: darkorange; font-size: 90px""><b>ø</b></div>","null","","","","forget_cue","","","","","","","","","","","","","","","",""
"html-keyboard-response","132","303672","0.0-4.0-1.0-0.5","0x0y6k8c48wm0pb","prime","5eced49f680aa62e1e265eee","5f60e3c0a3b16e07647b2ff9","5f60e9bda7772600093b06ee","false","null","<span style=""color: black; font-size: 48px"">N + M</span>","null","","","","resp_prompt","","","","","","","","","","","","","","","",""
"categorize-image","133","304211","0.0-4.0-1.0-1.5","0x0y6k8c48wm0pb","prime","5eced49f680aa62e1e265eee","5f60e3c0a3b16e07647b2ff9","5f60e9bda7772600093b06ee","true","535.7049999875017","./Stimuli/SelectedImages/LM/LM58.bmp","76","","","","test","true","N + M","76","repetition","LM","LM58.bmp","forget","","54","3","prime1","right","","","",""
"html-keyboard-response","134","306218","0.0-4.0-1.0-3.5","0x0y6k8c48wm0pb","prime","5eced49f680aa62e1e265eee","5f60e3c0a3b16e07647b2ff9","5f60e9bda7772600093b06ee","false","null","<div style=""align-items: center; display: flex; color: darkorange; font-size: 90px""><b>ø</b></div>","null","","","","forget_cue","","","","","","","","","","","","","","","",""
"html-keyboard-response","135","306920","0.0-4.0-1.0-0.6","0x0y6k8c48wm0pb","prime","5eced49f680aa62e1e265eee","5f60e3c0a3b16e07647b2ff9","5f60e9bda7772600093b06ee","false","null","<span style=""color: black; font-size: 48px"">M + N</span>","null","","","","resp_prompt","","","","","","","","","","","","","","","",""
"categorize-image","136","307443","0.0-4.0-1.0-1.6","0x0y6k8c48wm0pb","prime","5eced49f680aa62e1e265eee","5f60e3c0a3b16e07647b2ff9","5f60e9bda7772600093b06ee","true","519.0400000137743","./Stimuli/SelectedImages/LM/LM216.bmp","83","","","","test","true","M + N","83","switch","LM","LM216.bmp","forget","","55","3","prime1","left","","","",""
"html-keyboard-response","137","309451","0.0-4.0-1.0-3.6","0x0y6k8c48wm0pb","prime","5eced49f680aa62e1e265eee","5f60e3c0a3b16e07647b2ff9","5f60e9bda7772600093b06ee","false","null","<div style=""align-items: center; display: flex; color: darkorange; font-size: 90px""><b>ø</b></div>","null","","","","forget_cue","","","","","","","","","","","","","","","",""
"html-keyboard-response","138","310160","0.0-4.0-1.0-0.7","0x0y6k8c48wm0pb","prime","5eced49f680aa62e1e265eee","5f60e3c0a3b16e07647b2ff9","5f60e9bda7772600093b06ee","false","null","<span style=""color: black; font-size: 48px"">M + N</span>","null","","","","resp_prompt","","","","","","","","","","","","","","","",""
"categorize-image","139","310795","0.0-4.0-1.0-1.7","0x0y6k8c48wm0pb","prime","5eced49f680aa62e1e265eee","5f60e3c0a3b16e07647b2ff9","5f60e9bda7772600093b06ee","true","630.7150000066031","./Stimuli/SelectedImages/LN/LN101.bmp","76","","","","test","true","M + N","76","switch","LN","LN101.bmp","remember","","56","3","prime1","right","","","",""
"html-keyboard-response","140","312802","0.0-4.0-1.0-3.7","0x0y6k8c48wm0pb","prime","5eced49f680aa62e1e265eee","5f60e3c0a3b16e07647b2ff9","5f60e9bda7772600093b06ee","false","null","<div style=""align-items: center; display: flex; color: dodgerblue; font-size: 90px""><b>o</b></div>","null","","","","forget_cue","","","","","","","","","","","","","","","",""
"html-keyboard-response","141","313511","0.0-4.0-1.0-0.8","0x0y6k8c48wm0pb","prime","5eced49f680aa62e1e265eee","5f60e3c0a3b16e07647b2ff9","5f60e9bda7772600093b06ee","false","null","<span style=""color: black; font-size: 48px"">M + N</span>","null","","","","resp_prompt","","","","","","","","","","","","","","","",""
"categorize-image","142","314540","0.0-4.0-1.0-1.8","0x0y6k8c48wm0pb","prime","5eced49f680aa62e1e265eee","5f60e3c0a3b16e07647b2ff9","5f60e9bda7772600093b06ee","true","1024.7249999956694","./Stimuli/SelectedImages/SM/SM17.bmp","83","","","","test","true","M + N","83","switch","SM","SM17.bmp","forget","","57","3","prime1","left","","","",""
"html-keyboard-response","143","316550","0.0-4.0-1.0-3.8","0x0y6k8c48wm0pb","prime","5eced49f680aa62e1e265eee","5f60e3c0a3b16e07647b2ff9","5f60e9bda7772600093b06ee","false","null","<div style=""align-items: center; display: flex; color: darkorange; font-size: 90px""><b>ø</b></div>","null","","","","forget_cue","","","","","","","","","","","","","","","",""
"html-keyboard-response","144","317254","0.0-4.0-1.0-0.9","0x0y6k8c48wm0pb","prime","5eced49f680aa62e1e265eee","5f60e3c0a3b16e07647b2ff9","5f60e9bda7772600093b06ee","false","null","<span style=""color: black; font-size: 48px"">M + N</span>","null","","","","resp_prompt","","","","","","","","","","","","","","","",""
"categorize-image","145","317811","0.0-4.0-1.0-1.9","0x0y6k8c48wm0pb","prime","5eced49f680aa62e1e265eee","5f60e3c0a3b16e07647b2ff9","5f60e9bda7772600093b06ee","true","553.0249999719672","./Stimuli/SelectedImages/LN/LN42.bmp","76","","","","test","true","M + N","76","repetition","LN","LN42.bmp","remember","","58","3","prime1","right","","","",""
"html-keyboard-response","146","319816","0.0-4.0-1.0-3.9","0x0y6k8c48wm0pb","prime","5eced49f680aa62e1e265eee","5f60e3c0a3b16e07647b2ff9","5f60e9bda7772600093b06ee","false","null","<div style=""align-items: center; display: flex; color: dodgerblue; font-size: 90px""><b>o</b></div>","null","","","","forget_cue","","","","","","","","","","","","","","","",""
"html-keyboard-response","147","320519","0.0-4.0-1.0-0.10","0x0y6k8c48wm0pb","prime","5eced49f680aa62e1e265eee","5f60e3c0a3b16e07647b2ff9","5f60e9bda7772600093b06ee","false","null","<span style=""color: black; font-size: 48px"">N + M</span>","null","","","","resp_prompt","","","","","","","","","","","","","","","",""
"categorize-image","148","321051","0.0-4.0-1.0-1.10","0x0y6k8c48wm0pb","prime","5eced49f680aa62e1e265eee","5f60e3c0a3b16e07647b2ff9","5f60e9bda7772600093b06ee","true","527.6600000215694","./Stimuli/SelectedImages/SM/SM106.bmp","76","","","","test","true","N + M","76","repetition","SM","SM106.bmp","forget","","59","3","prime1","right","","","",""
"html-keyboard-response","149","323054","0.0-4.0-1.0-3.10","0x0y6k8c48wm0pb","prime","5eced49f680aa62e1e265eee","5f60e3c0a3b16e07647b2ff9","5f60e9bda7772600093b06ee","false","null","<div style=""align-items: center; display: flex; color: darkorange; font-size: 90px""><b>ø</b></div>","null","","","","forget_cue","","","","","","","","","","","","","","","",""
"html-keyboard-response","150","323758","0.0-4.0-1.0-0.11","0x0y6k8c48wm0pb","prime","5eced49f680aa62e1e265eee","5f60e3c0a3b16e07647b2ff9","5f60e9bda7772600093b06ee","false","null","<span style=""color: black; font-size: 48px"">N + M</span>","null","","","","resp_prompt","","","","","","","","","","","","","","","",""
"categorize-image","151","324571","0.0-4.0-1.0-1.11","0x0y6k8c48wm0pb","prime","5eced49f680aa62e1e265eee","5f60e3c0a3b16e07647b2ff9","5f60e9bda7772600093b06ee","true","809.8700000264216","./Stimuli/SelectedImages/SN/SN181.bmp","83","","","","test","true","N + M","83","repetition","SN","SN181.bmp","forget","","60","3","prime1","left","","","",""
"html-keyboard-response","152","326587","0.0-4.0-1.0-3.11","0x0y6k8c48wm0pb","prime","5eced49f680aa62e1e265eee","5f60e3c0a3b16e07647b2ff9","5f60e9bda7772600093b06ee","false","null","<div style=""align-items: center; display: flex; color: darkorange; font-size: 90px""><b>ø</b></div>","null","","","","forget_cue","","","","","","","","","","","","","","","",""
"html-keyboard-response","153","327290","0.0-4.0-1.0-0.12","0x0y6k8c48wm0pb","prime","5eced49f680aa62e1e265eee","5f60e3c0a3b16e07647b2ff9","5f60e9bda7772600093b06ee","false","null","<span style=""color: black; font-size: 48px"">M + N</span>","null","","","","resp_prompt","","","","","","","","","","","","","","","",""
"categorize-image","154","327811","0.0-4.0-1.0-1.12","0x0y6k8c48wm0pb","prime","5eced49f680aa62e1e265eee","5f60e3c0a3b16e07647b2ff9","5f60e9bda7772600093b06ee","true","515.7250000047497","./Stimuli/SelectedImages/LN/LN13.bmp","76","","","","test","true","M + N","76","switch","LN","LN13.bmp","forget","","61","3","prime1","right","","","",""
"html-keyboard-response","155","329818","0.0-4.0-1.0-3.12","0x0y6k8c48wm0pb","prime","5eced49f680aa62e1e265eee","5f60e3c0a3b16e07647b2ff9","5f60e9bda7772600093b06ee","false","null","<div style=""align-items: center; display: flex; color: darkorange; font-size: 90px""><b>ø</b></div>","null","","","","forget_cue","","","","","","","","","","","","","","","",""
"html-keyboard-response","156","330521","0.0-4.0-1.0-0.13","0x0y6k8c48wm0pb","prime","5eced49f680aa62e1e265eee","5f60e3c0a3b16e07647b2ff9","5f60e9bda7772600093b06ee","false","null","<span style=""color: black; font-size: 48px"">N + M</span>","null","","","","resp_prompt","","","","","","","","","","","","","","","",""
"categorize-image","157","331043","0.0-4.0-1.0-1.13","0x0y6k8c48wm0pb","prime","5eced49f680aa62e1e265eee","5f60e3c0a3b16e07647b2ff9","5f60e9bda7772600093b06ee","true","516.6550000139978","./Stimuli/SelectedImages/LN/LN128.bmp","83","","","","test","true","N + M","83","repetition","LN","LN128.bmp","remember","","62","3","prime1","left","","","",""
"html-keyboard-response","158","333051","0.0-4.0-1.0-3.13","0x0y6k8c48wm0pb","prime","5eced49f680aa62e1e265eee","5f60e3c0a3b16e07647b2ff9","5f60e9bda7772600093b06ee","false","null","<div style=""align-items: center; display: flex; color: dodgerblue; font-size: 90px""><b>o</b></div>","null","","","","forget_cue","","","","","","","","","","","","","","","",""
"html-keyboard-response","159","333754","0.0-4.0-1.0-0.14","0x0y6k8c48wm0pb","prime","5eced49f680aa62e1e265eee","5f60e3c0a3b16e07647b2ff9","5f60e9bda7772600093b06ee","false","null","<span style=""color: black; font-size: 48px"">M + N</span>","null","","","","resp_prompt","","","","","","","","","","","","","","","",""
"categorize-image","160","334379","0.0-4.0-1.0-1.14","0x0y6k8c48wm0pb","prime","5eced49f680aa62e1e265eee","5f60e3c0a3b16e07647b2ff9","5f60e9bda7772600093b06ee","true","621.3799999968614","./Stimuli/SelectedImages/SN/SN179.bmp","76","","","","test","true","M + N","76","repetition","SN","SN179.bmp","forget","","63","3","prime1","right","","","",""
"html-keyboard-response","161","336386","0.0-4.0-1.0-3.14","0x0y6k8c48wm0pb","prime","5eced49f680aa62e1e265eee","5f60e3c0a3b16e07647b2ff9","5f60e9bda7772600093b06ee","false","null","<div style=""align-items: center; display: flex; color: darkorange; font-size: 90px""><b>ø</b></div>","null","","","","forget_cue","","","","","","","","","","","","","","","",""
"html-keyboard-response","162","337087","0.0-4.0-1.0-0.15","0x0y6k8c48wm0pb","prime","5eced49f680aa62e1e265eee","5f60e3c0a3b16e07647b2ff9","5f60e9bda7772600093b06ee","false","null","<span style=""color: black; font-size: 48px"">M + N</span>","null","","","","resp_prompt","","","","","","","","","","","","","","","",""
"categorize-image","163","337643","0.0-4.0-1.0-1.15","0x0y6k8c48wm0pb","prime","5eced49f680aa62e1e265eee","5f60e3c0a3b16e07647b2ff9","5f60e9bda7772600093b06ee","true","551.7199999885634","./Stimuli/SelectedImages/SN/SN182.bmp","76","","","","test","true","M + N","76","switch","SN","SN182.bmp","forget","","64","3","prime1","right","","","",""
"html-keyboard-response","164","339650","0.0-4.0-1.0-3.15","0x0y6k8c48wm0pb","prime","5eced49f680aa62e1e265eee","5f60e3c0a3b16e07647b2ff9","5f60e9bda7772600093b06ee","false","null","<div style=""align-items: center; display: flex; color: darkorange; font-size: 90px""><b>ø</b></div>","null","","","","forget_cue","","","","","","","","","","","","","","","",""
"html-keyboard-response","165","340356","0.0-4.0-1.0-0.16","0x0y6k8c48wm0pb","prime","5eced49f680aa62e1e265eee","5f60e3c0a3b16e07647b2ff9","5f60e9bda7772600093b06ee","false","null","<span style=""color: black; font-size: 48px"">M + N</span>","null","","","","resp_prompt","","","","","","","","","","","","","","","",""
"categorize-image","166","340850","0.0-4.0-1.0-1.16","0x0y6k8c48wm0pb","prime","5eced49f680aa62e1e265eee","5f60e3c0a3b16e07647b2ff9","5f60e9bda7772600093b06ee","true","490.36500000511296","./Stimuli/SelectedImages/SN/SN52.bmp","76","","","","test","true","M + N","76","repetition","SN","SN52.bmp","remember","","65","3","prime1","right","","","",""
"html-keyboard-response","167","342855","0.0-4.0-1.0-3.16","0x0y6k8c48wm0pb","prime","5eced49f680aa62e1e265eee","5f60e3c0a3b16e07647b2ff9","5f60e9bda7772600093b06ee","false","null","<div style=""align-items: center; display: flex; color: dodgerblue; font-size: 90px""><b>o</b></div>","null","","","","forget_cue","","","","","","","","","","","","","","","",""
"html-keyboard-response","168","343556","0.0-4.0-1.0-0.17","0x0y6k8c48wm0pb","prime","5eced49f680aa62e1e265eee","5f60e3c0a3b16e07647b2ff9","5f60e9bda7772600093b06ee","false","null","<span style=""color: black; font-size: 48px"">M + N</span>","null","","","","resp_prompt","","","","","","","","","","","","","","","",""
"categorize-image","169","343963","0.0-4.0-1.0-1.17","0x0y6k8c48wm0pb","prime","5eced49f680aa62e1e265eee","5f60e3c0a3b16e07647b2ff9","5f60e9bda7772600093b06ee","true","403.25999999186024","./Stimuli/SelectedImages/SM/SM73.bmp","83","","","","test","true","M + N","83","switch","SM","SM73.bmp","remember","","66","3","prime1","left","","","",""
"html-keyboard-response","170","345966","0.0-4.0-1.0-3.17","0x0y6k8c48wm0pb","prime","5eced49f680aa62e1e265eee","5f60e3c0a3b16e07647b2ff9","5f60e9bda7772600093b06ee","false","null","<div style=""align-items: center; display: flex; color: dodgerblue; font-size: 90px""><b>o</b></div>","null","","","","forget_cue","","","","","","","","","","","","","","","",""
"html-keyboard-response","171","346670","0.0-4.0-1.0-0.18","0x0y6k8c48wm0pb","prime","5eced49f680aa62e1e265eee","5f60e3c0a3b16e07647b2ff9","5f60e9bda7772600093b06ee","false","null","<span style=""color: black; font-size: 48px"">N + M</span>","null","","","","resp_prompt","","","","","","","","","","","","","","","",""
"categorize-image","172","347498","0.0-4.0-1.0-1.18","0x0y6k8c48wm0pb","prime","5eced49f680aa62e1e265eee","5f60e3c0a3b16e07647b2ff9","5f60e9bda7772600093b06ee","true","823.8800000108313","./Stimuli/SelectedImages/SN/SN155.bmp","83","","","","test","true","N + M","83","switch","SN","SN155.bmp","remember","","67","3","prime1","left","","","",""
"html-keyboard-response","173","349507","0.0-4.0-1.0-3.18","0x0y6k8c48wm0pb","prime","5eced49f680aa62e1e265eee","5f60e3c0a3b16e07647b2ff9","5f60e9bda7772600093b06ee","false","null","<div style=""align-items: center; display: flex; color: dodgerblue; font-size: 90px""><b>o</b></div>","null","","","","forget_cue","","","","","","","","","","","","","","","",""
"html-keyboard-response","174","350214","0.0-4.0-1.0-0.19","0x0y6k8c48wm0pb","prime","5eced49f680aa62e1e265eee","5f60e3c0a3b16e07647b2ff9","5f60e9bda7772600093b06ee","false","null","<span style=""color: black; font-size: 48px"">N + M</span>","null","","","","resp_prompt","","","","","","","","","","","","","","","",""
"categorize-image","175","350787","0.0-4.0-1.0-1.19","0x0y6k8c48wm0pb","prime","5eced49f680aa62e1e265eee","5f60e3c0a3b16e07647b2ff9","5f60e9bda7772600093b06ee","true","568.9800000109244","./Stimuli/SelectedImages/LN/LN82.bmp","83","","","","test","true","N + M","83","repetition","LN","LN82.bmp","forget","","68","3","prime1","left","","","",""
"html-keyboard-response","176","352789","0.0-4.0-1.0-3.19","0x0y6k8c48wm0pb","prime","5eced49f680aa62e1e265eee","5f60e3c0a3b16e07647b2ff9","5f60e9bda7772600093b06ee","false","null","<div style=""align-items: center; display: flex; color: darkorange; font-size: 90px""><b>ø</b></div>","null","","","","forget_cue","","","","","","","","","","","","","","","",""
"html-keyboard-response","177","353491","0.0-4.0-1.0-0.20","0x0y6k8c48wm0pb","prime","5eced49f680aa62e1e265eee","5f60e3c0a3b16e07647b2ff9","5f60e9bda7772600093b06ee","false","null","<span style=""color: black; font-size: 48px"">N + M</span>","null","","","","resp_prompt","","","","","","","","","","","","","","","",""
"categorize-image","178","354082","0.0-4.0-1.0-1.20","0x0y6k8c48wm0pb","prime","5eced49f680aa62e1e265eee","5f60e3c0a3b16e07647b2ff9","5f60e9bda7772600093b06ee","true","587.3250000004191","./Stimuli/SelectedImages/LN/LN166.bmp","83","","","","test","true","N + M","83","switch","LN","LN166.bmp","forget","","69","3","prime1","left","","","",""
"html-keyboard-response","179","356096","0.0-4.0-1.0-3.20","0x0y6k8c48wm0pb","prime","5eced49f680aa62e1e265eee","5f60e3c0a3b16e07647b2ff9","5f60e9bda7772600093b06ee","false","null","<div style=""align-items: center; display: flex; color: darkorange; font-size: 90px""><b>ø</b></div>","null","","","","forget_cue","","","","","","","","","","","","","","","",""
"html-keyboard-response","180","356797","0.0-4.0-1.0-0.21","0x0y6k8c48wm0pb","prime","5eced49f680aa62e1e265eee","5f60e3c0a3b16e07647b2ff9","5f60e9bda7772600093b06ee","false","null","<span style=""color: black; font-size: 48px"">M + N</span>","null","","","","resp_prompt","","","","","","","","","","","","","","","",""
"categorize-image","181","357387","0.0-4.0-1.0-1.21","0x0y6k8c48wm0pb","prime","5eced49f680aa62e1e265eee","5f60e3c0a3b16e07647b2ff9","5f60e9bda7772600093b06ee","true","585.1449999900069","./Stimuli/SelectedImages/LM/LM150.bmp","83","","","","test","true","M + N","83","repetition","LM","LM150.bmp","remember","","70","3","prime1","left","","","",""
"html-keyboard-response","182","359402","0.0-4.0-1.0-3.21","0x0y6k8c48wm0pb","prime","5eced49f680aa62e1e265eee","5f60e3c0a3b16e07647b2ff9","5f60e9bda7772600093b06ee","false","null","<div style=""align-items: center; display: flex; color: dodgerblue; font-size: 90px""><b>o</b></div>","null","","","","forget_cue","","","","","","","","","","","","","","","",""
"html-keyboard-response","183","360107","0.0-4.0-1.0-0.22","0x0y6k8c48wm0pb","prime","5eced49f680aa62e1e265eee","5f60e3c0a3b16e07647b2ff9","5f60e9bda7772600093b06ee","false","null","<span style=""color: black; font-size: 48px"">M + N</span>","null","","","","resp_prompt","","","","","","","","","","","","","","","",""
"categorize-image","184","360659","0.0-4.0-1.0-1.22","0x0y6k8c48wm0pb","prime","5eced49f680aa62e1e265eee","5f60e3c0a3b16e07647b2ff9","5f60e9bda7772600093b06ee","true","547.3050000146031","./Stimuli/SelectedImages/LN/LN111.bmp","76","","","","test","true","M + N","76","switch","LN","LN111.bmp","forget","","71","3","prime1","right","","","",""
"html-keyboard-response","185","362664","0.0-4.0-1.0-3.22","0x0y6k8c48wm0pb","prime","5eced49f680aa62e1e265eee","5f60e3c0a3b16e07647b2ff9","5f60e9bda7772600093b06ee","false","null","<div style=""align-items: center; display: flex; color: darkorange; font-size: 90px""><b>ø</b></div>","null","","","","forget_cue","","","","","","","","","","","","","","","",""
"html-keyboard-response","186","363371","0.0-4.0-1.0-0.23","0x0y6k8c48wm0pb","prime","5eced49f680aa62e1e265eee","5f60e3c0a3b16e07647b2ff9","5f60e9bda7772600093b06ee","false","null","<span style=""color: black; font-size: 48px"">N + M</span>","null","","","","resp_prompt","","","","","","","","","","","","","","","",""
"categorize-image","187","363906","0.0-4.0-1.0-1.23","0x0y6k8c48wm0pb","prime","5eced49f680aa62e1e265eee","5f60e3c0a3b16e07647b2ff9","5f60e9bda7772600093b06ee","true","532.2050000249874","./Stimuli/SelectedImages/SM/SM207.bmp","76","","","","test","true","N + M","76","switch","SM","SM207.bmp","remember","","72","3","prime1","right","","","",""
"html-keyboard-response","188","365916","0.0-4.0-1.0-3.23","0x0y6k8c48wm0pb","prime","5eced49f680aa62e1e265eee","5f60e3c0a3b16e07647b2ff9","5f60e9bda7772600093b06ee","false","null","<div style=""align-items: center; display: flex; color: dodgerblue; font-size: 90px""><b>o</b></div>","null","","","","forget_cue","","","","","","","","","","","","","","","",""
"html-keyboard-response","189","366620","0.0-4.0-1.0-0.24","0x0y6k8c48wm0pb","prime","5eced49f680aa62e1e265eee","5f60e3c0a3b16e07647b2ff9","5f60e9bda7772600093b06ee","false","null","<span style=""color: black; font-size: 48px"">M + N</span>","null","","","","resp_prompt","","","","","","","","","","","","","","","",""
"categorize-image","190","367162","0.0-4.0-1.0-1.24","0x0y6k8c48wm0pb","prime","5eced49f680aa62e1e265eee","5f60e3c0a3b16e07647b2ff9","5f60e9bda7772600093b06ee","true","537.2250000073109","./Stimuli/SelectedImages/LM/LM57.bmp","83","","","","test","true","M + N","83","switch","LM","LM57.bmp","remember","","73","3","prime1","left","","","",""
"html-keyboard-response","191","369163","0.0-4.0-1.0-3.24","0x0y6k8c48wm0pb","prime","5eced49f680aa62e1e265eee","5f60e3c0a3b16e07647b2ff9","5f60e9bda7772600093b06ee","false","null","<div style=""align-items: center; display: flex; color: dodgerblue; font-size: 90px""><b>o</b></div>","null","","","","forget_cue","","","","","","","","","","","","","","","",""
"html-keyboard-response","192","369868","0.0-4.0-1.0-0.25","0x0y6k8c48wm0pb","prime","5eced49f680aa62e1e265eee","5f60e3c0a3b16e07647b2ff9","5f60e9bda7772600093b06ee","false","null","<span style=""color: black; font-size: 48px"">M + N</span>","null","","","","resp_prompt","","","","","","","","","","","","","","","",""
"categorize-image","193","370554","0.0-4.0-1.0-1.25","0x0y6k8c48wm0pb","prime","5eced49f680aa62e1e265eee","5f60e3c0a3b16e07647b2ff9","5f60e9bda7772600093b06ee","true","682.2199999878649","./Stimuli/SelectedImages/SN/SN27.bmp","76","","","","test","true","M + N","76","repetition","SN","SN27.bmp","remember","","74","3","prime1","right","","","",""
"html-keyboard-response","194","372560","0.0-4.0-1.0-3.25","0x0y6k8c48wm0pb","prime","5eced49f680aa62e1e265eee","5f60e3c0a3b16e07647b2ff9","5f60e9bda7772600093b06ee","false","null","<div style=""align-items: center; display: flex; color: dodgerblue; font-size: 90px""><b>o</b></div>","null","","","","forget_cue","","","","","","","","","","","","","","","",""
"html-keyboard-response","195","373269","0.0-4.0-1.0-0.26","0x0y6k8c48wm0pb","prime","5eced49f680aa62e1e265eee","5f60e3c0a3b16e07647b2ff9","5f60e9bda7772600093b06ee","false","null","<span style=""color: black; font-size: 48px"">N + M</span>","null","","","","resp_prompt","","","","","","","","","","","","","","","",""
"categorize-image","196","374011","0.0-4.0-1.0-1.26","0x0y6k8c48wm0pb","prime","5eced49f680aa62e1e265eee","5f60e3c0a3b16e07647b2ff9","5f60e9bda7772600093b06ee","true","737.2749999922235","./Stimuli/SelectedImages/SN/SN187.bmp","83","","","","test","true","N + M","83","switch","SN","SN187.bmp","forget","","75","3","prime1","left","","","",""
"html-keyboard-response","197","376014","0.0-4.0-1.0-3.26","0x0y6k8c48wm0pb","prime","5eced49f680aa62e1e265eee","5f60e3c0a3b16e07647b2ff9","5f60e9bda7772600093b06ee","false","null","<div style=""align-items: center; display: flex; color: darkorange; font-size: 90px""><b>ø</b></div>","null","","","","forget_cue","","","","","","","","","","","","","","","",""
"html-keyboard-response","198","376717","0.0-4.0-1.0-0.27","0x0y6k8c48wm0pb","prime","5eced49f680aa62e1e265eee","5f60e3c0a3b16e07647b2ff9","5f60e9bda7772600093b06ee","false","null","<span style=""color: black; font-size: 48px"">N + M</span>","null","","","","resp_prompt","","","","","","","","","","","","","","","",""
"categorize-image","199","377458","0.0-4.0-1.0-1.27","0x0y6k8c48wm0pb","prime","5eced49f680aa62e1e265eee","5f60e3c0a3b16e07647b2ff9","5f60e9bda7772600093b06ee","true","736.8700000224635","./Stimuli/SelectedImages/SM/SM128.bmp","76","","","","test","true","N + M","76","repetition","SM","SM128.bmp","remember","","76","3","prime1","right","","","",""
"html-keyboard-response","200","379465","0.0-4.0-1.0-3.27","0x0y6k8c48wm0pb","prime","5eced49f680aa62e1e265eee","5f60e3c0a3b16e07647b2ff9","5f60e9bda7772600093b06ee","false","null","<div style=""align-items: center; display: flex; color: dodgerblue; font-size: 90px""><b>o</b></div>","null","","","","forget_cue","","","","","","","","","","","","","","","",""
"html-keyboard-response","201","380170","0.0-4.0-1.0-0.28","0x0y6k8c48wm0pb","prime","5eced49f680aa62e1e265eee","5f60e3c0a3b16e07647b2ff9","5f60e9bda7772600093b06ee","false","null","<span style=""color: black; font-size: 48px"">N + M</span>","null","","","","resp_prompt","","","","","","","","","","","","","","","",""
"categorize-image","202","380826","0.0-4.0-1.0-1.28","0x0y6k8c48wm0pb","prime","5eced49f680aa62e1e265eee","5f60e3c0a3b16e07647b2ff9","5f60e9bda7772600093b06ee","true","652.3949999827892","./Stimuli/SelectedImages/LN/LN28.bmp","83","","","","test","true","N + M","83","switch","LN","LN28.bmp","remember","","77","3","prime1","left","","","",""
"html-keyboard-response","203","382834","0.0-4.0-1.0-3.28","0x0y6k8c48wm0pb","prime","5eced49f680aa62e1e265eee","5f60e3c0a3b16e07647b2ff9","5f60e9bda7772600093b06ee","false","null","<div style=""align-items: center; display: flex; color: dodgerblue; font-size: 90px""><b>o</b></div>","null","","","","forget_cue","","","","","","","","","","","","","","","",""
"html-keyboard-response","204","383541","0.0-4.0-1.0-0.29","0x0y6k8c48wm0pb","prime","5eced49f680aa62e1e265eee","5f60e3c0a3b16e07647b2ff9","5f60e9bda7772600093b06ee","false","null","<span style=""color: black; font-size: 48px"">M + N</span>","null","","","","resp_prompt","","","","","","","","","","","","","","","",""
"categorize-image","205","384474","0.0-4.0-1.0-1.29","0x0y6k8c48wm0pb","prime","5eced49f680aa62e1e265eee","5f60e3c0a3b16e07647b2ff9","5f60e9bda7772600093b06ee","true","928.9649999991525","./Stimuli/SelectedImages/SN/SN64.bmp","76","","","","test","true","M + N","76","switch","SN","SN64.bmp","remember","","78","3","prime1","right","","","",""
"html-keyboard-response","206","386483","0.0-4.0-1.0-3.29","0x0y6k8c48wm0pb","prime","5eced49f680aa62e1e265eee","5f60e3c0a3b16e07647b2ff9","5f60e9bda7772600093b06ee","false","null","<div style=""align-items: center; display: flex; color: dodgerblue; font-size: 90px""><b>o</b></div>","null","","","","forget_cue","","","","","","","","","","","","","","","",""
"html-keyboard-response","207","387185","0.0-4.0-1.0-0.30","0x0y6k8c48wm0pb","prime","5eced49f680aa62e1e265eee","5f60e3c0a3b16e07647b2ff9","5f60e9bda7772600093b06ee","false","null","<span style=""color: black; font-size: 48px"">N + M</span>","null","","","","resp_prompt","","","","","","","","","","","","","","","",""
"categorize-image","208","387810","0.0-4.0-1.0-1.30","0x0y6k8c48wm0pb","prime","5eced49f680aa62e1e265eee","5f60e3c0a3b16e07647b2ff9","5f60e9bda7772600093b06ee","true","621.1999999941327","./Stimuli/SelectedImages/LN/LN9.bmp","83","","","","test","true","N + M","83","switch","LN","LN9.bmp","forget","","79","3","prime1","left","","","",""
"html-keyboard-response","209","389824","0.0-4.0-1.0-3.30","0x0y6k8c48wm0pb","prime","5eced49f680aa62e1e265eee","5f60e3c0a3b16e07647b2ff9","5f60e9bda7772600093b06ee","false","null","<div style=""align-items: center; display: flex; color: darkorange; font-size: 90px""><b>ø</b></div>","null","","","","forget_cue","","","","","","","","","","","","","","","",""
"html-keyboard-response","210","390539","0.0-4.0-1.0-0.31","0x0y6k8c48wm0pb","prime","5eced49f680aa62e1e265eee","5f60e3c0a3b16e07647b2ff9","5f60e9bda7772600093b06ee","false","null","<span style=""color: black; font-size: 48px"">M + N</span>","null","","","","resp_prompt","","","","","","","","","","","","","","","",""
"categorize-image","211","391114","0.0-4.0-1.0-1.31","0x0y6k8c48wm0pb","prime","5eced49f680aa62e1e265eee","5f60e3c0a3b16e07647b2ff9","5f60e9bda7772600093b06ee","true","570.1750000007451","./Stimuli/SelectedImages/LM/LM103.bmp","83","","","","test","true","M + N","83","switch","LM","LM103.bmp","remember","","80","3","prime1","left","","","",""
"html-keyboard-response","212","393123","0.0-4.0-1.0-3.31","0x0y6k8c48wm0pb","prime","5eced49f680aa62e1e265eee","5f60e3c0a3b16e07647b2ff9","5f60e9bda7772600093b06ee","false","null","<div style=""align-items: center; display: flex; color: dodgerblue; font-size: 90px""><b>o</b></div>","null","","","","forget_cue","","","","","","","","","","","","","","","",""
"html-keyboard-response","213","393825","0.0-4.0-1.0-0.32","0x0y6k8c48wm0pb","prime","5eced49f680aa62e1e265eee","5f60e3c0a3b16e07647b2ff9","5f60e9bda7772600093b06ee","false","null","<span style=""color: black; font-size: 48px"">N + M</span>","null","","","","resp_prompt","","","","","","","","","","","","","","","",""
"categorize-image","214","394338","0.0-4.0-1.0-1.32","0x0y6k8c48wm0pb","prime","5eced49f680aa62e1e265eee","5f60e3c0a3b16e07647b2ff9","5f60e9bda7772600093b06ee","true","508.559999987483","./Stimuli/SelectedImages/LM/LM51.bmp","76","","","","test","true","N + M","76","repetition","LM","LM51.bmp","remember","","81","3","prime1","right","","","",""
"html-keyboard-response","215","396350","0.0-4.0-1.0-3.32","0x0y6k8c48wm0pb","prime","5eced49f680aa62e1e265eee","5f60e3c0a3b16e07647b2ff9","5f60e9bda7772600093b06ee","false","null","<div style=""align-items: center; display: flex; color: dodgerblue; font-size: 90px""><b>o</b></div>","null","","","","forget_cue","","","","","","","","","","","","","","","",""
"html-keyboard-response","216","397056","0.0-4.0-1.0-0.33","0x0y6k8c48wm0pb","prime","5eced49f680aa62e1e265eee","5f60e3c0a3b16e07647b2ff9","5f60e9bda7772600093b06ee","false","null","<span style=""color: black; font-size: 48px"">N + M</span>","null","","","","resp_prompt","","","","","","","","","","","","","","","",""
"categorize-image","217","397626","0.0-4.0-1.0-1.33","0x0y6k8c48wm0pb","prime","5eced49f680aa62e1e265eee","5f60e3c0a3b16e07647b2ff9","5f60e9bda7772600093b06ee","true","566.0100000095554","./Stimuli/SelectedImages/SN/SN111.bmp","83","","","","test","true","N + M","83","switch","SN","SN111.bmp","forget","","82","3","prime1","left","","","",""
"html-keyboard-response","218","399642","0.0-4.0-1.0-3.33","0x0y6k8c48wm0pb","prime","5eced49f680aa62e1e265eee","5f60e3c0a3b16e07647b2ff9","5f60e9bda7772600093b06ee","false","null","<div style=""align-items: center; display: flex; color: darkorange; font-size: 90px""><b>ø</b></div>","null","","","","forget_cue","","","","","","","","","","","","","","","",""
"html-keyboard-response","219","400345","0.0-4.0-1.0-0.34","0x0y6k8c48wm0pb","prime","5eced49f680aa62e1e265eee","5f60e3c0a3b16e07647b2ff9","5f60e9bda7772600093b06ee","false","null","<span style=""color: black; font-size: 48px"">N + M</span>","null","","","","resp_prompt","","","","","","","","","","","","","","","",""
"categorize-image","220","400954","0.0-4.0-1.0-1.34","0x0y6k8c48wm0pb","prime","5eced49f680aa62e1e265eee","5f60e3c0a3b16e07647b2ff9","5f60e9bda7772600093b06ee","true","604.2449999949895","./Stimuli/SelectedImages/LN/LN177.bmp","83","","","","test","true","N + M","83","switch","LN","LN177.bmp","remember","","83","3","prime1","left","","","",""
"html-keyboard-response","221","402958","0.0-4.0-1.0-3.34","0x0y6k8c48wm0pb","prime","5eced49f680aa62e1e265eee","5f60e3c0a3b16e07647b2ff9","5f60e9bda7772600093b06ee","false","null","<div style=""align-items: center; display: flex; color: dodgerblue; font-size: 90px""><b>o</b></div>","null","","","","forget_cue","","","","","","","","","","","","","","","",""
"html-keyboard-response","222","403664","0.0-4.0-1.0-0.35","0x0y6k8c48wm0pb","prime","5eced49f680aa62e1e265eee","5f60e3c0a3b16e07647b2ff9","5f60e9bda7772600093b06ee","false","null","<span style=""color: black; font-size: 48px"">N + M</span>","null","","","","resp_prompt","","","","","","","","","","","","","","","",""
"categorize-image","223","404354","0.0-4.0-1.0-1.35","0x0y6k8c48wm0pb","prime","5eced49f680aa62e1e265eee","5f60e3c0a3b16e07647b2ff9","5f60e9bda7772600093b06ee","true","686.6999999911059","./Stimuli/SelectedImages/LM/LM48.bmp","76","","","","test","true","N + M","76","repetition","LM","LM48.bmp","remember","","84","3","prime1","right","","","",""
"html-keyboard-response","224","406364","0.0-4.0-1.0-3.35","0x0y6k8c48wm0pb","prime","5eced49f680aa62e1e265eee","5f60e3c0a3b16e07647b2ff9","5f60e9bda7772600093b06ee","false","null","<div style=""align-items: center; display: flex; color: dodgerblue; font-size: 90px""><b>o</b></div>","null","","","","forget_cue","","","","","","","","","","","","","","","",""
"html-keyboard-response","225","407066","0.0-4.0-1.0-0.36","0x0y6k8c48wm0pb","prime","5eced49f680aa62e1e265eee","5f60e3c0a3b16e07647b2ff9","5f60e9bda7772600093b06ee","false","null","<span style=""color: black; font-size: 48px"">M + N</span>","null","","","","resp_prompt","","","","","","","","","","","","","","","",""
"categorize-image","226","407706","0.0-4.0-1.0-1.36","0x0y6k8c48wm0pb","prime","5eced49f680aa62e1e265eee","5f60e3c0a3b16e07647b2ff9","5f60e9bda7772600093b06ee","true","635.9249999804888","./Stimuli/SelectedImages/SM/SM195.bmp","83","","","","test","true","M + N","83","repetition","SM","SM195.bmp","forget","","85","3","prime1","left","","","",""
"html-keyboard-response","227","409709","0.0-4.0-1.0-3.36","0x0y6k8c48wm0pb","prime","5eced49f680aa62e1e265eee","5f60e3c0a3b16e07647b2ff9","5f60e9bda7772600093b06ee","false","null","<div style=""align-items: center; display: flex; color: darkorange; font-size: 90px""><b>ø</b></div>","null","","","","forget_cue","","","","","","","","","","","","","","","",""
"html-keyboard-response","228","410412","0.0-4.0-1.0-0.37","0x0y6k8c48wm0pb","prime","5eced49f680aa62e1e265eee","5f60e3c0a3b16e07647b2ff9","5f60e9bda7772600093b06ee","false","null","<span style=""color: black; font-size: 48px"">N + M</span>","null","","","","resp_prompt","","","","","","","","","","","","","","","",""
"categorize-image","229","411050","0.0-4.0-1.0-1.37","0x0y6k8c48wm0pb","prime","5eced49f680aa62e1e265eee","5f60e3c0a3b16e07647b2ff9","5f60e9bda7772600093b06ee","true","633.479999989504","./Stimuli/SelectedImages/LN/LN59.bmp","83","","","","test","true","N + M","83","repetition","LN","LN59.bmp","forget","","86","3","prime1","left","","","",""
"html-keyboard-response","230","413060","0.0-4.0-1.0-3.37","0x0y6k8c48wm0pb","prime","5eced49f680aa62e1e265eee","5f60e3c0a3b16e07647b2ff9","5f60e9bda7772600093b06ee","false","null","<div style=""align-items: center; display: flex; color: darkorange; font-size: 90px""><b>ø</b></div>","null","","","","forget_cue","","","","","","","","","","","","","","","",""
"html-keyboard-response","231","413771","0.0-4.0-1.0-0.38","0x0y6k8c48wm0pb","prime","5eced49f680aa62e1e265eee","5f60e3c0a3b16e07647b2ff9","5f60e9bda7772600093b06ee","false","null","<span style=""color: black; font-size: 48px"">M + N</span>","null","","","","resp_prompt","","","","","","","","","","","","","","","",""
"categorize-image","232","414353","0.0-4.0-1.0-1.38","0x0y6k8c48wm0pb","prime","5eced49f680aa62e1e265eee","5f60e3c0a3b16e07647b2ff9","5f60e9bda7772600093b06ee","true","578.4449999919161","./Stimuli/SelectedImages/LN/LN149.bmp","76","","","","test","true","M + N","76","switch","LN","LN149.bmp","remember","","87","3","prime1","right","","","",""
"html-keyboard-response","233","416363","0.0-4.0-1.0-3.38","0x0y6k8c48wm0pb","prime","5eced49f680aa62e1e265eee","5f60e3c0a3b16e07647b2ff9","5f60e9bda7772600093b06ee","false","null","<div style=""align-items: center; display: flex; color: dodgerblue; font-size: 90px""><b>o</b></div>","null","","","","forget_cue","","","","","","","","","","","","","","","",""
"html-keyboard-response","234","417064","0.0-4.0-1.0-0.39","0x0y6k8c48wm0pb","prime","5eced49f680aa62e1e265eee","5f60e3c0a3b16e07647b2ff9","5f60e9bda7772600093b06ee","false","null","<span style=""color: black; font-size: 48px"">N + M</span>","null","","","","resp_prompt","","","","","","","","","","","","","","","",""
"categorize-image","235","417602","0.0-4.0-1.0-1.39","0x0y6k8c48wm0pb","prime","5eced49f680aa62e1e265eee","5f60e3c0a3b16e07647b2ff9","5f60e9bda7772600093b06ee","true","533.1199999782257","./Stimuli/SelectedImages/LM/LM235.bmp","76","","","","test","true","N + M","76","switch","LM","LM235.bmp","forget","","88","3","prime1","right","","","",""
"html-keyboard-response","236","419605","0.0-4.0-1.0-3.39","0x0y6k8c48wm0pb","prime","5eced49f680aa62e1e265eee","5f60e3c0a3b16e07647b2ff9","5f60e9bda7772600093b06ee","false","null","<div style=""align-items: center; display: flex; color: darkorange; font-size: 90px""><b>ø</b></div>","null","","","","forget_cue","","","","","","","","","","","","","","","",""
"html-keyboard-response","237","420306","0.0-4.0-1.0-0.40","0x0y6k8c48wm0pb","prime","5eced49f680aa62e1e265eee","5f60e3c0a3b16e07647b2ff9","5f60e9bda7772600093b06ee","false","null","<span style=""color: black; font-size: 48px"">M + N</span>","null","","","","resp_prompt","","","","","","","","","","","","","","","",""
"categorize-image","238","420906","0.0-4.0-1.0-1.40","0x0y6k8c48wm0pb","prime","5eced49f680aa62e1e265eee","5f60e3c0a3b16e07647b2ff9","5f60e9bda7772600093b06ee","true","595.6799999985378","./Stimuli/SelectedImages/SM/SM213.bmp","83","","","","test","true","M + N","83","switch","SM","SM213.bmp","remember","","89","3","prime1","left","","","",""
"html-keyboard-response","239","422910","0.0-4.0-1.0-3.40","0x0y6k8c48wm0pb","prime","5eced49f680aa62e1e265eee","5f60e3c0a3b16e07647b2ff9","5f60e9bda7772600093b06ee","false","null","<div style=""align-items: center; display: flex; color: dodgerblue; font-size: 90px""><b>o</b></div>","null","","","","forget_cue","","","","","","","","","","","","","","","",""
"html-keyboard-response","240","423612","0.0-4.0-1.0-0.41","0x0y6k8c48wm0pb","prime","5eced49f680aa62e1e265eee","5f60e3c0a3b16e07647b2ff9","5f60e9bda7772600093b06ee","false","null","<span style=""color: black; font-size: 48px"">N + M</span>","null","","","","resp_prompt","","","","","","","","","","","","","","","",""
"categorize-image","241","424290","0.0-4.0-1.0-1.41","0x0y6k8c48wm0pb","prime","5eced49f680aa62e1e265eee","5f60e3c0a3b16e07647b2ff9","5f60e9bda7772600093b06ee","true","674.0200000058394","./Stimuli/SelectedImages/LN/LN150.bmp","83","","","","test","true","N + M","83","repetition","LN","LN150.bmp","remember","","90","3","prime1","left","","","",""
"html-keyboard-response","242","426297","0.0-4.0-1.0-3.41","0x0y6k8c48wm0pb","prime","5eced49f680aa62e1e265eee","5f60e3c0a3b16e07647b2ff9","5f60e9bda7772600093b06ee","false","null","<div style=""align-items: center; display: flex; color: dodgerblue; font-size: 90px""><b>o</b></div>","null","","","","forget_cue","","","","","","","","","","","","","","","",""
"html-keyboard-response","243","426999","0.0-4.0-1.0-0.42","0x0y6k8c48wm0pb","prime","5eced49f680aa62e1e265eee","5f60e3c0a3b16e07647b2ff9","5f60e9bda7772600093b06ee","false","null","<span style=""color: black; font-size: 48px"">N + M</span>","null","","","","resp_prompt","","","","","","","","","","","","","","","",""
"categorize-image","244","427546","0.0-4.0-1.0-1.42","0x0y6k8c48wm0pb","prime","5eced49f680aa62e1e265eee","5f60e3c0a3b16e07647b2ff9","5f60e9bda7772600093b06ee","true","542.5749999994878","./Stimuli/SelectedImages/SN/SN140.bmp","83","","","","test","true","N + M","83","repetition","SN","SN140.bmp","remember","","91","3","prime1","left","","","",""
"html-keyboard-response","245","429551","0.0-4.0-1.0-3.42","0x0y6k8c48wm0pb","prime","5eced49f680aa62e1e265eee","5f60e3c0a3b16e07647b2ff9","5f60e9bda7772600093b06ee","false","null","<div style=""align-items: center; display: flex; color: dodgerblue; font-size: 90px""><b>o</b></div>","null","","","","forget_cue","","","","","","","","","","","","","","","",""
"html-keyboard-response","246","430255","0.0-4.0-1.0-0.43","0x0y6k8c48wm0pb","prime","5eced49f680aa62e1e265eee","5f60e3c0a3b16e07647b2ff9","5f60e9bda7772600093b06ee","false","null","<span style=""color: black; font-size: 48px"">M + N</span>","null","","","","resp_prompt","","","","","","","","","","","","","","","",""
"categorize-image","247","430738","0.0-4.0-1.0-1.43","0x0y6k8c48wm0pb","prime","5eced49f680aa62e1e265eee","5f60e3c0a3b16e07647b2ff9","5f60e9bda7772600093b06ee","true","479.03499999665655","./Stimuli/SelectedImages/SM/SM76.bmp","83","","","","test","true","M + N","83","repetition","SM","SM76.bmp","remember","","92","3","prime1","left","","","",""
"html-keyboard-response","248","432751","0.0-4.0-1.0-3.43","0x0y6k8c48wm0pb","prime","5eced49f680aa62e1e265eee","5f60e3c0a3b16e07647b2ff9","5f60e9bda7772600093b06ee","false","null","<div style=""align-items: center; display: flex; color: dodgerblue; font-size: 90px""><b>o</b></div>","null","","","","forget_cue","","","","","","","","","","","","","","","",""
"html-keyboard-response","249","433453","0.0-4.0-1.0-0.44","0x0y6k8c48wm0pb","prime","5eced49f680aa62e1e265eee","5f60e3c0a3b16e07647b2ff9","5f60e9bda7772600093b06ee","false","null","<span style=""color: black; font-size: 48px"">N + M</span>","null","","","","resp_prompt","","","","","","","","","","","","","","","",""
"categorize-image","250","433994","0.0-4.0-1.0-1.44","0x0y6k8c48wm0pb","prime","5eced49f680aa62e1e265eee","5f60e3c0a3b16e07647b2ff9","5f60e9bda7772600093b06ee","true","536.8749999906868","./Stimuli/SelectedImages/SM/SM24.bmp","76","","","","test","true","N + M","76","repetition","SM","SM24.bmp","remember","","93","3","prime1","right","","","",""
"html-keyboard-response","251","435999","0.0-4.0-1.0-3.44","0x0y6k8c48wm0pb","prime","5eced49f680aa62e1e265eee","5f60e3c0a3b16e07647b2ff9","5f60e9bda7772600093b06ee","false","null","<div style=""align-items: center; display: flex; color: dodgerblue; font-size: 90px""><b>o</b></div>","null","","","","forget_cue","","","","","","","","","","","","","","","",""
"html-keyboard-response","252","436702","0.0-4.0-1.0-0.45","0x0y6k8c48wm0pb","prime","5eced49f680aa62e1e265eee","5f60e3c0a3b16e07647b2ff9","5f60e9bda7772600093b06ee","false","null","<span style=""color: black; font-size: 48px"">N + M</span>","null","","","","resp_prompt","","","","","","","","","","","","","","","",""
