"trial_type","trial_index","time_elapsed","internal_node_id","subject","exp_part","prolific_PID","study_ID","session_ID","use","rt","stimulus","key_press","button_pressed","responses","question_order","trial_part","correct","resp_map","correct_resp","probe_condition","category","image","forget_condition","list","trial_num","block_num","block","response","test_part","n_span","sequence","num_spaces"
"pavlovia","0","6","0.0-0.0","616tk7lzmm8wkvf","","5e60db57fdef8001c1fdc6f7","5f60e3c0a3b16e07647b2ff9","5f646a5a69e0d70267e6a974","false","","","","","","","","","","","","","","","","","","","","","","",""
"html-keyboard-response","1","49120","0.0-1.0-0.0-0.0","616tk7lzmm8wkvf","welcome","5e60db57fdef8001c1fdc6f7","5f60e3c0a3b16e07647b2ff9","5f646a5a69e0d70267e6a974","false","49112.08499999999","<div align=left>Dear participant, <br> thank you for participating in an online study of the Cognition, Action, and Sustainability Unit of the University of Freiburg! <br> <br>The aim of this study is to examine our ability to remember previously learned information. <br>Our goal is to find out, whether our memory improves, when we only remember information that is relevant to us. <br>The experiment will take about 35 minutes to complete. <br> <br>Please, note that you can only participate in this study if you are using a device with a keyboard (PC, Laptop etc.) <br>and not if you are using a mobile device such as a tablet or smartphone.<br> <br>Press 'SPACE' to proceed to the experiment. </div>","32","","","","","","","","","","","","","","","","","","","",""
"html-keyboard-response","2","53189","0.0-1.0-0.0-1.0","616tk7lzmm8wkvf","welcome","5e60db57fdef8001c1fdc6f7","5f60e3c0a3b16e07647b2ff9","5f646a5a69e0d70267e6a974","false","4067.2800000000134","<div align=left><strong> Time Course of this experiment: </strong> <br><br> <strong> 1.</strong>  First, please fill in some information regarding your demographic data. <br><br> <strong> 2.</strong>  Next, your task will be to classify everyday objects. <br>In addition, you will be asked to remember certain objects and recall them later. <br>Working on these tasks requires your undivided attention and concentration.<br>It is therefore essential that you eliminate any sources of distraction in your  <br>environment and ensure that you will not be disturbed. <br><br><strong> 3.</strong>  At the end of the experiment, you will be asked to answer a few additional questions. <br> <br><strong> Important:</strong> After finishing the experiment, only close the browser window <br> by clicking on the 'end the experiment'-button when you are asked to do so. <br>Closing the browser window prematurely will make the allocation of your participation credit impossible. <br><br> Press 'SPACE' to start the experiment. </div>","32","","","","","","","","","","","","","","","","","","","",""
"html-button-response","3","55745","0.0-1.0-0.0-2.0","616tk7lzmm8wkvf","welcome","5e60db57fdef8001c1fdc6f7","5f60e3c0a3b16e07647b2ff9","5f646a5a69e0d70267e6a974","true","2554.469999999972","<div align=left><strong> Informed consent </strong>  <br>The aim of our research is to better understand human behavior and mental processes. <br>In the following study your behavior (e.g. choices, reaction times) will be studied. <br> <br><strong> Voluntariness and Anonymity </strong> <br>Your participation in this study is  <strong> voluntary</strong>.<br>You may withdraw your consent to participate at any time without providing a reason for doing so and without fear of prejudice. <br><br>As no personal data will be collected, <strong>your data and your person cannot be connected after data collection</strong> – the data-set is anonymous. <br>Respectively, deletion of your data will not be possible after data collection has been completed, as we cannot retrace your data-set.<br>The results and anonymized data collected in this study will be published as a scientific publication. <br>This will happen in an <strong>anonymized format</strong>, so that no data can be traced back to a specific person. <br> <br>The anonymized data of this study will be made available to other researchers and/or in a data archive on the Internet as a means of transparency and to enable subsequent re-use. By doing so, this study follows the recommendations of the Deutsche Forschungsgemeinschaft (DFG, German Research Foundation) and Deutsche Gesellschaft für Psychologie (DGPS, German Psychological Society) regarding quality assurance in research.<br>If you have any questions now or after the experiment, please contact our team (experiments@cs.uni-freiburg.de).<br><br><br>I hereby declare, that I understand the above described conditions of participation and I agree to participate under these conditions. <br><br> </div>","","0","","","","","","","","","","","","","","","","","","",""
"html-keyboard-response","4","65189","0.0-1.0-0.0-3.0","616tk7lzmm8wkvf","welcome","5e60db57fdef8001c1fdc6f7","5f60e3c0a3b16e07647b2ff9","5f646a5a69e0d70267e6a974","false","9442.809999999998","<div align=left><strong> General information concerning the experiment </strong>  <br> <br>Please follow the instructions:<ol> <li><strong> Do not leave this tab (your browser window) during the experiment and do not reload this tab! </strong>  <br>If you do switch tabs/windows during the experiment (to check your mail or visit another website, for example), <br>the experiment will end automatically and you will <strong>not receive credit</strong> for your participation. <br>Repeated participation or resumption of the experiment is impossible.</li> <br><li>Please close all other programs for the duration of your participation. </li> <br><li>Please mute or turn off your phone and put it out of your reach. </li> <br><li>Please also take off any disturbing accessories (such as wristwatches, bracelets, etc.). </li> <br><li>If you have music playing in the background, please turn it off now. </li> <br></ol>Thank you! <br>Press 'SPACE' to continue. </div>","32","","","","","","","","","","","","","","","","","","","",""
"survey-text","5","67905","0.0-1.0-1.0-0.0","616tk7lzmm8wkvf","demographics","5e60db57fdef8001c1fdc6f7","5f60e3c0a3b16e07647b2ff9","5f646a5a69e0d70267e6a974","true","2710.9850000000297","","","","{""age"":""25""}","","","","","","","","","","","","","","","","","",""
"survey-multi-choice","6","79297","0.0-1.0-1.0-1.0","616tk7lzmm8wkvf","demographics","5e60db57fdef8001c1fdc6f7","5f60e3c0a3b16e07647b2ff9","5f646a5a69e0d70267e6a974","true","11390.195000000007","","","","{""gender"":""female"",""school"":""high school"",""education"":""High school graduate, diploma or equivalent""}","[0,1,2]","","","","","","","","","","","","","","","","",""
"html-keyboard-response","7","98525","0.0-1.0-2.0","616tk7lzmm8wkvf","instructions","5e60db57fdef8001c1fdc6f7","5f60e3c0a3b16e07647b2ff9","5f646a5a69e0d70267e6a974","false","19226.67499999999","<div align=left> The experiment is now about to start: <br> <br>In the following part, you will be presented pictures of everyday objects. <br>Your first task is to <strong>classify these objects. </strong> <br> <br> You will classify them either as mechanical or non-mechanical objects. <br> <br>Objects that include any kind of technical mechanism (for example, wheels, switches, levers, <br> electronic components) fall under the category of <strong>mechanical</strong> objects. <br>Only objects without any kind of technical mechanism should be classified as <strong>non-mechanical</strong>. <br><br>Press 'SPACE' to continue. </div>","32","","","","","","","","","","","","","","","","","","","",""
"html-keyboard-response","8","116126","0.0-2.0-0.0","616tk7lzmm8wkvf","instructions","5e60db57fdef8001c1fdc6f7","5f60e3c0a3b16e07647b2ff9","5f646a5a69e0d70267e6a974","false","17598.97999999998","<div align=justify>You will classify the objects using the <strong>'S'</strong> and the <strong>'L'</strong> keys on your keyboard.<br>For doing so, please place your <strong>left index finger</strong> on the <strong>'S'</strong> key and place your <strong>right index finger</strong> on the <strong>'L'</strong> key. <br><br> Each trial starts with an instruction, indicating which key ('S'/'L') you need to press to classify <br>the object as mechanical (letter M) or non-mechanical (letter N).<br>The instruction <strong>M + N</strong> indicates that, in the current trial, by pressing the left key ('S') you classify the displayed object as mechanical (M) <br> and by pressing the right key ('L') you classify the object as non-mechanical (N). <br>The instruction <strong>N + M</strong> on the other hand indicates that by pressing the left key ('S') you classify the displayed object as non-mechanical (N) <br> and by pressing the right key ('L') you classify the object as mechanical (M). <br><br>Please press the key corresponding to the correct classification as fast as possible as soon as the object is displayed and try to avoid making mistakes.<br>If you do not respond within a 2 second window, a corresponding feedback will be displayed and the next trial will start.<br> The experiment is divided into multiple blocks to give you the opportunity to take a break after each block. <br>First, you can now practice this task. <br><br>Please place your <strong>LEFT INDEX FINGER</strong> on the 'S' key and your <strong>RIGHT INDEX FINGER</strong> on the 'L' key now. <br><br>Press SPACE to continue.</div>","32","","","","","","","","","","","","","","","","","","","",""
"html-keyboard-response","9","123414","0.0-2.0-1.0","616tk7lzmm8wkvf","instructions","5e60db57fdef8001c1fdc6f7","5f60e3c0a3b16e07647b2ff9","5f646a5a69e0d70267e6a974","false","7286.6050000000105","<div align=left> You will now have time to practice this task.<br><br>Remember: <br> <br><li>Please place your index fingers on the <strong>'S'</strong> and <strong>'L'</strong> keys <br>to respond as fast and accurately as possible.</li><li>Every picture can be classified as either mechanical or non-mechanical.</li><li>If you do not respond in time or commit an error, you will receive a corresponding feedback. </li><li> Please try to respond as <strong> fast </strong> and as <strong> accurately as possible </strong> .<br><li>To ensure optimal results, please minimize distractions and stay focused. </li><br><br>Press SPACE to continue.</div>","32","","","","","","","","","","","","","","","","","","","",""
"html-keyboard-response","10","124122","0.0-2.0-2.0-0.0","616tk7lzmm8wkvf","practice_no_cue","5e60db57fdef8001c1fdc6f7","5f60e3c0a3b16e07647b2ff9","5f646a5a69e0d70267e6a974","false","null","<span style=""color: black; font-size: 48px"">M + N</span>","null","","","","resp_prompt","","","","","","","","","","","","","","","",""
"categorize-image","11","126637","0.0-2.0-2.0-1.0","616tk7lzmm8wkvf","practice_no_cue","5e60db57fdef8001c1fdc6f7","5f60e3c0a3b16e07647b2ff9","5f646a5a69e0d70267e6a974","true","null","./Stimuli/ImagesPractice/SM62.jpg","null","","","","test","false","M + N","83","","SM","SM62.jpg","remember","old","1","1","start","too_slow","","","",""
"html-keyboard-response","12","127352","0.0-2.0-2.0-0.1","616tk7lzmm8wkvf","practice_no_cue","5e60db57fdef8001c1fdc6f7","5f60e3c0a3b16e07647b2ff9","5f646a5a69e0d70267e6a974","false","null","<span style=""color: black; font-size: 48px"">N + M</span>","null","","","","resp_prompt","","","","","","","","","","","","","","","",""
"categorize-image","13","129176","0.0-2.0-2.0-1.1","616tk7lzmm8wkvf","practice_no_cue","5e60db57fdef8001c1fdc6f7","5f60e3c0a3b16e07647b2ff9","5f646a5a69e0d70267e6a974","true","1307.8399999999965","./Stimuli/ImagesPractice/LM239.jpg","76","","","","test","true","N + M","76","","LM","LM239.jpg","forget","old","2","1","start","right","","","",""
"html-keyboard-response","14","129888","0.0-2.0-2.0-0.2","616tk7lzmm8wkvf","practice_no_cue","5e60db57fdef8001c1fdc6f7","5f60e3c0a3b16e07647b2ff9","5f646a5a69e0d70267e6a974","false","null","<span style=""color: black; font-size: 48px"">M + N</span>","null","","","","resp_prompt","","","","","","","","","","","","","","","",""
"categorize-image","15","131271","0.0-2.0-2.0-1.2","616tk7lzmm8wkvf","practice_no_cue","5e60db57fdef8001c1fdc6f7","5f60e3c0a3b16e07647b2ff9","5f646a5a69e0d70267e6a974","true","875.4850000000442","./Stimuli/ImagesPractice/SM35.jpg","76","","","","test","false","M + N","83","","SM","SM35.jpg","forget","old","3","1","start","right","","","",""
"html-keyboard-response","16","131973","0.0-2.0-2.0-0.3","616tk7lzmm8wkvf","practice_no_cue","5e60db57fdef8001c1fdc6f7","5f60e3c0a3b16e07647b2ff9","5f646a5a69e0d70267e6a974","false","null","<span style=""color: black; font-size: 48px"">M + N</span>","null","","","","resp_prompt","","","","","","","","","","","","","","","",""
"categorize-image","17","133099","0.0-2.0-2.0-1.3","616tk7lzmm8wkvf","practice_no_cue","5e60db57fdef8001c1fdc6f7","5f60e3c0a3b16e07647b2ff9","5f646a5a69e0d70267e6a974","true","621.859999999986","./Stimuli/ImagesPractice/LM224.jpg","83","","","","test","true","M + N","83","","LM","LM224.jpg","remember","old","4","1","start","left","","","",""
"html-keyboard-response","18","133800","0.0-2.0-2.0-0.4","616tk7lzmm8wkvf","practice_no_cue","5e60db57fdef8001c1fdc6f7","5f60e3c0a3b16e07647b2ff9","5f646a5a69e0d70267e6a974","false","null","<span style=""color: black; font-size: 48px"">N + M</span>","null","","","","resp_prompt","","","","","","","","","","","","","","","",""
"categorize-image","19","135319","0.0-2.0-2.0-1.4","616tk7lzmm8wkvf","practice_no_cue","5e60db57fdef8001c1fdc6f7","5f60e3c0a3b16e07647b2ff9","5f646a5a69e0d70267e6a974","true","1003.734999999986","./Stimuli/ImagesPractice/LM143.jpg","76","","","","test","true","N + M","76","","LM","LM143.jpg","remember","old","5","1","start","right","","","",""
"html-keyboard-response","20","136021","0.0-2.0-2.0-0.5","616tk7lzmm8wkvf","practice_no_cue","5e60db57fdef8001c1fdc6f7","5f60e3c0a3b16e07647b2ff9","5f646a5a69e0d70267e6a974","false","null","<span style=""color: black; font-size: 48px"">N + M</span>","null","","","","resp_prompt","","","","","","","","","","","","","","","",""
"categorize-image","21","137324","0.0-2.0-2.0-1.5","616tk7lzmm8wkvf","practice_no_cue","5e60db57fdef8001c1fdc6f7","5f60e3c0a3b16e07647b2ff9","5f646a5a69e0d70267e6a974","true","791.5","./Stimuli/ImagesPractice/SN75.jpg","83","","","","test","true","N + M","83","","SN","SN75.jpg","forget","old","6","1","start","left","","","",""
"html-keyboard-response","22","138036","0.0-2.0-2.0-0.6","616tk7lzmm8wkvf","practice_no_cue","5e60db57fdef8001c1fdc6f7","5f60e3c0a3b16e07647b2ff9","5f646a5a69e0d70267e6a974","false","null","<span style=""color: black; font-size: 48px"">M + N</span>","null","","","","resp_prompt","","","","","","","","","","","","","","","",""
"categorize-image","23","139386","0.0-2.0-2.0-1.6","616tk7lzmm8wkvf","practice_no_cue","5e60db57fdef8001c1fdc6f7","5f60e3c0a3b16e07647b2ff9","5f646a5a69e0d70267e6a974","true","840.6150000000198","./Stimuli/ImagesPractice/SM98.jpg","83","","","","test","true","M + N","83","","SM","SM98.jpg","remember","old","7","1","start","left","","","",""
"html-keyboard-response","24","140088","0.0-2.0-2.0-0.7","616tk7lzmm8wkvf","practice_no_cue","5e60db57fdef8001c1fdc6f7","5f60e3c0a3b16e07647b2ff9","5f646a5a69e0d70267e6a974","false","null","<span style=""color: black; font-size: 48px"">N + M</span>","null","","","","resp_prompt","","","","","","","","","","","","","","","",""
"categorize-image","25","141496","0.0-2.0-2.0-1.7","616tk7lzmm8wkvf","practice_no_cue","5e60db57fdef8001c1fdc6f7","5f60e3c0a3b16e07647b2ff9","5f646a5a69e0d70267e6a974","true","892.2749999999942","./Stimuli/ImagesPractice/SM61.jpg","76","","","","test","true","N + M","76","","SM","SM61.jpg","forget","old","8","1","start","right","","","",""
"html-keyboard-response","26","142207","0.0-2.0-2.0-0.8","616tk7lzmm8wkvf","practice_no_cue","5e60db57fdef8001c1fdc6f7","5f60e3c0a3b16e07647b2ff9","5f646a5a69e0d70267e6a974","false","null","<span style=""color: black; font-size: 48px"">M + N</span>","null","","","","resp_prompt","","","","","","","","","","","","","","","",""
"categorize-image","27","143579","0.0-2.0-2.0-1.8","616tk7lzmm8wkvf","practice_no_cue","5e60db57fdef8001c1fdc6f7","5f60e3c0a3b16e07647b2ff9","5f646a5a69e0d70267e6a974","true","868.8050000000221","./Stimuli/ImagesPractice/LN4.jpg","76","","","","test","true","M + N","76","","LN","LN4.jpg","forget","old","9","1","start","right","","","",""
"html-keyboard-response","28","144293","0.0-2.0-2.0-0.9","616tk7lzmm8wkvf","practice_no_cue","5e60db57fdef8001c1fdc6f7","5f60e3c0a3b16e07647b2ff9","5f646a5a69e0d70267e6a974","false","null","<span style=""color: black; font-size: 48px"">M + N</span>","null","","","","resp_prompt","","","","","","","","","","","","","","","",""
"categorize-image","29","145488","0.0-2.0-2.0-1.9","616tk7lzmm8wkvf","practice_no_cue","5e60db57fdef8001c1fdc6f7","5f60e3c0a3b16e07647b2ff9","5f646a5a69e0d70267e6a974","true","678.8949999999895","./Stimuli/ImagesPractice/SN221.jpg","76","","","","test","true","M + N","76","","SN","SN221.jpg","forget","old","10","1","start","right","","","",""
"html-keyboard-response","30","146205","0.0-2.0-2.0-0.10","616tk7lzmm8wkvf","practice_no_cue","5e60db57fdef8001c1fdc6f7","5f60e3c0a3b16e07647b2ff9","5f646a5a69e0d70267e6a974","false","null","<span style=""color: black; font-size: 48px"">M + N</span>","null","","","","resp_prompt","","","","","","","","","","","","","","","",""
"categorize-image","31","147372","0.0-2.0-2.0-1.10","616tk7lzmm8wkvf","practice_no_cue","5e60db57fdef8001c1fdc6f7","5f60e3c0a3b16e07647b2ff9","5f646a5a69e0d70267e6a974","true","663.4899999999907","./Stimuli/ImagesPractice/LM230.jpg","83","","","","test","true","M + N","83","","LM","LM230.jpg","remember","old","11","1","start","left","","","",""
"html-keyboard-response","32","148074","0.0-2.0-2.0-0.11","616tk7lzmm8wkvf","practice_no_cue","5e60db57fdef8001c1fdc6f7","5f60e3c0a3b16e07647b2ff9","5f646a5a69e0d70267e6a974","false","null","<span style=""color: black; font-size: 48px"">N + M</span>","null","","","","resp_prompt","","","","","","","","","","","","","","","",""
"categorize-image","33","149351","0.0-2.0-2.0-1.11","616tk7lzmm8wkvf","practice_no_cue","5e60db57fdef8001c1fdc6f7","5f60e3c0a3b16e07647b2ff9","5f646a5a69e0d70267e6a974","true","770.5099999999802","./Stimuli/ImagesPractice/SN76.jpg","83","","","","test","true","N + M","83","","SN","SN76.jpg","remember","old","12","1","start","left","","","",""
"html-keyboard-response","34","150064","0.0-2.0-2.0-0.12","616tk7lzmm8wkvf","practice_no_cue","5e60db57fdef8001c1fdc6f7","5f60e3c0a3b16e07647b2ff9","5f646a5a69e0d70267e6a974","false","null","<span style=""color: black; font-size: 48px"">N + M</span>","null","","","","resp_prompt","","","","","","","","","","","","","","","",""
"categorize-image","35","151308","0.0-2.0-2.0-1.12","616tk7lzmm8wkvf","practice_no_cue","5e60db57fdef8001c1fdc6f7","5f60e3c0a3b16e07647b2ff9","5f646a5a69e0d70267e6a974","true","739.835000000021","./Stimuli/ImagesPractice/LN109.jpg","76","","","","test","false","N + M","83","","LN","LN109.jpg","remember","old","13","1","start","right","","","",""
"html-keyboard-response","36","152023","0.0-2.0-2.0-0.13","616tk7lzmm8wkvf","practice_no_cue","5e60db57fdef8001c1fdc6f7","5f60e3c0a3b16e07647b2ff9","5f646a5a69e0d70267e6a974","false","null","<span style=""color: black; font-size: 48px"">M + N</span>","null","","","","resp_prompt","","","","","","","","","","","","","","","",""
"categorize-image","37","153217","0.0-2.0-2.0-1.13","616tk7lzmm8wkvf","practice_no_cue","5e60db57fdef8001c1fdc6f7","5f60e3c0a3b16e07647b2ff9","5f646a5a69e0d70267e6a974","true","685.0299999999988","./Stimuli/ImagesPractice/LN15.jpg","76","","","","test","true","M + N","76","","LN","LN15.jpg","forget","old","14","1","start","right","","","",""
"html-keyboard-response","38","153919","0.0-2.0-2.0-0.14","616tk7lzmm8wkvf","practice_no_cue","5e60db57fdef8001c1fdc6f7","5f60e3c0a3b16e07647b2ff9","5f646a5a69e0d70267e6a974","false","null","<span style=""color: black; font-size: 48px"">N + M</span>","null","","","","resp_prompt","","","","","","","","","","","","","","","",""
"categorize-image","39","155493","0.0-2.0-2.0-1.14","616tk7lzmm8wkvf","practice_no_cue","5e60db57fdef8001c1fdc6f7","5f60e3c0a3b16e07647b2ff9","5f646a5a69e0d70267e6a974","true","1060.594999999972","./Stimuli/ImagesPractice/LN2.jpg","83","","","","test","true","N + M","83","","LN","LN2.jpg","remember","old","15","1","start","left","","","",""
"html-keyboard-response","40","156199","0.0-2.0-2.0-0.15","616tk7lzmm8wkvf","practice_no_cue","5e60db57fdef8001c1fdc6f7","5f60e3c0a3b16e07647b2ff9","5f646a5a69e0d70267e6a974","false","null","<span style=""color: black; font-size: 48px"">N + M</span>","null","","","","resp_prompt","","","","","","","","","","","","","","","",""
"categorize-image","41","157370","0.0-2.0-2.0-1.15","616tk7lzmm8wkvf","practice_no_cue","5e60db57fdef8001c1fdc6f7","5f60e3c0a3b16e07647b2ff9","5f646a5a69e0d70267e6a974","true","661.2049999999872","./Stimuli/ImagesPractice/LN72.jpg","83","","","","test","true","N + M","83","","LN","LN72.jpg","forget","old","16","1","start","left","","","",""
"html-keyboard-response","42","161413","0.0-2.0-3.0","616tk7lzmm8wkvf","break","5e60db57fdef8001c1fdc6f7","5f60e3c0a3b16e07647b2ff9","5f646a5a69e0d70267e6a974","false","4041.7699999999895","<p style='font-size: 32px;'>Break</><br><br><br><br><br><p style='font-size: 24px;'>In the last block, you committed 2 errors and did not respond in time on 1 trials.
</p><p style='font-size: 24px;'>Try to respond as fast and accurately as possible in the next block as well! </p><p style='font-size: 24px;'>Press SPACE to continue.</p>","32","","","","","","","","","","","","","","","","","","","",""
"html-keyboard-response","43","164397","0.0-2.0-4.0","616tk7lzmm8wkvf","instructions","5e60db57fdef8001c1fdc6f7","5f60e3c0a3b16e07647b2ff9","5f646a5a69e0d70267e6a974","false","2982.6849999999977","<div align=left> Great!<br><br>Are you ready to continue?<br><br>If you want to reread the instructions and redo the practice trials, <br>please press „Z“. <br><br>Press SPACE to CONTINUE with the experiment when you are ready. </div>","32","","","","","","","","","","","","","","","","","","","",""
"html-keyboard-response","44","181230","0.0-3.0-0.0","616tk7lzmm8wkvf","instructions","5e60db57fdef8001c1fdc6f7","5f60e3c0a3b16e07647b2ff9","5f646a5a69e0d70267e6a974","false","16831.804999999993","<div align=left>Great!<br> <strong>Attention</strong>! You will now receive a second, additional task! <br><br>To this point it was you <strong>first task</strong> to correctly <strong>classify objects</strong>. <br><br>As mentioned in the beginning, we aim to examine how well humans can remember previously learned information.<br>We would like to find out whether our memory improves if we only remember information that is relevant to us. <br><br>Therefore, your <strong>second task</strong> will be to <strong>remember</strong> the pictures you are to categorize. <br> After the learning phase, there will be a memory test phase, in which you will be asked to indicate whether you have seen a picture before or not. <br>Some, but not all pictures shown in the learning phase will appear in the memory test phase.<br>After classifying a picture, you will be told whether you should remember it for the memory test phase or not. <br>Thus, some pictures can be forgotten, whereas others have to be remembered. <br><br>Note: From now on, feedback will only be displayed if you responded incorrectly or not in time.<br><br>Press SPACE to continue.</div>","32","","","","","","","","","","","","","","","","","","","",""
"html-keyboard-response","45","194918","0.0-3.0-1.0","616tk7lzmm8wkvf","instructions","5e60db57fdef8001c1fdc6f7","5f60e3c0a3b16e07647b2ff9","5f646a5a69e0d70267e6a974","false","13686.52999999994","<div align=left>In the following part, you will thus have to remember only some pictures. <br>Immediately after seeing and classifying the picture, a symbol will be displayed, indicating whether you should remember or forget the previous picture. <br><br>A <span style='color: dodgerblue; font-size: 28px'>O</span> indicates REMEMBER. That means, you have to remember this picture, because it will be tested later. <br><br>A <span style='color: darkorange; font-size:28px'>Ø</span> indicates FORGET. You do not have to remember this picture. <br><br> As you will have to remember a lot of pictures, it will be hard for you to remember all of them. <br>It will put you at an advantage if you instantly forget the pictures you are not asked to remember. <br> This will make it easier for you to remember the pictures that will be tested afterwards. <br><br>Press SPACE to continue.</div>","32","","","","","","","","","","","","","","","","","","","",""
"html-keyboard-response","46","196782","0.0-3.0-2.0","616tk7lzmm8wkvf","instructions","5e60db57fdef8001c1fdc6f7","5f60e3c0a3b16e07647b2ff9","5f646a5a69e0d70267e6a974","false","1862.5849999999627","<div align=left> Now you have the chance to practice both tasks together.<br><br>Remember: <br> <br><li>Please place your index fingers on the <strong>'S'</strong> and <strong>'L'</strong> keys <br>to respond as fast and accurately as possible.</li><li>Every picture can be classified as either mechanical or non-mechanical.</li><li>If you do not respond in time or commit an error, you will receive a corresponding feedback. <br>Please try to respond as <strong> fast </strong> and as <strong> accurately as possible </strong>.</li><li> Please remember only the to-be-remembered <span style='color: dodgerblue; font-size: 28px'>O</span> pictures. <br></li><li> Please minimize distractions and stay focused. </li><br><br>Press SPACE to START</div>","32","","","","","","","","","","","","","","","","","","","",""
"html-keyboard-response","47","197483","0.0-3.0-3.0-0.0","616tk7lzmm8wkvf","practice_cue","5e60db57fdef8001c1fdc6f7","5f60e3c0a3b16e07647b2ff9","5f646a5a69e0d70267e6a974","false","null","<span style=""color: black; font-size: 48px"">M + N</span>","null","","","","resp_prompt","","","","","","","","","","","","","","","",""
"categorize-image","48","198095","0.0-3.0-3.0-1.0","616tk7lzmm8wkvf","practice_cue","5e60db57fdef8001c1fdc6f7","5f60e3c0a3b16e07647b2ff9","5f646a5a69e0d70267e6a974","true","608.6149999999907","./Stimuli/ImagesPractice/SM98.jpg","83","","","","test","true","M + N","83","","SM","SM98.jpg","remember","old","17","2","practice_forget","left","","","",""
"html-keyboard-response","49","200110","0.0-3.0-3.0-3.0","616tk7lzmm8wkvf","practice_cue","5e60db57fdef8001c1fdc6f7","5f60e3c0a3b16e07647b2ff9","5f646a5a69e0d70267e6a974","false","null","<div style=""align-items: center; display: flex; color: dodgerblue; font-size: 90px""><b>o</b></div>","null","","","","forget_cue","","","","","","","","","","","","","","","",""
"html-keyboard-response","50","200811","0.0-3.0-3.0-0.1","616tk7lzmm8wkvf","practice_cue","5e60db57fdef8001c1fdc6f7","5f60e3c0a3b16e07647b2ff9","5f646a5a69e0d70267e6a974","false","null","<span style=""color: black; font-size: 48px"">M + N</span>","null","","","","resp_prompt","","","","","","","","","","","","","","","",""
"categorize-image","51","201425","0.0-3.0-3.0-1.1","616tk7lzmm8wkvf","practice_cue","5e60db57fdef8001c1fdc6f7","5f60e3c0a3b16e07647b2ff9","5f646a5a69e0d70267e6a974","true","611.1150000000489","./Stimuli/ImagesPractice/LM224.jpg","83","","","","test","true","M + N","83","","LM","LM224.jpg","remember","old","18","2","practice_forget","left","","","",""
"html-keyboard-response","52","203433","0.0-3.0-3.0-3.1","616tk7lzmm8wkvf","practice_cue","5e60db57fdef8001c1fdc6f7","5f60e3c0a3b16e07647b2ff9","5f646a5a69e0d70267e6a974","false","null","<div style=""align-items: center; display: flex; color: dodgerblue; font-size: 90px""><b>o</b></div>","null","","","","forget_cue","","","","","","","","","","","","","","","",""
"html-keyboard-response","53","204135","0.0-3.0-3.0-0.2","616tk7lzmm8wkvf","practice_cue","5e60db57fdef8001c1fdc6f7","5f60e3c0a3b16e07647b2ff9","5f646a5a69e0d70267e6a974","false","null","<span style=""color: black; font-size: 48px"">N + M</span>","null","","","","resp_prompt","","","","","","","","","","","","","","","",""
"categorize-image","54","204896","0.0-3.0-3.0-1.2","616tk7lzmm8wkvf","practice_cue","5e60db57fdef8001c1fdc6f7","5f60e3c0a3b16e07647b2ff9","5f646a5a69e0d70267e6a974","true","757.8650000000198","./Stimuli/ImagesPractice/LM239.jpg","76","","","","test","true","N + M","76","","LM","LM239.jpg","forget","old","19","2","practice_forget","right","","","",""
"html-keyboard-response","55","206908","0.0-3.0-3.0-3.2","616tk7lzmm8wkvf","practice_cue","5e60db57fdef8001c1fdc6f7","5f60e3c0a3b16e07647b2ff9","5f646a5a69e0d70267e6a974","false","null","<div style=""align-items: center; display: flex; color: darkorange; font-size: 90px""><b>ø</b></div>","null","","","","forget_cue","","","","","","","","","","","","","","","",""
"html-keyboard-response","56","207617","0.0-3.0-3.0-0.3","616tk7lzmm8wkvf","practice_cue","5e60db57fdef8001c1fdc6f7","5f60e3c0a3b16e07647b2ff9","5f646a5a69e0d70267e6a974","false","null","<span style=""color: black; font-size: 48px"">M + N</span>","null","","","","resp_prompt","","","","","","","","","","","","","","","",""
"categorize-image","57","208304","0.0-3.0-3.0-1.3","616tk7lzmm8wkvf","practice_cue","5e60db57fdef8001c1fdc6f7","5f60e3c0a3b16e07647b2ff9","5f646a5a69e0d70267e6a974","true","683.3100000000268","./Stimuli/ImagesPractice/LM230.jpg","83","","","","test","true","M + N","83","","LM","LM230.jpg","remember","old","20","2","practice_forget","left","","","",""
"html-keyboard-response","58","210307","0.0-3.0-3.0-3.3","616tk7lzmm8wkvf","practice_cue","5e60db57fdef8001c1fdc6f7","5f60e3c0a3b16e07647b2ff9","5f646a5a69e0d70267e6a974","false","null","<div style=""align-items: center; display: flex; color: dodgerblue; font-size: 90px""><b>o</b></div>","null","","","","forget_cue","","","","","","","","","","","","","","","",""
"html-keyboard-response","59","211020","0.0-3.0-3.0-0.4","616tk7lzmm8wkvf","practice_cue","5e60db57fdef8001c1fdc6f7","5f60e3c0a3b16e07647b2ff9","5f646a5a69e0d70267e6a974","false","null","<span style=""color: black; font-size: 48px"">N + M</span>","null","","","","resp_prompt","","","","","","","","","","","","","","","",""
"categorize-image","60","211743","0.0-3.0-3.0-1.4","616tk7lzmm8wkvf","practice_cue","5e60db57fdef8001c1fdc6f7","5f60e3c0a3b16e07647b2ff9","5f646a5a69e0d70267e6a974","true","720.3699999999953","./Stimuli/ImagesPractice/SN76.jpg","83","","","","test","true","N + M","83","","SN","SN76.jpg","remember","old","21","2","practice_forget","left","","","",""
"html-keyboard-response","61","213756","0.0-3.0-3.0-3.4","616tk7lzmm8wkvf","practice_cue","5e60db57fdef8001c1fdc6f7","5f60e3c0a3b16e07647b2ff9","5f646a5a69e0d70267e6a974","false","null","<div style=""align-items: center; display: flex; color: dodgerblue; font-size: 90px""><b>o</b></div>","null","","","","forget_cue","","","","","","","","","","","","","","","",""
"html-keyboard-response","62","214457","0.0-3.0-3.0-0.5","616tk7lzmm8wkvf","practice_cue","5e60db57fdef8001c1fdc6f7","5f60e3c0a3b16e07647b2ff9","5f646a5a69e0d70267e6a974","false","null","<span style=""color: black; font-size: 48px"">N + M</span>","null","","","","resp_prompt","","","","","","","","","","","","","","","",""
"categorize-image","63","215135","0.0-3.0-3.0-1.5","616tk7lzmm8wkvf","practice_cue","5e60db57fdef8001c1fdc6f7","5f60e3c0a3b16e07647b2ff9","5f646a5a69e0d70267e6a974","true","675.9249999999884","./Stimuli/ImagesPractice/SM61.jpg","76","","","","test","true","N + M","76","","SM","SM61.jpg","forget","old","22","2","practice_forget","right","","","",""
"html-keyboard-response","64","217138","0.0-3.0-3.0-3.5","616tk7lzmm8wkvf","practice_cue","5e60db57fdef8001c1fdc6f7","5f60e3c0a3b16e07647b2ff9","5f646a5a69e0d70267e6a974","false","null","<div style=""align-items: center; display: flex; color: darkorange; font-size: 90px""><b>ø</b></div>","null","","","","forget_cue","","","","","","","","","","","","","","","",""
"html-keyboard-response","65","217840","0.0-3.0-3.0-0.6","616tk7lzmm8wkvf","practice_cue","5e60db57fdef8001c1fdc6f7","5f60e3c0a3b16e07647b2ff9","5f646a5a69e0d70267e6a974","false","null","<span style=""color: black; font-size: 48px"">M + N</span>","null","","","","resp_prompt","","","","","","","","","","","","","","","",""
"categorize-image","66","218624","0.0-3.0-3.0-1.6","616tk7lzmm8wkvf","practice_cue","5e60db57fdef8001c1fdc6f7","5f60e3c0a3b16e07647b2ff9","5f646a5a69e0d70267e6a974","true","780.8699999999953","./Stimuli/ImagesPractice/SM62.jpg","83","","","","test","true","M + N","83","","SM","SM62.jpg","remember","old","23","2","practice_forget","left","","","",""
"html-keyboard-response","67","220627","0.0-3.0-3.0-3.6","616tk7lzmm8wkvf","practice_cue","5e60db57fdef8001c1fdc6f7","5f60e3c0a3b16e07647b2ff9","5f646a5a69e0d70267e6a974","false","null","<div style=""align-items: center; display: flex; color: dodgerblue; font-size: 90px""><b>o</b></div>","null","","","","forget_cue","","","","","","","","","","","","","","","",""
"html-keyboard-response","68","221338","0.0-3.0-3.0-0.7","616tk7lzmm8wkvf","practice_cue","5e60db57fdef8001c1fdc6f7","5f60e3c0a3b16e07647b2ff9","5f646a5a69e0d70267e6a974","false","null","<span style=""color: black; font-size: 48px"">N + M</span>","null","","","","resp_prompt","","","","","","","","","","","","","","","",""
"categorize-image","69","222120","0.0-3.0-3.0-1.7","616tk7lzmm8wkvf","practice_cue","5e60db57fdef8001c1fdc6f7","5f60e3c0a3b16e07647b2ff9","5f646a5a69e0d70267e6a974","true","778.2799999999988","./Stimuli/ImagesPractice/LN72.jpg","83","","","","test","true","N + M","83","","LN","LN72.jpg","forget","old","24","2","practice_forget","left","","","",""
"html-keyboard-response","70","224135","0.0-3.0-3.0-3.7","616tk7lzmm8wkvf","practice_cue","5e60db57fdef8001c1fdc6f7","5f60e3c0a3b16e07647b2ff9","5f646a5a69e0d70267e6a974","false","null","<div style=""align-items: center; display: flex; color: darkorange; font-size: 90px""><b>ø</b></div>","null","","","","forget_cue","","","","","","","","","","","","","","","",""
"html-keyboard-response","71","224847","0.0-3.0-3.0-0.8","616tk7lzmm8wkvf","practice_cue","5e60db57fdef8001c1fdc6f7","5f60e3c0a3b16e07647b2ff9","5f646a5a69e0d70267e6a974","false","null","<span style=""color: black; font-size: 48px"">N + M</span>","null","","","","resp_prompt","","","","","","","","","","","","","","","",""
"categorize-image","72","225527","0.0-3.0-3.0-1.8","616tk7lzmm8wkvf","practice_cue","5e60db57fdef8001c1fdc6f7","5f60e3c0a3b16e07647b2ff9","5f646a5a69e0d70267e6a974","true","677.4300000000221","./Stimuli/ImagesPractice/LM143.jpg","76","","","","test","true","N + M","76","","LM","LM143.jpg","remember","old","25","2","practice_forget","right","","","",""
"html-keyboard-response","73","227538","0.0-3.0-3.0-3.8","616tk7lzmm8wkvf","practice_cue","5e60db57fdef8001c1fdc6f7","5f60e3c0a3b16e07647b2ff9","5f646a5a69e0d70267e6a974","false","null","<div style=""align-items: center; display: flex; color: dodgerblue; font-size: 90px""><b>o</b></div>","null","","","","forget_cue","","","","","","","","","","","","","","","",""
"html-keyboard-response","74","228240","0.0-3.0-3.0-0.9","616tk7lzmm8wkvf","practice_cue","5e60db57fdef8001c1fdc6f7","5f60e3c0a3b16e07647b2ff9","5f646a5a69e0d70267e6a974","false","null","<span style=""color: black; font-size: 48px"">N + M</span>","null","","","","resp_prompt","","","","","","","","","","","","","","","",""
"categorize-image","75","228911","0.0-3.0-3.0-1.9","616tk7lzmm8wkvf","practice_cue","5e60db57fdef8001c1fdc6f7","5f60e3c0a3b16e07647b2ff9","5f646a5a69e0d70267e6a974","true","667.7950000000128","./Stimuli/ImagesPractice/LN2.jpg","83","","","","test","true","N + M","83","","LN","LN2.jpg","remember","old","26","2","practice_forget","left","","","",""
"html-keyboard-response","76","230915","0.0-3.0-3.0-3.9","616tk7lzmm8wkvf","practice_cue","5e60db57fdef8001c1fdc6f7","5f60e3c0a3b16e07647b2ff9","5f646a5a69e0d70267e6a974","false","null","<div style=""align-items: center; display: flex; color: dodgerblue; font-size: 90px""><b>o</b></div>","null","","","","forget_cue","","","","","","","","","","","","","","","",""
"html-keyboard-response","77","231630","0.0-3.0-3.0-0.10","616tk7lzmm8wkvf","practice_cue","5e60db57fdef8001c1fdc6f7","5f60e3c0a3b16e07647b2ff9","5f646a5a69e0d70267e6a974","false","null","<span style=""color: black; font-size: 48px"">N + M</span>","null","","","","resp_prompt","","","","","","","","","","","","","","","",""
"categorize-image","78","232391","0.0-3.0-3.0-1.10","616tk7lzmm8wkvf","practice_cue","5e60db57fdef8001c1fdc6f7","5f60e3c0a3b16e07647b2ff9","5f646a5a69e0d70267e6a974","true","757.9900000000198","./Stimuli/ImagesPractice/LN109.jpg","83","","","","test","true","N + M","83","","LN","LN109.jpg","remember","old","27","2","practice_forget","left","","","",""
"html-keyboard-response","79","234406","0.0-3.0-3.0-3.10","616tk7lzmm8wkvf","practice_cue","5e60db57fdef8001c1fdc6f7","5f60e3c0a3b16e07647b2ff9","5f646a5a69e0d70267e6a974","false","null","<div style=""align-items: center; display: flex; color: dodgerblue; font-size: 90px""><b>o</b></div>","null","","","","forget_cue","","","","","","","","","","","","","","","",""
"html-keyboard-response","80","235118","0.0-3.0-3.0-0.11","616tk7lzmm8wkvf","practice_cue","5e60db57fdef8001c1fdc6f7","5f60e3c0a3b16e07647b2ff9","5f646a5a69e0d70267e6a974","false","null","<span style=""color: black; font-size: 48px"">M + N</span>","null","","","","resp_prompt","","","","","","","","","","","","","","","",""
"categorize-image","81","235911","0.0-3.0-3.0-1.11","616tk7lzmm8wkvf","practice_cue","5e60db57fdef8001c1fdc6f7","5f60e3c0a3b16e07647b2ff9","5f646a5a69e0d70267e6a974","true","790.8499999999767","./Stimuli/ImagesPractice/SN221.jpg","76","","","","test","true","M + N","76","","SN","SN221.jpg","forget","old","28","2","practice_forget","right","","","",""
"html-keyboard-response","82","237913","0.0-3.0-3.0-3.11","616tk7lzmm8wkvf","practice_cue","5e60db57fdef8001c1fdc6f7","5f60e3c0a3b16e07647b2ff9","5f646a5a69e0d70267e6a974","false","null","<div style=""align-items: center; display: flex; color: darkorange; font-size: 90px""><b>ø</b></div>","null","","","","forget_cue","","","","","","","","","","","","","","","",""
"html-keyboard-response","83","238615","0.0-3.0-3.0-0.12","616tk7lzmm8wkvf","practice_cue","5e60db57fdef8001c1fdc6f7","5f60e3c0a3b16e07647b2ff9","5f646a5a69e0d70267e6a974","false","null","<span style=""color: black; font-size: 48px"">N + M</span>","null","","","","resp_prompt","","","","","","","","","","","","","","","",""
"categorize-image","84","239287","0.0-3.0-3.0-1.12","616tk7lzmm8wkvf","practice_cue","5e60db57fdef8001c1fdc6f7","5f60e3c0a3b16e07647b2ff9","5f646a5a69e0d70267e6a974","true","669.804999999993","./Stimuli/ImagesPractice/SN75.jpg","83","","","","test","true","N + M","83","","SN","SN75.jpg","forget","old","29","2","practice_forget","left","","","",""
"html-keyboard-response","85","241303","0.0-3.0-3.0-3.12","616tk7lzmm8wkvf","practice_cue","5e60db57fdef8001c1fdc6f7","5f60e3c0a3b16e07647b2ff9","5f646a5a69e0d70267e6a974","false","null","<div style=""align-items: center; display: flex; color: darkorange; font-size: 90px""><b>ø</b></div>","null","","","","forget_cue","","","","","","","","","","","","","","","",""
"html-keyboard-response","86","242004","0.0-3.0-3.0-0.13","616tk7lzmm8wkvf","practice_cue","5e60db57fdef8001c1fdc6f7","5f60e3c0a3b16e07647b2ff9","5f646a5a69e0d70267e6a974","false","null","<span style=""color: black; font-size: 48px"">M + N</span>","null","","","","resp_prompt","","","","","","","","","","","","","","","",""
"categorize-image","87","242687","0.0-3.0-3.0-1.13","616tk7lzmm8wkvf","practice_cue","5e60db57fdef8001c1fdc6f7","5f60e3c0a3b16e07647b2ff9","5f646a5a69e0d70267e6a974","true","680.1550000000279","./Stimuli/ImagesPractice/LN4.jpg","76","","","","test","true","M + N","76","","LN","LN4.jpg","forget","old","30","2","practice_forget","right","","","",""
"html-keyboard-response","88","244700","0.0-3.0-3.0-3.13","616tk7lzmm8wkvf","practice_cue","5e60db57fdef8001c1fdc6f7","5f60e3c0a3b16e07647b2ff9","5f646a5a69e0d70267e6a974","false","null","<div style=""align-items: center; display: flex; color: darkorange; font-size: 90px""><b>ø</b></div>","null","","","","forget_cue","","","","","","","","","","","","","","","",""
"html-keyboard-response","89","245411","0.0-3.0-3.0-0.14","616tk7lzmm8wkvf","practice_cue","5e60db57fdef8001c1fdc6f7","5f60e3c0a3b16e07647b2ff9","5f646a5a69e0d70267e6a974","false","null","<span style=""color: black; font-size: 48px"">M + N</span>","null","","","","resp_prompt","","","","","","","","","","","","","","","",""
"categorize-image","90","246120","0.0-3.0-3.0-1.14","616tk7lzmm8wkvf","practice_cue","5e60db57fdef8001c1fdc6f7","5f60e3c0a3b16e07647b2ff9","5f646a5a69e0d70267e6a974","true","705.7000000000407","./Stimuli/ImagesPractice/LN15.jpg","76","","","","test","true","M + N","76","","LN","LN15.jpg","forget","old","31","2","practice_forget","right","","","",""
"html-keyboard-response","91","248135","0.0-3.0-3.0-3.14","616tk7lzmm8wkvf","practice_cue","5e60db57fdef8001c1fdc6f7","5f60e3c0a3b16e07647b2ff9","5f646a5a69e0d70267e6a974","false","null","<div style=""align-items: center; display: flex; color: darkorange; font-size: 90px""><b>ø</b></div>","null","","","","forget_cue","","","","","","","","","","","","","","","",""
"html-keyboard-response","92","248836","0.0-3.0-3.0-0.15","616tk7lzmm8wkvf","practice_cue","5e60db57fdef8001c1fdc6f7","5f60e3c0a3b16e07647b2ff9","5f646a5a69e0d70267e6a974","false","null","<span style=""color: black; font-size: 48px"">M + N</span>","null","","","","resp_prompt","","","","","","","","","","","","","","","",""
"categorize-image","93","250080","0.0-3.0-3.0-1.15","616tk7lzmm8wkvf","practice_cue","5e60db57fdef8001c1fdc6f7","5f60e3c0a3b16e07647b2ff9","5f646a5a69e0d70267e6a974","true","1240.554999999964","./Stimuli/ImagesPractice/SM35.jpg","83","","","","test","true","M + N","83","","SM","SM35.jpg","forget","old","32","2","practice_forget","left","","","",""
"html-keyboard-response","94","252085","0.0-3.0-3.0-3.15","616tk7lzmm8wkvf","practice_cue","5e60db57fdef8001c1fdc6f7","5f60e3c0a3b16e07647b2ff9","5f646a5a69e0d70267e6a974","false","null","<div style=""align-items: center; display: flex; color: darkorange; font-size: 90px""><b>ø</b></div>","null","","","","forget_cue","","","","","","","","","","","","","","","",""
"html-keyboard-response","95","259478","0.0-3.0-4.0","616tk7lzmm8wkvf","break","5e60db57fdef8001c1fdc6f7","5f60e3c0a3b16e07647b2ff9","5f646a5a69e0d70267e6a974","false","7390.895000000019","<p style='font-size: 32px;'>Break</><br><br><br><br><br><p style='font-size: 24px;'>In the last block, you committed 0 errors and did not respond in time on 0 trials.
</p><p style='font-size: 24px;'>Try to respond as fast and accurately as possible in the next block as well! </p><p style='font-size: 24px;'>Press SPACE to continue.</p>","32","","","","","","","","","","","","","","","","","","","",""
"html-keyboard-response","96","272038","0.0-3.0-5.0","616tk7lzmm8wkvf","instructions","5e60db57fdef8001c1fdc6f7","5f60e3c0a3b16e07647b2ff9","5f646a5a69e0d70267e6a974","false","12559.145000000019","<div align=left> Now, to practice, we kindly ask you to remember as many of the to-be-remembered pictures<br>of the previous learning phase as possible.<br><br>The pictures you were instructed to remember were the pictures followed by a <span style='color: dodgerblue; font-size: 28px'>O</span>.<br><br>In this memory test phase, you will also see some new pictures.<br>It is your task to remember whether you were presented with this specific picture in this study so far or not.<br>If you recognize an object (you have already seen it in this study), it is an OLD object. <br>If you do not recognize an object (you have NOT seen it in this study), it is a NEW object. <br><strong> Attention</strong>: As already mentioned, <span style='color: darkorange; font-size:28px'>Ø</span>-pictures will <strong>never</strong> appear in this memory test (neither as new objects). <br><br>Press SPACE to continue. </div>","32","","","","","","","","","","","","","","","","","","","",""
"html-keyboard-response","97","288166","0.0-3.0-6.0","616tk7lzmm8wkvf","instructions","5e60db57fdef8001c1fdc6f7","5f60e3c0a3b16e07647b2ff9","5f646a5a69e0d70267e6a974","false","16127.294999999984","<div align=left> M and N no longer will appear on the left/right of the fixation cross. <br>Instead there will be a note at the bottom of the left or right side  <br>indicating which key you should press for an old or new object:  <br> <br>Press the <strong>right</strong> key to classify an object as <strong>old</strong> and press the <strong>left</strong>, to classify an object as <strong>new</strong>.<br>Please classify the objects as new/old by again placing your index finger on the 'S' and 'L' keys <br>and press them accordingly.<br><br><strong>Old:</strong> This object has been presented before. <br><strong>New:</strong> This object has <strong>not</strong> been presented.<br><br>Now please put your right and left index fingers on the 'S' and 'L' keys of your keyboard. <br>Please respond as fast and as accurately as possible!<br><br>Press SPACE to continue. </div>","32","","","","","","","","","","","","","","","","","","","",""
"categorize-image","98","290315","0.0-3.0-7.0-0.0","616tk7lzmm8wkvf","practice_recog","5e60db57fdef8001c1fdc6f7","5f60e3c0a3b16e07647b2ff9","5f646a5a69e0d70267e6a974","true","1637.8949999999604","./Stimuli/ImagesPractice/LN109.jpg","83","","","","test","false","","76","","LN","LN109.jpg","","old","33","3","practice_recog","left","","","",""
"categorize-image","99","291774","0.0-3.0-7.0-0.1","616tk7lzmm8wkvf","practice_recog","5e60db57fdef8001c1fdc6f7","5f60e3c0a3b16e07647b2ff9","5f646a5a69e0d70267e6a974","true","945.2000000000116","./Stimuli/ImagesPractice/LM230.jpg","76","","","","test","true","","76","","LM","LM230.jpg","","old","34","3","practice_recog","right","","","",""
"categorize-image","100","293105","0.0-3.0-7.0-0.2","616tk7lzmm8wkvf","practice_recog","5e60db57fdef8001c1fdc6f7","5f60e3c0a3b16e07647b2ff9","5f646a5a69e0d70267e6a974","true","814.085000000021","./Stimuli/ImagesPractice/SM37.jpg","83","","","","test","true","","83","","SM","SM37.jpg","","new","35","3","practice_recog","left","","","",""
"categorize-image","101","294333","0.0-3.0-7.0-0.3","616tk7lzmm8wkvf","practice_recog","5e60db57fdef8001c1fdc6f7","5f60e3c0a3b16e07647b2ff9","5f646a5a69e0d70267e6a974","true","715.0300000000279","./Stimuli/ImagesPractice/SN205.jpg","83","","","","test","true","","83","","SN","SN205.jpg","","new","36","3","practice_recog","left","","","",""
"categorize-image","102","295528","0.0-3.0-7.0-0.4","616tk7lzmm8wkvf","practice_recog","5e60db57fdef8001c1fdc6f7","5f60e3c0a3b16e07647b2ff9","5f646a5a69e0d70267e6a974","true","687.640000000014","./Stimuli/ImagesPractice/SM97.jpg","83","","","","test","true","","83","","SM","SM97.jpg","","new","37","3","practice_recog","left","","","",""
"categorize-image","103","296830","0.0-3.0-7.0-0.5","616tk7lzmm8wkvf","practice_recog","5e60db57fdef8001c1fdc6f7","5f60e3c0a3b16e07647b2ff9","5f646a5a69e0d70267e6a974","true","787.2600000000093","./Stimuli/ImagesPractice/LM147.jpg","83","","","","test","true","","83","","LM","LM147.jpg","","new","38","3","practice_recog","left","","","",""
"categorize-image","104","298087","0.0-3.0-7.0-0.6","616tk7lzmm8wkvf","practice_recog","5e60db57fdef8001c1fdc6f7","5f60e3c0a3b16e07647b2ff9","5f646a5a69e0d70267e6a974","true","750.1199999999953","./Stimuli/ImagesPractice/LN2.jpg","76","","","","test","true","","76","","LN","LN2.jpg","","old","39","3","practice_recog","right","","","",""
"categorize-image","105","299307","0.0-3.0-7.0-0.7","616tk7lzmm8wkvf","practice_recog","5e60db57fdef8001c1fdc6f7","5f60e3c0a3b16e07647b2ff9","5f646a5a69e0d70267e6a974","true","717.9799999999814","./Stimuli/ImagesPractice/LM55.jpg","83","","","","test","true","","83","","LM","LM55.jpg","","new","40","3","practice_recog","left","","","",""
"categorize-image","106","300520","0.0-3.0-7.0-0.8","616tk7lzmm8wkvf","practice_recog","5e60db57fdef8001c1fdc6f7","5f60e3c0a3b16e07647b2ff9","5f646a5a69e0d70267e6a974","true","705.4899999999907","./Stimuli/ImagesPractice/SM62.jpg","76","","","","test","true","","76","","SM","SM62.jpg","","old","41","3","practice_recog","right","","","",""
"categorize-image","107","301646","0.0-3.0-7.0-0.9","616tk7lzmm8wkvf","practice_recog","5e60db57fdef8001c1fdc6f7","5f60e3c0a3b16e07647b2ff9","5f646a5a69e0d70267e6a974","true","620.8800000000047","./Stimuli/ImagesPractice/SN220.jpg","83","","","","test","true","","83","","SN","SN220.jpg","","new","42","3","practice_recog","left","","","",""
"categorize-image","108","302796","0.0-3.0-7.0-0.10","616tk7lzmm8wkvf","practice_recog","5e60db57fdef8001c1fdc6f7","5f60e3c0a3b16e07647b2ff9","5f646a5a69e0d70267e6a974","true","646.6100000000442","./Stimuli/ImagesPractice/LN17.jpg","83","","","","test","true","","83","","LN","LN17.jpg","","new","43","3","practice_recog","left","","","",""
"categorize-image","109","303881","0.0-3.0-7.0-0.11","616tk7lzmm8wkvf","practice_recog","5e60db57fdef8001c1fdc6f7","5f60e3c0a3b16e07647b2ff9","5f646a5a69e0d70267e6a974","true","567.8850000000093","./Stimuli/ImagesPractice/LM143.jpg","76","","","","test","true","","76","","LM","LM143.jpg","","old","44","3","practice_recog","right","","","",""
"categorize-image","110","305000","0.0-3.0-7.0-0.12","616tk7lzmm8wkvf","practice_recog","5e60db57fdef8001c1fdc6f7","5f60e3c0a3b16e07647b2ff9","5f646a5a69e0d70267e6a974","true","603.1750000000466","./Stimuli/ImagesPractice/LM224.jpg","76","","","","test","true","","76","","LM","LM224.jpg","","old","45","3","practice_recog","right","","","",""
"categorize-image","111","306081","0.0-3.0-7.0-0.13","616tk7lzmm8wkvf","practice_recog","5e60db57fdef8001c1fdc6f7","5f60e3c0a3b16e07647b2ff9","5f646a5a69e0d70267e6a974","true","572.859999999986","./Stimuli/ImagesPractice/SM98.jpg","76","","","","test","true","","76","","SM","SM98.jpg","","old","46","3","practice_recog","right","","","",""
"categorize-image","112","307198","0.0-3.0-7.0-0.14","616tk7lzmm8wkvf","practice_recog","5e60db57fdef8001c1fdc6f7","5f60e3c0a3b16e07647b2ff9","5f646a5a69e0d70267e6a974","true","603.2750000000233","./Stimuli/ImagesPractice/SN76.jpg","76","","","","test","true","","76","","SN","SN76.jpg","","old","47","3","practice_recog","right","","","",""
"categorize-image","113","308221","0.0-3.0-7.0-0.15","616tk7lzmm8wkvf","practice_recog","5e60db57fdef8001c1fdc6f7","5f60e3c0a3b16e07647b2ff9","5f646a5a69e0d70267e6a974","true","510.5900000000256","./Stimuli/ImagesPractice/SN222.jpg","83","","","","test","true","","83","","SN","SN222.jpg","","new","48","3","practice_recog","left","","","",""
"html-keyboard-response","114","312815","0.0-3.0-8.0","616tk7lzmm8wkvf","instructions","5e60db57fdef8001c1fdc6f7","5f60e3c0a3b16e07647b2ff9","5f646a5a69e0d70267e6a974","false","4593.084999999963","<div align=left> Great!<br><br>Are you ready to continue?<br>If you want to reread the instructions and redo the practice trials, please <br>press „Z“.<br><br>You can proceed when you are ready.<br><br>After the presentation of each object, you will receive an instruction whether to <br>remember or to forget the object.<br>We will test your memory of the following pictures only at the very end of <br>the experiment after all learning blocks are completed. <br><br>Press SPACE to CONTINUE when you are ready. </div>","32","","","","","","","","","","","","","","","","","","","",""
"html-keyboard-response","115","317062","0.0-4.0-0.0","616tk7lzmm8wkvf","instructions","5e60db57fdef8001c1fdc6f7","5f60e3c0a3b16e07647b2ff9","5f646a5a69e0d70267e6a974","false","4246.565000000002","<div align=left> The actual experiment is about to start.<br>The practice trials are over!<br><br>Please always respond both fast and accurately!<br><br>Remember: <br> <br><li> Please place your index fingers on the <strong>'S'</strong> and <strong>'L'</strong> keys <br>to respond as fast and accurately as possible.</li><li> Every picture can be classified as either mechanical or non-mechanical.</li><li> If you do not respond in time or commit an error, you will receive a corresponding feedback.<br> Please try to respond as <strong> fast </strong> and as <strong> accurately as possible </strong>.</li><li> Remember the <span style='color: dodgerblue; font-size: 28px'>O</span> pictures. <br></li><li> Please minimize distractions and stay focused. </li><br><br>Press SPACE to START.</div>","32","","","","","","","","","","","","","","","","","","","",""
"html-keyboard-response","116","317773","0.0-4.0-1.0-0.0","616tk7lzmm8wkvf","prime","5e60db57fdef8001c1fdc6f7","5f60e3c0a3b16e07647b2ff9","5f646a5a69e0d70267e6a974","false","null","<span style=""color: black; font-size: 48px"">N + M</span>","null","","","","resp_prompt","","","","","","","","","","","","","","","",""
"categorize-image","117","318360","0.0-4.0-1.0-1.0","616tk7lzmm8wkvf","prime","5e60db57fdef8001c1fdc6f7","5f60e3c0a3b16e07647b2ff9","5f646a5a69e0d70267e6a974","true","583.8649999999907","./Stimuli/SelectedImages/LN/LN149.bmp","83","","","","test","true","N + M","83","repetition","LN","LN149.bmp","remember","","49","3","prime1","left","","","",""
"html-keyboard-response","118","320362","0.0-4.0-1.0-3.0","616tk7lzmm8wkvf","prime","5e60db57fdef8001c1fdc6f7","5f60e3c0a3b16e07647b2ff9","5f646a5a69e0d70267e6a974","false","null","<div style=""align-items: center; display: flex; color: dodgerblue; font-size: 90px""><b>o</b></div>","null","","","","forget_cue","","","","","","","","","","","","","","","",""
"html-keyboard-response","119","321064","0.0-4.0-1.0-0.1","616tk7lzmm8wkvf","prime","5e60db57fdef8001c1fdc6f7","5f60e3c0a3b16e07647b2ff9","5f646a5a69e0d70267e6a974","false","null","<span style=""color: black; font-size: 48px"">M + N</span>","null","","","","resp_prompt","","","","","","","","","","","","","","","",""
"categorize-image","120","322512","0.0-4.0-1.0-1.1","616tk7lzmm8wkvf","prime","5e60db57fdef8001c1fdc6f7","5f60e3c0a3b16e07647b2ff9","5f646a5a69e0d70267e6a974","true","1444.9850000000442","./Stimuli/SelectedImages/SM/SM17.bmp","83","","","","test","true","M + N","83","switch","SM","SM17.bmp","forget","","50","3","prime1","left","","","",""
"html-keyboard-response","121","324520","0.0-4.0-1.0-3.1","616tk7lzmm8wkvf","prime","5e60db57fdef8001c1fdc6f7","5f60e3c0a3b16e07647b2ff9","5f646a5a69e0d70267e6a974","false","null","<div style=""align-items: center; display: flex; color: darkorange; font-size: 90px""><b>ø</b></div>","null","","","","forget_cue","","","","","","","","","","","","","","","",""
"html-keyboard-response","122","325221","0.0-4.0-1.0-0.2","616tk7lzmm8wkvf","prime","5e60db57fdef8001c1fdc6f7","5f60e3c0a3b16e07647b2ff9","5f646a5a69e0d70267e6a974","false","null","<span style=""color: black; font-size: 48px"">N + M</span>","null","","","","resp_prompt","","","","","","","","","","","","","","","",""
"categorize-image","123","326096","0.0-4.0-1.0-1.2","616tk7lzmm8wkvf","prime","5e60db57fdef8001c1fdc6f7","5f60e3c0a3b16e07647b2ff9","5f646a5a69e0d70267e6a974","true","871.765000000014","./Stimuli/SelectedImages/LN/LN59.bmp","83","","","","test","true","N + M","83","switch","LN","LN59.bmp","remember","","51","3","prime1","left","","","",""
"html-keyboard-response","124","328108","0.0-4.0-1.0-3.2","616tk7lzmm8wkvf","prime","5e60db57fdef8001c1fdc6f7","5f60e3c0a3b16e07647b2ff9","5f646a5a69e0d70267e6a974","false","null","<div style=""align-items: center; display: flex; color: dodgerblue; font-size: 90px""><b>o</b></div>","null","","","","forget_cue","","","","","","","","","","","","","","","",""
"html-keyboard-response","125","328823","0.0-4.0-1.0-0.3","616tk7lzmm8wkvf","prime","5e60db57fdef8001c1fdc6f7","5f60e3c0a3b16e07647b2ff9","5f646a5a69e0d70267e6a974","false","null","<span style=""color: black; font-size: 48px"">M + N</span>","null","","","","resp_prompt","","","","","","","","","","","","","","","",""
"categorize-image","126","330312","0.0-4.0-1.0-1.3","616tk7lzmm8wkvf","prime","5e60db57fdef8001c1fdc6f7","5f60e3c0a3b16e07647b2ff9","5f646a5a69e0d70267e6a974","true","1485.350000000035","./Stimuli/SelectedImages/SM/SM78.bmp","83","","","","test","true","M + N","83","repetition","SM","SM78.bmp","remember","","52","3","prime1","left","","","",""
"html-keyboard-response","127","332327","0.0-4.0-1.0-3.3","616tk7lzmm8wkvf","prime","5e60db57fdef8001c1fdc6f7","5f60e3c0a3b16e07647b2ff9","5f646a5a69e0d70267e6a974","false","null","<div style=""align-items: center; display: flex; color: dodgerblue; font-size: 90px""><b>o</b></div>","null","","","","forget_cue","","","","","","","","","","","","","","","",""
"html-keyboard-response","128","333042","0.0-4.0-1.0-0.4","616tk7lzmm8wkvf","prime","5e60db57fdef8001c1fdc6f7","5f60e3c0a3b16e07647b2ff9","5f646a5a69e0d70267e6a974","false","null","<span style=""color: black; font-size: 48px"">M + N</span>","null","","","","resp_prompt","","","","","","","","","","","","","","","",""
"categorize-image","129","333848","0.0-4.0-1.0-1.4","616tk7lzmm8wkvf","prime","5e60db57fdef8001c1fdc6f7","5f60e3c0a3b16e07647b2ff9","5f646a5a69e0d70267e6a974","true","802.7749999999651","./Stimuli/SelectedImages/LM/LM235.bmp","83","","","","test","true","M + N","83","switch","LM","LM235.bmp","remember","","53","3","prime1","left","","","",""
"html-keyboard-response","130","335849","0.0-4.0-1.0-3.4","616tk7lzmm8wkvf","prime","5e60db57fdef8001c1fdc6f7","5f60e3c0a3b16e07647b2ff9","5f646a5a69e0d70267e6a974","false","null","<div style=""align-items: center; display: flex; color: dodgerblue; font-size: 90px""><b>o</b></div>","null","","","","forget_cue","","","","","","","","","","","","","","","",""
"html-keyboard-response","131","336560","0.0-4.0-1.0-0.5","616tk7lzmm8wkvf","prime","5e60db57fdef8001c1fdc6f7","5f60e3c0a3b16e07647b2ff9","5f646a5a69e0d70267e6a974","false","null","<span style=""color: black; font-size: 48px"">N + M</span>","null","","","","resp_prompt","","","","","","","","","","","","","","","",""
"categorize-image","132","337433","0.0-4.0-1.0-1.5","616tk7lzmm8wkvf","prime","5e60db57fdef8001c1fdc6f7","5f60e3c0a3b16e07647b2ff9","5f646a5a69e0d70267e6a974","true","869.0749999999534","./Stimuli/SelectedImages/SN/SN64.bmp","83","","","","test","true","N + M","83","switch","SN","SN64.bmp","remember","","54","3","prime1","left","","","",""
"html-keyboard-response","133","339445","0.0-4.0-1.0-3.5","616tk7lzmm8wkvf","prime","5e60db57fdef8001c1fdc6f7","5f60e3c0a3b16e07647b2ff9","5f646a5a69e0d70267e6a974","false","null","<div style=""align-items: center; display: flex; color: dodgerblue; font-size: 90px""><b>o</b></div>","null","","","","forget_cue","","","","","","","","","","","","","","","",""
"html-keyboard-response","134","340147","0.0-4.0-1.0-0.6","616tk7lzmm8wkvf","prime","5e60db57fdef8001c1fdc6f7","5f60e3c0a3b16e07647b2ff9","5f646a5a69e0d70267e6a974","false","null","<span style=""color: black; font-size: 48px"">M + N</span>","null","","","","resp_prompt","","","","","","","","","","","","","","","",""
"categorize-image","135","340992","0.0-4.0-1.0-1.6","616tk7lzmm8wkvf","prime","5e60db57fdef8001c1fdc6f7","5f60e3c0a3b16e07647b2ff9","5f646a5a69e0d70267e6a974","true","842.5100000000093","./Stimuli/SelectedImages/LN/LN166.bmp","76","","","","test","true","M + N","76","repetition","LN","LN166.bmp","remember","","55","3","prime1","right","","","",""
"html-keyboard-response","136","342994","0.0-4.0-1.0-3.6","616tk7lzmm8wkvf","prime","5e60db57fdef8001c1fdc6f7","5f60e3c0a3b16e07647b2ff9","5f646a5a69e0d70267e6a974","false","null","<div style=""align-items: center; display: flex; color: dodgerblue; font-size: 90px""><b>o</b></div>","null","","","","forget_cue","","","","","","","","","","","","","","","",""
"html-keyboard-response","137","343695","0.0-4.0-1.0-0.7","616tk7lzmm8wkvf","prime","5e60db57fdef8001c1fdc6f7","5f60e3c0a3b16e07647b2ff9","5f646a5a69e0d70267e6a974","false","null","<span style=""color: black; font-size: 48px"">M + N</span>","null","","","","resp_prompt","","","","","","","","","","","","","","","",""
"categorize-image","138","344383","0.0-4.0-1.0-1.7","616tk7lzmm8wkvf","prime","5e60db57fdef8001c1fdc6f7","5f60e3c0a3b16e07647b2ff9","5f646a5a69e0d70267e6a974","true","685.9200000000419","./Stimuli/SelectedImages/SN/SN27.bmp","76","","","","test","true","M + N","76","switch","SN","SN27.bmp","remember","","56","3","prime1","right","","","",""
"html-keyboard-response","139","346386","0.0-4.0-1.0-3.7","616tk7lzmm8wkvf","prime","5e60db57fdef8001c1fdc6f7","5f60e3c0a3b16e07647b2ff9","5f646a5a69e0d70267e6a974","false","null","<div style=""align-items: center; display: flex; color: dodgerblue; font-size: 90px""><b>o</b></div>","null","","","","forget_cue","","","","","","","","","","","","","","","",""
"html-keyboard-response","140","347101","0.0-4.0-1.0-0.8","616tk7lzmm8wkvf","prime","5e60db57fdef8001c1fdc6f7","5f60e3c0a3b16e07647b2ff9","5f646a5a69e0d70267e6a974","false","null","<span style=""color: black; font-size: 48px"">M + N</span>","null","","","","resp_prompt","","","","","","","","","","","","","","","",""
"categorize-image","141","347752","0.0-4.0-1.0-1.8","616tk7lzmm8wkvf","prime","5e60db57fdef8001c1fdc6f7","5f60e3c0a3b16e07647b2ff9","5f646a5a69e0d70267e6a974","true","648.1749999999884","./Stimuli/SelectedImages/LM/LM150.bmp","83","","","","test","true","M + N","83","switch","LM","LM150.bmp","forget","","57","3","prime1","left","","","",""
"html-keyboard-response","142","349760","0.0-4.0-1.0-3.8","616tk7lzmm8wkvf","prime","5e60db57fdef8001c1fdc6f7","5f60e3c0a3b16e07647b2ff9","5f646a5a69e0d70267e6a974","false","null","<div style=""align-items: center; display: flex; color: darkorange; font-size: 90px""><b>ø</b></div>","null","","","","forget_cue","","","","","","","","","","","","","","","",""
"html-keyboard-response","143","350474","0.0-4.0-1.0-0.9","616tk7lzmm8wkvf","prime","5e60db57fdef8001c1fdc6f7","5f60e3c0a3b16e07647b2ff9","5f646a5a69e0d70267e6a974","false","null","<span style=""color: black; font-size: 48px"">N + M</span>","null","","","","resp_prompt","","","","","","","","","","","","","","","",""
"categorize-image","144","351623","0.0-4.0-1.0-1.9","616tk7lzmm8wkvf","prime","5e60db57fdef8001c1fdc6f7","5f60e3c0a3b16e07647b2ff9","5f646a5a69e0d70267e6a974","true","1146.9349999999395","./Stimuli/SelectedImages/LM/LM216.bmp","76","","","","test","true","N + M","76","switch","LM","LM216.bmp","remember","","58","3","prime1","right","","","",""
"html-keyboard-response","145","353639","0.0-4.0-1.0-3.9","616tk7lzmm8wkvf","prime","5e60db57fdef8001c1fdc6f7","5f60e3c0a3b16e07647b2ff9","5f646a5a69e0d70267e6a974","false","null","<div style=""align-items: center; display: flex; color: dodgerblue; font-size: 90px""><b>o</b></div>","null","","","","forget_cue","","","","","","","","","","","","","","","",""
"html-keyboard-response","146","354355","0.0-4.0-1.0-0.10","616tk7lzmm8wkvf","prime","5e60db57fdef8001c1fdc6f7","5f60e3c0a3b16e07647b2ff9","5f646a5a69e0d70267e6a974","false","null","<span style=""color: black; font-size: 48px"">M + N</span>","null","","","","resp_prompt","","","","","","","","","","","","","","","",""
"categorize-image","147","354911","0.0-4.0-1.0-1.10","616tk7lzmm8wkvf","prime","5e60db57fdef8001c1fdc6f7","5f60e3c0a3b16e07647b2ff9","5f646a5a69e0d70267e6a974","true","554.1199999999371","./Stimuli/SelectedImages/LM/LM58.bmp","83","","","","test","true","M + N","83","repetition","LM","LM58.bmp","forget","","59","3","prime1","left","","","",""
"html-keyboard-response","148","356925","0.0-4.0-1.0-3.10","616tk7lzmm8wkvf","prime","5e60db57fdef8001c1fdc6f7","5f60e3c0a3b16e07647b2ff9","5f646a5a69e0d70267e6a974","false","null","<div style=""align-items: center; display: flex; color: darkorange; font-size: 90px""><b>ø</b></div>","null","","","","forget_cue","","","","","","","","","","","","","","","",""
"html-keyboard-response","149","357626","0.0-4.0-1.0-0.11","616tk7lzmm8wkvf","prime","5e60db57fdef8001c1fdc6f7","5f60e3c0a3b16e07647b2ff9","5f646a5a69e0d70267e6a974","false","null","<span style=""color: black; font-size: 48px"">N + M</span>","null","","","","resp_prompt","","","","","","","","","","","","","","","",""
"categorize-image","150","358272","0.0-4.0-1.0-1.11","616tk7lzmm8wkvf","prime","5e60db57fdef8001c1fdc6f7","5f60e3c0a3b16e07647b2ff9","5f646a5a69e0d70267e6a974","true","643.3849999999511","./Stimuli/SelectedImages/LM/LM59.bmp","76","","","","test","true","N + M","76","repetition","LM","LM59.bmp","remember","","60","3","prime1","right","","","",""
"html-keyboard-response","151","360279","0.0-4.0-1.0-3.11","616tk7lzmm8wkvf","prime","5e60db57fdef8001c1fdc6f7","5f60e3c0a3b16e07647b2ff9","5f646a5a69e0d70267e6a974","false","null","<div style=""align-items: center; display: flex; color: dodgerblue; font-size: 90px""><b>o</b></div>","null","","","","forget_cue","","","","","","","","","","","","","","","",""
"html-keyboard-response","152","360981","0.0-4.0-1.0-0.12","616tk7lzmm8wkvf","prime","5e60db57fdef8001c1fdc6f7","5f60e3c0a3b16e07647b2ff9","5f646a5a69e0d70267e6a974","false","null","<span style=""color: black; font-size: 48px"">N + M</span>","null","","","","resp_prompt","","","","","","","","","","","","","","","",""
"categorize-image","153","361639","0.0-4.0-1.0-1.12","616tk7lzmm8wkvf","prime","5e60db57fdef8001c1fdc6f7","5f60e3c0a3b16e07647b2ff9","5f646a5a69e0d70267e6a974","true","656.1499999999651","./Stimuli/SelectedImages/LM/LM75.bmp","76","","","","test","true","N + M","76","repetition","LM","LM75.bmp","forget","","61","3","prime1","right","","","",""
"html-keyboard-response","154","363650","0.0-4.0-1.0-3.12","616tk7lzmm8wkvf","prime","5e60db57fdef8001c1fdc6f7","5f60e3c0a3b16e07647b2ff9","5f646a5a69e0d70267e6a974","false","null","<div style=""align-items: center; display: flex; color: darkorange; font-size: 90px""><b>ø</b></div>","null","","","","forget_cue","","","","","","","","","","","","","","","",""
"html-keyboard-response","155","364363","0.0-4.0-1.0-0.13","616tk7lzmm8wkvf","prime","5e60db57fdef8001c1fdc6f7","5f60e3c0a3b16e07647b2ff9","5f646a5a69e0d70267e6a974","false","null","<span style=""color: black; font-size: 48px"">M + N</span>","null","","","","resp_prompt","","","","","","","","","","","","","","","",""
"categorize-image","156","365088","0.0-4.0-1.0-1.13","616tk7lzmm8wkvf","prime","5e60db57fdef8001c1fdc6f7","5f60e3c0a3b16e07647b2ff9","5f646a5a69e0d70267e6a974","true","721.5999999999767","./Stimuli/SelectedImages/SM/SM73.bmp","83","","","","test","true","M + N","83","switch","SM","SM73.bmp","remember","","62","3","prime1","left","","","",""
"html-keyboard-response","157","367094","0.0-4.0-1.0-3.13","616tk7lzmm8wkvf","prime","5e60db57fdef8001c1fdc6f7","5f60e3c0a3b16e07647b2ff9","5f646a5a69e0d70267e6a974","false","null","<div style=""align-items: center; display: flex; color: dodgerblue; font-size: 90px""><b>o</b></div>","null","","","","forget_cue","","","","","","","","","","","","","","","",""
"html-keyboard-response","158","367803","0.0-4.0-1.0-0.14","616tk7lzmm8wkvf","prime","5e60db57fdef8001c1fdc6f7","5f60e3c0a3b16e07647b2ff9","5f646a5a69e0d70267e6a974","false","null","<span style=""color: black; font-size: 48px"">N + M</span>","null","","","","resp_prompt","","","","","","","","","","","","","","","",""
"categorize-image","159","368639","0.0-4.0-1.0-1.14","616tk7lzmm8wkvf","prime","5e60db57fdef8001c1fdc6f7","5f60e3c0a3b16e07647b2ff9","5f646a5a69e0d70267e6a974","true","833.359999999986","./Stimuli/SelectedImages/LN/LN12.bmp","83","","","","test","true","N + M","83","switch","LN","LN12.bmp","forget","","63","3","prime1","left","","","",""
"html-keyboard-response","160","370649","0.0-4.0-1.0-3.14","616tk7lzmm8wkvf","prime","5e60db57fdef8001c1fdc6f7","5f60e3c0a3b16e07647b2ff9","5f646a5a69e0d70267e6a974","false","null","<div style=""align-items: center; display: flex; color: darkorange; font-size: 90px""><b>ø</b></div>","null","","","","forget_cue","","","","","","","","","","","","","","","",""
"html-keyboard-response","161","371364","0.0-4.0-1.0-0.15","616tk7lzmm8wkvf","prime","5e60db57fdef8001c1fdc6f7","5f60e3c0a3b16e07647b2ff9","5f646a5a69e0d70267e6a974","false","null","<span style=""color: black; font-size: 48px"">M + N</span>","null","","","","resp_prompt","","","","","","","","","","","","","","","",""
"categorize-image","162","372688","0.0-4.0-1.0-1.15","616tk7lzmm8wkvf","prime","5e60db57fdef8001c1fdc6f7","5f60e3c0a3b16e07647b2ff9","5f646a5a69e0d70267e6a974","true","1320.4300000000512","./Stimuli/SelectedImages/LM/LM129.bmp","83","","","","test","true","M + N","83","repetition","LM","LM129.bmp","remember","","64","3","prime1","left","","","",""
"html-keyboard-response","163","374690","0.0-4.0-1.0-3.15","616tk7lzmm8wkvf","prime","5e60db57fdef8001c1fdc6f7","5f60e3c0a3b16e07647b2ff9","5f646a5a69e0d70267e6a974","false","null","<div style=""align-items: center; display: flex; color: dodgerblue; font-size: 90px""><b>o</b></div>","null","","","","forget_cue","","","","","","","","","","","","","","","",""
"html-keyboard-response","164","375404","0.0-4.0-1.0-0.16","616tk7lzmm8wkvf","prime","5e60db57fdef8001c1fdc6f7","5f60e3c0a3b16e07647b2ff9","5f646a5a69e0d70267e6a974","false","null","<span style=""color: black; font-size: 48px"">M + N</span>","null","","","","resp_prompt","","","","","","","","","","","","","","","",""
"categorize-image","165","376135","0.0-4.0-1.0-1.16","616tk7lzmm8wkvf","prime","5e60db57fdef8001c1fdc6f7","5f60e3c0a3b16e07647b2ff9","5f646a5a69e0d70267e6a974","true","728.304999999993","./Stimuli/SelectedImages/LN/LN150.bmp","76","","","","test","true","M + N","76","switch","LN","LN150.bmp","forget","","65","3","prime1","right","","","",""
"html-keyboard-response","166","378146","0.0-4.0-1.0-3.16","616tk7lzmm8wkvf","prime","5e60db57fdef8001c1fdc6f7","5f60e3c0a3b16e07647b2ff9","5f646a5a69e0d70267e6a974","false","null","<div style=""align-items: center; display: flex; color: darkorange; font-size: 90px""><b>ø</b></div>","null","","","","forget_cue","","","","","","","","","","","","","","","",""
"html-keyboard-response","167","378863","0.0-4.0-1.0-0.17","616tk7lzmm8wkvf","prime","5e60db57fdef8001c1fdc6f7","5f60e3c0a3b16e07647b2ff9","5f646a5a69e0d70267e6a974","false","null","<span style=""color: black; font-size: 48px"">M + N</span>","null","","","","resp_prompt","","","","","","","","","","","","","","","",""
"categorize-image","168","379607","0.0-4.0-1.0-1.17","616tk7lzmm8wkvf","prime","5e60db57fdef8001c1fdc6f7","5f60e3c0a3b16e07647b2ff9","5f646a5a69e0d70267e6a974","true","741.75","./Stimuli/SelectedImages/LN/LN42.bmp","76","","","","test","true","M + N","76","switch","LN","LN42.bmp","forget","","66","3","prime1","right","","","",""
"html-keyboard-response","169","381610","0.0-4.0-1.0-3.17","616tk7lzmm8wkvf","prime","5e60db57fdef8001c1fdc6f7","5f60e3c0a3b16e07647b2ff9","5f646a5a69e0d70267e6a974","false","null","<div style=""align-items: center; display: flex; color: darkorange; font-size: 90px""><b>ø</b></div>","null","","","","forget_cue","","","","","","","","","","","","","","","",""
"html-keyboard-response","170","382311","0.0-4.0-1.0-0.18","616tk7lzmm8wkvf","prime","5e60db57fdef8001c1fdc6f7","5f60e3c0a3b16e07647b2ff9","5f646a5a69e0d70267e6a974","false","null","<span style=""color: black; font-size: 48px"">M + N</span>","null","","","","resp_prompt","","","","","","","","","","","","","","","",""
"categorize-image","171","382999","0.0-4.0-1.0-1.18","616tk7lzmm8wkvf","prime","5e60db57fdef8001c1fdc6f7","5f60e3c0a3b16e07647b2ff9","5f646a5a69e0d70267e6a974","true","685.2599999999511","./Stimuli/SelectedImages/LN/LN92.bmp","76","","","","test","true","M + N","76","repetition","LN","LN92.bmp","forget","","67","3","prime1","right","","","",""
"html-keyboard-response","172","385009","0.0-4.0-1.0-3.18","616tk7lzmm8wkvf","prime","5e60db57fdef8001c1fdc6f7","5f60e3c0a3b16e07647b2ff9","5f646a5a69e0d70267e6a974","false","null","<div style=""align-items: center; display: flex; color: darkorange; font-size: 90px""><b>ø</b></div>","null","","","","forget_cue","","","","","","","","","","","","","","","",""
"html-keyboard-response","173","385721","0.0-4.0-1.0-0.19","616tk7lzmm8wkvf","prime","5e60db57fdef8001c1fdc6f7","5f60e3c0a3b16e07647b2ff9","5f646a5a69e0d70267e6a974","false","null","<span style=""color: black; font-size: 48px"">M + N</span>","null","","","","resp_prompt","","","","","","","","","","","","","","","",""
"categorize-image","174","386391","0.0-4.0-1.0-1.19","616tk7lzmm8wkvf","prime","5e60db57fdef8001c1fdc6f7","5f60e3c0a3b16e07647b2ff9","5f646a5a69e0d70267e6a974","true","667.265000000014","./Stimuli/SelectedImages/LM/LM57.bmp","83","","","","test","true","M + N","83","switch","LM","LM57.bmp","forget","","68","3","prime1","left","","","",""
"html-keyboard-response","175","388402","0.0-4.0-1.0-3.19","616tk7lzmm8wkvf","prime","5e60db57fdef8001c1fdc6f7","5f60e3c0a3b16e07647b2ff9","5f646a5a69e0d70267e6a974","false","null","<div style=""align-items: center; display: flex; color: darkorange; font-size: 90px""><b>ø</b></div>","null","","","","forget_cue","","","","","","","","","","","","","","","",""
"html-keyboard-response","176","389114","0.0-4.0-1.0-0.20","616tk7lzmm8wkvf","prime","5e60db57fdef8001c1fdc6f7","5f60e3c0a3b16e07647b2ff9","5f646a5a69e0d70267e6a974","false","null","<span style=""color: black; font-size: 48px"">M + N</span>","null","","","","resp_prompt","","","","","","","","","","","","","","","",""
"categorize-image","177","389799","0.0-4.0-1.0-1.20","616tk7lzmm8wkvf","prime","5e60db57fdef8001c1fdc6f7","5f60e3c0a3b16e07647b2ff9","5f646a5a69e0d70267e6a974","true","682.4800000000396","./Stimuli/SelectedImages/SM/SM108.bmp","83","","","","test","true","M + N","83","repetition","SM","SM108.bmp","remember","","69","3","prime1","left","","","",""
"html-keyboard-response","178","391814","0.0-4.0-1.0-3.20","616tk7lzmm8wkvf","prime","5e60db57fdef8001c1fdc6f7","5f60e3c0a3b16e07647b2ff9","5f646a5a69e0d70267e6a974","false","null","<div style=""align-items: center; display: flex; color: dodgerblue; font-size: 90px""><b>o</b></div>","null","","","","forget_cue","","","","","","","","","","","","","","","",""
"html-keyboard-response","179","392517","0.0-4.0-1.0-0.21","616tk7lzmm8wkvf","prime","5e60db57fdef8001c1fdc6f7","5f60e3c0a3b16e07647b2ff9","5f646a5a69e0d70267e6a974","false","null","<span style=""color: black; font-size: 48px"">M + N</span>","null","","","","resp_prompt","","","","","","","","","","","","","","","",""
"categorize-image","180","393231","0.0-4.0-1.0-1.21","616tk7lzmm8wkvf","prime","5e60db57fdef8001c1fdc6f7","5f60e3c0a3b16e07647b2ff9","5f646a5a69e0d70267e6a974","true","711.5100000000093","./Stimuli/SelectedImages/SM/SM74.bmp","83","","","","test","true","M + N","83","repetition","SM","SM74.bmp","forget","","70","3","prime1","left","","","",""
"html-keyboard-response","181","395244","0.0-4.0-1.0-3.21","616tk7lzmm8wkvf","prime","5e60db57fdef8001c1fdc6f7","5f60e3c0a3b16e07647b2ff9","5f646a5a69e0d70267e6a974","false","null","<div style=""align-items: center; display: flex; color: darkorange; font-size: 90px""><b>ø</b></div>","null","","","","forget_cue","","","","","","","","","","","","","","","",""
"html-keyboard-response","182","395945","0.0-4.0-1.0-0.22","616tk7lzmm8wkvf","prime","5e60db57fdef8001c1fdc6f7","5f60e3c0a3b16e07647b2ff9","5f646a5a69e0d70267e6a974","false","null","<span style=""color: black; font-size: 48px"">M + N</span>","null","","","","resp_prompt","","","","","","","","","","","","","","","",""
"categorize-image","183","396655","0.0-4.0-1.0-1.22","616tk7lzmm8wkvf","prime","5e60db57fdef8001c1fdc6f7","5f60e3c0a3b16e07647b2ff9","5f646a5a69e0d70267e6a974","true","706.1799999999348","./Stimuli/SelectedImages/LM/LM103.bmp","83","","","","test","true","M + N","83","switch","LM","LM103.bmp","remember","","71","3","prime1","left","","","",""
"html-keyboard-response","184","398671","0.0-4.0-1.0-3.22","616tk7lzmm8wkvf","prime","5e60db57fdef8001c1fdc6f7","5f60e3c0a3b16e07647b2ff9","5f646a5a69e0d70267e6a974","false","null","<div style=""align-items: center; display: flex; color: dodgerblue; font-size: 90px""><b>o</b></div>","null","","","","forget_cue","","","","","","","","","","","","","","","",""
"html-keyboard-response","185","399386","0.0-4.0-1.0-0.23","616tk7lzmm8wkvf","prime","5e60db57fdef8001c1fdc6f7","5f60e3c0a3b16e07647b2ff9","5f646a5a69e0d70267e6a974","false","null","<span style=""color: black; font-size: 48px"">N + M</span>","null","","","","resp_prompt","","","","","","","","","","","","","","","",""
"categorize-image","186","400591","0.0-4.0-1.0-1.23","616tk7lzmm8wkvf","prime","5e60db57fdef8001c1fdc6f7","5f60e3c0a3b16e07647b2ff9","5f646a5a69e0d70267e6a974","true","1202.344999999972","./Stimuli/SelectedImages/SN/SN93.bmp","83","","","","test","true","N + M","83","repetition","SN","SN93.bmp","remember","","72","3","prime1","left","","","",""
"html-keyboard-response","187","402594","0.0-4.0-1.0-3.23","616tk7lzmm8wkvf","prime","5e60db57fdef8001c1fdc6f7","5f60e3c0a3b16e07647b2ff9","5f646a5a69e0d70267e6a974","false","null","<div style=""align-items: center; display: flex; color: dodgerblue; font-size: 90px""><b>o</b></div>","null","","","","forget_cue","","","","","","","","","","","","","","","",""
"html-keyboard-response","188","403295","0.0-4.0-1.0-0.24","616tk7lzmm8wkvf","prime","5e60db57fdef8001c1fdc6f7","5f60e3c0a3b16e07647b2ff9","5f646a5a69e0d70267e6a974","false","null","<span style=""color: black; font-size: 48px"">N + M</span>","null","","","","resp_prompt","","","","","","","","","","","","","","","",""
"categorize-image","189","404095","0.0-4.0-1.0-1.24","616tk7lzmm8wkvf","prime","5e60db57fdef8001c1fdc6f7","5f60e3c0a3b16e07647b2ff9","5f646a5a69e0d70267e6a974","true","797.6199999999953","./Stimuli/SelectedImages/LM/LM209.bmp","76","","","","test","true","N + M","76","switch","LM","LM209.bmp","forget","","73","3","prime1","right","","","",""
"html-keyboard-response","190","406098","0.0-4.0-1.0-3.24","616tk7lzmm8wkvf","prime","5e60db57fdef8001c1fdc6f7","5f60e3c0a3b16e07647b2ff9","5f646a5a69e0d70267e6a974","false","null","<div style=""align-items: center; display: flex; color: darkorange; font-size: 90px""><b>ø</b></div>","null","","","","forget_cue","","","","","","","","","","","","","","","",""
"html-keyboard-response","191","406812","0.0-4.0-1.0-0.25","616tk7lzmm8wkvf","prime","5e60db57fdef8001c1fdc6f7","5f60e3c0a3b16e07647b2ff9","5f646a5a69e0d70267e6a974","false","null","<span style=""color: black; font-size: 48px"">M + N</span>","null","","","","resp_prompt","","","","","","","","","","","","","","","",""
"categorize-image","192","407712","0.0-4.0-1.0-1.25","616tk7lzmm8wkvf","prime","5e60db57fdef8001c1fdc6f7","5f60e3c0a3b16e07647b2ff9","5f646a5a69e0d70267e6a974","true","896.8849999999511","./Stimuli/SelectedImages/SM/SM148.bmp","83","","","","test","true","M + N","83","switch","SM","SM148.bmp","remember","","74","3","prime1","left","","","",""
"html-keyboard-response","193","409717","0.0-4.0-1.0-3.25","616tk7lzmm8wkvf","prime","5e60db57fdef8001c1fdc6f7","5f60e3c0a3b16e07647b2ff9","5f646a5a69e0d70267e6a974","false","null","<div style=""align-items: center; display: flex; color: dodgerblue; font-size: 90px""><b>o</b></div>","null","","","","forget_cue","","","","","","","","","","","","","","","",""
"html-keyboard-response","194","410418","0.0-4.0-1.0-0.26","616tk7lzmm8wkvf","prime","5e60db57fdef8001c1fdc6f7","5f60e3c0a3b16e07647b2ff9","5f646a5a69e0d70267e6a974","false","null","<span style=""color: black; font-size: 48px"">N + M</span>","null","","","","resp_prompt","","","","","","","","","","","","","","","",""
"categorize-image","195","411256","0.0-4.0-1.0-1.26","616tk7lzmm8wkvf","prime","5e60db57fdef8001c1fdc6f7","5f60e3c0a3b16e07647b2ff9","5f646a5a69e0d70267e6a974","true","834.9799999999814","./Stimuli/SelectedImages/LN/LN111.bmp","83","","","","test","true","N + M","83","switch","LN","LN111.bmp","forget","","75","3","prime1","left","","","",""
"html-keyboard-response","196","413259","0.0-4.0-1.0-3.26","616tk7lzmm8wkvf","prime","5e60db57fdef8001c1fdc6f7","5f60e3c0a3b16e07647b2ff9","5f646a5a69e0d70267e6a974","false","null","<div style=""align-items: center; display: flex; color: darkorange; font-size: 90px""><b>ø</b></div>","null","","","","forget_cue","","","","","","","","","","","","","","","",""
"html-keyboard-response","197","413960","0.0-4.0-1.0-0.27","616tk7lzmm8wkvf","prime","5e60db57fdef8001c1fdc6f7","5f60e3c0a3b16e07647b2ff9","5f646a5a69e0d70267e6a974","false","null","<span style=""color: black; font-size: 48px"">M + N</span>","null","","","","resp_prompt","","","","","","","","","","","","","","","",""
"categorize-image","198","414615","0.0-4.0-1.0-1.27","616tk7lzmm8wkvf","prime","5e60db57fdef8001c1fdc6f7","5f60e3c0a3b16e07647b2ff9","5f646a5a69e0d70267e6a974","true","652.210000000021","./Stimuli/SelectedImages/SM/SM184.bmp","83","","","","test","true","M + N","83","switch","SM","SM184.bmp","forget","","76","3","prime1","left","","","",""
"html-keyboard-response","199","416623","0.0-4.0-1.0-3.27","616tk7lzmm8wkvf","prime","5e60db57fdef8001c1fdc6f7","5f60e3c0a3b16e07647b2ff9","5f646a5a69e0d70267e6a974","false","null","<div style=""align-items: center; display: flex; color: darkorange; font-size: 90px""><b>ø</b></div>","null","","","","forget_cue","","","","","","","","","","","","","","","",""
"html-keyboard-response","200","417332","0.0-4.0-1.0-0.28","616tk7lzmm8wkvf","prime","5e60db57fdef8001c1fdc6f7","5f60e3c0a3b16e07647b2ff9","5f646a5a69e0d70267e6a974","false","null","<span style=""color: black; font-size: 48px"">M + N</span>","null","","","","resp_prompt","","","","","","","","","","","","","","","",""
"categorize-image","201","418031","0.0-4.0-1.0-1.28","616tk7lzmm8wkvf","prime","5e60db57fdef8001c1fdc6f7","5f60e3c0a3b16e07647b2ff9","5f646a5a69e0d70267e6a974","true","696.2749999999651","./Stimuli/SelectedImages/SN/SN181.bmp","76","","","","test","true","M + N","76","switch","SN","SN181.bmp","forget","","77","3","prime1","right","","","",""
"html-keyboard-response","202","420033","0.0-4.0-1.0-3.28","616tk7lzmm8wkvf","prime","5e60db57fdef8001c1fdc6f7","5f60e3c0a3b16e07647b2ff9","5f646a5a69e0d70267e6a974","false","null","<div style=""align-items: center; display: flex; color: darkorange; font-size: 90px""><b>ø</b></div>","null","","","","forget_cue","","","","","","","","","","","","","","","",""
"html-keyboard-response","203","420748","0.0-4.0-1.0-0.29","616tk7lzmm8wkvf","prime","5e60db57fdef8001c1fdc6f7","5f60e3c0a3b16e07647b2ff9","5f646a5a69e0d70267e6a974","false","null","<span style=""color: black; font-size: 48px"">M + N</span>","null","","","","resp_prompt","","","","","","","","","","","","","","","",""
"categorize-image","204","421559","0.0-4.0-1.0-1.29","616tk7lzmm8wkvf","prime","5e60db57fdef8001c1fdc6f7","5f60e3c0a3b16e07647b2ff9","5f646a5a69e0d70267e6a974","true","808.085000000021","./Stimuli/SelectedImages/SN/SN179.bmp","76","","","","test","true","M + N","76","repetition","SN","SN179.bmp","remember","","78","3","prime1","right","","","",""
"html-keyboard-response","205","423561","0.0-4.0-1.0-3.29","616tk7lzmm8wkvf","prime","5e60db57fdef8001c1fdc6f7","5f60e3c0a3b16e07647b2ff9","5f646a5a69e0d70267e6a974","false","null","<div style=""align-items: center; display: flex; color: dodgerblue; font-size: 90px""><b>o</b></div>","null","","","","forget_cue","","","","","","","","","","","","","","","",""
"html-keyboard-response","206","424276","0.0-4.0-1.0-0.30","616tk7lzmm8wkvf","prime","5e60db57fdef8001c1fdc6f7","5f60e3c0a3b16e07647b2ff9","5f646a5a69e0d70267e6a974","false","null","<span style=""color: black; font-size: 48px"">M + N</span>","null","","","","resp_prompt","","","","","","","","","","","","","","","",""
"categorize-image","207","425024","0.0-4.0-1.0-1.30","616tk7lzmm8wkvf","prime","5e60db57fdef8001c1fdc6f7","5f60e3c0a3b16e07647b2ff9","5f646a5a69e0d70267e6a974","true","745.6450000000186","./Stimuli/SelectedImages/SN/SN60.bmp","76","","","","test","true","M + N","76","switch","SN","SN60.bmp","remember","","79","3","prime1","right","","","",""
"html-keyboard-response","208","427027","0.0-4.0-1.0-3.30","616tk7lzmm8wkvf","prime","5e60db57fdef8001c1fdc6f7","5f60e3c0a3b16e07647b2ff9","5f646a5a69e0d70267e6a974","false","null","<div style=""align-items: center; display: flex; color: dodgerblue; font-size: 90px""><b>o</b></div>","null","","","","forget_cue","","","","","","","","","","","","","","","",""
"html-keyboard-response","209","427729","0.0-4.0-1.0-0.31","616tk7lzmm8wkvf","prime","5e60db57fdef8001c1fdc6f7","5f60e3c0a3b16e07647b2ff9","5f646a5a69e0d70267e6a974","false","null","<span style=""color: black; font-size: 48px"">N + M</span>","null","","","","resp_prompt","","","","","","","","","","","","","","","",""
"categorize-image","210","428872","0.0-4.0-1.0-1.31","616tk7lzmm8wkvf","prime","5e60db57fdef8001c1fdc6f7","5f60e3c0a3b16e07647b2ff9","5f646a5a69e0d70267e6a974","true","1139.9850000000442","./Stimuli/SelectedImages/SM/SM128.bmp","76","","","","test","true","N + M","76","repetition","SM","SM128.bmp","forget","","80","3","prime1","right","","","",""
"html-keyboard-response","211","430879","0.0-4.0-1.0-3.31","616tk7lzmm8wkvf","prime","5e60db57fdef8001c1fdc6f7","5f60e3c0a3b16e07647b2ff9","5f646a5a69e0d70267e6a974","false","null","<div style=""align-items: center; display: flex; color: darkorange; font-size: 90px""><b>ø</b></div>","null","","","","forget_cue","","","","","","","","","","","","","","","",""
"html-keyboard-response","212","431581","0.0-4.0-1.0-0.32","616tk7lzmm8wkvf","prime","5e60db57fdef8001c1fdc6f7","5f60e3c0a3b16e07647b2ff9","5f646a5a69e0d70267e6a974","false","null","<span style=""color: black; font-size: 48px"">N + M</span>","null","","","","resp_prompt","","","","","","","","","","","","","","","",""
"categorize-image","213","432257","0.0-4.0-1.0-1.32","616tk7lzmm8wkvf","prime","5e60db57fdef8001c1fdc6f7","5f60e3c0a3b16e07647b2ff9","5f646a5a69e0d70267e6a974","true","672.5349999999744","./Stimuli/SelectedImages/SN/SN111.bmp","83","","","","test","true","N + M","83","switch","SN","SN111.bmp","forget","","81","3","prime1","left","","","",""
"html-keyboard-response","214","434259","0.0-4.0-1.0-3.32","616tk7lzmm8wkvf","prime","5e60db57fdef8001c1fdc6f7","5f60e3c0a3b16e07647b2ff9","5f646a5a69e0d70267e6a974","false","null","<div style=""align-items: center; display: flex; color: darkorange; font-size: 90px""><b>ø</b></div>","null","","","","forget_cue","","","","","","","","","","","","","","","",""
"html-keyboard-response","215","434972","0.0-4.0-1.0-0.33","616tk7lzmm8wkvf","prime","5e60db57fdef8001c1fdc6f7","5f60e3c0a3b16e07647b2ff9","5f646a5a69e0d70267e6a974","false","null","<span style=""color: black; font-size: 48px"">N + M</span>","null","","","","resp_prompt","","","","","","","","","","","","","","","",""
"categorize-image","216","435607","0.0-4.0-1.0-1.33","616tk7lzmm8wkvf","prime","5e60db57fdef8001c1fdc6f7","5f60e3c0a3b16e07647b2ff9","5f646a5a69e0d70267e6a974","true","632.5050000000629","./Stimuli/SelectedImages/LN/LN9.bmp","83","","","","test","true","N + M","83","repetition","LN","LN9.bmp","forget","","82","3","prime1","left","","","",""
"html-keyboard-response","217","437614","0.0-4.0-1.0-3.33","616tk7lzmm8wkvf","prime","5e60db57fdef8001c1fdc6f7","5f60e3c0a3b16e07647b2ff9","5f646a5a69e0d70267e6a974","false","null","<div style=""align-items: center; display: flex; color: darkorange; font-size: 90px""><b>ø</b></div>","null","","","","forget_cue","","","","","","","","","","","","","","","",""
"html-keyboard-response","218","438315","0.0-4.0-1.0-0.34","616tk7lzmm8wkvf","prime","5e60db57fdef8001c1fdc6f7","5f60e3c0a3b16e07647b2ff9","5f646a5a69e0d70267e6a974","false","null","<span style=""color: black; font-size: 48px"">N + M</span>","null","","","","resp_prompt","","","","","","","","","","","","","","","",""
"categorize-image","219","438905","0.0-4.0-1.0-1.34","616tk7lzmm8wkvf","prime","5e60db57fdef8001c1fdc6f7","5f60e3c0a3b16e07647b2ff9","5f646a5a69e0d70267e6a974","true","586.0750000000116","./Stimuli/SelectedImages/SN/SN140.bmp","83","","","","test","true","N + M","83","switch","SN","SN140.bmp","forget","","83","3","prime1","left","","","",""
"html-keyboard-response","220","440908","0.0-4.0-1.0-3.34","616tk7lzmm8wkvf","prime","5e60db57fdef8001c1fdc6f7","5f60e3c0a3b16e07647b2ff9","5f646a5a69e0d70267e6a974","false","null","<div style=""align-items: center; display: flex; color: darkorange; font-size: 90px""><b>ø</b></div>","null","","","","forget_cue","","","","","","","","","","","","","","","",""
"html-keyboard-response","221","441610","0.0-4.0-1.0-0.35","616tk7lzmm8wkvf","prime","5e60db57fdef8001c1fdc6f7","5f60e3c0a3b16e07647b2ff9","5f646a5a69e0d70267e6a974","false","null","<span style=""color: black; font-size: 48px"">N + M</span>","null","","","","resp_prompt","","","","","","","","","","","","","","","",""
"categorize-image","222","442264","0.0-4.0-1.0-1.35","616tk7lzmm8wkvf","prime","5e60db57fdef8001c1fdc6f7","5f60e3c0a3b16e07647b2ff9","5f646a5a69e0d70267e6a974","true","651.984999999986","./Stimuli/SelectedImages/SM/SM106.bmp","76","","","","test","true","N + M","76","repetition","SM","SM106.bmp","remember","","84","3","prime1","right","","","",""
"html-keyboard-response","223","444275","0.0-4.0-1.0-3.35","616tk7lzmm8wkvf","prime","5e60db57fdef8001c1fdc6f7","5f60e3c0a3b16e07647b2ff9","5f646a5a69e0d70267e6a974","false","null","<div style=""align-items: center; display: flex; color: dodgerblue; font-size: 90px""><b>o</b></div>","null","","","","forget_cue","","","","","","","","","","","","","","","",""
"html-keyboard-response","224","444985","0.0-4.0-1.0-0.36","616tk7lzmm8wkvf","prime","5e60db57fdef8001c1fdc6f7","5f60e3c0a3b16e07647b2ff9","5f646a5a69e0d70267e6a974","false","null","<span style=""color: black; font-size: 48px"">N + M</span>","null","","","","resp_prompt","","","","","","","","","","","","","","","",""
"categorize-image","225","445511","0.0-4.0-1.0-1.36","616tk7lzmm8wkvf","prime","5e60db57fdef8001c1fdc6f7","5f60e3c0a3b16e07647b2ff9","5f646a5a69e0d70267e6a974","true","523.8800000000047","./Stimuli/SelectedImages/SN/SN49.bmp","83","","","","test","true","N + M","83","switch","SN","SN49.bmp","remember","","85","3","prime1","left","","","",""
"html-keyboard-response","226","447517","0.0-4.0-1.0-3.36","616tk7lzmm8wkvf","prime","5e60db57fdef8001c1fdc6f7","5f60e3c0a3b16e07647b2ff9","5f646a5a69e0d70267e6a974","false","null","<div style=""align-items: center; display: flex; color: dodgerblue; font-size: 90px""><b>o</b></div>","null","","","","forget_cue","","","","","","","","","","","","","","","",""
"html-keyboard-response","227","448231","0.0-4.0-1.0-0.37","616tk7lzmm8wkvf","prime","5e60db57fdef8001c1fdc6f7","5f60e3c0a3b16e07647b2ff9","5f646a5a69e0d70267e6a974","false","null","<span style=""color: black; font-size: 48px"">N + M</span>","null","","","","resp_prompt","","","","","","","","","","","","","","","",""
"categorize-image","228","448784","0.0-4.0-1.0-1.37","616tk7lzmm8wkvf","prime","5e60db57fdef8001c1fdc6f7","5f60e3c0a3b16e07647b2ff9","5f646a5a69e0d70267e6a974","true","550.2099999999627","./Stimuli/SelectedImages/SN/SN182.bmp","83","","","","test","true","N + M","83","repetition","SN","SN182.bmp","forget","","86","3","prime1","left","","","",""
"html-keyboard-response","229","450791","0.0-4.0-1.0-3.37","616tk7lzmm8wkvf","prime","5e60db57fdef8001c1fdc6f7","5f60e3c0a3b16e07647b2ff9","5f646a5a69e0d70267e6a974","false","null","<div style=""align-items: center; display: flex; color: darkorange; font-size: 90px""><b>ø</b></div>","null","","","","forget_cue","","","","","","","","","","","","","","","",""
"html-keyboard-response","230","451505","0.0-4.0-1.0-0.38","616tk7lzmm8wkvf","prime","5e60db57fdef8001c1fdc6f7","5f60e3c0a3b16e07647b2ff9","5f646a5a69e0d70267e6a974","false","null","<span style=""color: black; font-size: 48px"">N + M</span>","null","","","","resp_prompt","","","","","","","","","","","","","","","",""
"categorize-image","231","452328","0.0-4.0-1.0-1.38","616tk7lzmm8wkvf","prime","5e60db57fdef8001c1fdc6f7","5f60e3c0a3b16e07647b2ff9","5f646a5a69e0d70267e6a974","true","819.5250000000233","./Stimuli/SelectedImages/LN/LN128.bmp","83","","","","test","true","N + M","83","repetition","LN","LN128.bmp","forget","","87","3","prime1","left","","","",""
"html-keyboard-response","232","454341","0.0-4.0-1.0-3.38","616tk7lzmm8wkvf","prime","5e60db57fdef8001c1fdc6f7","5f60e3c0a3b16e07647b2ff9","5f646a5a69e0d70267e6a974","false","null","<div style=""align-items: center; display: flex; color: darkorange; font-size: 90px""><b>ø</b></div>","null","","","","forget_cue","","","","","","","","","","","","","","","",""
"html-keyboard-response","233","455057","0.0-4.0-1.0-0.39","616tk7lzmm8wkvf","prime","5e60db57fdef8001c1fdc6f7","5f60e3c0a3b16e07647b2ff9","5f646a5a69e0d70267e6a974","false","null","<span style=""color: black; font-size: 48px"">N + M</span>","null","","","","resp_prompt","","","","","","","","","","","","","","","",""
"categorize-image","234","455544","0.0-4.0-1.0-1.39","616tk7lzmm8wkvf","prime","5e60db57fdef8001c1fdc6f7","5f60e3c0a3b16e07647b2ff9","5f646a5a69e0d70267e6a974","true","484.3850000000675","./Stimuli/SelectedImages/SM/SM207.bmp","76","","","","test","true","N + M","76","switch","SM","SM207.bmp","remember","","88","3","prime1","right","","","",""
"html-keyboard-response","235","457558","0.0-4.0-1.0-3.39","616tk7lzmm8wkvf","prime","5e60db57fdef8001c1fdc6f7","5f60e3c0a3b16e07647b2ff9","5f646a5a69e0d70267e6a974","false","null","<div style=""align-items: center; display: flex; color: dodgerblue; font-size: 90px""><b>o</b></div>","null","","","","forget_cue","","","","","","","","","","","","","","","",""
"html-keyboard-response","236","458260","0.0-4.0-1.0-0.40","616tk7lzmm8wkvf","prime","5e60db57fdef8001c1fdc6f7","5f60e3c0a3b16e07647b2ff9","5f646a5a69e0d70267e6a974","false","null","<span style=""color: black; font-size: 48px"">N + M</span>","null","","","","resp_prompt","","","","","","","","","","","","","","","",""
"categorize-image","237","460105","0.0-4.0-1.0-1.40","616tk7lzmm8wkvf","prime","5e60db57fdef8001c1fdc6f7","5f60e3c0a3b16e07647b2ff9","5f646a5a69e0d70267e6a974","true","1842.359999999986","./Stimuli/SelectedImages/SM/SM24.bmp","76","","","","test","true","N + M","76","switch","SM","SM24.bmp","remember","","89","3","prime1","right","","","",""
"html-keyboard-response","238","462112","0.0-4.0-1.0-3.40","616tk7lzmm8wkvf","prime","5e60db57fdef8001c1fdc6f7","5f60e3c0a3b16e07647b2ff9","5f646a5a69e0d70267e6a974","false","null","<div style=""align-items: center; display: flex; color: dodgerblue; font-size: 90px""><b>o</b></div>","null","","","","forget_cue","","","","","","","","","","","","","","","",""
"html-keyboard-response","239","462821","0.0-4.0-1.0-0.41","616tk7lzmm8wkvf","prime","5e60db57fdef8001c1fdc6f7","5f60e3c0a3b16e07647b2ff9","5f646a5a69e0d70267e6a974","false","null","<span style=""color: black; font-size: 48px"">N + M</span>","null","","","","resp_prompt","","","","","","","","","","","","","","","",""
"categorize-image","240","463432","0.0-4.0-1.0-1.41","616tk7lzmm8wkvf","prime","5e60db57fdef8001c1fdc6f7","5f60e3c0a3b16e07647b2ff9","5f646a5a69e0d70267e6a974","true","607.8300000000745","./Stimuli/SelectedImages/LM/LM51.bmp","76","","","","test","true","N + M","76","repetition","LM","LM51.bmp","forget","","90","3","prime1","right","","","",""
"html-keyboard-response","241","465439","0.0-4.0-1.0-3.41","616tk7lzmm8wkvf","prime","5e60db57fdef8001c1fdc6f7","5f60e3c0a3b16e07647b2ff9","5f646a5a69e0d70267e6a974","false","null","<div style=""align-items: center; display: flex; color: darkorange; font-size: 90px""><b>ø</b></div>","null","","","","forget_cue","","","","","","","","","","","","","","","",""
"html-keyboard-response","242","466140","0.0-4.0-1.0-0.42","616tk7lzmm8wkvf","prime","5e60db57fdef8001c1fdc6f7","5f60e3c0a3b16e07647b2ff9","5f646a5a69e0d70267e6a974","false","null","<span style=""color: black; font-size: 48px"">N + M</span>","null","","","","resp_prompt","","","","","","","","","","","","","","","",""
"categorize-image","243","466768","0.0-4.0-1.0-1.42","616tk7lzmm8wkvf","prime","5e60db57fdef8001c1fdc6f7","5f60e3c0a3b16e07647b2ff9","5f646a5a69e0d70267e6a974","true","625.0950000001467","./Stimuli/SelectedImages/SN/SN18.bmp","83","","","","test","true","N + M","83","repetition","SN","SN18.bmp","remember","","91","3","prime1","left","","","",""
"html-keyboard-response","244","468774","0.0-4.0-1.0-3.42","616tk7lzmm8wkvf","prime","5e60db57fdef8001c1fdc6f7","5f60e3c0a3b16e07647b2ff9","5f646a5a69e0d70267e6a974","false","null","<div style=""align-items: center; display: flex; color: dodgerblue; font-size: 90px""><b>o</b></div>","null","","","","forget_cue","","","","","","","","","","","","","","","",""
"html-keyboard-response","245","469483","0.0-4.0-1.0-0.43","616tk7lzmm8wkvf","prime","5e60db57fdef8001c1fdc6f7","5f60e3c0a3b16e07647b2ff9","5f646a5a69e0d70267e6a974","false","null","<span style=""color: black; font-size: 48px"">M + N</span>","null","","","","resp_prompt","","","","","","","","","","","","","","","",""
"categorize-image","246","470072","0.0-4.0-1.0-1.43","616tk7lzmm8wkvf","prime","5e60db57fdef8001c1fdc6f7","5f60e3c0a3b16e07647b2ff9","5f646a5a69e0d70267e6a974","true","585.6900000000023","./Stimuli/SelectedImages/LM/LM157.bmp","83","","","","test","true","M + N","83","repetition","LM","LM157.bmp","forget","","92","3","prime1","left","","","",""
"html-keyboard-response","247","472077","0.0-4.0-1.0-3.43","616tk7lzmm8wkvf","prime","5e60db57fdef8001c1fdc6f7","5f60e3c0a3b16e07647b2ff9","5f646a5a69e0d70267e6a974","false","null","<div style=""align-items: center; display: flex; color: darkorange; font-size: 90px""><b>ø</b></div>","null","","","","forget_cue","","","","","","","","","","","","","","","",""
"html-keyboard-response","248","472792","0.0-4.0-1.0-0.44","616tk7lzmm8wkvf","prime","5e60db57fdef8001c1fdc6f7","5f60e3c0a3b16e07647b2ff9","5f646a5a69e0d70267e6a974","false","null","<span style=""color: black; font-size: 48px"">M + N</span>","null","","","","resp_prompt","","","","","","","","","","","","","","","",""
"categorize-image","249","473288","0.0-4.0-1.0-1.44","616tk7lzmm8wkvf","prime","5e60db57fdef8001c1fdc6f7","5f60e3c0a3b16e07647b2ff9","5f646a5a69e0d70267e6a974","true","492.2600000000093","./Stimuli/SelectedImages/SM/SM76.bmp","83","","","","test","true","M + N","83","repetition","SM","SM76.bmp","forget","","93","3","prime1","left","","","",""
"html-keyboard-response","250","475293","0.0-4.0-1.0-3.44","616tk7lzmm8wkvf","prime","5e60db57fdef8001c1fdc6f7","5f60e3c0a3b16e07647b2ff9","5f646a5a69e0d70267e6a974","false","null","<div style=""align-items: center; display: flex; color: darkorange; font-size: 90px""><b>ø</b></div>","null","","","","forget_cue","","","","","","","","","","","","","","","",""
"html-keyboard-response","251","475995","0.0-4.0-1.0-0.45","616tk7lzmm8wkvf","prime","5e60db57fdef8001c1fdc6f7","5f60e3c0a3b16e07647b2ff9","5f646a5a69e0d70267e6a974","false","null","<span style=""color: black; font-size: 48px"">M + N</span>","null","","","","resp_prompt","","","","","","","","","","","","","","","",""
"categorize-image","252","476520","0.0-4.0-1.0-1.45","616tk7lzmm8wkvf","prime","5e60db57fdef8001c1fdc6f7","5f60e3c0a3b16e07647b2ff9","5f646a5a69e0d70267e6a974","true","522.7450000001118","./Stimuli/SelectedImages/SN/SN155.bmp","76","","","","test","true","M + N","76","switch","SN","SN155.bmp","forget","","94","3","prime1","right","","","",""
