"trial_type","trial_index","time_elapsed","internal_node_id","subject","exp_part","prolific_PID","study_ID","session_ID","use","rt","stimulus","key_press","button_pressed","responses","question_order","trial_part","correct","resp_map","correct_resp","probe_condition","category","image","forget_condition","list","trial_num","block_num","block","response","test_part","n_span","sequence","num_spaces"
"pavlovia","0","6","0.0-0.0","f7pef121e494f23","","5d3b01aaa1e2fc00184aacaf","5f5a55364e9b770ed21874ff","5f60d8b20ef802057d6f087f","false","","","","","","","","","","","","","","","","","","","","","","",""
"html-keyboard-response","1","16205","0.0-1.0-0.0-0.0","f7pef121e494f23","welcome","5d3b01aaa1e2fc00184aacaf","5f5a55364e9b770ed21874ff","5f60d8b20ef802057d6f087f","false","16195.319999998901","<div align=left>Dear participant, <br> thank you for participating in an online study of the Cognition, Action, and Sustainability Unit of the University of Freiburg! <br> <br>The aim of this study is to examine our ability to remember previously learned information. <br>Our goal is to find out, whether our memory improves, when we only remember information that is relevant to us. <br>The experiment will take about 30 minutes to complete. <br> <br>Please, note that you can only participate in this study if you are using a device with a keyboard (PC, Laptop etc.) <br>and not if you are using a mobile device such as a tablet or smartphone.<br> <br>Press 'SPACE' to proceed to the experiment. </div>","32","","","","","","","","","","","","","","","","","","","",""
"html-keyboard-response","2","36497","0.0-1.0-0.0-1.0","f7pef121e494f23","welcome","5d3b01aaa1e2fc00184aacaf","5f5a55364e9b770ed21874ff","5f60d8b20ef802057d6f087f","false","20288.434999994934","<div align=left><strong> Time Course of this experiment: </strong> <br><br> <strong> 1.</strong>  First, please fill in some information regarding your demographic data. <br><br> <strong> 2.</strong>  Next, your task will be to classify everyday objects. <br>In addition, you will be asked to remember certain objects and recall them later. <br>Working on these tasks requires your undivided attention and concentration.<br>It is therefore essential that you eliminate any sources of distraction in your  <br>environment and ensure that you will not be disturbed. <br><br><strong> 3.</strong>  At the end of the experiment, you will be asked to answer a few additional questions. <br> <br><strong> Important:</strong> After finishing the experiment, only close the browser window <br> by clicking on the 'end the experiment'-button when you are asked to do so. <br>Closing the browser window prematurely will make the allocation of your participation credit impossible. <br><br> Press 'SPACE' to start the experiment. </div>","32","","","","","","","","","","","","","","","","","","","",""
"html-button-response","3","64475","0.0-1.0-0.0-2.0","f7pef121e494f23","welcome","5d3b01aaa1e2fc00184aacaf","5f5a55364e9b770ed21874ff","5f60d8b20ef802057d6f087f","true","27971.919999996317","<div align=left><strong> Informed consent </strong>  <br>The aim of our research is to better understand human behavior and mental processes. <br>In the following study your behavior (e.g. choices, reaction times) will be studied. <br> <br><strong> Voluntariness and Anonymity </strong> <br>Your participation in this study is  <strong> voluntary</strong>.<br>You may withdraw your consent to participate at any time without providing a reason for doing so and without fear of prejudice. <br><br>As no personal data will be collected, <strong>your data and your person cannot be connected after data collection</strong> – the data-set is anonymous. <br>Respectively, deletion of your data will not be possible after data collection has been completed, as we cannot retrace your data-set.<br>The results and anonymized data collected in this study will be published as a scientific publication. <br>This will happen in an <strong>anonymized format</strong>, so that no data can be traced back to a specific person. <br> <br>The anonymized data of this study will be made available to other researchers and/or in a data archive on the Internet as a means of transparency and to enable subsequent re-use. By doing so, this study follows the recommendations of the Deutsche Forschungsgemeinschaft (DFG, German Research Foundation) and Deutsche Gesellschaft für Psychologie (DGPS, German Psychological Society) regarding quality assurance in research.<br>If you have any questions now or after the experiment, please contact our team (experiments@cs.uni-freiburg.de).<br><br><br>I hereby declare, that I understand the above described conditions of participation and I agree to participate under these conditions. <br><br> </div>","","0","","","","","","","","","","","","","","","","","","",""
"html-keyboard-response","4","87204","0.0-1.0-0.0-3.0","f7pef121e494f23","welcome","5d3b01aaa1e2fc00184aacaf","5f5a55364e9b770ed21874ff","5f60d8b20ef802057d6f087f","false","22725.400000010268","<div align=left><strong> General information concerning the experiment </strong>  <br> <br>Please follow the instructions:<ol> <li><strong> Do not leave this tab (your browser window) during the experiment and do not reload this tab! </strong>  <br>If you do switch tabs/windows during the experiment (to check your mail or visit another website, for example), <br>the experiment will end automatically and you will <strong>not receive credit</strong> for your participation. <br>Repeated participation or resumption of the experiment is impossible.</li> <br><li>Please close all other programs for the duration of your participation. </li> <br><li>Please mute or turn off your phone and put it out of your reach. </li> <br><li>Please also take off any disturbing accessories (such as wristwatches, bracelets, etc.). </li> <br><li>If you have music playing in the background, please turn it off now. </li> <br></ol>Thank you! <br>Press 'SPACE' to continue. </div>","32","","","","","","","","","","","","","","","","","","","",""
"survey-text","5","91571","0.0-1.0-1.0-0.0","f7pef121e494f23","demographics","5d3b01aaa1e2fc00184aacaf","5f5a55364e9b770ed21874ff","5f60d8b20ef802057d6f087f","true","4346.9850000110455","","","","{""age"":""38""}","","","","","","","","","","","","","","","","","",""
"survey-multi-choice","6","117132","0.0-1.0-1.0-1.0","f7pef121e494f23","demographics","5d3b01aaa1e2fc00184aacaf","5f5a55364e9b770ed21874ff","5f60d8b20ef802057d6f087f","true","25557.39000000176","","","","{""gender"":""male"",""school"":""high school"",""education"":""Completed university degree or equivalent""}","[0,1,2]","","","","","","","","","","","","","","","","",""
"html-keyboard-response","7","155018","0.0-1.0-2.0","f7pef121e494f23","instructions","5d3b01aaa1e2fc00184aacaf","5f5a55364e9b770ed21874ff","5f60d8b20ef802057d6f087f","false","37882.3049999919","<div align=left> The experiment is now about to start: <br> <br>In the following part, you will be presented pictures of everyday objects. <br>Your first task is to <strong>classify these objects. </strong> <br> <br> You will classify them either as mechanical or non-mechanical objects. <br> <br>Objects that include any kind of technical mechanism (for example, wheels, switches, levers, <br> electronic components) fall under the category of <strong>mechanical</strong> objects. <br>Only objects without any kind of technical mechanism should be classified as <strong>non-mechanical</strong>. <br><br>Press 'SPACE' to continue. </div>","32","","","","","","","","","","","","","","","","","","","",""
"html-keyboard-response","8","195665","0.0-2.0-0.0","f7pef121e494f23","instructions","5d3b01aaa1e2fc00184aacaf","5f5a55364e9b770ed21874ff","5f60d8b20ef802057d6f087f","false","40643.68500000273","<div align=justify>You will classify the objects using the <strong>'S'</strong> and the <strong>'L'</strong> keys on your keyboard.<br>For doing so, please place your <strong>left index finger</strong> on the <strong>'S'</strong> key and place your <strong>right index finger</strong> on the <strong>'L'</strong> key. <br><br> Each trial starts with an instruction, indicating which key ('S'/'L') you need to press to classify <br>the object as mechanical (letter M) or non-mechanical (letter N).<br>The instruction <strong>M + N</strong> indicates that, in the current trial, by pressing the left key ('S') you classify the displayed object as mechanical (M) <br> and by pressing the right key ('L') you classify the object as non-mechanical (N). <br>The instruction <strong>N + M</strong> on the other hand indicates that by pressing the left key ('S') you classify the displayed object as non-mechanical (N) <br> and by pressing the right key ('L') you classify the object as mechanical (M). <br><br>Please press the key corresponding to the correct classification as fast as possible as soon as the object is displayed and try to avoid making mistakes.<br>If you do not respond within a 2 second window, a corresponding feedback will be displayed and the next trial will start.<br> The experiment is divided into multiple blocks to give you the opportunity to take a break after each block. <br>First, you can now practice this task. <br><br>Please place your <strong>LEFT INDEX FINGER</strong> on the 'S' key and your <strong>RIGHT INDEX FINGER</strong> on the 'L' key now. <br><br>Press SPACE to continue.</div>","32","","","","","","","","","","","","","","","","","","","",""
"html-keyboard-response","9","213858","0.0-2.0-1.0","f7pef121e494f23","instructions","5d3b01aaa1e2fc00184aacaf","5f5a55364e9b770ed21874ff","5f60d8b20ef802057d6f087f","false","18190.589999998338","<div align=left> You will now have time to practice this task.<br><br>Remember: <br> <br><li>Please place your index fingers on the <strong>'S'</strong> and <strong>'L'</strong> keys <br>to respond as fast and accurately as possible.</li><li>Every picture can be classified as either mechanical or non-mechanical.</li><li>If you do not respond in time or commit an error, you will receive a corresponding feedback. </li><li> Please try to respond as <strong> fast </strong> and as <strong> accurately as possible </strong> .<br><li>To ensure optimal results, please minimize distractions and stay focused. </li><br><br>Press SPACE to continue.</div>","32","","","","","","","","","","","","","","","","","","","",""
"html-keyboard-response","10","214579","0.0-2.0-2.0-0.0","f7pef121e494f23","practice_no_cue","5d3b01aaa1e2fc00184aacaf","5f5a55364e9b770ed21874ff","5f60d8b20ef802057d6f087f","false","null","<span style=""color: black; font-size: 48px"">N + M</span>","null","","","","resp_prompt","","","","","","","","","","","","","","","",""
"categorize-image","11","217033","0.0-2.0-2.0-1.0","f7pef121e494f23","practice_no_cue","5d3b01aaa1e2fc00184aacaf","5f5a55364e9b770ed21874ff","5f60d8b20ef802057d6f087f","true","1946.5950000012526","./Stimuli/ImagesPractice/SM35.jpg","83","","","","test","false","N + M","76","","SM","SM35.jpg","remember","old","1","1","start","left","","","",""
"html-keyboard-response","12","217746","0.0-2.0-2.0-0.1","f7pef121e494f23","practice_no_cue","5d3b01aaa1e2fc00184aacaf","5f5a55364e9b770ed21874ff","5f60d8b20ef802057d6f087f","false","null","<span style=""color: black; font-size: 48px"">M + N</span>","null","","","","resp_prompt","","","","","","","","","","","","","","","",""
"categorize-image","13","219450","0.0-2.0-2.0-1.1","f7pef121e494f23","practice_no_cue","5d3b01aaa1e2fc00184aacaf","5f5a55364e9b770ed21874ff","5f60d8b20ef802057d6f087f","true","1187.6800000027288","./Stimuli/ImagesPractice/LN15.jpg","76","","","","test","true","M + N","76","","LN","LN15.jpg","remember","old","2","1","start","right","","","",""
"html-keyboard-response","14","220167","0.0-2.0-2.0-0.2","f7pef121e494f23","practice_no_cue","5d3b01aaa1e2fc00184aacaf","5f5a55364e9b770ed21874ff","5f60d8b20ef802057d6f087f","false","null","<span style=""color: black; font-size: 48px"">N + M</span>","null","","","","resp_prompt","","","","","","","","","","","","","","","",""
"categorize-image","15","222323","0.0-2.0-2.0-1.2","f7pef121e494f23","practice_no_cue","5d3b01aaa1e2fc00184aacaf","5f5a55364e9b770ed21874ff","5f60d8b20ef802057d6f087f","true","1647.3900000128197","./Stimuli/ImagesPractice/SN76.jpg","76","","","","test","false","N + M","83","","SN","SN76.jpg","forget","old","3","1","start","right","","","",""
"html-keyboard-response","16","223026","0.0-2.0-2.0-0.3","f7pef121e494f23","practice_no_cue","5d3b01aaa1e2fc00184aacaf","5f5a55364e9b770ed21874ff","5f60d8b20ef802057d6f087f","false","null","<span style=""color: black; font-size: 48px"">M + N</span>","null","","","","resp_prompt","","","","","","","","","","","","","","","",""
"categorize-image","17","224760","0.0-2.0-2.0-1.3","f7pef121e494f23","practice_no_cue","5d3b01aaa1e2fc00184aacaf","5f5a55364e9b770ed21874ff","5f60d8b20ef802057d6f087f","true","1228.4400000062305","./Stimuli/ImagesPractice/SN75.jpg","76","","","","test","true","M + N","76","","SN","SN75.jpg","forget","old","4","1","start","right","","","",""
"html-keyboard-response","18","225464","0.0-2.0-2.0-0.4","f7pef121e494f23","practice_no_cue","5d3b01aaa1e2fc00184aacaf","5f5a55364e9b770ed21874ff","5f60d8b20ef802057d6f087f","false","null","<span style=""color: black; font-size: 48px"">M + N</span>","null","","","","resp_prompt","","","","","","","","","","","","","","","",""
"categorize-image","19","226978","0.0-2.0-2.0-1.4","f7pef121e494f23","practice_no_cue","5d3b01aaa1e2fc00184aacaf","5f5a55364e9b770ed21874ff","5f60d8b20ef802057d6f087f","true","1005.6349999940721","./Stimuli/ImagesPractice/LN4.jpg","76","","","","test","true","M + N","76","","LN","LN4.jpg","remember","old","5","1","start","right","","","",""
"html-keyboard-response","20","227701","0.0-2.0-2.0-0.5","f7pef121e494f23","practice_no_cue","5d3b01aaa1e2fc00184aacaf","5f5a55364e9b770ed21874ff","5f60d8b20ef802057d6f087f","false","null","<span style=""color: black; font-size: 48px"">N + M</span>","null","","","","resp_prompt","","","","","","","","","","","","","","","",""
"categorize-image","21","229341","0.0-2.0-2.0-1.5","f7pef121e494f23","practice_no_cue","5d3b01aaa1e2fc00184aacaf","5f5a55364e9b770ed21874ff","5f60d8b20ef802057d6f087f","true","1121.0149999969872","./Stimuli/ImagesPractice/SM97.jpg","83","","","","test","false","N + M","76","","SM","SM97.jpg","forget","old","6","1","start","left","","","",""
"html-keyboard-response","22","230051","0.0-2.0-2.0-0.6","f7pef121e494f23","practice_no_cue","5d3b01aaa1e2fc00184aacaf","5f5a55364e9b770ed21874ff","5f60d8b20ef802057d6f087f","false","null","<span style=""color: black; font-size: 48px"">M + N</span>","null","","","","resp_prompt","","","","","","","","","","","","","","","",""
"categorize-image","23","231455","0.0-2.0-2.0-1.6","f7pef121e494f23","practice_no_cue","5d3b01aaa1e2fc00184aacaf","5f5a55364e9b770ed21874ff","5f60d8b20ef802057d6f087f","true","890.1849999965634","./Stimuli/ImagesPractice/SM62.jpg","83","","","","test","true","M + N","83","","SM","SM62.jpg","forget","old","7","1","start","left","","","",""
"html-keyboard-response","24","232173","0.0-2.0-2.0-0.7","f7pef121e494f23","practice_no_cue","5d3b01aaa1e2fc00184aacaf","5f5a55364e9b770ed21874ff","5f60d8b20ef802057d6f087f","false","null","<span style=""color: black; font-size: 48px"">N + M</span>","null","","","","resp_prompt","","","","","","","","","","","","","","","",""
"categorize-image","25","233943","0.0-2.0-2.0-1.7","f7pef121e494f23","practice_no_cue","5d3b01aaa1e2fc00184aacaf","5f5a55364e9b770ed21874ff","5f60d8b20ef802057d6f087f","true","1265.4999999940628","./Stimuli/ImagesPractice/SM61.jpg","76","","","","test","true","N + M","76","","SM","SM61.jpg","remember","old","8","1","start","right","","","",""
"html-keyboard-response","26","234662","0.0-2.0-2.0-0.8","f7pef121e494f23","practice_no_cue","5d3b01aaa1e2fc00184aacaf","5f5a55364e9b770ed21874ff","5f60d8b20ef802057d6f087f","false","null","<span style=""color: black; font-size: 48px"">N + M</span>","null","","","","resp_prompt","","","","","","","","","","","","","","","",""
"categorize-image","27","236046","0.0-2.0-2.0-1.8","f7pef121e494f23","practice_no_cue","5d3b01aaa1e2fc00184aacaf","5f5a55364e9b770ed21874ff","5f60d8b20ef802057d6f087f","true","872.7950000029523","./Stimuli/ImagesPractice/LM143.jpg","76","","","","test","true","N + M","76","","LM","LM143.jpg","forget","old","9","1","start","right","","","",""
"html-keyboard-response","28","236762","0.0-2.0-2.0-0.9","f7pef121e494f23","practice_no_cue","5d3b01aaa1e2fc00184aacaf","5f5a55364e9b770ed21874ff","5f60d8b20ef802057d6f087f","false","null","<span style=""color: black; font-size: 48px"">M + N</span>","null","","","","resp_prompt","","","","","","","","","","","","","","","",""
"categorize-image","29","238473","0.0-2.0-2.0-1.9","f7pef121e494f23","practice_no_cue","5d3b01aaa1e2fc00184aacaf","5f5a55364e9b770ed21874ff","5f60d8b20ef802057d6f087f","true","1203.5449999966659","./Stimuli/ImagesPractice/LN2.jpg","76","","","","test","true","M + N","76","","LN","LN2.jpg","remember","old","10","1","start","right","","","",""
"html-keyboard-response","30","239189","0.0-2.0-2.0-0.10","f7pef121e494f23","practice_no_cue","5d3b01aaa1e2fc00184aacaf","5f5a55364e9b770ed21874ff","5f60d8b20ef802057d6f087f","false","null","<span style=""color: black; font-size: 48px"">M + N</span>","null","","","","resp_prompt","","","","","","","","","","","","","","","",""
"categorize-image","31","240736","0.0-2.0-2.0-1.10","f7pef121e494f23","practice_no_cue","5d3b01aaa1e2fc00184aacaf","5f5a55364e9b770ed21874ff","5f60d8b20ef802057d6f087f","true","1034.8349999985658","./Stimuli/ImagesPractice/LN17.jpg","76","","","","test","true","M + N","76","","LN","LN17.jpg","forget","old","11","1","start","right","","","",""
"html-keyboard-response","32","241458","0.0-2.0-2.0-0.11","f7pef121e494f23","practice_no_cue","5d3b01aaa1e2fc00184aacaf","5f5a55364e9b770ed21874ff","5f60d8b20ef802057d6f087f","false","null","<span style=""color: black; font-size: 48px"">N + M</span>","null","","","","resp_prompt","","","","","","","","","","","","","","","",""
"categorize-image","33","243164","0.0-2.0-2.0-1.11","f7pef121e494f23","practice_no_cue","5d3b01aaa1e2fc00184aacaf","5f5a55364e9b770ed21874ff","5f60d8b20ef802057d6f087f","true","1188.8400000025285","./Stimuli/ImagesPractice/LM55.jpg","76","","","","test","true","N + M","76","","LM","LM55.jpg","remember","old","12","1","start","right","","","",""
"html-keyboard-response","34","243878","0.0-2.0-2.0-0.12","f7pef121e494f23","practice_no_cue","5d3b01aaa1e2fc00184aacaf","5f5a55364e9b770ed21874ff","5f60d8b20ef802057d6f087f","false","null","<span style=""color: black; font-size: 48px"">N + M</span>","null","","","","resp_prompt","","","","","","","","","","","","","","","",""
"categorize-image","35","245092","0.0-2.0-2.0-1.12","f7pef121e494f23","practice_no_cue","5d3b01aaa1e2fc00184aacaf","5f5a55364e9b770ed21874ff","5f60d8b20ef802057d6f087f","true","698.0649999895832","./Stimuli/ImagesPractice/SN221.jpg","83","","","","test","true","N + M","83","","SN","SN221.jpg","forget","old","13","1","start","left","","","",""
"html-keyboard-response","36","245804","0.0-2.0-2.0-0.13","f7pef121e494f23","practice_no_cue","5d3b01aaa1e2fc00184aacaf","5f5a55364e9b770ed21874ff","5f60d8b20ef802057d6f087f","false","null","<span style=""color: black; font-size: 48px"">M + N</span>","null","","","","resp_prompt","","","","","","","","","","","","","","","",""
"categorize-image","37","247114","0.0-2.0-2.0-1.13","f7pef121e494f23","practice_no_cue","5d3b01aaa1e2fc00184aacaf","5f5a55364e9b770ed21874ff","5f60d8b20ef802057d6f087f","true","804.6350000076927","./Stimuli/ImagesPractice/SN220.jpg","76","","","","test","true","M + N","76","","SN","SN220.jpg","remember","old","14","1","start","right","","","",""
"html-keyboard-response","38","247829","0.0-2.0-2.0-0.14","f7pef121e494f23","practice_no_cue","5d3b01aaa1e2fc00184aacaf","5f5a55364e9b770ed21874ff","5f60d8b20ef802057d6f087f","false","null","<span style=""color: black; font-size: 48px"">N + M</span>","null","","","","resp_prompt","","","","","","","","","","","","","","","",""
"categorize-image","39","249217","0.0-2.0-2.0-1.14","f7pef121e494f23","practice_no_cue","5d3b01aaa1e2fc00184aacaf","5f5a55364e9b770ed21874ff","5f60d8b20ef802057d6f087f","true","874.7449999937089","./Stimuli/ImagesPractice/LM224.jpg","76","","","","test","true","N + M","76","","LM","LM224.jpg","remember","old","15","1","start","right","","","",""
"html-keyboard-response","40","249940","0.0-2.0-2.0-0.15","f7pef121e494f23","practice_no_cue","5d3b01aaa1e2fc00184aacaf","5f5a55364e9b770ed21874ff","5f60d8b20ef802057d6f087f","false","null","<span style=""color: black; font-size: 48px"">M + N</span>","null","","","","resp_prompt","","","","","","","","","","","","","","","",""
"categorize-image","41","251421","0.0-2.0-2.0-1.15","f7pef121e494f23","practice_no_cue","5d3b01aaa1e2fc00184aacaf","5f5a55364e9b770ed21874ff","5f60d8b20ef802057d6f087f","true","972.4799999967217","./Stimuli/ImagesPractice/LN109.jpg","83","","","","test","false","M + N","76","","LN","LN109.jpg","forget","old","16","1","start","left","","","",""
"html-keyboard-response","42","259996","0.0-2.0-3.0","f7pef121e494f23","break","5d3b01aaa1e2fc00184aacaf","5f5a55364e9b770ed21874ff","5f60d8b20ef802057d6f087f","false","8570.615000004182","<p style='font-size: 32px;'>Break</><br><br><br><br><br><p style='font-size: 24px;'>In the last block, you committed 4 errors and did not respond in time on 0 trials.
</p><p style='font-size: 24px;'>Try to respond as fast and accurately as possible in the next block as well! </p><p style='font-size: 24px;'>Press SPACE to continue.</p>","32","","","","","","","","","","","","","","","","","","","",""
"html-keyboard-response","43","265563","0.0-2.0-4.0","f7pef121e494f23","instructions","5d3b01aaa1e2fc00184aacaf","5f5a55364e9b770ed21874ff","5f60d8b20ef802057d6f087f","false","5564.355000009527","<div align=left> Great!<br><br>Are you ready to continue?<br><br>If you want to reread the instructions and redo the practice trials, <br>please press „Z“. <br><br>Press SPACE to CONTINUE with the experiment when you are ready. </div>","32","","","","","","","","","","","","","","","","","","","",""
"html-keyboard-response","44","677839","0.0-3.0-0.0","f7pef121e494f23","instructions","5d3b01aaa1e2fc00184aacaf","5f5a55364e9b770ed21874ff","5f60d8b20ef802057d6f087f","false","412268.7700000097","<div align=left>Great!<br> <strong>Attention</strong>! You will now receive a second, additional task! <br><br>To this point it was you <strong>first task</strong> to correctly <strong>classify objects</strong>. <br><br>As mentioned in the beginning, we aim to examine how well humans can remember previously learned information.<br>We would like to find out whether our memory improves if we only remember information that is relevant to us. <br><br>Therefore, your <strong>second task</strong> will be to <strong>remember</strong> the pictures you are to categorize. <br> After the learning phase, there will be a memory test phase, in which you will be asked to indicate whether you have seen a picture before or not. <br>Some, but not all pictures shown in the learning phase will appear in the memory test phase.<br>After classifying a picture, you will be told whether you should remember it for the memory test phase or not. <br>Thus, some pictures can be forgotten, whereas others have to be remembered. <br><br>Note: From now on, feedback will only be displayed if you responded incorrectly or not in time.<br><br>Press SPACE to continue.</div>","32","","","","","","","","","","","","","","","","","","","",""
"html-keyboard-response","45","698031","0.0-3.0-1.0","f7pef121e494f23","instructions","5d3b01aaa1e2fc00184aacaf","5f5a55364e9b770ed21874ff","5f60d8b20ef802057d6f087f","false","20189.144999996643","<div align=left>In the following part, you will thus have to remember only some pictures. <br>Immediately after seeing and classifying the picture, a symbol will be displayed, indicating whether you should remember or forget the previous picture. <br><br>A <span style='color: dodgerblue; font-size: 28px'>O</span> indicates REMEMBER. That means, you have to remember this picture, because it will be tested later. <br><br>A <span style='color: darkorange; font-size:28px'>Ø</span> indicates FORGET. You do not have to remember this picture. <br><br> As you will have to remember a lot of pictures, it will be hard for you to remember all of them. <br>It will put you at an advantage if you instantly forget the pictures you are not asked to remember. <br> This will make it easier for you to remember the pictures that will be tested afterwards. <br><br>Press SPACE to continue.</div>","32","","","","","","","","","","","","","","","","","","","",""
"html-keyboard-response","46","711184","0.0-3.0-2.0","f7pef121e494f23","instructions","5d3b01aaa1e2fc00184aacaf","5f5a55364e9b770ed21874ff","5f60d8b20ef802057d6f087f","false","13149.03499999491","<div align=left> Now you have the chance to practice both tasks together.<br><br>Remember: <br> <br><li>Please place your index fingers on the <strong>'S'</strong> and <strong>'L'</strong> keys <br>to respond as fast and accurately as possible.</li><li>Every picture can be classified as either mechanical or non-mechanical.</li><li>If you do not respond in time or commit an error, you will receive a corresponding feedback. <br>Please try to respond as <strong> fast </strong> and as <strong> accurately as possible </strong>.</li><li> Please remember only the to-be-remembered <span style='color: dodgerblue; font-size: 28px'>O</span> pictures. <br></li><li> Please minimize distractions and stay focused. </li><br><br>Press SPACE to START</div>","32","","","","","","","","","","","","","","","","","","","",""
"html-keyboard-response","47","711889","0.0-3.0-3.0-0.0","f7pef121e494f23","practice_cue","5d3b01aaa1e2fc00184aacaf","5f5a55364e9b770ed21874ff","5f60d8b20ef802057d6f087f","false","null","<span style=""color: black; font-size: 48px"">M + N</span>","null","","","","resp_prompt","","","","","","","","","","","","","","","",""
"categorize-image","48","713134","0.0-3.0-3.0-1.0","f7pef121e494f23","practice_cue","5d3b01aaa1e2fc00184aacaf","5f5a55364e9b770ed21874ff","5f60d8b20ef802057d6f087f","true","1236.0349999944447","./Stimuli/ImagesPractice/LN15.jpg","76","","","","test","true","M + N","76","","LN","LN15.jpg","remember","old","17","2","practice_forget","right","","","",""
"html-keyboard-response","49","715158","0.0-3.0-3.0-3.0","f7pef121e494f23","practice_cue","5d3b01aaa1e2fc00184aacaf","5f5a55364e9b770ed21874ff","5f60d8b20ef802057d6f087f","false","null","<div style=""align-items: center; display: flex; color: dodgerblue; font-size: 90px""><b>o</b></div>","null","","","","forget_cue","","","","","","","","","","","","","","","",""
"html-keyboard-response","50","715863","0.0-3.0-3.0-0.1","f7pef121e494f23","practice_cue","5d3b01aaa1e2fc00184aacaf","5f5a55364e9b770ed21874ff","5f60d8b20ef802057d6f087f","false","null","<span style=""color: black; font-size: 48px"">N + M</span>","null","","","","resp_prompt","","","","","","","","","","","","","","","",""
"categorize-image","51","717110","0.0-3.0-3.0-1.1","f7pef121e494f23","practice_cue","5d3b01aaa1e2fc00184aacaf","5f5a55364e9b770ed21874ff","5f60d8b20ef802057d6f087f","true","1236.1799999926006","./Stimuli/ImagesPractice/LM224.jpg","76","","","","test","true","N + M","76","","LM","LM224.jpg","remember","old","18","2","practice_forget","right","","","",""
"html-keyboard-response","52","719125","0.0-3.0-3.0-3.1","f7pef121e494f23","practice_cue","5d3b01aaa1e2fc00184aacaf","5f5a55364e9b770ed21874ff","5f60d8b20ef802057d6f087f","false","null","<div style=""align-items: center; display: flex; color: dodgerblue; font-size: 90px""><b>o</b></div>","null","","","","forget_cue","","","","","","","","","","","","","","","",""
"html-keyboard-response","53","719831","0.0-3.0-3.0-0.2","f7pef121e494f23","practice_cue","5d3b01aaa1e2fc00184aacaf","5f5a55364e9b770ed21874ff","5f60d8b20ef802057d6f087f","false","null","<span style=""color: black; font-size: 48px"">M + N</span>","null","","","","resp_prompt","","","","","","","","","","","","","","","",""
"categorize-image","54","721195","0.0-3.0-3.0-1.2","f7pef121e494f23","practice_cue","5d3b01aaa1e2fc00184aacaf","5f5a55364e9b770ed21874ff","5f60d8b20ef802057d6f087f","true","1357.9000000027008","./Stimuli/ImagesPractice/SM62.jpg","83","","","","test","true","M + N","83","","SM","SM62.jpg","forget","old","19","2","practice_forget","left","","","",""
"html-keyboard-response","55","723209","0.0-3.0-3.0-3.2","f7pef121e494f23","practice_cue","5d3b01aaa1e2fc00184aacaf","5f5a55364e9b770ed21874ff","5f60d8b20ef802057d6f087f","false","null","<div style=""align-items: center; display: flex; color: darkorange; font-size: 90px""><b>ø</b></div>","null","","","","forget_cue","","","","","","","","","","","","","","","",""
"html-keyboard-response","56","723925","0.0-3.0-3.0-0.3","f7pef121e494f23","practice_cue","5d3b01aaa1e2fc00184aacaf","5f5a55364e9b770ed21874ff","5f60d8b20ef802057d6f087f","false","null","<span style=""color: black; font-size: 48px"">M + N</span>","null","","","","resp_prompt","","","","","","","","","","","","","","","",""
"categorize-image","57","724945","0.0-3.0-3.0-1.3","f7pef121e494f23","practice_cue","5d3b01aaa1e2fc00184aacaf","5f5a55364e9b770ed21874ff","5f60d8b20ef802057d6f087f","true","1013.5100000043167","./Stimuli/ImagesPractice/SN75.jpg","76","","","","test","true","M + N","76","","SN","SN75.jpg","forget","old","20","2","practice_forget","right","","","",""
"html-keyboard-response","58","726953","0.0-3.0-3.0-3.3","f7pef121e494f23","practice_cue","5d3b01aaa1e2fc00184aacaf","5f5a55364e9b770ed21874ff","5f60d8b20ef802057d6f087f","false","null","<div style=""align-items: center; display: flex; color: darkorange; font-size: 90px""><b>ø</b></div>","null","","","","forget_cue","","","","","","","","","","","","","","","",""
"html-keyboard-response","59","727675","0.0-3.0-3.0-0.4","f7pef121e494f23","practice_cue","5d3b01aaa1e2fc00184aacaf","5f5a55364e9b770ed21874ff","5f60d8b20ef802057d6f087f","false","null","<span style=""color: black; font-size: 48px"">N + M</span>","null","","","","resp_prompt","","","","","","","","","","","","","","","",""
"categorize-image","60","728540","0.0-3.0-3.0-1.4","f7pef121e494f23","practice_cue","5d3b01aaa1e2fc00184aacaf","5f5a55364e9b770ed21874ff","5f60d8b20ef802057d6f087f","true","855.2300000010291","./Stimuli/ImagesPractice/SM97.jpg","76","","","","test","true","N + M","76","","SM","SM97.jpg","forget","old","21","2","practice_forget","right","","","",""
"html-keyboard-response","61","730554","0.0-3.0-3.0-3.4","f7pef121e494f23","practice_cue","5d3b01aaa1e2fc00184aacaf","5f5a55364e9b770ed21874ff","5f60d8b20ef802057d6f087f","false","null","<div style=""align-items: center; display: flex; color: darkorange; font-size: 90px""><b>ø</b></div>","null","","","","forget_cue","","","","","","","","","","","","","","","",""
"html-keyboard-response","62","731278","0.0-3.0-3.0-0.5","f7pef121e494f23","practice_cue","5d3b01aaa1e2fc00184aacaf","5f5a55364e9b770ed21874ff","5f60d8b20ef802057d6f087f","false","null","<span style=""color: black; font-size: 48px"">N + M</span>","null","","","","resp_prompt","","","","","","","","","","","","","","","",""
"categorize-image","63","732237","0.0-3.0-3.0-1.5","f7pef121e494f23","practice_cue","5d3b01aaa1e2fc00184aacaf","5f5a55364e9b770ed21874ff","5f60d8b20ef802057d6f087f","true","949.6600000129547","./Stimuli/ImagesPractice/LM143.jpg","76","","","","test","true","N + M","76","","LM","LM143.jpg","forget","old","22","2","practice_forget","right","","","",""
"html-keyboard-response","64","734244","0.0-3.0-3.0-3.5","f7pef121e494f23","practice_cue","5d3b01aaa1e2fc00184aacaf","5f5a55364e9b770ed21874ff","5f60d8b20ef802057d6f087f","false","null","<div style=""align-items: center; display: flex; color: darkorange; font-size: 90px""><b>ø</b></div>","null","","","","forget_cue","","","","","","","","","","","","","","","",""
"html-keyboard-response","65","734958","0.0-3.0-3.0-0.6","f7pef121e494f23","practice_cue","5d3b01aaa1e2fc00184aacaf","5f5a55364e9b770ed21874ff","5f60d8b20ef802057d6f087f","false","null","<span style=""color: black; font-size: 48px"">N + M</span>","null","","","","resp_prompt","","","","","","","","","","","","","","","",""
"categorize-image","66","735811","0.0-3.0-3.0-1.6","f7pef121e494f23","practice_cue","5d3b01aaa1e2fc00184aacaf","5f5a55364e9b770ed21874ff","5f60d8b20ef802057d6f087f","true","844.0000000118744","./Stimuli/ImagesPractice/SM61.jpg","76","","","","test","true","N + M","76","","SM","SM61.jpg","remember","old","23","2","practice_forget","right","","","",""
"html-keyboard-response","67","737816","0.0-3.0-3.0-3.6","f7pef121e494f23","practice_cue","5d3b01aaa1e2fc00184aacaf","5f5a55364e9b770ed21874ff","5f60d8b20ef802057d6f087f","false","null","<div style=""align-items: center; display: flex; color: dodgerblue; font-size: 90px""><b>o</b></div>","null","","","","forget_cue","","","","","","","","","","","","","","","",""
"html-keyboard-response","68","738534","0.0-3.0-3.0-0.7","f7pef121e494f23","practice_cue","5d3b01aaa1e2fc00184aacaf","5f5a55364e9b770ed21874ff","5f60d8b20ef802057d6f087f","false","null","<span style=""color: black; font-size: 48px"">M + N</span>","null","","","","resp_prompt","","","","","","","","","","","","","","","",""
"categorize-image","69","739450","0.0-3.0-3.0-1.7","f7pef121e494f23","practice_cue","5d3b01aaa1e2fc00184aacaf","5f5a55364e9b770ed21874ff","5f60d8b20ef802057d6f087f","true","900.6749999971362","./Stimuli/ImagesPractice/LN109.jpg","83","","","","test","false","M + N","76","","LN","LN109.jpg","forget","old","24","2","practice_forget","left","","","",""
"html-keyboard-response","70","739969","0.0-3.0-3.0-2.7-0.7","f7pef121e494f23","practice_cue","5d3b01aaa1e2fc00184aacaf","5f5a55364e9b770ed21874ff","5f60d8b20ef802057d6f087f","false","null","<span style=""color: red; font-size: 48px"">Error!</span>","null","","","","feedback","","","","","","","","","","","","","","","",""
"html-keyboard-response","71","741991","0.0-3.0-3.0-3.7","f7pef121e494f23","practice_cue","5d3b01aaa1e2fc00184aacaf","5f5a55364e9b770ed21874ff","5f60d8b20ef802057d6f087f","false","null","<div style=""align-items: center; display: flex; color: darkorange; font-size: 90px""><b>ø</b></div>","null","","","","forget_cue","","","","","","","","","","","","","","","",""
"html-keyboard-response","72","742707","0.0-3.0-3.0-0.8","f7pef121e494f23","practice_cue","5d3b01aaa1e2fc00184aacaf","5f5a55364e9b770ed21874ff","5f60d8b20ef802057d6f087f","false","null","<span style=""color: black; font-size: 48px"">N + M</span>","null","","","","resp_prompt","","","","","","","","","","","","","","","",""
"categorize-image","73","743697","0.0-3.0-3.0-1.8","f7pef121e494f23","practice_cue","5d3b01aaa1e2fc00184aacaf","5f5a55364e9b770ed21874ff","5f60d8b20ef802057d6f087f","true","982.270000007702","./Stimuli/ImagesPractice/SN76.jpg","83","","","","test","true","N + M","83","","SN","SN76.jpg","forget","old","25","2","practice_forget","left","","","",""
"html-keyboard-response","74","745710","0.0-3.0-3.0-3.8","f7pef121e494f23","practice_cue","5d3b01aaa1e2fc00184aacaf","5f5a55364e9b770ed21874ff","5f60d8b20ef802057d6f087f","false","null","<div style=""align-items: center; display: flex; color: darkorange; font-size: 90px""><b>ø</b></div>","null","","","","forget_cue","","","","","","","","","","","","","","","",""
"html-keyboard-response","75","746426","0.0-3.0-3.0-0.9","f7pef121e494f23","practice_cue","5d3b01aaa1e2fc00184aacaf","5f5a55364e9b770ed21874ff","5f60d8b20ef802057d6f087f","false","null","<span style=""color: black; font-size: 48px"">M + N</span>","null","","","","resp_prompt","","","","","","","","","","","","","","","",""
"categorize-image","76","747121","0.0-3.0-3.0-1.9","f7pef121e494f23","practice_cue","5d3b01aaa1e2fc00184aacaf","5f5a55364e9b770ed21874ff","5f60d8b20ef802057d6f087f","true","688.7199999910081","./Stimuli/ImagesPractice/LN2.jpg","76","","","","test","true","M + N","76","","LN","LN2.jpg","remember","old","26","2","practice_forget","right","","","",""
"html-keyboard-response","77","749126","0.0-3.0-3.0-3.9","f7pef121e494f23","practice_cue","5d3b01aaa1e2fc00184aacaf","5f5a55364e9b770ed21874ff","5f60d8b20ef802057d6f087f","false","null","<div style=""align-items: center; display: flex; color: dodgerblue; font-size: 90px""><b>o</b></div>","null","","","","forget_cue","","","","","","","","","","","","","","","",""
"html-keyboard-response","78","749846","0.0-3.0-3.0-0.10","f7pef121e494f23","practice_cue","5d3b01aaa1e2fc00184aacaf","5f5a55364e9b770ed21874ff","5f60d8b20ef802057d6f087f","false","null","<span style=""color: black; font-size: 48px"">N + M</span>","null","","","","resp_prompt","","","","","","","","","","","","","","","",""
"categorize-image","79","750705","0.0-3.0-3.0-1.10","f7pef121e494f23","practice_cue","5d3b01aaa1e2fc00184aacaf","5f5a55364e9b770ed21874ff","5f60d8b20ef802057d6f087f","true","852.6349999883678","./Stimuli/ImagesPractice/LM55.jpg","76","","","","test","true","N + M","76","","LM","LM55.jpg","remember","old","27","2","practice_forget","right","","","",""
"html-keyboard-response","80","752719","0.0-3.0-3.0-3.10","f7pef121e494f23","practice_cue","5d3b01aaa1e2fc00184aacaf","5f5a55364e9b770ed21874ff","5f60d8b20ef802057d6f087f","false","null","<div style=""align-items: center; display: flex; color: dodgerblue; font-size: 90px""><b>o</b></div>","null","","","","forget_cue","","","","","","","","","","","","","","","",""
"html-keyboard-response","81","753422","0.0-3.0-3.0-0.11","f7pef121e494f23","practice_cue","5d3b01aaa1e2fc00184aacaf","5f5a55364e9b770ed21874ff","5f60d8b20ef802057d6f087f","false","null","<span style=""color: black; font-size: 48px"">N + M</span>","null","","","","resp_prompt","","","","","","","","","","","","","","","",""
"categorize-image","82","755066","0.0-3.0-3.0-1.11","f7pef121e494f23","practice_cue","5d3b01aaa1e2fc00184aacaf","5f5a55364e9b770ed21874ff","5f60d8b20ef802057d6f087f","true","1635.2800000022398","./Stimuli/ImagesPractice/SM35.jpg","76","","","","test","true","N + M","76","","SM","SM35.jpg","remember","old","28","2","practice_forget","right","","","",""
"html-keyboard-response","83","757085","0.0-3.0-3.0-3.11","f7pef121e494f23","practice_cue","5d3b01aaa1e2fc00184aacaf","5f5a55364e9b770ed21874ff","5f60d8b20ef802057d6f087f","false","null","<div style=""align-items: center; display: flex; color: dodgerblue; font-size: 90px""><b>o</b></div>","null","","","","forget_cue","","","","","","","","","","","","","","","",""
"html-keyboard-response","84","757798","0.0-3.0-3.0-0.12","f7pef121e494f23","practice_cue","5d3b01aaa1e2fc00184aacaf","5f5a55364e9b770ed21874ff","5f60d8b20ef802057d6f087f","false","null","<span style=""color: black; font-size: 48px"">M + N</span>","null","","","","resp_prompt","","","","","","","","","","","","","","","",""
"categorize-image","85","758709","0.0-3.0-3.0-1.12","f7pef121e494f23","practice_cue","5d3b01aaa1e2fc00184aacaf","5f5a55364e9b770ed21874ff","5f60d8b20ef802057d6f087f","true","899.8700000083772","./Stimuli/ImagesPractice/LN4.jpg","76","","","","test","true","M + N","76","","LN","LN4.jpg","remember","old","29","2","practice_forget","right","","","",""
"html-keyboard-response","86","760724","0.0-3.0-3.0-3.12","f7pef121e494f23","practice_cue","5d3b01aaa1e2fc00184aacaf","5f5a55364e9b770ed21874ff","5f60d8b20ef802057d6f087f","false","null","<div style=""align-items: center; display: flex; color: dodgerblue; font-size: 90px""><b>o</b></div>","null","","","","forget_cue","","","","","","","","","","","","","","","",""
"html-keyboard-response","87","761426","0.0-3.0-3.0-0.13","f7pef121e494f23","practice_cue","5d3b01aaa1e2fc00184aacaf","5f5a55364e9b770ed21874ff","5f60d8b20ef802057d6f087f","false","null","<span style=""color: black; font-size: 48px"">N + M</span>","null","","","","resp_prompt","","","","","","","","","","","","","","","",""
"categorize-image","88","762186","0.0-3.0-3.0-1.13","f7pef121e494f23","practice_cue","5d3b01aaa1e2fc00184aacaf","5f5a55364e9b770ed21874ff","5f60d8b20ef802057d6f087f","true","752.4149999953806","./Stimuli/ImagesPractice/SN221.jpg","83","","","","test","true","N + M","83","","SN","SN221.jpg","forget","old","30","2","practice_forget","left","","","",""
"html-keyboard-response","89","764193","0.0-3.0-3.0-3.13","f7pef121e494f23","practice_cue","5d3b01aaa1e2fc00184aacaf","5f5a55364e9b770ed21874ff","5f60d8b20ef802057d6f087f","false","null","<div style=""align-items: center; display: flex; color: darkorange; font-size: 90px""><b>ø</b></div>","null","","","","forget_cue","","","","","","","","","","","","","","","",""
"html-keyboard-response","90","764896","0.0-3.0-3.0-0.14","f7pef121e494f23","practice_cue","5d3b01aaa1e2fc00184aacaf","5f5a55364e9b770ed21874ff","5f60d8b20ef802057d6f087f","false","null","<span style=""color: black; font-size: 48px"">M + N</span>","null","","","","resp_prompt","","","","","","","","","","","","","","","",""
"categorize-image","91","765639","0.0-3.0-3.0-1.14","f7pef121e494f23","practice_cue","5d3b01aaa1e2fc00184aacaf","5f5a55364e9b770ed21874ff","5f60d8b20ef802057d6f087f","true","738.7949999974808","./Stimuli/ImagesPractice/SN220.jpg","76","","","","test","true","M + N","76","","SN","SN220.jpg","remember","old","31","2","practice_forget","right","","","",""
"html-keyboard-response","92","767648","0.0-3.0-3.0-3.14","f7pef121e494f23","practice_cue","5d3b01aaa1e2fc00184aacaf","5f5a55364e9b770ed21874ff","5f60d8b20ef802057d6f087f","false","null","<div style=""align-items: center; display: flex; color: dodgerblue; font-size: 90px""><b>o</b></div>","null","","","","forget_cue","","","","","","","","","","","","","","","",""
"html-keyboard-response","93","768351","0.0-3.0-3.0-0.15","f7pef121e494f23","practice_cue","5d3b01aaa1e2fc00184aacaf","5f5a55364e9b770ed21874ff","5f60d8b20ef802057d6f087f","false","null","<span style=""color: black; font-size: 48px"">M + N</span>","null","","","","resp_prompt","","","","","","","","","","","","","","","",""
"categorize-image","94","769339","0.0-3.0-3.0-1.15","f7pef121e494f23","practice_cue","5d3b01aaa1e2fc00184aacaf","5f5a55364e9b770ed21874ff","5f60d8b20ef802057d6f087f","true","979.6849999984261","./Stimuli/ImagesPractice/LN17.jpg","76","","","","test","true","M + N","76","","LN","LN17.jpg","forget","old","32","2","practice_forget","right","","","",""
"html-keyboard-response","95","771355","0.0-3.0-3.0-3.15","f7pef121e494f23","practice_cue","5d3b01aaa1e2fc00184aacaf","5f5a55364e9b770ed21874ff","5f60d8b20ef802057d6f087f","false","null","<div style=""align-items: center; display: flex; color: darkorange; font-size: 90px""><b>ø</b></div>","null","","","","forget_cue","","","","","","","","","","","","","","","",""
"html-keyboard-response","96","776310","0.0-3.0-4.0","f7pef121e494f23","break","5d3b01aaa1e2fc00184aacaf","5f5a55364e9b770ed21874ff","5f60d8b20ef802057d6f087f","false","4951.920000006794","<p style='font-size: 32px;'>Break</><br><br><br><br><br><p style='font-size: 24px;'>In the last block, you committed 1 errors and did not respond in time on 0 trials.
</p><p style='font-size: 24px;'>Try to respond as fast and accurately as possible in the next block as well! </p><p style='font-size: 24px;'>Press SPACE to continue.</p>","32","","","","","","","","","","","","","","","","","","","",""
"html-keyboard-response","97","782033","0.0-3.0-5.0","f7pef121e494f23","instructions","5d3b01aaa1e2fc00184aacaf","5f5a55364e9b770ed21874ff","5f60d8b20ef802057d6f087f","false","5717.059999995399","<div align=left> Now, to practice, we kindly ask you to remember as many of the to-be-remembered pictures<br>of the previous learning phase as possible.<br><br>The pictures you were instructed to remember were the pictures followed by a <span style='color: dodgerblue; font-size: 28px'>O</span>.<br><br>In this memory test phase, you will also see some new pictures.<br>It is your task to remember whether you were presented with this specific picture in this study so far or not.<br>If you recognize an object (you have already seen it in this study), it is an OLD object. <br>If you do not recognize an object (you have NOT seen it in this study), it is a NEW object. <br><strong> Attention</strong>: As already mentioned, <span style='color: darkorange; font-size:28px'>Ø</span>-pictures will <strong>never</strong> appear in this memory test (neither as new objects). <br><br>Press SPACE to continue. </div>","32","","","","","","","","","","","","","","","","","","","",""
"html-keyboard-response","98","901946","0.0-3.0-6.0","f7pef121e494f23","instructions","5d3b01aaa1e2fc00184aacaf","5f5a55364e9b770ed21874ff","5f60d8b20ef802057d6f087f","false","119909.16000001016","<div align=left> M and N no longer will appear on the left/right of the fixation cross. <br>Instead there will be a note at the bottom of the left or right side  <br>indicating which key you should press for an old or new object:  <br> <br>Press the <strong>right</strong> key to classify an object as <strong>old</strong> and press the <strong>left</strong>, to classify an object as <strong>new</strong>.<br>Please classify the objects as new/old by again placing your index finger on the 'S' and 'L' keys <br>and press them accordingly.<br><br><strong>Old:</strong> This object has been presented before. <br><strong>New:</strong> This object has <strong>not</strong> been presented.<br><br>Now please put your right and left index fingers on the 'S' and 'L' keys of your keyboard. <br>Please respond as fast and as accurately as possible!<br><br>Press SPACE to continue. </div>","32","","","","","","","","","","","","","","","","","","","",""
"categorize-image","99","905093","0.0-3.0-7.0-0.0","f7pef121e494f23","practice_recog","5d3b01aaa1e2fc00184aacaf","5f5a55364e9b770ed21874ff","5f60d8b20ef802057d6f087f","true","2633.914999998524","./Stimuli/ImagesPractice/SN205.jpg","83","","","","test","true","","83","","SN","SN205.jpg","","new","33","3","practice_recog","left","","","",""
"categorize-image","100","906835","0.0-3.0-7.0-0.1","f7pef121e494f23","practice_recog","5d3b01aaa1e2fc00184aacaf","5f5a55364e9b770ed21874ff","5f60d8b20ef802057d6f087f","true","1231.950000001234","./Stimuli/ImagesPractice/LM230.jpg","83","","","","test","true","","83","","LM","LM230.jpg","","new","34","3","practice_recog","left","","","",""
"categorize-image","101","908273","0.0-3.0-7.0-0.2","f7pef121e494f23","practice_recog","5d3b01aaa1e2fc00184aacaf","5f5a55364e9b770ed21874ff","5f60d8b20ef802057d6f087f","true","931.2899999931687","./Stimuli/ImagesPractice/SM37.jpg","83","","","","test","true","","83","","SM","SM37.jpg","","new","35","3","practice_recog","left","","","",""
"categorize-image","102","909757","0.0-3.0-7.0-0.3","f7pef121e494f23","practice_recog","5d3b01aaa1e2fc00184aacaf","5f5a55364e9b770ed21874ff","5f60d8b20ef802057d6f087f","true","973.2150000054389","./Stimuli/ImagesPractice/SM35.jpg","76","","","","test","true","","76","","SM","SM35.jpg","","old","36","3","practice_recog","right","","","",""
"categorize-image","103","911041","0.0-3.0-7.0-0.4","f7pef121e494f23","practice_recog","5d3b01aaa1e2fc00184aacaf","5f5a55364e9b770ed21874ff","5f60d8b20ef802057d6f087f","true","776.5999999974156","./Stimuli/ImagesPractice/LM224.jpg","76","","","","test","true","","76","","LM","LM224.jpg","","old","37","3","practice_recog","right","","","",""
"categorize-image","104","912418","0.0-3.0-7.0-0.5","f7pef121e494f23","practice_recog","5d3b01aaa1e2fc00184aacaf","5f5a55364e9b770ed21874ff","5f60d8b20ef802057d6f087f","true","868.6200000083772","./Stimuli/ImagesPractice/SN222.jpg","83","","","","test","true","","83","","SN","SN222.jpg","","new","38","3","practice_recog","left","","","",""
"categorize-image","105","913749","0.0-3.0-7.0-0.6","f7pef121e494f23","practice_recog","5d3b01aaa1e2fc00184aacaf","5f5a55364e9b770ed21874ff","5f60d8b20ef802057d6f087f","true","803.4099999931641","./Stimuli/ImagesPractice/LN72.jpg","83","","","","test","true","","83","","LN","LN72.jpg","","new","39","3","practice_recog","left","","","",""
"categorize-image","106","915099","0.0-3.0-7.0-0.7","f7pef121e494f23","practice_recog","5d3b01aaa1e2fc00184aacaf","5f5a55364e9b770ed21874ff","5f60d8b20ef802057d6f087f","true","833.0850000056671","./Stimuli/ImagesPractice/LN2.jpg","76","","","","test","true","","76","","LN","LN2.jpg","","old","40","3","practice_recog","right","","","",""
"categorize-image","107","916414","0.0-3.0-7.0-0.8","f7pef121e494f23","practice_recog","5d3b01aaa1e2fc00184aacaf","5f5a55364e9b770ed21874ff","5f60d8b20ef802057d6f087f","true","803.0949999956647","./Stimuli/ImagesPractice/LM147.jpg","83","","","","test","true","","83","","LM","LM147.jpg","","new","41","3","practice_recog","left","","","",""
"categorize-image","108","917926","0.0-3.0-7.0-0.9","f7pef121e494f23","practice_recog","5d3b01aaa1e2fc00184aacaf","5f5a55364e9b770ed21874ff","5f60d8b20ef802057d6f087f","true","991.4549999957671","./Stimuli/ImagesPractice/LN15.jpg","76","","","","test","true","","76","","LN","LN15.jpg","","old","42","3","practice_recog","right","","","",""
"categorize-image","109","919089","0.0-3.0-7.0-0.10","f7pef121e494f23","practice_recog","5d3b01aaa1e2fc00184aacaf","5f5a55364e9b770ed21874ff","5f60d8b20ef802057d6f087f","true","648.0199999932665","./Stimuli/ImagesPractice/SN220.jpg","76","","","","test","true","","76","","SN","SN220.jpg","","old","43","3","practice_recog","right","","","",""
"categorize-image","110","920279","0.0-3.0-7.0-0.11","f7pef121e494f23","practice_recog","5d3b01aaa1e2fc00184aacaf","5f5a55364e9b770ed21874ff","5f60d8b20ef802057d6f087f","true","676.0050000011688","./Stimuli/ImagesPractice/LN4.jpg","76","","","","test","true","","76","","LN","LN4.jpg","","old","44","3","practice_recog","right","","","",""
"categorize-image","111","921549","0.0-3.0-7.0-0.12","f7pef121e494f23","practice_recog","5d3b01aaa1e2fc00184aacaf","5f5a55364e9b770ed21874ff","5f60d8b20ef802057d6f087f","true","758.880000008503","./Stimuli/ImagesPractice/LM55.jpg","76","","","","test","true","","76","","LM","LM55.jpg","","old","45","3","practice_recog","right","","","",""
"categorize-image","112","922768","0.0-3.0-7.0-0.13","f7pef121e494f23","practice_recog","5d3b01aaa1e2fc00184aacaf","5f5a55364e9b770ed21874ff","5f60d8b20ef802057d6f087f","true","713.0049999977928","./Stimuli/ImagesPractice/SM61.jpg","76","","","","test","true","","76","","SM","SM61.jpg","","old","46","3","practice_recog","right","","","",""
"categorize-image","113","923883","0.0-3.0-7.0-0.14","f7pef121e494f23","practice_recog","5d3b01aaa1e2fc00184aacaf","5f5a55364e9b770ed21874ff","5f60d8b20ef802057d6f087f","true","606.6900000005262","./Stimuli/ImagesPractice/LM239.jpg","83","","","","test","true","","83","","LM","LM239.jpg","","new","47","3","practice_recog","left","","","",""
"categorize-image","114","925065","0.0-3.0-7.0-0.15","f7pef121e494f23","practice_recog","5d3b01aaa1e2fc00184aacaf","5f5a55364e9b770ed21874ff","5f60d8b20ef802057d6f087f","true","674.3900000001304","./Stimuli/ImagesPractice/SM98.jpg","83","","","","test","true","","83","","SM","SM98.jpg","","new","48","3","practice_recog","left","","","",""
"html-keyboard-response","115","932321","0.0-3.0-8.0","f7pef121e494f23","instructions","5d3b01aaa1e2fc00184aacaf","5f5a55364e9b770ed21874ff","5f60d8b20ef802057d6f087f","false","7254.014999998617","<div align=left> Great!<br><br>Are you ready to continue?<br>If you want to reread the instructions and redo the practice trials, please <br>press „Z“.<br><br>You can proceed when you are ready.<br><br>After the presentation of each object, you will receive an instruction whether to <br>remember or to forget the object.<br>We will test your memory of the following pictures only at the very end of <br>the experiment after all learning blocks are completed. <br><br>Press SPACE to CONTINUE when you are ready. </div>","32","","","","","","","","","","","","","","","","","","","",""
"html-keyboard-response","116","939843","0.0-4.0-0.0","f7pef121e494f23","instructions","5d3b01aaa1e2fc00184aacaf","5f5a55364e9b770ed21874ff","5f60d8b20ef802057d6f087f","false","7517.684999998892","<div align=left> The actual experiment is about to start.<br>The practice trials are over!<br><br>Please always respond both fast and accurately!<br><br>Remember: <br> <br><li> Please place your index fingers on the <strong>'S'</strong> and <strong>'L'</strong> keys <br>to respond as fast and accurately as possible.</li><li> Every picture can be classified as either mechanical or non-mechanical.</li><li> If you do not respond in time or commit an error, you will receive a corresponding feedback.<br> Please try to respond as <strong> fast </strong> and as <strong> accurately as possible </strong>.</li><li> Remember the <span style='color: dodgerblue; font-size: 28px'>O</span> pictures. <br></li><li> Please minimize distractions and stay focused. </li><br><br>Press SPACE to START.</div>","32","","","","","","","","","","","","","","","","","","","",""
"html-keyboard-response","117","940555","0.0-4.0-1.0-0.0","f7pef121e494f23","prime","5d3b01aaa1e2fc00184aacaf","5f5a55364e9b770ed21874ff","5f60d8b20ef802057d6f087f","false","null","<span style=""color: black; font-size: 48px"">M + N</span>","null","","","","resp_prompt","","","","","","","","","","","","","","","",""
"categorize-image","118","941833","0.0-4.0-1.0-1.0","f7pef121e494f23","prime","5d3b01aaa1e2fc00184aacaf","5f5a55364e9b770ed21874ff","5f60d8b20ef802057d6f087f","true","1266.0299999988638","./Stimuli/SelectedImages/SM/SM148.bmp","83","","","","test","true","M + N","83","repetition","SM","SM148.bmp","remember","","49","3","prime1","left","","","",""
"html-keyboard-response","119","943843","0.0-4.0-1.0-3.0","f7pef121e494f23","prime","5d3b01aaa1e2fc00184aacaf","5f5a55364e9b770ed21874ff","5f60d8b20ef802057d6f087f","false","null","<div style=""align-items: center; display: flex; color: dodgerblue; font-size: 90px""><b>o</b></div>","null","","","","forget_cue","","","","","","","","","","","","","","","",""
"html-keyboard-response","120","944558","0.0-4.0-1.0-0.1","f7pef121e494f23","prime","5d3b01aaa1e2fc00184aacaf","5f5a55364e9b770ed21874ff","5f60d8b20ef802057d6f087f","false","null","<span style=""color: black; font-size: 48px"">N + M</span>","null","","","","resp_prompt","","","","","","","","","","","","","","","",""
"categorize-image","121","945255","0.0-4.0-1.0-1.1","f7pef121e494f23","prime","5d3b01aaa1e2fc00184aacaf","5f5a55364e9b770ed21874ff","5f60d8b20ef802057d6f087f","true","686.3900000025751","./Stimuli/SelectedImages/SM/SM205.bmp","76","","","","test","true","N + M","76","switch","SM","SM205.bmp","remember","","50","3","prime1","right","","","",""
"html-keyboard-response","122","947262","0.0-4.0-1.0-3.1","f7pef121e494f23","prime","5d3b01aaa1e2fc00184aacaf","5f5a55364e9b770ed21874ff","5f60d8b20ef802057d6f087f","false","null","<div style=""align-items: center; display: flex; color: dodgerblue; font-size: 90px""><b>o</b></div>","null","","","","forget_cue","","","","","","","","","","","","","","","",""
"html-keyboard-response","123","947973","0.0-4.0-1.0-0.2","f7pef121e494f23","prime","5d3b01aaa1e2fc00184aacaf","5f5a55364e9b770ed21874ff","5f60d8b20ef802057d6f087f","false","null","<span style=""color: black; font-size: 48px"">M + N</span>","null","","","","resp_prompt","","","","","","","","","","","","","","","",""
"categorize-image","124","948735","0.0-4.0-1.0-1.2","f7pef121e494f23","prime","5d3b01aaa1e2fc00184aacaf","5f5a55364e9b770ed21874ff","5f60d8b20ef802057d6f087f","true","753.0800000095041","./Stimuli/SelectedImages/LN/LN92.bmp","76","","","","test","true","M + N","76","switch","LN","LN92.bmp","remember","","51","3","prime1","right","","","",""
"html-keyboard-response","125","950739","0.0-4.0-1.0-3.2","f7pef121e494f23","prime","5d3b01aaa1e2fc00184aacaf","5f5a55364e9b770ed21874ff","5f60d8b20ef802057d6f087f","false","null","<div style=""align-items: center; display: flex; color: dodgerblue; font-size: 90px""><b>o</b></div>","null","","","","forget_cue","","","","","","","","","","","","","","","",""
"html-keyboard-response","126","951452","0.0-4.0-1.0-0.3","f7pef121e494f23","prime","5d3b01aaa1e2fc00184aacaf","5f5a55364e9b770ed21874ff","5f60d8b20ef802057d6f087f","false","null","<span style=""color: black; font-size: 48px"">M + N</span>","null","","","","resp_prompt","","","","","","","","","","","","","","","",""
"categorize-image","127","952181","0.0-4.0-1.0-1.3","f7pef121e494f23","prime","5d3b01aaa1e2fc00184aacaf","5f5a55364e9b770ed21874ff","5f60d8b20ef802057d6f087f","true","722.1350000036182","./Stimuli/SelectedImages/LM/LM216.bmp","83","","","","test","true","M + N","83","repetition","LM","LM216.bmp","remember","","52","3","prime1","left","","","",""
"html-keyboard-response","128","954200","0.0-4.0-1.0-3.3","f7pef121e494f23","prime","5d3b01aaa1e2fc00184aacaf","5f5a55364e9b770ed21874ff","5f60d8b20ef802057d6f087f","false","null","<div style=""align-items: center; display: flex; color: dodgerblue; font-size: 90px""><b>o</b></div>","null","","","","forget_cue","","","","","","","","","","","","","","","",""
"html-keyboard-response","129","954916","0.0-4.0-1.0-0.4","f7pef121e494f23","prime","5d3b01aaa1e2fc00184aacaf","5f5a55364e9b770ed21874ff","5f60d8b20ef802057d6f087f","false","null","<span style=""color: black; font-size: 48px"">M + N</span>","null","","","","resp_prompt","","","","","","","","","","","","","","","",""
"categorize-image","130","955511","0.0-4.0-1.0-1.4","f7pef121e494f23","prime","5d3b01aaa1e2fc00184aacaf","5f5a55364e9b770ed21874ff","5f60d8b20ef802057d6f087f","true","585.7500000129221","./Stimuli/SelectedImages/SM/SM74.bmp","83","","","","test","true","M + N","83","switch","SM","SM74.bmp","remember","","53","3","prime1","left","","","",""
"html-keyboard-response","131","957523","0.0-4.0-1.0-3.4","f7pef121e494f23","prime","5d3b01aaa1e2fc00184aacaf","5f5a55364e9b770ed21874ff","5f60d8b20ef802057d6f087f","false","null","<div style=""align-items: center; display: flex; color: dodgerblue; font-size: 90px""><b>o</b></div>","null","","","","forget_cue","","","","","","","","","","","","","","","",""
"html-keyboard-response","132","958239","0.0-4.0-1.0-0.5","f7pef121e494f23","prime","5d3b01aaa1e2fc00184aacaf","5f5a55364e9b770ed21874ff","5f60d8b20ef802057d6f087f","false","null","<span style=""color: black; font-size: 48px"">N + M</span>","null","","","","resp_prompt","","","","","","","","","","","","","","","",""
"categorize-image","133","959312","0.0-4.0-1.0-1.5","f7pef121e494f23","prime","5d3b01aaa1e2fc00184aacaf","5f5a55364e9b770ed21874ff","5f60d8b20ef802057d6f087f","true","1063.689999995404","./Stimuli/SelectedImages/SN/SN52.bmp","83","","","","test","true","N + M","83","switch","SN","SN52.bmp","remember","","54","3","prime1","left","","","",""
"html-keyboard-response","134","961326","0.0-4.0-1.0-3.5","f7pef121e494f23","prime","5d3b01aaa1e2fc00184aacaf","5f5a55364e9b770ed21874ff","5f60d8b20ef802057d6f087f","false","null","<div style=""align-items: center; display: flex; color: dodgerblue; font-size: 90px""><b>o</b></div>","null","","","","forget_cue","","","","","","","","","","","","","","","",""
"html-keyboard-response","135","962042","0.0-4.0-1.0-0.6","f7pef121e494f23","prime","5d3b01aaa1e2fc00184aacaf","5f5a55364e9b770ed21874ff","5f60d8b20ef802057d6f087f","false","null","<span style=""color: black; font-size: 48px"">N + M</span>","null","","","","resp_prompt","","","","","","","","","","","","","","","",""
"categorize-image","136","962867","0.0-4.0-1.0-1.6","f7pef121e494f23","prime","5d3b01aaa1e2fc00184aacaf","5f5a55364e9b770ed21874ff","5f60d8b20ef802057d6f087f","true","818.2200000010198","./Stimuli/SelectedImages/LN/LN131.bmp","83","","","","test","true","N + M","83","repetition","LN","LN131.bmp","forget","","55","3","prime1","left","","","",""
"html-keyboard-response","137","964878","0.0-4.0-1.0-3.6","f7pef121e494f23","prime","5d3b01aaa1e2fc00184aacaf","5f5a55364e9b770ed21874ff","5f60d8b20ef802057d6f087f","false","null","<div style=""align-items: center; display: flex; color: darkorange; font-size: 90px""><b>ø</b></div>","null","","","","forget_cue","","","","","","","","","","","","","","","",""
"html-keyboard-response","138","965594","0.0-4.0-1.0-0.7","f7pef121e494f23","prime","5d3b01aaa1e2fc00184aacaf","5f5a55364e9b770ed21874ff","5f60d8b20ef802057d6f087f","false","null","<span style=""color: black; font-size: 48px"">N + M</span>","null","","","","resp_prompt","","","","","","","","","","","","","","","",""
"categorize-image","139","966819","0.0-4.0-1.0-1.7","f7pef121e494f23","prime","5d3b01aaa1e2fc00184aacaf","5f5a55364e9b770ed21874ff","5f60d8b20ef802057d6f087f","true","1218.3149999909801","./Stimuli/SelectedImages/LN/LN28.bmp","83","","","","test","true","N + M","83","switch","LN","LN28.bmp","forget","","56","3","prime1","left","","","",""
"html-keyboard-response","140","968835","0.0-4.0-1.0-3.7","f7pef121e494f23","prime","5d3b01aaa1e2fc00184aacaf","5f5a55364e9b770ed21874ff","5f60d8b20ef802057d6f087f","false","null","<div style=""align-items: center; display: flex; color: darkorange; font-size: 90px""><b>ø</b></div>","null","","","","forget_cue","","","","","","","","","","","","","","","",""
"html-keyboard-response","141","969543","0.0-4.0-1.0-0.8","f7pef121e494f23","prime","5d3b01aaa1e2fc00184aacaf","5f5a55364e9b770ed21874ff","5f60d8b20ef802057d6f087f","false","null","<span style=""color: black; font-size: 48px"">N + M</span>","null","","","","resp_prompt","","","","","","","","","","","","","","","",""
"categorize-image","142","970209","0.0-4.0-1.0-1.8","f7pef121e494f23","prime","5d3b01aaa1e2fc00184aacaf","5f5a55364e9b770ed21874ff","5f60d8b20ef802057d6f087f","true","660.0499999913154","./Stimuli/SelectedImages/LN/LN42.bmp","83","","","","test","true","N + M","83","switch","LN","LN42.bmp","forget","","57","3","prime1","left","","","",""
"html-keyboard-response","143","972226","0.0-4.0-1.0-3.8","f7pef121e494f23","prime","5d3b01aaa1e2fc00184aacaf","5f5a55364e9b770ed21874ff","5f60d8b20ef802057d6f087f","false","null","<div style=""align-items: center; display: flex; color: darkorange; font-size: 90px""><b>ø</b></div>","null","","","","forget_cue","","","","","","","","","","","","","","","",""
"html-keyboard-response","144","972940","0.0-4.0-1.0-0.9","f7pef121e494f23","prime","5d3b01aaa1e2fc00184aacaf","5f5a55364e9b770ed21874ff","5f60d8b20ef802057d6f087f","false","null","<span style=""color: black; font-size: 48px"">N + M</span>","null","","","","resp_prompt","","","","","","","","","","","","","","","",""
"categorize-image","145","973647","0.0-4.0-1.0-1.9","f7pef121e494f23","prime","5d3b01aaa1e2fc00184aacaf","5f5a55364e9b770ed21874ff","5f60d8b20ef802057d6f087f","true","696.3099999993574","./Stimuli/SelectedImages/SN/SN240.bmp","83","","","","test","true","N + M","83","switch","SN","SN240.bmp","forget","","58","3","prime1","left","","","",""
"html-keyboard-response","146","975654","0.0-4.0-1.0-3.9","f7pef121e494f23","prime","5d3b01aaa1e2fc00184aacaf","5f5a55364e9b770ed21874ff","5f60d8b20ef802057d6f087f","false","null","<div style=""align-items: center; display: flex; color: darkorange; font-size: 90px""><b>ø</b></div>","null","","","","forget_cue","","","","","","","","","","","","","","","",""
"html-keyboard-response","147","976370","0.0-4.0-1.0-0.10","f7pef121e494f23","prime","5d3b01aaa1e2fc00184aacaf","5f5a55364e9b770ed21874ff","5f60d8b20ef802057d6f087f","false","null","<span style=""color: black; font-size: 48px"">M + N</span>","null","","","","resp_prompt","","","","","","","","","","","","","","","",""
"categorize-image","148","977534","0.0-4.0-1.0-1.10","f7pef121e494f23","prime","5d3b01aaa1e2fc00184aacaf","5f5a55364e9b770ed21874ff","5f60d8b20ef802057d6f087f","true","1154.934999998659","./Stimuli/SelectedImages/SN/SN60.bmp","76","","","","test","true","M + N","76","switch","SN","SN60.bmp","remember","","59","3","prime1","right","","","",""
"html-keyboard-response","149","979546","0.0-4.0-1.0-3.10","f7pef121e494f23","prime","5d3b01aaa1e2fc00184aacaf","5f5a55364e9b770ed21874ff","5f60d8b20ef802057d6f087f","false","null","<div style=""align-items: center; display: flex; color: dodgerblue; font-size: 90px""><b>o</b></div>","null","","","","forget_cue","","","","","","","","","","","","","","","",""
"html-keyboard-response","150","980263","0.0-4.0-1.0-0.11","f7pef121e494f23","prime","5d3b01aaa1e2fc00184aacaf","5f5a55364e9b770ed21874ff","5f60d8b20ef802057d6f087f","false","null","<span style=""color: black; font-size: 48px"">N + M</span>","null","","","","resp_prompt","","","","","","","","","","","","","","","",""
"categorize-image","151","980955","0.0-4.0-1.0-1.11","f7pef121e494f23","prime","5d3b01aaa1e2fc00184aacaf","5f5a55364e9b770ed21874ff","5f60d8b20ef802057d6f087f","true","685.1999999926193","./Stimuli/SelectedImages/SN/SN140.bmp","83","","","","test","true","N + M","83","repetition","SN","SN140.bmp","forget","","60","3","prime1","left","","","",""
"html-keyboard-response","152","982964","0.0-4.0-1.0-3.11","f7pef121e494f23","prime","5d3b01aaa1e2fc00184aacaf","5f5a55364e9b770ed21874ff","5f60d8b20ef802057d6f087f","false","null","<div style=""align-items: center; display: flex; color: darkorange; font-size: 90px""><b>ø</b></div>","null","","","","forget_cue","","","","","","","","","","","","","","","",""
"html-keyboard-response","153","983670","0.0-4.0-1.0-0.12","f7pef121e494f23","prime","5d3b01aaa1e2fc00184aacaf","5f5a55364e9b770ed21874ff","5f60d8b20ef802057d6f087f","false","null","<span style=""color: black; font-size: 48px"">M + N</span>","null","","","","resp_prompt","","","","","","","","","","","","","","","",""
"categorize-image","154","984495","0.0-4.0-1.0-1.12","f7pef121e494f23","prime","5d3b01aaa1e2fc00184aacaf","5f5a55364e9b770ed21874ff","5f60d8b20ef802057d6f087f","true","812.9400000034366","./Stimuli/SelectedImages/LM/LM167.bmp","83","","","","test","true","M + N","83","switch","LM","LM167.bmp","forget","","61","3","prime1","left","","","",""
"html-keyboard-response","155","986500","0.0-4.0-1.0-3.12","f7pef121e494f23","prime","5d3b01aaa1e2fc00184aacaf","5f5a55364e9b770ed21874ff","5f60d8b20ef802057d6f087f","false","null","<div style=""align-items: center; display: flex; color: darkorange; font-size: 90px""><b>ø</b></div>","null","","","","forget_cue","","","","","","","","","","","","","","","",""
"html-keyboard-response","156","987216","0.0-4.0-1.0-0.13","f7pef121e494f23","prime","5d3b01aaa1e2fc00184aacaf","5f5a55364e9b770ed21874ff","5f60d8b20ef802057d6f087f","false","null","<span style=""color: black; font-size: 48px"">M + N</span>","null","","","","resp_prompt","","","","","","","","","","","","","","","",""
"categorize-image","157","988027","0.0-4.0-1.0-1.13","f7pef121e494f23","prime","5d3b01aaa1e2fc00184aacaf","5f5a55364e9b770ed21874ff","5f60d8b20ef802057d6f087f","true","803.8949999900069","./Stimuli/SelectedImages/SN/SN179.bmp","76","","","","test","true","M + N","76","repetition","SN","SN179.bmp","forget","","62","3","prime1","right","","","",""
"html-keyboard-response","158","990036","0.0-4.0-1.0-3.13","f7pef121e494f23","prime","5d3b01aaa1e2fc00184aacaf","5f5a55364e9b770ed21874ff","5f60d8b20ef802057d6f087f","false","null","<div style=""align-items: center; display: flex; color: darkorange; font-size: 90px""><b>ø</b></div>","null","","","","forget_cue","","","","","","","","","","","","","","","",""
"html-keyboard-response","159","990746","0.0-4.0-1.0-0.14","f7pef121e494f23","prime","5d3b01aaa1e2fc00184aacaf","5f5a55364e9b770ed21874ff","5f60d8b20ef802057d6f087f","false","null","<span style=""color: black; font-size: 48px"">N + M</span>","null","","","","resp_prompt","","","","","","","","","","","","","","","",""
"categorize-image","160","991491","0.0-4.0-1.0-1.14","f7pef121e494f23","prime","5d3b01aaa1e2fc00184aacaf","5f5a55364e9b770ed21874ff","5f60d8b20ef802057d6f087f","true","737.6399999920977","./Stimuli/SelectedImages/LN/LN59.bmp","83","","","","test","true","N + M","83","switch","LN","LN59.bmp","remember","","63","3","prime1","left","","","",""
"html-keyboard-response","161","993497","0.0-4.0-1.0-3.14","f7pef121e494f23","prime","5d3b01aaa1e2fc00184aacaf","5f5a55364e9b770ed21874ff","5f60d8b20ef802057d6f087f","false","null","<div style=""align-items: center; display: flex; color: dodgerblue; font-size: 90px""><b>o</b></div>","null","","","","forget_cue","","","","","","","","","","","","","","","",""
"html-keyboard-response","162","994209","0.0-4.0-1.0-0.15","f7pef121e494f23","prime","5d3b01aaa1e2fc00184aacaf","5f5a55364e9b770ed21874ff","5f60d8b20ef802057d6f087f","false","null","<span style=""color: black; font-size: 48px"">N + M</span>","null","","","","resp_prompt","","","","","","","","","","","","","","","",""
"categorize-image","163","995175","0.0-4.0-1.0-1.15","f7pef121e494f23","prime","5d3b01aaa1e2fc00184aacaf","5f5a55364e9b770ed21874ff","5f60d8b20ef802057d6f087f","true","955.6849999935366","./Stimuli/SelectedImages/SN/SN182.bmp","83","","","","test","true","N + M","83","repetition","SN","SN182.bmp","remember","","64","3","prime1","left","","","",""
"html-keyboard-response","164","997188","0.0-4.0-1.0-3.15","f7pef121e494f23","prime","5d3b01aaa1e2fc00184aacaf","5f5a55364e9b770ed21874ff","5f60d8b20ef802057d6f087f","false","null","<div style=""align-items: center; display: flex; color: dodgerblue; font-size: 90px""><b>o</b></div>","null","","","","forget_cue","","","","","","","","","","","","","","","",""
"html-keyboard-response","165","997902","0.0-4.0-1.0-0.16","f7pef121e494f23","prime","5d3b01aaa1e2fc00184aacaf","5f5a55364e9b770ed21874ff","5f60d8b20ef802057d6f087f","false","null","<span style=""color: black; font-size: 48px"">N + M</span>","null","","","","resp_prompt","","","","","","","","","","","","","","","",""
"categorize-image","166","998726","0.0-4.0-1.0-1.16","f7pef121e494f23","prime","5d3b01aaa1e2fc00184aacaf","5f5a55364e9b770ed21874ff","5f60d8b20ef802057d6f087f","true","814.4699999975273","./Stimuli/SelectedImages/LM/LM150.bmp","76","","","","test","true","N + M","76","switch","LM","LM150.bmp","remember","","65","3","prime1","right","","","",""
"html-keyboard-response","167","1000741","0.0-4.0-1.0-3.16","f7pef121e494f23","prime","5d3b01aaa1e2fc00184aacaf","5f5a55364e9b770ed21874ff","5f60d8b20ef802057d6f087f","false","null","<div style=""align-items: center; display: flex; color: dodgerblue; font-size: 90px""><b>o</b></div>","null","","","","forget_cue","","","","","","","","","","","","","","","",""
"html-keyboard-response","168","1001458","0.0-4.0-1.0-0.17","f7pef121e494f23","prime","5d3b01aaa1e2fc00184aacaf","5f5a55364e9b770ed21874ff","5f60d8b20ef802057d6f087f","false","null","<span style=""color: black; font-size: 48px"">N + M</span>","null","","","","resp_prompt","","","","","","","","","","","","","","","",""
"categorize-image","169","1002319","0.0-4.0-1.0-1.17","f7pef121e494f23","prime","5d3b01aaa1e2fc00184aacaf","5f5a55364e9b770ed21874ff","5f60d8b20ef802057d6f087f","true","849.5949999924051","./Stimuli/SelectedImages/LM/LM235.bmp","76","","","","test","true","N + M","76","repetition","LM","LM235.bmp","forget","","66","3","prime1","right","","","",""
"html-keyboard-response","170","1004325","0.0-4.0-1.0-3.17","f7pef121e494f23","prime","5d3b01aaa1e2fc00184aacaf","5f5a55364e9b770ed21874ff","5f60d8b20ef802057d6f087f","false","null","<div style=""align-items: center; display: flex; color: darkorange; font-size: 90px""><b>ø</b></div>","null","","","","forget_cue","","","","","","","","","","","","","","","",""
"html-keyboard-response","171","1005036","0.0-4.0-1.0-0.18","f7pef121e494f23","prime","5d3b01aaa1e2fc00184aacaf","5f5a55364e9b770ed21874ff","5f60d8b20ef802057d6f087f","false","null","<span style=""color: black; font-size: 48px"">N + M</span>","null","","","","resp_prompt","","","","","","","","","","","","","","","",""
"categorize-image","172","1006090","0.0-4.0-1.0-1.18","f7pef121e494f23","prime","5d3b01aaa1e2fc00184aacaf","5f5a55364e9b770ed21874ff","5f60d8b20ef802057d6f087f","true","1047.644999998738","./Stimuli/SelectedImages/LN/LN111.bmp","83","","","","test","true","N + M","83","repetition","LN","LN111.bmp","forget","","67","3","prime1","left","","","",""
"html-keyboard-response","173","1008096","0.0-4.0-1.0-3.18","f7pef121e494f23","prime","5d3b01aaa1e2fc00184aacaf","5f5a55364e9b770ed21874ff","5f60d8b20ef802057d6f087f","false","null","<div style=""align-items: center; display: flex; color: darkorange; font-size: 90px""><b>ø</b></div>","null","","","","forget_cue","","","","","","","","","","","","","","","",""
"html-keyboard-response","174","1008800","0.0-4.0-1.0-0.19","f7pef121e494f23","prime","5d3b01aaa1e2fc00184aacaf","5f5a55364e9b770ed21874ff","5f60d8b20ef802057d6f087f","false","null","<span style=""color: black; font-size: 48px"">N + M</span>","null","","","","resp_prompt","","","","","","","","","","","","","","","",""
"categorize-image","175","1009724","0.0-4.0-1.0-1.19","f7pef121e494f23","prime","5d3b01aaa1e2fc00184aacaf","5f5a55364e9b770ed21874ff","5f60d8b20ef802057d6f087f","true","913.2749999989755","./Stimuli/SelectedImages/SM/SM128.bmp","76","","","","test","true","N + M","76","repetition","SM","SM128.bmp","forget","","68","3","prime1","right","","","",""
"html-keyboard-response","176","1011735","0.0-4.0-1.0-3.19","f7pef121e494f23","prime","5d3b01aaa1e2fc00184aacaf","5f5a55364e9b770ed21874ff","5f60d8b20ef802057d6f087f","false","null","<div style=""align-items: center; display: flex; color: darkorange; font-size: 90px""><b>ø</b></div>","null","","","","forget_cue","","","","","","","","","","","","","","","",""
"html-keyboard-response","177","1012447","0.0-4.0-1.0-0.20","f7pef121e494f23","prime","5d3b01aaa1e2fc00184aacaf","5f5a55364e9b770ed21874ff","5f60d8b20ef802057d6f087f","false","null","<span style=""color: black; font-size: 48px"">N + M</span>","null","","","","resp_prompt","","","","","","","","","","","","","","","",""
"categorize-image","178","1013225","0.0-4.0-1.0-1.20","f7pef121e494f23","prime","5d3b01aaa1e2fc00184aacaf","5f5a55364e9b770ed21874ff","5f60d8b20ef802057d6f087f","true","765.3100000025006","./Stimuli/SelectedImages/LM/LM58.bmp","76","","","","test","true","N + M","76","repetition","LM","LM58.bmp","remember","","69","3","prime1","right","","","",""
"html-keyboard-response","179","1015242","0.0-4.0-1.0-3.20","f7pef121e494f23","prime","5d3b01aaa1e2fc00184aacaf","5f5a55364e9b770ed21874ff","5f60d8b20ef802057d6f087f","false","null","<div style=""align-items: center; display: flex; color: dodgerblue; font-size: 90px""><b>o</b></div>","null","","","","forget_cue","","","","","","","","","","","","","","","",""
"html-keyboard-response","180","1015955","0.0-4.0-1.0-0.21","f7pef121e494f23","prime","5d3b01aaa1e2fc00184aacaf","5f5a55364e9b770ed21874ff","5f60d8b20ef802057d6f087f","false","null","<span style=""color: black; font-size: 48px"">M + N</span>","null","","","","resp_prompt","","","","","","","","","","","","","","","",""
"categorize-image","181","1016956","0.0-4.0-1.0-1.21","f7pef121e494f23","prime","5d3b01aaa1e2fc00184aacaf","5f5a55364e9b770ed21874ff","5f60d8b20ef802057d6f087f","true","992.3750000016298","./Stimuli/SelectedImages/SM/SM195.bmp","83","","","","test","true","M + N","83","switch","SM","SM195.bmp","forget","","70","3","prime1","left","","","",""
"html-keyboard-response","182","1018972","0.0-4.0-1.0-3.21","f7pef121e494f23","prime","5d3b01aaa1e2fc00184aacaf","5f5a55364e9b770ed21874ff","5f60d8b20ef802057d6f087f","false","null","<div style=""align-items: center; display: flex; color: darkorange; font-size: 90px""><b>ø</b></div>","null","","","","forget_cue","","","","","","","","","","","","","","","",""
"html-keyboard-response","183","1019684","0.0-4.0-1.0-0.22","f7pef121e494f23","prime","5d3b01aaa1e2fc00184aacaf","5f5a55364e9b770ed21874ff","5f60d8b20ef802057d6f087f","false","null","<span style=""color: black; font-size: 48px"">N + M</span>","null","","","","resp_prompt","","","","","","","","","","","","","","","",""
"categorize-image","184","1020562","0.0-4.0-1.0-1.22","f7pef121e494f23","prime","5d3b01aaa1e2fc00184aacaf","5f5a55364e9b770ed21874ff","5f60d8b20ef802057d6f087f","true","871.579999991809","./Stimuli/SelectedImages/SM/SM207.bmp","76","","","","test","true","N + M","76","repetition","SM","SM207.bmp","remember","","71","3","prime1","right","","","",""
"html-keyboard-response","185","1022576","0.0-4.0-1.0-3.22","f7pef121e494f23","prime","5d3b01aaa1e2fc00184aacaf","5f5a55364e9b770ed21874ff","5f60d8b20ef802057d6f087f","false","null","<div style=""align-items: center; display: flex; color: dodgerblue; font-size: 90px""><b>o</b></div>","null","","","","forget_cue","","","","","","","","","","","","","","","",""
"html-keyboard-response","186","1023288","0.0-4.0-1.0-0.23","f7pef121e494f23","prime","5d3b01aaa1e2fc00184aacaf","5f5a55364e9b770ed21874ff","5f60d8b20ef802057d6f087f","false","null","<span style=""color: black; font-size: 48px"">N + M</span>","null","","","","resp_prompt","","","","","","","","","","","","","","","",""
"categorize-image","187","1024051","0.0-4.0-1.0-1.23","f7pef121e494f23","prime","5d3b01aaa1e2fc00184aacaf","5f5a55364e9b770ed21874ff","5f60d8b20ef802057d6f087f","true","754.6949999959907","./Stimuli/SelectedImages/LN/LN166.bmp","83","","","","test","true","N + M","83","repetition","LN","LN166.bmp","remember","","72","3","prime1","left","","","",""
"html-keyboard-response","188","1026066","0.0-4.0-1.0-3.23","f7pef121e494f23","prime","5d3b01aaa1e2fc00184aacaf","5f5a55364e9b770ed21874ff","5f60d8b20ef802057d6f087f","false","null","<div style=""align-items: center; display: flex; color: dodgerblue; font-size: 90px""><b>o</b></div>","null","","","","forget_cue","","","","","","","","","","","","","","","",""
"html-keyboard-response","189","1026772","0.0-4.0-1.0-0.24","f7pef121e494f23","prime","5d3b01aaa1e2fc00184aacaf","5f5a55364e9b770ed21874ff","5f60d8b20ef802057d6f087f","false","null","<span style=""color: black; font-size: 48px"">M + N</span>","null","","","","resp_prompt","","","","","","","","","","","","","","","",""
"categorize-image","190","1027807","0.0-4.0-1.0-1.24","f7pef121e494f23","prime","5d3b01aaa1e2fc00184aacaf","5f5a55364e9b770ed21874ff","5f60d8b20ef802057d6f087f","true","1029.9949999898672","./Stimuli/SelectedImages/LM/LM103.bmp","83","","","","test","true","M + N","83","switch","LM","LM103.bmp","forget","","73","3","prime1","left","","","",""
"html-keyboard-response","191","1029825","0.0-4.0-1.0-3.24","f7pef121e494f23","prime","5d3b01aaa1e2fc00184aacaf","5f5a55364e9b770ed21874ff","5f60d8b20ef802057d6f087f","false","null","<div style=""align-items: center; display: flex; color: darkorange; font-size: 90px""><b>ø</b></div>","null","","","","forget_cue","","","","","","","","","","","","","","","",""
"html-keyboard-response","192","1030530","0.0-4.0-1.0-0.25","f7pef121e494f23","prime","5d3b01aaa1e2fc00184aacaf","5f5a55364e9b770ed21874ff","5f60d8b20ef802057d6f087f","false","null","<span style=""color: black; font-size: 48px"">N + M</span>","null","","","","resp_prompt","","","","","","","","","","","","","","","",""
"categorize-image","193","1031383","0.0-4.0-1.0-1.25","f7pef121e494f23","prime","5d3b01aaa1e2fc00184aacaf","5f5a55364e9b770ed21874ff","5f60d8b20ef802057d6f087f","true","845.8100000134436","./Stimuli/SelectedImages/SN/SN128.bmp","83","","","","test","true","N + M","83","switch","SN","SN128.bmp","remember","","74","3","prime1","left","","","",""
"html-keyboard-response","194","1033399","0.0-4.0-1.0-3.25","f7pef121e494f23","prime","5d3b01aaa1e2fc00184aacaf","5f5a55364e9b770ed21874ff","5f60d8b20ef802057d6f087f","false","null","<div style=""align-items: center; display: flex; color: dodgerblue; font-size: 90px""><b>o</b></div>","null","","","","forget_cue","","","","","","","","","","","","","","","",""
"html-keyboard-response","195","1034105","0.0-4.0-1.0-0.26","f7pef121e494f23","prime","5d3b01aaa1e2fc00184aacaf","5f5a55364e9b770ed21874ff","5f60d8b20ef802057d6f087f","false","null","<span style=""color: black; font-size: 48px"">N + M</span>","null","","","","resp_prompt","","","","","","","","","","","","","","","",""
"categorize-image","196","1034819","0.0-4.0-1.0-1.26","f7pef121e494f23","prime","5d3b01aaa1e2fc00184aacaf","5f5a55364e9b770ed21874ff","5f60d8b20ef802057d6f087f","true","704.8450000002049","./Stimuli/SelectedImages/SM/SM24.bmp","76","","","","test","true","N + M","76","switch","SM","SM24.bmp","remember","","75","3","prime1","right","","","",""
"html-keyboard-response","197","1036825","0.0-4.0-1.0-3.26","f7pef121e494f23","prime","5d3b01aaa1e2fc00184aacaf","5f5a55364e9b770ed21874ff","5f60d8b20ef802057d6f087f","false","null","<div style=""align-items: center; display: flex; color: dodgerblue; font-size: 90px""><b>o</b></div>","null","","","","forget_cue","","","","","","","","","","","","","","","",""
"html-keyboard-response","198","1037528","0.0-4.0-1.0-0.27","f7pef121e494f23","prime","5d3b01aaa1e2fc00184aacaf","5f5a55364e9b770ed21874ff","5f60d8b20ef802057d6f087f","false","null","<span style=""color: black; font-size: 48px"">M + N</span>","null","","","","resp_prompt","","","","","","","","","","","","","","","",""
"categorize-image","199","1038203","0.0-4.0-1.0-1.27","f7pef121e494f23","prime","5d3b01aaa1e2fc00184aacaf","5f5a55364e9b770ed21874ff","5f60d8b20ef802057d6f087f","true","665.9800000052201","./Stimuli/SelectedImages/LM/LM57.bmp","83","","","","test","true","M + N","83","switch","LM","LM57.bmp","remember","","76","3","prime1","left","","","",""
"html-keyboard-response","200","1040215","0.0-4.0-1.0-3.27","f7pef121e494f23","prime","5d3b01aaa1e2fc00184aacaf","5f5a55364e9b770ed21874ff","5f60d8b20ef802057d6f087f","false","null","<div style=""align-items: center; display: flex; color: dodgerblue; font-size: 90px""><b>o</b></div>","null","","","","forget_cue","","","","","","","","","","","","","","","",""
"html-keyboard-response","201","1040923","0.0-4.0-1.0-0.28","f7pef121e494f23","prime","5d3b01aaa1e2fc00184aacaf","5f5a55364e9b770ed21874ff","5f60d8b20ef802057d6f087f","false","null","<span style=""color: black; font-size: 48px"">M + N</span>","null","","","","resp_prompt","","","","","","","","","","","","","","","",""
"categorize-image","202","1041657","0.0-4.0-1.0-1.28","f7pef121e494f23","prime","5d3b01aaa1e2fc00184aacaf","5f5a55364e9b770ed21874ff","5f60d8b20ef802057d6f087f","true","726.9800000067335","./Stimuli/SelectedImages/LN/LN101.bmp","76","","","","test","true","M + N","76","switch","LN","LN101.bmp","remember","","77","3","prime1","right","","","",""
"html-keyboard-response","203","1043673","0.0-4.0-1.0-3.28","f7pef121e494f23","prime","5d3b01aaa1e2fc00184aacaf","5f5a55364e9b770ed21874ff","5f60d8b20ef802057d6f087f","false","null","<div style=""align-items: center; display: flex; color: dodgerblue; font-size: 90px""><b>o</b></div>","null","","","","forget_cue","","","","","","","","","","","","","","","",""
"html-keyboard-response","204","1044389","0.0-4.0-1.0-0.29","f7pef121e494f23","prime","5d3b01aaa1e2fc00184aacaf","5f5a55364e9b770ed21874ff","5f60d8b20ef802057d6f087f","false","null","<span style=""color: black; font-size: 48px"">M + N</span>","null","","","","resp_prompt","","","","","","","","","","","","","","","",""
"categorize-image","205","1045113","0.0-4.0-1.0-1.29","f7pef121e494f23","prime","5d3b01aaa1e2fc00184aacaf","5f5a55364e9b770ed21874ff","5f60d8b20ef802057d6f087f","true","717.5350000034086","./Stimuli/SelectedImages/SN/SN27.bmp","76","","","","test","true","M + N","76","repetition","SN","SN27.bmp","remember","","78","3","prime1","right","","","",""
"html-keyboard-response","206","1047130","0.0-4.0-1.0-3.29","f7pef121e494f23","prime","5d3b01aaa1e2fc00184aacaf","5f5a55364e9b770ed21874ff","5f60d8b20ef802057d6f087f","false","null","<div style=""align-items: center; display: flex; color: dodgerblue; font-size: 90px""><b>o</b></div>","null","","","","forget_cue","","","","","","","","","","","","","","","",""
"html-keyboard-response","207","1047846","0.0-4.0-1.0-0.30","f7pef121e494f23","prime","5d3b01aaa1e2fc00184aacaf","5f5a55364e9b770ed21874ff","5f60d8b20ef802057d6f087f","false","null","<span style=""color: black; font-size: 48px"">N + M</span>","null","","","","resp_prompt","","","","","","","","","","","","","","","",""
"categorize-image","208","1048573","0.0-4.0-1.0-1.30","f7pef121e494f23","prime","5d3b01aaa1e2fc00184aacaf","5f5a55364e9b770ed21874ff","5f60d8b20ef802057d6f087f","true","717.040000003064","./Stimuli/SelectedImages/SN/SN181.bmp","83","","","","test","true","N + M","83","repetition","SN","SN181.bmp","forget","","79","3","prime1","left","","","",""
"html-keyboard-response","209","1050583","0.0-4.0-1.0-3.30","f7pef121e494f23","prime","5d3b01aaa1e2fc00184aacaf","5f5a55364e9b770ed21874ff","5f60d8b20ef802057d6f087f","false","null","<div style=""align-items: center; display: flex; color: darkorange; font-size: 90px""><b>ø</b></div>","null","","","","forget_cue","","","","","","","","","","","","","","","",""
"html-keyboard-response","210","1051300","0.0-4.0-1.0-0.31","f7pef121e494f23","prime","5d3b01aaa1e2fc00184aacaf","5f5a55364e9b770ed21874ff","5f60d8b20ef802057d6f087f","false","null","<span style=""color: black; font-size: 48px"">N + M</span>","null","","","","resp_prompt","","","","","","","","","","","","","","","",""
"categorize-image","211","1051963","0.0-4.0-1.0-1.31","f7pef121e494f23","prime","5d3b01aaa1e2fc00184aacaf","5f5a55364e9b770ed21874ff","5f60d8b20ef802057d6f087f","true","654.0200000018813","./Stimuli/SelectedImages/LM/LM75.bmp","76","","","","test","true","N + M","76","switch","LM","LM75.bmp","remember","","80","3","prime1","right","","","",""
"html-keyboard-response","212","1053988","0.0-4.0-1.0-3.31","f7pef121e494f23","prime","5d3b01aaa1e2fc00184aacaf","5f5a55364e9b770ed21874ff","5f60d8b20ef802057d6f087f","false","null","<div style=""align-items: center; display: flex; color: dodgerblue; font-size: 90px""><b>o</b></div>","null","","","","forget_cue","","","","","","","","","","","","","","","",""
"html-keyboard-response","213","1054703","0.0-4.0-1.0-0.32","f7pef121e494f23","prime","5d3b01aaa1e2fc00184aacaf","5f5a55364e9b770ed21874ff","5f60d8b20ef802057d6f087f","false","null","<span style=""color: black; font-size: 48px"">M + N</span>","null","","","","resp_prompt","","","","","","","","","","","","","","","",""
"categorize-image","214","1056033","0.0-4.0-1.0-1.32","f7pef121e494f23","prime","5d3b01aaa1e2fc00184aacaf","5f5a55364e9b770ed21874ff","5f60d8b20ef802057d6f087f","true","1321.2350000105798","./Stimuli/SelectedImages/LN/LN177.bmp","83","","","","test","false","M + N","76","repetition","LN","LN177.bmp","remember","","81","3","prime1","left","","","",""
"html-keyboard-response","215","1056549","0.0-4.0-1.0-2.32-0.32","f7pef121e494f23","prime","5d3b01aaa1e2fc00184aacaf","5f5a55364e9b770ed21874ff","5f60d8b20ef802057d6f087f","false","null","<span style=""color: red; font-size: 48px"">Error!</span>","null","","","","feedback","","","","","","","","","","","","","","","",""
"html-keyboard-response","216","1058566","0.0-4.0-1.0-3.32","f7pef121e494f23","prime","5d3b01aaa1e2fc00184aacaf","5f5a55364e9b770ed21874ff","5f60d8b20ef802057d6f087f","false","null","<div style=""align-items: center; display: flex; color: dodgerblue; font-size: 90px""><b>o</b></div>","null","","","","forget_cue","","","","","","","","","","","","","","","",""
"html-keyboard-response","217","1059290","0.0-4.0-1.0-0.33","f7pef121e494f23","prime","5d3b01aaa1e2fc00184aacaf","5f5a55364e9b770ed21874ff","5f60d8b20ef802057d6f087f","false","null","<span style=""color: black; font-size: 48px"">M + N</span>","null","","","","resp_prompt","","","","","","","","","","","","","","","",""
"categorize-image","218","1060025","0.0-4.0-1.0-1.33","f7pef121e494f23","prime","5d3b01aaa1e2fc00184aacaf","5f5a55364e9b770ed21874ff","5f60d8b20ef802057d6f087f","true","729.2100000048522","./Stimuli/SelectedImages/SN/SN187.bmp","83","","","","test","false","M + N","76","switch","SN","SN187.bmp","forget","","82","3","prime1","left","","","",""
"html-keyboard-response","219","1060538","0.0-4.0-1.0-2.33-0.33","f7pef121e494f23","prime","5d3b01aaa1e2fc00184aacaf","5f5a55364e9b770ed21874ff","5f60d8b20ef802057d6f087f","false","null","<span style=""color: red; font-size: 48px"">Error!</span>","null","","","","feedback","","","","","","","","","","","","","","","",""
"html-keyboard-response","220","1062541","0.0-4.0-1.0-3.33","f7pef121e494f23","prime","5d3b01aaa1e2fc00184aacaf","5f5a55364e9b770ed21874ff","5f60d8b20ef802057d6f087f","false","null","<div style=""align-items: center; display: flex; color: darkorange; font-size: 90px""><b>ø</b></div>","null","","","","forget_cue","","","","","","","","","","","","","","","",""
"html-keyboard-response","221","1063250","0.0-4.0-1.0-0.34","f7pef121e494f23","prime","5d3b01aaa1e2fc00184aacaf","5f5a55364e9b770ed21874ff","5f60d8b20ef802057d6f087f","false","null","<span style=""color: black; font-size: 48px"">M + N</span>","null","","","","resp_prompt","","","","","","","","","","","","","","","",""
"categorize-image","222","1064140","0.0-4.0-1.0-1.34","f7pef121e494f23","prime","5d3b01aaa1e2fc00184aacaf","5f5a55364e9b770ed21874ff","5f60d8b20ef802057d6f087f","true","880.4549999914598","./Stimuli/SelectedImages/LN/LN149.bmp","76","","","","test","true","M + N","76","repetition","LN","LN149.bmp","remember","","83","3","prime1","right","","","",""
"html-keyboard-response","223","1066146","0.0-4.0-1.0-3.34","f7pef121e494f23","prime","5d3b01aaa1e2fc00184aacaf","5f5a55364e9b770ed21874ff","5f60d8b20ef802057d6f087f","false","null","<div style=""align-items: center; display: flex; color: dodgerblue; font-size: 90px""><b>o</b></div>","null","","","","forget_cue","","","","","","","","","","","","","","","",""
"html-keyboard-response","224","1066862","0.0-4.0-1.0-0.35","f7pef121e494f23","prime","5d3b01aaa1e2fc00184aacaf","5f5a55364e9b770ed21874ff","5f60d8b20ef802057d6f087f","false","null","<span style=""color: black; font-size: 48px"">N + M</span>","null","","","","resp_prompt","","","","","","","","","","","","","","","",""
"categorize-image","225","1067653","0.0-4.0-1.0-1.35","f7pef121e494f23","prime","5d3b01aaa1e2fc00184aacaf","5f5a55364e9b770ed21874ff","5f60d8b20ef802057d6f087f","true","780.5399999923538","./Stimuli/SelectedImages/LN/LN13.bmp","83","","","","test","true","N + M","83","switch","LN","LN13.bmp","remember","","84","3","prime1","left","","","",""
"html-keyboard-response","226","1069666","0.0-4.0-1.0-3.35","f7pef121e494f23","prime","5d3b01aaa1e2fc00184aacaf","5f5a55364e9b770ed21874ff","5f60d8b20ef802057d6f087f","false","null","<div style=""align-items: center; display: flex; color: dodgerblue; font-size: 90px""><b>o</b></div>","null","","","","forget_cue","","","","","","","","","","","","","","","",""
"html-keyboard-response","227","1070384","0.0-4.0-1.0-0.36","f7pef121e494f23","prime","5d3b01aaa1e2fc00184aacaf","5f5a55364e9b770ed21874ff","5f60d8b20ef802057d6f087f","false","null","<span style=""color: black; font-size: 48px"">N + M</span>","null","","","","resp_prompt","","","","","","","","","","","","","","","",""
"categorize-image","228","1071173","0.0-4.0-1.0-1.36","f7pef121e494f23","prime","5d3b01aaa1e2fc00184aacaf","5f5a55364e9b770ed21874ff","5f60d8b20ef802057d6f087f","true","779.6200000010431","./Stimuli/SelectedImages/SM/SM213.bmp","76","","","","test","true","N + M","76","repetition","SM","SM213.bmp","remember","","85","3","prime1","right","","","",""
"html-keyboard-response","229","1073183","0.0-4.0-1.0-3.36","f7pef121e494f23","prime","5d3b01aaa1e2fc00184aacaf","5f5a55364e9b770ed21874ff","5f60d8b20ef802057d6f087f","false","null","<div style=""align-items: center; display: flex; color: dodgerblue; font-size: 90px""><b>o</b></div>","null","","","","forget_cue","","","","","","","","","","","","","","","",""
"html-keyboard-response","230","1073892","0.0-4.0-1.0-0.37","f7pef121e494f23","prime","5d3b01aaa1e2fc00184aacaf","5f5a55364e9b770ed21874ff","5f60d8b20ef802057d6f087f","false","null","<span style=""color: black; font-size: 48px"">M + N</span>","null","","","","resp_prompt","","","","","","","","","","","","","","","",""
"categorize-image","231","1074595","0.0-4.0-1.0-1.37","f7pef121e494f23","prime","5d3b01aaa1e2fc00184aacaf","5f5a55364e9b770ed21874ff","5f60d8b20ef802057d6f087f","true","694.6100000059232","./Stimuli/SelectedImages/SM/SM184.bmp","83","","","","test","true","M + N","83","repetition","SM","SM184.bmp","forget","","86","3","prime1","left","","","",""
"html-keyboard-response","232","1076603","0.0-4.0-1.0-3.37","f7pef121e494f23","prime","5d3b01aaa1e2fc00184aacaf","5f5a55364e9b770ed21874ff","5f60d8b20ef802057d6f087f","false","null","<div style=""align-items: center; display: flex; color: darkorange; font-size: 90px""><b>ø</b></div>","null","","","","forget_cue","","","","","","","","","","","","","","","",""
"html-keyboard-response","233","1077307","0.0-4.0-1.0-0.38","f7pef121e494f23","prime","5d3b01aaa1e2fc00184aacaf","5f5a55364e9b770ed21874ff","5f60d8b20ef802057d6f087f","false","null","<span style=""color: black; font-size: 48px"">N + M</span>","null","","","","resp_prompt","","","","","","","","","","","","","","","",""
"categorize-image","234","1077993","0.0-4.0-1.0-1.38","f7pef121e494f23","prime","5d3b01aaa1e2fc00184aacaf","5f5a55364e9b770ed21874ff","5f60d8b20ef802057d6f087f","true","679.7799999911804","./Stimuli/SelectedImages/SM/SM17.bmp","76","","","","test","true","N + M","76","repetition","SM","SM17.bmp","forget","","87","3","prime1","right","","","",""
"html-keyboard-response","235","1080003","0.0-4.0-1.0-3.38","f7pef121e494f23","prime","5d3b01aaa1e2fc00184aacaf","5f5a55364e9b770ed21874ff","5f60d8b20ef802057d6f087f","false","null","<div style=""align-items: center; display: flex; color: darkorange; font-size: 90px""><b>ø</b></div>","null","","","","forget_cue","","","","","","","","","","","","","","","",""
"html-keyboard-response","236","1080710","0.0-4.0-1.0-0.39","f7pef121e494f23","prime","5d3b01aaa1e2fc00184aacaf","5f5a55364e9b770ed21874ff","5f60d8b20ef802057d6f087f","false","null","<span style=""color: black; font-size: 48px"">M + N</span>","null","","","","resp_prompt","","","","","","","","","","","","","","","",""
"categorize-image","237","1081392","0.0-4.0-1.0-1.39","f7pef121e494f23","prime","5d3b01aaa1e2fc00184aacaf","5f5a55364e9b770ed21874ff","5f60d8b20ef802057d6f087f","true","669.3499999966007","./Stimuli/SelectedImages/SM/SM200.bmp","83","","","","test","true","M + N","83","repetition","SM","SM200.bmp","forget","","88","3","prime1","left","","","",""
"html-keyboard-response","238","1083416","0.0-4.0-1.0-3.39","f7pef121e494f23","prime","5d3b01aaa1e2fc00184aacaf","5f5a55364e9b770ed21874ff","5f60d8b20ef802057d6f087f","false","null","<div style=""align-items: center; display: flex; color: darkorange; font-size: 90px""><b>ø</b></div>","null","","","","forget_cue","","","","","","","","","","","","","","","",""
"html-keyboard-response","239","1084118","0.0-4.0-1.0-0.40","f7pef121e494f23","prime","5d3b01aaa1e2fc00184aacaf","5f5a55364e9b770ed21874ff","5f60d8b20ef802057d6f087f","false","null","<span style=""color: black; font-size: 48px"">M + N</span>","null","","","","resp_prompt","","","","","","","","","","","","","","","",""
"categorize-image","240","1086141","0.0-4.0-1.0-1.40","f7pef121e494f23","prime","5d3b01aaa1e2fc00184aacaf","5f5a55364e9b770ed21874ff","5f60d8b20ef802057d6f087f","true","null","./Stimuli/SelectedImages/LM/LM100.bmp","null","","","","test","false","M + N","83","repetition","LM","LM100.bmp","forget","","89","3","prime1","too_slow","","","",""
"html-keyboard-response","241","1086652","0.0-4.0-1.0-2.40-0.40","f7pef121e494f23","prime","5d3b01aaa1e2fc00184aacaf","5f5a55364e9b770ed21874ff","5f60d8b20ef802057d6f087f","false","null","<span style=""color: red; font-size: 48px"">Too slow!</span>","null","","","","feedback","","","","","","","","","","","","","","","",""
"html-keyboard-response","242","1088669","0.0-4.0-1.0-3.40","f7pef121e494f23","prime","5d3b01aaa1e2fc00184aacaf","5f5a55364e9b770ed21874ff","5f60d8b20ef802057d6f087f","false","null","<div style=""align-items: center; display: flex; color: darkorange; font-size: 90px""><b>ø</b></div>","null","","","","forget_cue","","","","","","","","","","","","","","","",""
"html-keyboard-response","243","1089385","0.0-4.0-1.0-0.41","f7pef121e494f23","prime","5d3b01aaa1e2fc00184aacaf","5f5a55364e9b770ed21874ff","5f60d8b20ef802057d6f087f","false","null","<span style=""color: black; font-size: 48px"">N + M</span>","null","","","","resp_prompt","","","","","","","","","","","","","","","",""
"categorize-image","244","1090124","0.0-4.0-1.0-1.41","f7pef121e494f23","prime","5d3b01aaa1e2fc00184aacaf","5f5a55364e9b770ed21874ff","5f60d8b20ef802057d6f087f","true","730.4549999970477","./Stimuli/SelectedImages/SN/SN64.bmp","76","","","","test","false","N + M","83","repetition","SN","SN64.bmp","remember","","90","3","prime1","right","","","",""
"html-keyboard-response","245","1090640","0.0-4.0-1.0-2.41-0.41","f7pef121e494f23","prime","5d3b01aaa1e2fc00184aacaf","5f5a55364e9b770ed21874ff","5f60d8b20ef802057d6f087f","false","null","<span style=""color: red; font-size: 48px"">Error!</span>","null","","","","feedback","","","","","","","","","","","","","","","",""
"html-keyboard-response","246","1092643","0.0-4.0-1.0-3.41","f7pef121e494f23","prime","5d3b01aaa1e2fc00184aacaf","5f5a55364e9b770ed21874ff","5f60d8b20ef802057d6f087f","false","null","<div style=""align-items: center; display: flex; color: dodgerblue; font-size: 90px""><b>o</b></div>","null","","","","forget_cue","","","","","","","","","","","","","","","",""
"html-keyboard-response","247","1093345","0.0-4.0-1.0-0.42","f7pef121e494f23","prime","5d3b01aaa1e2fc00184aacaf","5f5a55364e9b770ed21874ff","5f60d8b20ef802057d6f087f","false","null","<span style=""color: black; font-size: 48px"">M + N</span>","null","","","","resp_prompt","","","","","","","","","","","","","","","",""
"categorize-image","248","1094078","0.0-4.0-1.0-1.42","f7pef121e494f23","prime","5d3b01aaa1e2fc00184aacaf","5f5a55364e9b770ed21874ff","5f60d8b20ef802057d6f087f","true","723.335000002291","./Stimuli/SelectedImages/LN/LN9.bmp","76","","","","test","true","M + N","76","switch","LN","LN9.bmp","forget","","91","3","prime1","right","","","",""
"html-keyboard-response","249","1096085","0.0-4.0-1.0-3.42","f7pef121e494f23","prime","5d3b01aaa1e2fc00184aacaf","5f5a55364e9b770ed21874ff","5f60d8b20ef802057d6f087f","false","null","<div style=""align-items: center; display: flex; color: darkorange; font-size: 90px""><b>ø</b></div>","null","","","","forget_cue","","","","","","","","","","","","","","","",""
"html-keyboard-response","250","1096792","0.0-4.0-1.0-0.43","f7pef121e494f23","prime","5d3b01aaa1e2fc00184aacaf","5f5a55364e9b770ed21874ff","5f60d8b20ef802057d6f087f","false","null","<span style=""color: black; font-size: 48px"">N + M</span>","null","","","","resp_prompt","","","","","","","","","","","","","","","",""
"categorize-image","251","1097526","0.0-4.0-1.0-1.43","f7pef121e494f23","prime","5d3b01aaa1e2fc00184aacaf","5f5a55364e9b770ed21874ff","5f60d8b20ef802057d6f087f","true","725.0849999981001","./Stimuli/SelectedImages/SM/SM108.bmp","76","","","","test","true","N + M","76","switch","SM","SM108.bmp","forget","","92","3","prime1","right","","","",""
"html-keyboard-response","252","1099540","0.0-4.0-1.0-3.43","f7pef121e494f23","prime","5d3b01aaa1e2fc00184aacaf","5f5a55364e9b770ed21874ff","5f60d8b20ef802057d6f087f","false","null","<div style=""align-items: center; display: flex; color: darkorange; font-size: 90px""><b>ø</b></div>","null","","","","forget_cue","","","","","","","","","","","","","","","",""
