"trial_type","trial_index","time_elapsed","internal_node_id","subject","exp_part","prolific_PID","study_ID","session_ID","use","rt","stimulus","key_press","button_pressed","responses","question_order","trial_part","correct","resp_map","correct_resp","probe_condition","category","image","forget_condition","list","trial_num","block_num","block","response","test_part","n_span","sequence","num_spaces"
"pavlovia","0","3","0.0-0.0","zdq7s3yu99rmbro","","5f5802e065ca7d349e76eb71","5f60e3c0a3b16e07647b2ff9","5f61dbff092fc818c17be1e9","false","","","","","","","","","","","","","","","","","","","","","","",""
"html-keyboard-response","1","10210","0.0-1.0-0.0-0.0","zdq7s3yu99rmbro","welcome","5f5802e065ca7d349e76eb71","5f60e3c0a3b16e07647b2ff9","5f61dbff092fc818c17be1e9","false","10205.6749999756","<div align=left>Dear participant, <br> thank you for participating in an online study of the Cognition, Action, and Sustainability Unit of the University of Freiburg! <br> <br>The aim of this study is to examine our ability to remember previously learned information. <br>Our goal is to find out, whether our memory improves, when we only remember information that is relevant to us. <br>The experiment will take about 35 minutes to complete. <br> <br>Please, note that you can only participate in this study if you are using a device with a keyboard (PC, Laptop etc.) <br>and not if you are using a mobile device such as a tablet or smartphone.<br> <br>Press 'SPACE' to proceed to the experiment. </div>","32","","","","","","","","","","","","","","","","","","","",""
"html-keyboard-response","2","26882","0.0-1.0-0.0-1.0","zdq7s3yu99rmbro","welcome","5f5802e065ca7d349e76eb71","5f60e3c0a3b16e07647b2ff9","5f61dbff092fc818c17be1e9","false","16671.610000019427","<div align=left><strong> Time Course of this experiment: </strong> <br><br> <strong> 1.</strong>  First, please fill in some information regarding your demographic data. <br><br> <strong> 2.</strong>  Next, your task will be to classify everyday objects. <br>In addition, you will be asked to remember certain objects and recall them later. <br>Working on these tasks requires your undivided attention and concentration.<br>It is therefore essential that you eliminate any sources of distraction in your  <br>environment and ensure that you will not be disturbed. <br><br><strong> 3.</strong>  At the end of the experiment, you will be asked to answer a few additional questions. <br> <br><strong> Important:</strong> After finishing the experiment, only close the browser window <br> by clicking on the 'end the experiment'-button when you are asked to do so. <br>Closing the browser window prematurely will make the allocation of your participation credit impossible. <br><br> Press 'SPACE' to start the experiment. </div>","32","","","","","","","","","","","","","","","","","","","",""
"html-button-response","3","29098","0.0-1.0-0.0-2.0","zdq7s3yu99rmbro","welcome","5f5802e065ca7d349e76eb71","5f60e3c0a3b16e07647b2ff9","5f61dbff092fc818c17be1e9","true","2215.2549999882467","<div align=left><strong> Informed consent </strong>  <br>The aim of our research is to better understand human behavior and mental processes. <br>In the following study your behavior (e.g. choices, reaction times) will be studied. <br> <br><strong> Voluntariness and Anonymity </strong> <br>Your participation in this study is  <strong> voluntary</strong>.<br>You may withdraw your consent to participate at any time without providing a reason for doing so and without fear of prejudice. <br><br>As no personal data will be collected, <strong>your data and your person cannot be connected after data collection</strong> – the data-set is anonymous. <br>Respectively, deletion of your data will not be possible after data collection has been completed, as we cannot retrace your data-set.<br>The results and anonymized data collected in this study will be published as a scientific publication. <br>This will happen in an <strong>anonymized format</strong>, so that no data can be traced back to a specific person. <br> <br>The anonymized data of this study will be made available to other researchers and/or in a data archive on the Internet as a means of transparency and to enable subsequent re-use. By doing so, this study follows the recommendations of the Deutsche Forschungsgemeinschaft (DFG, German Research Foundation) and Deutsche Gesellschaft für Psychologie (DGPS, German Psychological Society) regarding quality assurance in research.<br>If you have any questions now or after the experiment, please contact our team (experiments@cs.uni-freiburg.de).<br><br><br>I hereby declare, that I understand the above described conditions of participation and I agree to participate under these conditions. <br><br> </div>","","0","","","","","","","","","","","","","","","","","","",""
"html-keyboard-response","4","41792","0.0-1.0-0.0-3.0","zdq7s3yu99rmbro","welcome","5f5802e065ca7d349e76eb71","5f60e3c0a3b16e07647b2ff9","5f61dbff092fc818c17be1e9","false","12692.80499999877","<div align=left><strong> General information concerning the experiment </strong>  <br> <br>Please follow the instructions:<ol> <li><strong> Do not leave this tab (your browser window) during the experiment and do not reload this tab! </strong>  <br>If you do switch tabs/windows during the experiment (to check your mail or visit another website, for example), <br>the experiment will end automatically and you will <strong>not receive credit</strong> for your participation. <br>Repeated participation or resumption of the experiment is impossible.</li> <br><li>Please close all other programs for the duration of your participation. </li> <br><li>Please mute or turn off your phone and put it out of your reach. </li> <br><li>Please also take off any disturbing accessories (such as wristwatches, bracelets, etc.). </li> <br><li>If you have music playing in the background, please turn it off now. </li> <br></ol>Thank you! <br>Press 'SPACE' to continue. </div>","32","","","","","","","","","","","","","","","","","","","",""
"survey-text","5","45326","0.0-1.0-1.0-0.0","zdq7s3yu99rmbro","demographics","5f5802e065ca7d349e76eb71","5f60e3c0a3b16e07647b2ff9","5f61dbff092fc818c17be1e9","true","3531.539999996312","","","","{""age"":""22""}","","","","","","","","","","","","","","","","","",""
"survey-multi-choice","6","62512","0.0-1.0-1.0-1.0","zdq7s3yu99rmbro","demographics","5f5802e065ca7d349e76eb71","5f60e3c0a3b16e07647b2ff9","5f61dbff092fc818c17be1e9","true","17184.67500002589","","","","{""gender"":""male"",""school"":""others"",""education"":""Completed university degree or equivalent""}","[0,1,2]","","","","","","","","","","","","","","","","",""
"html-keyboard-response","7","71489","0.0-1.0-2.0","zdq7s3yu99rmbro","instructions","5f5802e065ca7d349e76eb71","5f60e3c0a3b16e07647b2ff9","5f61dbff092fc818c17be1e9","false","8975.79500003485","<div align=left> The experiment is now about to start: <br> <br>In the following part, you will be presented pictures of everyday objects. <br>Your first task is to <strong>classify these objects. </strong> <br> <br> You will classify them either as mechanical or non-mechanical objects. <br> <br>Objects that include any kind of technical mechanism (for example, wheels, switches, levers, <br> electronic components) fall under the category of <strong>mechanical</strong> objects. <br>Only objects without any kind of technical mechanism should be classified as <strong>non-mechanical</strong>. <br><br>Press 'SPACE' to continue. </div>","32","","","","","","","","","","","","","","","","","","","",""
"html-keyboard-response","8","130852","0.0-2.0-0.0","zdq7s3yu99rmbro","instructions","5f5802e065ca7d349e76eb71","5f60e3c0a3b16e07647b2ff9","5f61dbff092fc818c17be1e9","false","59362.3249999946","<div align=justify>You will classify the objects using the <strong>'S'</strong> and the <strong>'L'</strong> keys on your keyboard.<br>For doing so, please place your <strong>left index finger</strong> on the <strong>'S'</strong> key and place your <strong>right index finger</strong> on the <strong>'L'</strong> key. <br><br> Each trial starts with an instruction, indicating which key ('S'/'L') you need to press to classify <br>the object as mechanical (letter M) or non-mechanical (letter N).<br>The instruction <strong>M + N</strong> indicates that, in the current trial, by pressing the left key ('S') you classify the displayed object as mechanical (M) <br> and by pressing the right key ('L') you classify the object as non-mechanical (N). <br>The instruction <strong>N + M</strong> on the other hand indicates that by pressing the left key ('S') you classify the displayed object as non-mechanical (N) <br> and by pressing the right key ('L') you classify the object as mechanical (M). <br><br>Please press the key corresponding to the correct classification as fast as possible as soon as the object is displayed and try to avoid making mistakes.<br>If you do not respond within a 2 second window, a corresponding feedback will be displayed and the next trial will start.<br> The experiment is divided into multiple blocks to give you the opportunity to take a break after each block. <br>First, you can now practice this task. <br><br>Please place your <strong>LEFT INDEX FINGER</strong> on the 'S' key and your <strong>RIGHT INDEX FINGER</strong> on the 'L' key now. <br><br>Press SPACE to continue.</div>","32","","","","","","","","","","","","","","","","","","","",""
"html-keyboard-response","9","141978","0.0-2.0-1.0","zdq7s3yu99rmbro","instructions","5f5802e065ca7d349e76eb71","5f60e3c0a3b16e07647b2ff9","5f61dbff092fc818c17be1e9","false","11125.390000001062","<div align=left> You will now have time to practice this task.<br><br>Remember: <br> <br><li>Please place your index fingers on the <strong>'S'</strong> and <strong>'L'</strong> keys <br>to respond as fast and accurately as possible.</li><li>Every picture can be classified as either mechanical or non-mechanical.</li><li>If you do not respond in time or commit an error, you will receive a corresponding feedback. </li><li> Please try to respond as <strong> fast </strong> and as <strong> accurately as possible </strong> .<br><li>To ensure optimal results, please minimize distractions and stay focused. </li><br><br>Press SPACE to continue.</div>","32","","","","","","","","","","","","","","","","","","","",""
"html-keyboard-response","10","142680","0.0-2.0-2.0-0.0","zdq7s3yu99rmbro","practice_no_cue","5f5802e065ca7d349e76eb71","5f60e3c0a3b16e07647b2ff9","5f61dbff092fc818c17be1e9","false","null","<span style=""color: black; font-size: 48px"">N + M</span>","null","","","","resp_prompt","","","","","","","","","","","","","","","",""
"categorize-image","11","145182","0.0-2.0-2.0-1.0","zdq7s3yu99rmbro","practice_no_cue","5f5802e065ca7d349e76eb71","5f60e3c0a3b16e07647b2ff9","5f61dbff092fc818c17be1e9","true","null","./Stimuli/ImagesPractice/LM224.jpg","null","","","","test","false","N + M","76","","LM","LM224.jpg","forget","old","1","1","start","too_slow","","","",""
"html-keyboard-response","12","145884","0.0-2.0-2.0-0.1","zdq7s3yu99rmbro","practice_no_cue","5f5802e065ca7d349e76eb71","5f60e3c0a3b16e07647b2ff9","5f61dbff092fc818c17be1e9","false","null","<span style=""color: black; font-size: 48px"">M + N</span>","null","","","","resp_prompt","","","","","","","","","","","","","","","",""
"categorize-image","13","147618","0.0-2.0-2.0-1.1","zdq7s3yu99rmbro","practice_no_cue","5f5802e065ca7d349e76eb71","5f60e3c0a3b16e07647b2ff9","5f61dbff092fc818c17be1e9","true","1233.2099999766797","./Stimuli/ImagesPractice/LN109.jpg","76","","","","test","true","M + N","76","","LN","LN109.jpg","remember","old","2","1","start","right","","","",""
"html-keyboard-response","14","148319","0.0-2.0-2.0-0.2","zdq7s3yu99rmbro","practice_no_cue","5f5802e065ca7d349e76eb71","5f60e3c0a3b16e07647b2ff9","5f61dbff092fc818c17be1e9","false","null","<span style=""color: black; font-size: 48px"">M + N</span>","null","","","","resp_prompt","","","","","","","","","","","","","","","",""
"categorize-image","15","149658","0.0-2.0-2.0-1.2","zdq7s3yu99rmbro","practice_no_cue","5f5802e065ca7d349e76eb71","5f60e3c0a3b16e07647b2ff9","5f61dbff092fc818c17be1e9","true","836.6999999852851","./Stimuli/ImagesPractice/SM97.jpg","76","","","","test","false","M + N","83","","SM","SM97.jpg","forget","old","3","1","start","right","","","",""
"html-keyboard-response","16","150358","0.0-2.0-2.0-0.3","zdq7s3yu99rmbro","practice_no_cue","5f5802e065ca7d349e76eb71","5f60e3c0a3b16e07647b2ff9","5f61dbff092fc818c17be1e9","false","null","<span style=""color: black; font-size: 48px"">N + M</span>","null","","","","resp_prompt","","","","","","","","","","","","","","","",""
"categorize-image","17","151688","0.0-2.0-2.0-1.3","zdq7s3yu99rmbro","practice_no_cue","5f5802e065ca7d349e76eb71","5f60e3c0a3b16e07647b2ff9","5f61dbff092fc818c17be1e9","true","828.7450000061654","./Stimuli/ImagesPractice/SN75.jpg","83","","","","test","true","N + M","83","","SN","SN75.jpg","remember","old","4","1","start","left","","","",""
"html-keyboard-response","18","152390","0.0-2.0-2.0-0.4","zdq7s3yu99rmbro","practice_no_cue","5f5802e065ca7d349e76eb71","5f60e3c0a3b16e07647b2ff9","5f61dbff092fc818c17be1e9","false","null","<span style=""color: black; font-size: 48px"">N + M</span>","null","","","","resp_prompt","","","","","","","","","","","","","","","",""
"categorize-image","19","153608","0.0-2.0-2.0-1.4","zdq7s3yu99rmbro","practice_no_cue","5f5802e065ca7d349e76eb71","5f60e3c0a3b16e07647b2ff9","5f61dbff092fc818c17be1e9","true","716.4450000273064","./Stimuli/ImagesPractice/SM61.jpg","83","","","","test","false","N + M","76","","SM","SM61.jpg","forget","old","5","1","start","left","","","",""
"html-keyboard-response","20","154308","0.0-2.0-2.0-0.5","zdq7s3yu99rmbro","practice_no_cue","5f5802e065ca7d349e76eb71","5f60e3c0a3b16e07647b2ff9","5f61dbff092fc818c17be1e9","false","null","<span style=""color: black; font-size: 48px"">M + N</span>","null","","","","resp_prompt","","","","","","","","","","","","","","","",""
"categorize-image","21","155622","0.0-2.0-2.0-1.5","zdq7s3yu99rmbro","practice_no_cue","5f5802e065ca7d349e76eb71","5f60e3c0a3b16e07647b2ff9","5f61dbff092fc818c17be1e9","true","811.5000000107102","./Stimuli/ImagesPractice/LM239.jpg","83","","","","test","true","M + N","83","","LM","LM239.jpg","forget","old","6","1","start","left","","","",""
"html-keyboard-response","22","156322","0.0-2.0-2.0-0.6","zdq7s3yu99rmbro","practice_no_cue","5f5802e065ca7d349e76eb71","5f60e3c0a3b16e07647b2ff9","5f61dbff092fc818c17be1e9","false","null","<span style=""color: black; font-size: 48px"">M + N</span>","null","","","","resp_prompt","","","","","","","","","","","","","","","",""
"categorize-image","23","157540","0.0-2.0-2.0-1.6","zdq7s3yu99rmbro","practice_no_cue","5f5802e065ca7d349e76eb71","5f60e3c0a3b16e07647b2ff9","5f61dbff092fc818c17be1e9","true","716.6000000433996","./Stimuli/ImagesPractice/LN15.jpg","76","","","","test","true","M + N","76","","LN","LN15.jpg","forget","old","7","1","start","right","","","",""
"html-keyboard-response","24","158241","0.0-2.0-2.0-0.7","zdq7s3yu99rmbro","practice_no_cue","5f5802e065ca7d349e76eb71","5f60e3c0a3b16e07647b2ff9","5f61dbff092fc818c17be1e9","false","null","<span style=""color: black; font-size: 48px"">M + N</span>","null","","","","resp_prompt","","","","","","","","","","","","","","","",""
"categorize-image","25","159500","0.0-2.0-2.0-1.7","zdq7s3yu99rmbro","practice_no_cue","5f5802e065ca7d349e76eb71","5f60e3c0a3b16e07647b2ff9","5f61dbff092fc818c17be1e9","true","757.8700000303797","./Stimuli/ImagesPractice/SM35.jpg","83","","","","test","true","M + N","83","","SM","SM35.jpg","remember","old","8","1","start","left","","","",""
"html-keyboard-response","26","160201","0.0-2.0-2.0-0.8","zdq7s3yu99rmbro","practice_no_cue","5f5802e065ca7d349e76eb71","5f60e3c0a3b16e07647b2ff9","5f61dbff092fc818c17be1e9","false","null","<span style=""color: black; font-size: 48px"">M + N</span>","null","","","","resp_prompt","","","","","","","","","","","","","","","",""
"categorize-image","27","161312","0.0-2.0-2.0-1.8","zdq7s3yu99rmbro","practice_no_cue","5f5802e065ca7d349e76eb71","5f60e3c0a3b16e07647b2ff9","5f61dbff092fc818c17be1e9","true","609.9900000263005","./Stimuli/ImagesPractice/LM143.jpg","83","","","","test","true","M + N","83","","LM","LM143.jpg","forget","old","9","1","start","left","","","",""
"html-keyboard-response","28","162013","0.0-2.0-2.0-0.9","zdq7s3yu99rmbro","practice_no_cue","5f5802e065ca7d349e76eb71","5f60e3c0a3b16e07647b2ff9","5f61dbff092fc818c17be1e9","false","null","<span style=""color: black; font-size: 48px"">M + N</span>","null","","","","resp_prompt","","","","","","","","","","","","","","","",""
"categorize-image","29","163142","0.0-2.0-2.0-1.9","zdq7s3yu99rmbro","practice_no_cue","5f5802e065ca7d349e76eb71","5f60e3c0a3b16e07647b2ff9","5f61dbff092fc818c17be1e9","true","628.035000001546","./Stimuli/ImagesPractice/SN221.jpg","76","","","","test","true","M + N","76","","SN","SN221.jpg","remember","old","10","1","start","right","","","",""
"html-keyboard-response","30","163843","0.0-2.0-2.0-0.10","zdq7s3yu99rmbro","practice_no_cue","5f5802e065ca7d349e76eb71","5f60e3c0a3b16e07647b2ff9","5f61dbff092fc818c17be1e9","false","null","<span style=""color: black; font-size: 48px"">N + M</span>","null","","","","resp_prompt","","","","","","","","","","","","","","","",""
"categorize-image","31","164786","0.0-2.0-2.0-1.10","zdq7s3yu99rmbro","practice_no_cue","5f5802e065ca7d349e76eb71","5f60e3c0a3b16e07647b2ff9","5f61dbff092fc818c17be1e9","true","442.67000001855195","./Stimuli/ImagesPractice/SN76.jpg","83","","","","test","true","N + M","83","","SN","SN76.jpg","forget","old","11","1","start","left","","","",""
"html-keyboard-response","32","165487","0.0-2.0-2.0-0.11","zdq7s3yu99rmbro","practice_no_cue","5f5802e065ca7d349e76eb71","5f60e3c0a3b16e07647b2ff9","5f61dbff092fc818c17be1e9","false","null","<span style=""color: black; font-size: 48px"">N + M</span>","null","","","","resp_prompt","","","","","","","","","","","","","","","",""
"categorize-image","33","166609","0.0-2.0-2.0-1.11","zdq7s3yu99rmbro","practice_no_cue","5f5802e065ca7d349e76eb71","5f60e3c0a3b16e07647b2ff9","5f61dbff092fc818c17be1e9","true","620.93500001356","./Stimuli/ImagesPractice/LM55.jpg","76","","","","test","true","N + M","76","","LM","LM55.jpg","remember","old","12","1","start","right","","","",""
"html-keyboard-response","34","167310","0.0-2.0-2.0-0.12","zdq7s3yu99rmbro","practice_no_cue","5f5802e065ca7d349e76eb71","5f60e3c0a3b16e07647b2ff9","5f61dbff092fc818c17be1e9","false","null","<span style=""color: black; font-size: 48px"">N + M</span>","null","","","","resp_prompt","","","","","","","","","","","","","","","",""
"categorize-image","35","168524","0.0-2.0-2.0-1.12","zdq7s3yu99rmbro","practice_no_cue","5f5802e065ca7d349e76eb71","5f60e3c0a3b16e07647b2ff9","5f61dbff092fc818c17be1e9","true","713.2650000276044","./Stimuli/ImagesPractice/LM230.jpg","76","","","","test","true","N + M","76","","LM","LM230.jpg","forget","old","13","1","start","right","","","",""
"html-keyboard-response","36","169224","0.0-2.0-2.0-0.13","zdq7s3yu99rmbro","practice_no_cue","5f5802e065ca7d349e76eb71","5f60e3c0a3b16e07647b2ff9","5f61dbff092fc818c17be1e9","false","null","<span style=""color: black; font-size: 48px"">N + M</span>","null","","","","resp_prompt","","","","","","","","","","","","","","","",""
"categorize-image","37","170387","0.0-2.0-2.0-1.13","zdq7s3yu99rmbro","practice_no_cue","5f5802e065ca7d349e76eb71","5f60e3c0a3b16e07647b2ff9","5f61dbff092fc818c17be1e9","true","660.5049999780022","./Stimuli/ImagesPractice/SN220.jpg","83","","","","test","true","N + M","83","","SN","SN220.jpg","remember","old","14","1","start","left","","","",""
"html-keyboard-response","38","171087","0.0-2.0-2.0-0.14","zdq7s3yu99rmbro","practice_no_cue","5f5802e065ca7d349e76eb71","5f60e3c0a3b16e07647b2ff9","5f61dbff092fc818c17be1e9","false","null","<span style=""color: black; font-size: 48px"">N + M</span>","null","","","","resp_prompt","","","","","","","","","","","","","","","",""
"categorize-image","39","172215","0.0-2.0-2.0-1.14","zdq7s3yu99rmbro","practice_no_cue","5f5802e065ca7d349e76eb71","5f60e3c0a3b16e07647b2ff9","5f61dbff092fc818c17be1e9","true","625.7149999728426","./Stimuli/ImagesPractice/LM147.jpg","76","","","","test","true","N + M","76","","LM","LM147.jpg","remember","old","15","1","start","right","","","",""
"html-keyboard-response","40","172915","0.0-2.0-2.0-0.15","zdq7s3yu99rmbro","practice_no_cue","5f5802e065ca7d349e76eb71","5f60e3c0a3b16e07647b2ff9","5f61dbff092fc818c17be1e9","false","null","<span style=""color: black; font-size: 48px"">M + N</span>","null","","","","resp_prompt","","","","","","","","","","","","","","","",""
"categorize-image","41","174146","0.0-2.0-2.0-1.15","zdq7s3yu99rmbro","practice_no_cue","5f5802e065ca7d349e76eb71","5f60e3c0a3b16e07647b2ff9","5f61dbff092fc818c17be1e9","true","729.2649999726564","./Stimuli/ImagesPractice/SM98.jpg","83","","","","test","true","M + N","83","","SM","SM98.jpg","remember","old","16","1","start","left","","","",""
"html-keyboard-response","42","178355","0.0-2.0-3.0","zdq7s3yu99rmbro","break","5f5802e065ca7d349e76eb71","5f60e3c0a3b16e07647b2ff9","5f61dbff092fc818c17be1e9","false","4207.215000002179","<p style='font-size: 32px;'>Break</><br><br><br><br><br><p style='font-size: 24px;'>In the last block, you committed 2 errors and did not respond in time on 1 trials.
</p><p style='font-size: 24px;'>Try to respond as fast and accurately as possible in the next block as well! </p><p style='font-size: 24px;'>Press SPACE to continue.</p>","32","","","","","","","","","","","","","","","","","","","",""
"html-keyboard-response","43","181807","0.0-2.0-4.0","zdq7s3yu99rmbro","instructions","5f5802e065ca7d349e76eb71","5f60e3c0a3b16e07647b2ff9","5f61dbff092fc818c17be1e9","false","3451.045000052545","<div align=left> Great!<br><br>Are you ready to continue?<br><br>If you want to reread the instructions and redo the practice trials, <br>please press „Z“. <br><br>Press SPACE to CONTINUE with the experiment when you are ready. </div>","32","","","","","","","","","","","","","","","","","","","",""
"html-keyboard-response","44","200510","0.0-3.0-0.0","zdq7s3yu99rmbro","instructions","5f5802e065ca7d349e76eb71","5f60e3c0a3b16e07647b2ff9","5f61dbff092fc818c17be1e9","false","18702.530000009574","<div align=left>Great!<br> <strong>Attention</strong>! You will now receive a second, additional task! <br><br>To this point it was you <strong>first task</strong> to correctly <strong>classify objects</strong>. <br><br>As mentioned in the beginning, we aim to examine how well humans can remember previously learned information.<br>We would like to find out whether our memory improves if we only remember information that is relevant to us. <br><br>Therefore, your <strong>second task</strong> will be to <strong>remember</strong> the pictures you are to categorize. <br> After the learning phase, there will be a memory test phase, in which you will be asked to indicate whether you have seen a picture before or not. <br>Some, but not all pictures shown in the learning phase will appear in the memory test phase.<br>After classifying a picture, you will be told whether you should remember it for the memory test phase or not. <br>Thus, some pictures can be forgotten, whereas others have to be remembered. <br><br>Note: From now on, feedback will only be displayed if you responded incorrectly or not in time.<br><br>Press SPACE to continue.</div>","32","","","","","","","","","","","","","","","","","","","",""
"html-keyboard-response","45","215854","0.0-3.0-1.0","zdq7s3yu99rmbro","instructions","5f5802e065ca7d349e76eb71","5f60e3c0a3b16e07647b2ff9","5f61dbff092fc818c17be1e9","false","15343.370000016876","<div align=left>In the following part, you will thus have to remember only some pictures. <br>Immediately after seeing and classifying the picture, a symbol will be displayed, indicating whether you should remember or forget the previous picture. <br><br>A <span style='color: dodgerblue; font-size: 28px'>O</span> indicates REMEMBER. That means, you have to remember this picture, because it will be tested later. <br><br>A <span style='color: darkorange; font-size:28px'>Ø</span> indicates FORGET. You do not have to remember this picture. <br><br> As you will have to remember a lot of pictures, it will be hard for you to remember all of them. <br>It will put you at an advantage if you instantly forget the pictures you are not asked to remember. <br> This will make it easier for you to remember the pictures that will be tested afterwards. <br><br>Press SPACE to continue.</div>","32","","","","","","","","","","","","","","","","","","","",""
"html-keyboard-response","46","217862","0.0-3.0-2.0","zdq7s3yu99rmbro","instructions","5f5802e065ca7d349e76eb71","5f60e3c0a3b16e07647b2ff9","5f61dbff092fc818c17be1e9","false","2007.1250000037253","<div align=left> Now you have the chance to practice both tasks together.<br><br>Remember: <br> <br><li>Please place your index fingers on the <strong>'S'</strong> and <strong>'L'</strong> keys <br>to respond as fast and accurately as possible.</li><li>Every picture can be classified as either mechanical or non-mechanical.</li><li>If you do not respond in time or commit an error, you will receive a corresponding feedback. <br>Please try to respond as <strong> fast </strong> and as <strong> accurately as possible </strong>.</li><li> Please remember only the to-be-remembered <span style='color: dodgerblue; font-size: 28px'>O</span> pictures. <br></li><li> Please minimize distractions and stay focused. </li><br><br>Press SPACE to START</div>","32","","","","","","","","","","","","","","","","","","","",""
"html-keyboard-response","47","218562","0.0-3.0-3.0-0.0","zdq7s3yu99rmbro","practice_cue","5f5802e065ca7d349e76eb71","5f60e3c0a3b16e07647b2ff9","5f61dbff092fc818c17be1e9","false","null","<span style=""color: black; font-size: 48px"">N + M</span>","null","","","","resp_prompt","","","","","","","","","","","","","","","",""
"categorize-image","48","219286","0.0-3.0-3.0-1.0","zdq7s3yu99rmbro","practice_cue","5f5802e065ca7d349e76eb71","5f60e3c0a3b16e07647b2ff9","5f61dbff092fc818c17be1e9","true","721.2549999821931","./Stimuli/ImagesPractice/SN220.jpg","83","","","","test","true","N + M","83","","SN","SN220.jpg","remember","old","17","2","practice_forget","left","","","",""
"html-keyboard-response","49","221287","0.0-3.0-3.0-3.0","zdq7s3yu99rmbro","practice_cue","5f5802e065ca7d349e76eb71","5f60e3c0a3b16e07647b2ff9","5f61dbff092fc818c17be1e9","false","null","<div style=""align-items: center; display: flex; color: dodgerblue; font-size: 90px""><b>o</b></div>","null","","","","forget_cue","","","","","","","","","","","","","","","",""
"html-keyboard-response","50","221987","0.0-3.0-3.0-0.1","zdq7s3yu99rmbro","practice_cue","5f5802e065ca7d349e76eb71","5f60e3c0a3b16e07647b2ff9","5f61dbff092fc818c17be1e9","false","null","<span style=""color: black; font-size: 48px"">N + M</span>","null","","","","resp_prompt","","","","","","","","","","","","","","","",""
"categorize-image","51","222802","0.0-3.0-3.0-1.1","zdq7s3yu99rmbro","practice_cue","5f5802e065ca7d349e76eb71","5f60e3c0a3b16e07647b2ff9","5f61dbff092fc818c17be1e9","true","811.4799999748357","./Stimuli/ImagesPractice/LM147.jpg","76","","","","test","true","N + M","76","","LM","LM147.jpg","remember","old","18","2","practice_forget","right","","","",""
"html-keyboard-response","52","224803","0.0-3.0-3.0-3.1","zdq7s3yu99rmbro","practice_cue","5f5802e065ca7d349e76eb71","5f60e3c0a3b16e07647b2ff9","5f61dbff092fc818c17be1e9","false","null","<div style=""align-items: center; display: flex; color: dodgerblue; font-size: 90px""><b>o</b></div>","null","","","","forget_cue","","","","","","","","","","","","","","","",""
"html-keyboard-response","53","225503","0.0-3.0-3.0-0.2","zdq7s3yu99rmbro","practice_cue","5f5802e065ca7d349e76eb71","5f60e3c0a3b16e07647b2ff9","5f61dbff092fc818c17be1e9","false","null","<span style=""color: black; font-size: 48px"">M + N</span>","null","","","","resp_prompt","","","","","","","","","","","","","","","",""
"categorize-image","54","226552","0.0-3.0-3.0-1.2","zdq7s3yu99rmbro","practice_cue","5f5802e065ca7d349e76eb71","5f60e3c0a3b16e07647b2ff9","5f61dbff092fc818c17be1e9","true","1046.1399999912828","./Stimuli/ImagesPractice/LM143.jpg","83","","","","test","true","M + N","83","","LM","LM143.jpg","forget","old","19","2","practice_forget","left","","","",""
"html-keyboard-response","55","228553","0.0-3.0-3.0-3.2","zdq7s3yu99rmbro","practice_cue","5f5802e065ca7d349e76eb71","5f60e3c0a3b16e07647b2ff9","5f61dbff092fc818c17be1e9","false","null","<div style=""align-items: center; display: flex; color: darkorange; font-size: 90px""><b>ø</b></div>","null","","","","forget_cue","","","","","","","","","","","","","","","",""
"html-keyboard-response","56","229254","0.0-3.0-3.0-0.3","zdq7s3yu99rmbro","practice_cue","5f5802e065ca7d349e76eb71","5f60e3c0a3b16e07647b2ff9","5f61dbff092fc818c17be1e9","false","null","<span style=""color: black; font-size: 48px"">N + M</span>","null","","","","resp_prompt","","","","","","","","","","","","","","","",""
"categorize-image","57","230454","0.0-3.0-3.0-1.3","zdq7s3yu99rmbro","practice_cue","5f5802e065ca7d349e76eb71","5f60e3c0a3b16e07647b2ff9","5f61dbff092fc818c17be1e9","true","1197.1699999994598","./Stimuli/ImagesPractice/LM55.jpg","76","","","","test","true","N + M","76","","LM","LM55.jpg","remember","old","20","2","practice_forget","right","","","",""
"html-keyboard-response","58","232455","0.0-3.0-3.0-3.3","zdq7s3yu99rmbro","practice_cue","5f5802e065ca7d349e76eb71","5f60e3c0a3b16e07647b2ff9","5f61dbff092fc818c17be1e9","false","null","<div style=""align-items: center; display: flex; color: dodgerblue; font-size: 90px""><b>o</b></div>","null","","","","forget_cue","","","","","","","","","","","","","","","",""
"html-keyboard-response","59","233156","0.0-3.0-3.0-0.4","zdq7s3yu99rmbro","practice_cue","5f5802e065ca7d349e76eb71","5f60e3c0a3b16e07647b2ff9","5f61dbff092fc818c17be1e9","false","null","<span style=""color: black; font-size: 48px"">N + M</span>","null","","","","resp_prompt","","","","","","","","","","","","","","","",""
"categorize-image","60","234195","0.0-3.0-3.0-1.4","zdq7s3yu99rmbro","practice_cue","5f5802e065ca7d349e76eb71","5f60e3c0a3b16e07647b2ff9","5f61dbff092fc818c17be1e9","true","1036.2549999845214","./Stimuli/ImagesPractice/SN76.jpg","83","","","","test","true","N + M","83","","SN","SN76.jpg","forget","old","21","2","practice_forget","left","","","",""
"html-keyboard-response","61","236197","0.0-3.0-3.0-3.4","zdq7s3yu99rmbro","practice_cue","5f5802e065ca7d349e76eb71","5f60e3c0a3b16e07647b2ff9","5f61dbff092fc818c17be1e9","false","null","<div style=""align-items: center; display: flex; color: darkorange; font-size: 90px""><b>ø</b></div>","null","","","","forget_cue","","","","","","","","","","","","","","","",""
"html-keyboard-response","62","236897","0.0-3.0-3.0-0.5","zdq7s3yu99rmbro","practice_cue","5f5802e065ca7d349e76eb71","5f60e3c0a3b16e07647b2ff9","5f61dbff092fc818c17be1e9","false","null","<span style=""color: black; font-size: 48px"">M + N</span>","null","","","","resp_prompt","","","","","","","","","","","","","","","",""
"categorize-image","63","237799","0.0-3.0-3.0-1.5","zdq7s3yu99rmbro","practice_cue","5f5802e065ca7d349e76eb71","5f60e3c0a3b16e07647b2ff9","5f61dbff092fc818c17be1e9","true","898.8649999955669","./Stimuli/ImagesPractice/SM97.jpg","83","","","","test","true","M + N","83","","SM","SM97.jpg","forget","old","22","2","practice_forget","left","","","",""
"html-keyboard-response","64","239800","0.0-3.0-3.0-3.5","zdq7s3yu99rmbro","practice_cue","5f5802e065ca7d349e76eb71","5f60e3c0a3b16e07647b2ff9","5f61dbff092fc818c17be1e9","false","null","<div style=""align-items: center; display: flex; color: darkorange; font-size: 90px""><b>ø</b></div>","null","","","","forget_cue","","","","","","","","","","","","","","","",""
"html-keyboard-response","65","240500","0.0-3.0-3.0-0.6","zdq7s3yu99rmbro","practice_cue","5f5802e065ca7d349e76eb71","5f60e3c0a3b16e07647b2ff9","5f61dbff092fc818c17be1e9","false","null","<span style=""color: black; font-size: 48px"">N + M</span>","null","","","","resp_prompt","","","","","","","","","","","","","","","",""
"categorize-image","66","241197","0.0-3.0-3.0-1.6","zdq7s3yu99rmbro","practice_cue","5f5802e065ca7d349e76eb71","5f60e3c0a3b16e07647b2ff9","5f61dbff092fc818c17be1e9","true","694.4750000257045","./Stimuli/ImagesPractice/LM230.jpg","76","","","","test","true","N + M","76","","LM","LM230.jpg","forget","old","23","2","practice_forget","right","","","",""
"html-keyboard-response","67","243198","0.0-3.0-3.0-3.6","zdq7s3yu99rmbro","practice_cue","5f5802e065ca7d349e76eb71","5f60e3c0a3b16e07647b2ff9","5f61dbff092fc818c17be1e9","false","null","<div style=""align-items: center; display: flex; color: darkorange; font-size: 90px""><b>ø</b></div>","null","","","","forget_cue","","","","","","","","","","","","","","","",""
"html-keyboard-response","68","243899","0.0-3.0-3.0-0.7","zdq7s3yu99rmbro","practice_cue","5f5802e065ca7d349e76eb71","5f60e3c0a3b16e07647b2ff9","5f61dbff092fc818c17be1e9","false","null","<span style=""color: black; font-size: 48px"">N + M</span>","null","","","","resp_prompt","","","","","","","","","","","","","","","",""
"categorize-image","69","244751","0.0-3.0-3.0-1.7","zdq7s3yu99rmbro","practice_cue","5f5802e065ca7d349e76eb71","5f60e3c0a3b16e07647b2ff9","5f61dbff092fc818c17be1e9","true","848.7350000068545","./Stimuli/ImagesPractice/LM224.jpg","76","","","","test","true","N + M","76","","LM","LM224.jpg","forget","old","24","2","practice_forget","right","","","",""
"html-keyboard-response","70","246752","0.0-3.0-3.0-3.7","zdq7s3yu99rmbro","practice_cue","5f5802e065ca7d349e76eb71","5f60e3c0a3b16e07647b2ff9","5f61dbff092fc818c17be1e9","false","null","<div style=""align-items: center; display: flex; color: darkorange; font-size: 90px""><b>ø</b></div>","null","","","","forget_cue","","","","","","","","","","","","","","","",""
"html-keyboard-response","71","247452","0.0-3.0-3.0-0.8","zdq7s3yu99rmbro","practice_cue","5f5802e065ca7d349e76eb71","5f60e3c0a3b16e07647b2ff9","5f61dbff092fc818c17be1e9","false","null","<span style=""color: black; font-size: 48px"">M + N</span>","null","","","","resp_prompt","","","","","","","","","","","","","","","",""
"categorize-image","72","248293","0.0-3.0-3.0-1.8","zdq7s3yu99rmbro","practice_cue","5f5802e065ca7d349e76eb71","5f60e3c0a3b16e07647b2ff9","5f61dbff092fc818c17be1e9","true","837.9449999774806","./Stimuli/ImagesPractice/SM98.jpg","83","","","","test","true","M + N","83","","SM","SM98.jpg","remember","old","25","2","practice_forget","left","","","",""
"html-keyboard-response","73","250294","0.0-3.0-3.0-3.8","zdq7s3yu99rmbro","practice_cue","5f5802e065ca7d349e76eb71","5f60e3c0a3b16e07647b2ff9","5f61dbff092fc818c17be1e9","false","null","<div style=""align-items: center; display: flex; color: dodgerblue; font-size: 90px""><b>o</b></div>","null","","","","forget_cue","","","","","","","","","","","","","","","",""
"html-keyboard-response","74","250994","0.0-3.0-3.0-0.9","zdq7s3yu99rmbro","practice_cue","5f5802e065ca7d349e76eb71","5f60e3c0a3b16e07647b2ff9","5f61dbff092fc818c17be1e9","false","null","<span style=""color: black; font-size: 48px"">M + N</span>","null","","","","resp_prompt","","","","","","","","","","","","","","","",""
"categorize-image","75","251782","0.0-3.0-3.0-1.9","zdq7s3yu99rmbro","practice_cue","5f5802e065ca7d349e76eb71","5f60e3c0a3b16e07647b2ff9","5f61dbff092fc818c17be1e9","true","785.3950000135228","./Stimuli/ImagesPractice/LN109.jpg","83","","","","test","false","M + N","76","","LN","LN109.jpg","remember","old","26","2","practice_forget","left","","","",""
"html-keyboard-response","76","252284","0.0-3.0-3.0-2.9-0.9","zdq7s3yu99rmbro","practice_cue","5f5802e065ca7d349e76eb71","5f60e3c0a3b16e07647b2ff9","5f61dbff092fc818c17be1e9","false","null","<span style=""color: red; font-size: 48px"">Error!</span>","null","","","","feedback","","","","","","","","","","","","","","","",""
"html-keyboard-response","77","254285","0.0-3.0-3.0-3.9","zdq7s3yu99rmbro","practice_cue","5f5802e065ca7d349e76eb71","5f60e3c0a3b16e07647b2ff9","5f61dbff092fc818c17be1e9","false","null","<div style=""align-items: center; display: flex; color: dodgerblue; font-size: 90px""><b>o</b></div>","null","","","","forget_cue","","","","","","","","","","","","","","","",""
"html-keyboard-response","78","254987","0.0-3.0-3.0-0.10","zdq7s3yu99rmbro","practice_cue","5f5802e065ca7d349e76eb71","5f60e3c0a3b16e07647b2ff9","5f61dbff092fc818c17be1e9","false","null","<span style=""color: black; font-size: 48px"">N + M</span>","null","","","","resp_prompt","","","","","","","","","","","","","","","",""
"categorize-image","79","255756","0.0-3.0-3.0-1.10","zdq7s3yu99rmbro","practice_cue","5f5802e065ca7d349e76eb71","5f60e3c0a3b16e07647b2ff9","5f61dbff092fc818c17be1e9","true","766.7249999940395","./Stimuli/ImagesPractice/SN75.jpg","83","","","","test","true","N + M","83","","SN","SN75.jpg","remember","old","27","2","practice_forget","left","","","",""
"html-keyboard-response","80","257757","0.0-3.0-3.0-3.10","zdq7s3yu99rmbro","practice_cue","5f5802e065ca7d349e76eb71","5f60e3c0a3b16e07647b2ff9","5f61dbff092fc818c17be1e9","false","null","<div style=""align-items: center; display: flex; color: dodgerblue; font-size: 90px""><b>o</b></div>","null","","","","forget_cue","","","","","","","","","","","","","","","",""
"html-keyboard-response","81","258458","0.0-3.0-3.0-0.11","zdq7s3yu99rmbro","practice_cue","5f5802e065ca7d349e76eb71","5f60e3c0a3b16e07647b2ff9","5f61dbff092fc818c17be1e9","false","null","<span style=""color: black; font-size: 48px"">M + N</span>","null","","","","resp_prompt","","","","","","","","","","","","","","","",""
"categorize-image","82","259456","0.0-3.0-3.0-1.11","zdq7s3yu99rmbro","practice_cue","5f5802e065ca7d349e76eb71","5f60e3c0a3b16e07647b2ff9","5f61dbff092fc818c17be1e9","true","995.409999974072","./Stimuli/ImagesPractice/SM35.jpg","83","","","","test","true","M + N","83","","SM","SM35.jpg","remember","old","28","2","practice_forget","left","","","",""
"html-keyboard-response","83","261457","0.0-3.0-3.0-3.11","zdq7s3yu99rmbro","practice_cue","5f5802e065ca7d349e76eb71","5f60e3c0a3b16e07647b2ff9","5f61dbff092fc818c17be1e9","false","null","<div style=""align-items: center; display: flex; color: dodgerblue; font-size: 90px""><b>o</b></div>","null","","","","forget_cue","","","","","","","","","","","","","","","",""
"html-keyboard-response","84","262158","0.0-3.0-3.0-0.12","zdq7s3yu99rmbro","practice_cue","5f5802e065ca7d349e76eb71","5f60e3c0a3b16e07647b2ff9","5f61dbff092fc818c17be1e9","false","null","<span style=""color: black; font-size: 48px"">N + M</span>","null","","","","resp_prompt","","","","","","","","","","","","","","","",""
"categorize-image","85","263062","0.0-3.0-3.0-1.12","zdq7s3yu99rmbro","practice_cue","5f5802e065ca7d349e76eb71","5f60e3c0a3b16e07647b2ff9","5f61dbff092fc818c17be1e9","true","901.7299999832176","./Stimuli/ImagesPractice/SM61.jpg","76","","","","test","true","N + M","76","","SM","SM61.jpg","forget","old","29","2","practice_forget","right","","","",""
"html-keyboard-response","86","265063","0.0-3.0-3.0-3.12","zdq7s3yu99rmbro","practice_cue","5f5802e065ca7d349e76eb71","5f60e3c0a3b16e07647b2ff9","5f61dbff092fc818c17be1e9","false","null","<div style=""align-items: center; display: flex; color: darkorange; font-size: 90px""><b>ø</b></div>","null","","","","forget_cue","","","","","","","","","","","","","","","",""
"html-keyboard-response","87","265763","0.0-3.0-3.0-0.13","zdq7s3yu99rmbro","practice_cue","5f5802e065ca7d349e76eb71","5f60e3c0a3b16e07647b2ff9","5f61dbff092fc818c17be1e9","false","null","<span style=""color: black; font-size: 48px"">M + N</span>","null","","","","resp_prompt","","","","","","","","","","","","","","","",""
"categorize-image","88","266685","0.0-3.0-3.0-1.13","zdq7s3yu99rmbro","practice_cue","5f5802e065ca7d349e76eb71","5f60e3c0a3b16e07647b2ff9","5f61dbff092fc818c17be1e9","true","919.0350000280887","./Stimuli/ImagesPractice/LN15.jpg","76","","","","test","true","M + N","76","","LN","LN15.jpg","forget","old","30","2","practice_forget","right","","","",""
"html-keyboard-response","89","268686","0.0-3.0-3.0-3.13","zdq7s3yu99rmbro","practice_cue","5f5802e065ca7d349e76eb71","5f60e3c0a3b16e07647b2ff9","5f61dbff092fc818c17be1e9","false","null","<div style=""align-items: center; display: flex; color: darkorange; font-size: 90px""><b>ø</b></div>","null","","","","forget_cue","","","","","","","","","","","","","","","",""
"html-keyboard-response","90","269387","0.0-3.0-3.0-0.14","zdq7s3yu99rmbro","practice_cue","5f5802e065ca7d349e76eb71","5f60e3c0a3b16e07647b2ff9","5f61dbff092fc818c17be1e9","false","null","<span style=""color: black; font-size: 48px"">M + N</span>","null","","","","resp_prompt","","","","","","","","","","","","","","","",""
"categorize-image","91","270140","0.0-3.0-3.0-1.14","zdq7s3yu99rmbro","practice_cue","5f5802e065ca7d349e76eb71","5f60e3c0a3b16e07647b2ff9","5f61dbff092fc818c17be1e9","true","750.9699999936856","./Stimuli/ImagesPractice/LM239.jpg","83","","","","test","true","M + N","83","","LM","LM239.jpg","forget","old","31","2","practice_forget","left","","","",""
"html-keyboard-response","92","272141","0.0-3.0-3.0-3.14","zdq7s3yu99rmbro","practice_cue","5f5802e065ca7d349e76eb71","5f60e3c0a3b16e07647b2ff9","5f61dbff092fc818c17be1e9","false","null","<div style=""align-items: center; display: flex; color: darkorange; font-size: 90px""><b>ø</b></div>","null","","","","forget_cue","","","","","","","","","","","","","","","",""
"html-keyboard-response","93","272842","0.0-3.0-3.0-0.15","zdq7s3yu99rmbro","practice_cue","5f5802e065ca7d349e76eb71","5f60e3c0a3b16e07647b2ff9","5f61dbff092fc818c17be1e9","false","null","<span style=""color: black; font-size: 48px"">M + N</span>","null","","","","resp_prompt","","","","","","","","","","","","","","","",""
"categorize-image","94","273527","0.0-3.0-3.0-1.15","zdq7s3yu99rmbro","practice_cue","5f5802e065ca7d349e76eb71","5f60e3c0a3b16e07647b2ff9","5f61dbff092fc818c17be1e9","true","682.5049999752082","./Stimuli/ImagesPractice/SN221.jpg","76","","","","test","true","M + N","76","","SN","SN221.jpg","remember","old","32","2","practice_forget","right","","","",""
"html-keyboard-response","95","275528","0.0-3.0-3.0-3.15","zdq7s3yu99rmbro","practice_cue","5f5802e065ca7d349e76eb71","5f60e3c0a3b16e07647b2ff9","5f61dbff092fc818c17be1e9","false","null","<div style=""align-items: center; display: flex; color: dodgerblue; font-size: 90px""><b>o</b></div>","null","","","","forget_cue","","","","","","","","","","","","","","","",""
"html-keyboard-response","96","277120","0.0-3.0-4.0","zdq7s3yu99rmbro","break","5f5802e065ca7d349e76eb71","5f60e3c0a3b16e07647b2ff9","5f61dbff092fc818c17be1e9","false","1591.3050000090152","<p style='font-size: 32px;'>Break</><br><br><br><br><br><p style='font-size: 24px;'>In the last block, you committed 1 errors and did not respond in time on 0 trials.
</p><p style='font-size: 24px;'>Try to respond as fast and accurately as possible in the next block as well! </p><p style='font-size: 24px;'>Press SPACE to continue.</p>","32","","","","","","","","","","","","","","","","","","","",""
"html-keyboard-response","97","281062","0.0-3.0-5.0","zdq7s3yu99rmbro","instructions","5f5802e065ca7d349e76eb71","5f60e3c0a3b16e07647b2ff9","5f61dbff092fc818c17be1e9","false","3941.4800000377","<div align=left> Now, to practice, we kindly ask you to remember as many of the to-be-remembered pictures<br>of the previous learning phase as possible.<br><br>The pictures you were instructed to remember were the pictures followed by a <span style='color: dodgerblue; font-size: 28px'>O</span>.<br><br>In this memory test phase, you will also see some new pictures.<br>It is your task to remember whether you were presented with this specific picture in this study so far or not.<br>If you recognize an object (you have already seen it in this study), it is an OLD object. <br>If you do not recognize an object (you have NOT seen it in this study), it is a NEW object. <br><strong> Attention</strong>: As already mentioned, <span style='color: darkorange; font-size:28px'>Ø</span>-pictures will <strong>never</strong> appear in this memory test (neither as new objects). <br><br>Press SPACE to continue. </div>","32","","","","","","","","","","","","","","","","","","","",""
"html-keyboard-response","98","305559","0.0-3.0-6.0","zdq7s3yu99rmbro","instructions","5f5802e065ca7d349e76eb71","5f60e3c0a3b16e07647b2ff9","5f61dbff092fc818c17be1e9","false","24496.295000019018","<div align=left> M and N no longer will appear on the left/right of the fixation cross. <br>Instead there will be a note at the bottom of the left or right side  <br>indicating which key you should press for an old or new object:  <br> <br>Press the <strong>right</strong> key to classify an object as <strong>old</strong> and press the <strong>left</strong>, to classify an object as <strong>new</strong>.<br>Please classify the objects as new/old by again placing your index finger on the 'S' and 'L' keys <br>and press them accordingly.<br><br><strong>Old:</strong> This object has been presented before. <br><strong>New:</strong> This object has <strong>not</strong> been presented.<br><br>Now please put your right and left index fingers on the 'S' and 'L' keys of your keyboard. <br>Please respond as fast and as accurately as possible!<br><br>Press SPACE to continue. </div>","32","","","","","","","","","","","","","","","","","","","",""
"categorize-image","99","307814","0.0-3.0-7.0-0.0","zdq7s3yu99rmbro","practice_recog","5f5802e065ca7d349e76eb71","5f60e3c0a3b16e07647b2ff9","5f61dbff092fc818c17be1e9","true","1752.669999958016","./Stimuli/ImagesPractice/SN205.jpg","76","","","","test","true","","76","","SN","SN205.jpg","","new","33","3","practice_recog","right","","","",""
"categorize-image","100","309944","0.0-3.0-7.0-0.1","zdq7s3yu99rmbro","practice_recog","5f5802e065ca7d349e76eb71","5f60e3c0a3b16e07647b2ff9","5f61dbff092fc818c17be1e9","true","1628.2199999550357","./Stimuli/ImagesPractice/LM55.jpg","83","","","","test","true","","83","","LM","LM55.jpg","","old","34","3","practice_recog","left","","","",""
"categorize-image","101","311174","0.0-3.0-7.0-0.2","zdq7s3yu99rmbro","practice_recog","5f5802e065ca7d349e76eb71","5f60e3c0a3b16e07647b2ff9","5f61dbff092fc818c17be1e9","true","728.2649999833666","./Stimuli/ImagesPractice/LM147.jpg","83","","","","test","true","","83","","LM","LM147.jpg","","old","35","3","practice_recog","left","","","",""
"categorize-image","102","312402","0.0-3.0-7.0-0.3","zdq7s3yu99rmbro","practice_recog","5f5802e065ca7d349e76eb71","5f60e3c0a3b16e07647b2ff9","5f61dbff092fc818c17be1e9","true","726.0299999616109","./Stimuli/ImagesPractice/LN4.jpg","76","","","","test","true","","76","","LN","LN4.jpg","","new","36","3","practice_recog","right","","","",""
"categorize-image","103","313576","0.0-3.0-7.0-0.4","zdq7s3yu99rmbro","practice_recog","5f5802e065ca7d349e76eb71","5f60e3c0a3b16e07647b2ff9","5f61dbff092fc818c17be1e9","true","672.4449999746867","./Stimuli/ImagesPractice/SM98.jpg","83","","","","test","true","","83","","SM","SM98.jpg","","old","37","3","practice_recog","left","","","",""
"categorize-image","104","315062","0.0-3.0-7.0-0.5","zdq7s3yu99rmbro","practice_recog","5f5802e065ca7d349e76eb71","5f60e3c0a3b16e07647b2ff9","5f61dbff092fc818c17be1e9","true","984.4649999868125","./Stimuli/ImagesPractice/SN220.jpg","83","","","","test","true","","83","","SN","SN220.jpg","","old","38","3","practice_recog","left","","","",""
"categorize-image","105","316366","0.0-3.0-7.0-0.6","zdq7s3yu99rmbro","practice_recog","5f5802e065ca7d349e76eb71","5f60e3c0a3b16e07647b2ff9","5f61dbff092fc818c17be1e9","true","802.8449999983422","./Stimuli/ImagesPractice/LN2.jpg","76","","","","test","true","","76","","LN","LN2.jpg","","new","39","3","practice_recog","right","","","",""
"categorize-image","106","317702","0.0-3.0-7.0-0.7","zdq7s3yu99rmbro","practice_recog","5f5802e065ca7d349e76eb71","5f60e3c0a3b16e07647b2ff9","5f61dbff092fc818c17be1e9","true","834.3649999587797","./Stimuli/ImagesPractice/LN109.jpg","83","","","","test","true","","83","","LN","LN109.jpg","","old","40","3","practice_recog","left","","","",""
"categorize-image","107","318848","0.0-3.0-7.0-0.8","zdq7s3yu99rmbro","practice_recog","5f5802e065ca7d349e76eb71","5f60e3c0a3b16e07647b2ff9","5f61dbff092fc818c17be1e9","true","644.4400000036694","./Stimuli/ImagesPractice/SM35.jpg","83","","","","test","true","","83","","SM","SM35.jpg","","old","41","3","practice_recog","left","","","",""
"categorize-image","108","320000","0.0-3.0-7.0-0.9","zdq7s3yu99rmbro","practice_recog","5f5802e065ca7d349e76eb71","5f60e3c0a3b16e07647b2ff9","5f61dbff092fc818c17be1e9","true","650.3999999840744","./Stimuli/ImagesPractice/SM37.jpg","76","","","","test","true","","76","","SM","SM37.jpg","","new","42","3","practice_recog","right","","","",""
"categorize-image","109","321220","0.0-3.0-7.0-0.10","zdq7s3yu99rmbro","practice_recog","5f5802e065ca7d349e76eb71","5f60e3c0a3b16e07647b2ff9","5f61dbff092fc818c17be1e9","true","718.2749999919906","./Stimuli/ImagesPractice/SM62.jpg","76","","","","test","true","","76","","SM","SM62.jpg","","new","43","3","practice_recog","right","","","",""
"categorize-image","110","322531","0.0-3.0-7.0-0.11","zdq7s3yu99rmbro","practice_recog","5f5802e065ca7d349e76eb71","5f60e3c0a3b16e07647b2ff9","5f61dbff092fc818c17be1e9","true","808.3549999864772","./Stimuli/ImagesPractice/SN75.jpg","83","","","","test","true","","83","","SN","SN75.jpg","","old","44","3","practice_recog","left","","","",""
"categorize-image","111","323726","0.0-3.0-7.0-0.12","zdq7s3yu99rmbro","practice_recog","5f5802e065ca7d349e76eb71","5f60e3c0a3b16e07647b2ff9","5f61dbff092fc818c17be1e9","true","693.9299999503419","./Stimuli/ImagesPractice/SN221.jpg","83","","","","test","true","","83","","SN","SN221.jpg","","old","45","3","practice_recog","left","","","",""
"categorize-image","112","324850","0.0-3.0-7.0-0.13","zdq7s3yu99rmbro","practice_recog","5f5802e065ca7d349e76eb71","5f60e3c0a3b16e07647b2ff9","5f61dbff092fc818c17be1e9","true","622.9450000100769","./Stimuli/ImagesPractice/LN72.jpg","76","","","","test","true","","76","","LN","LN72.jpg","","new","46","3","practice_recog","right","","","",""
"categorize-image","113","326051","0.0-3.0-7.0-0.14","zdq7s3yu99rmbro","practice_recog","5f5802e065ca7d349e76eb71","5f60e3c0a3b16e07647b2ff9","5f61dbff092fc818c17be1e9","true","699.7950000222772","./Stimuli/ImagesPractice/SN222.jpg","76","","","","test","true","","76","","SN","SN222.jpg","","new","47","3","practice_recog","right","","","",""
"categorize-image","114","327370","0.0-3.0-7.0-0.15","zdq7s3yu99rmbro","practice_recog","5f5802e065ca7d349e76eb71","5f60e3c0a3b16e07647b2ff9","5f61dbff092fc818c17be1e9","true","817.1349999611266","./Stimuli/ImagesPractice/LN17.jpg","83","","","","test","false","","76","","LN","LN17.jpg","","new","48","3","practice_recog","left","","","",""
"html-keyboard-response","115","330519","0.0-3.0-8.0","zdq7s3yu99rmbro","instructions","5f5802e065ca7d349e76eb71","5f60e3c0a3b16e07647b2ff9","5f61dbff092fc818c17be1e9","false","3148.749999993015","<div align=left> Great!<br><br>Are you ready to continue?<br>If you want to reread the instructions and redo the practice trials, please <br>press „Z“.<br><br>You can proceed when you are ready.<br><br>After the presentation of each object, you will receive an instruction whether to <br>remember or to forget the object.<br>We will test your memory of the following pictures only at the very end of <br>the experiment after all learning blocks are completed. <br><br>Press SPACE to CONTINUE when you are ready. </div>","32","","","","","","","","","","","","","","","","","","","",""
"html-keyboard-response","116","341540","0.0-4.0-0.0","zdq7s3yu99rmbro","instructions","5f5802e065ca7d349e76eb71","5f60e3c0a3b16e07647b2ff9","5f61dbff092fc818c17be1e9","false","11020.565000013448","<div align=left> The actual experiment is about to start.<br>The practice trials are over!<br><br>Please always respond both fast and accurately!<br><br>Remember: <br> <br><li> Please place your index fingers on the <strong>'S'</strong> and <strong>'L'</strong> keys <br>to respond as fast and accurately as possible.</li><li> Every picture can be classified as either mechanical or non-mechanical.</li><li> If you do not respond in time or commit an error, you will receive a corresponding feedback.<br> Please try to respond as <strong> fast </strong> and as <strong> accurately as possible </strong>.</li><li> Remember the <span style='color: dodgerblue; font-size: 28px'>O</span> pictures. <br></li><li> Please minimize distractions and stay focused. </li><br><br>Press SPACE to START.</div>","32","","","","","","","","","","","","","","","","","","","",""
"html-keyboard-response","117","342241","0.0-4.0-1.0-0.0","zdq7s3yu99rmbro","prime","5f5802e065ca7d349e76eb71","5f60e3c0a3b16e07647b2ff9","5f61dbff092fc818c17be1e9","false","null","<span style=""color: black; font-size: 48px"">N + M</span>","null","","","","resp_prompt","","","","","","","","","","","","","","","",""
"categorize-image","118","342932","0.0-4.0-1.0-1.0","zdq7s3yu99rmbro","prime","5f5802e065ca7d349e76eb71","5f60e3c0a3b16e07647b2ff9","5f61dbff092fc818c17be1e9","true","688.785000005737","./Stimuli/SelectedImages/SN/SN111.bmp","83","","","","test","true","N + M","83","repetition","SN","SN111.bmp","forget","","49","3","prime1","left","","","",""
"html-keyboard-response","119","344933","0.0-4.0-1.0-3.0","zdq7s3yu99rmbro","prime","5f5802e065ca7d349e76eb71","5f60e3c0a3b16e07647b2ff9","5f61dbff092fc818c17be1e9","false","null","<div style=""align-items: center; display: flex; color: darkorange; font-size: 90px""><b>ø</b></div>","null","","","","forget_cue","","","","","","","","","","","","","","","",""
"html-keyboard-response","120","345634","0.0-4.0-1.0-0.1","zdq7s3yu99rmbro","prime","5f5802e065ca7d349e76eb71","5f60e3c0a3b16e07647b2ff9","5f61dbff092fc818c17be1e9","false","null","<span style=""color: black; font-size: 48px"">N + M</span>","null","","","","resp_prompt","","","","","","","","","","","","","","","",""
"categorize-image","121","346414","0.0-4.0-1.0-1.1","zdq7s3yu99rmbro","prime","5f5802e065ca7d349e76eb71","5f60e3c0a3b16e07647b2ff9","5f61dbff092fc818c17be1e9","true","777.170000015758","./Stimuli/SelectedImages/LN/LN42.bmp","83","","","","test","true","N + M","83","repetition","LN","LN42.bmp","remember","","50","3","prime1","left","","","",""
"html-keyboard-response","122","348415","0.0-4.0-1.0-3.1","zdq7s3yu99rmbro","prime","5f5802e065ca7d349e76eb71","5f60e3c0a3b16e07647b2ff9","5f61dbff092fc818c17be1e9","false","null","<div style=""align-items: center; display: flex; color: dodgerblue; font-size: 90px""><b>o</b></div>","null","","","","forget_cue","","","","","","","","","","","","","","","",""
"html-keyboard-response","123","349116","0.0-4.0-1.0-0.2","zdq7s3yu99rmbro","prime","5f5802e065ca7d349e76eb71","5f60e3c0a3b16e07647b2ff9","5f61dbff092fc818c17be1e9","false","null","<span style=""color: black; font-size: 48px"">N + M</span>","null","","","","resp_prompt","","","","","","","","","","","","","","","",""
"categorize-image","124","350172","0.0-4.0-1.0-1.2","zdq7s3yu99rmbro","prime","5f5802e065ca7d349e76eb71","5f60e3c0a3b16e07647b2ff9","5f61dbff092fc818c17be1e9","true","1053.7250000052154","./Stimuli/SelectedImages/LN/LN149.bmp","83","","","","test","true","N + M","83","repetition","LN","LN149.bmp","forget","","51","3","prime1","left","","","",""
"html-keyboard-response","125","352173","0.0-4.0-1.0-3.2","zdq7s3yu99rmbro","prime","5f5802e065ca7d349e76eb71","5f60e3c0a3b16e07647b2ff9","5f61dbff092fc818c17be1e9","false","null","<div style=""align-items: center; display: flex; color: darkorange; font-size: 90px""><b>ø</b></div>","null","","","","forget_cue","","","","","","","","","","","","","","","",""
"html-keyboard-response","126","352873","0.0-4.0-1.0-0.3","zdq7s3yu99rmbro","prime","5f5802e065ca7d349e76eb71","5f60e3c0a3b16e07647b2ff9","5f61dbff092fc818c17be1e9","false","null","<span style=""color: black; font-size: 48px"">M + N</span>","null","","","","resp_prompt","","","","","","","","","","","","","","","",""
"categorize-image","127","353582","0.0-4.0-1.0-1.3","zdq7s3yu99rmbro","prime","5f5802e065ca7d349e76eb71","5f60e3c0a3b16e07647b2ff9","5f61dbff092fc818c17be1e9","true","705.7799999602139","./Stimuli/SelectedImages/LN/LN166.bmp","76","","","","test","true","M + N","76","repetition","LN","LN166.bmp","remember","","52","3","prime1","right","","","",""
"html-keyboard-response","128","355583","0.0-4.0-1.0-3.3","zdq7s3yu99rmbro","prime","5f5802e065ca7d349e76eb71","5f60e3c0a3b16e07647b2ff9","5f61dbff092fc818c17be1e9","false","null","<div style=""align-items: center; display: flex; color: dodgerblue; font-size: 90px""><b>o</b></div>","null","","","","forget_cue","","","","","","","","","","","","","","","",""
"html-keyboard-response","129","356284","0.0-4.0-1.0-0.4","zdq7s3yu99rmbro","prime","5f5802e065ca7d349e76eb71","5f60e3c0a3b16e07647b2ff9","5f61dbff092fc818c17be1e9","false","null","<span style=""color: black; font-size: 48px"">M + N</span>","null","","","","resp_prompt","","","","","","","","","","","","","","","",""
"categorize-image","130","357134","0.0-4.0-1.0-1.4","zdq7s3yu99rmbro","prime","5f5802e065ca7d349e76eb71","5f60e3c0a3b16e07647b2ff9","5f61dbff092fc818c17be1e9","true","847.6500000106171","./Stimuli/SelectedImages/SM/SM195.bmp","83","","","","test","true","M + N","83","switch","SM","SM195.bmp","forget","","53","3","prime1","left","","","",""
"html-keyboard-response","131","359135","0.0-4.0-1.0-3.4","zdq7s3yu99rmbro","prime","5f5802e065ca7d349e76eb71","5f60e3c0a3b16e07647b2ff9","5f61dbff092fc818c17be1e9","false","null","<div style=""align-items: center; display: flex; color: darkorange; font-size: 90px""><b>ø</b></div>","null","","","","forget_cue","","","","","","","","","","","","","","","",""
"html-keyboard-response","132","359836","0.0-4.0-1.0-0.5","zdq7s3yu99rmbro","prime","5f5802e065ca7d349e76eb71","5f60e3c0a3b16e07647b2ff9","5f61dbff092fc818c17be1e9","false","null","<span style=""color: black; font-size: 48px"">N + M</span>","null","","","","resp_prompt","","","","","","","","","","","","","","","",""
"categorize-image","133","360670","0.0-4.0-1.0-1.5","zdq7s3yu99rmbro","prime","5f5802e065ca7d349e76eb71","5f60e3c0a3b16e07647b2ff9","5f61dbff092fc818c17be1e9","true","831.4799999934621","./Stimuli/SelectedImages/LN/LN28.bmp","76","","","","test","false","N + M","83","switch","LN","LN28.bmp","forget","","54","3","prime1","right","","","",""
"html-keyboard-response","134","361170","0.0-4.0-1.0-2.5-0.5","zdq7s3yu99rmbro","prime","5f5802e065ca7d349e76eb71","5f60e3c0a3b16e07647b2ff9","5f61dbff092fc818c17be1e9","false","null","<span style=""color: red; font-size: 48px"">Error!</span>","null","","","","feedback","","","","","","","","","","","","","","","",""
"html-keyboard-response","135","363171","0.0-4.0-1.0-3.5","zdq7s3yu99rmbro","prime","5f5802e065ca7d349e76eb71","5f60e3c0a3b16e07647b2ff9","5f61dbff092fc818c17be1e9","false","null","<div style=""align-items: center; display: flex; color: darkorange; font-size: 90px""><b>ø</b></div>","null","","","","forget_cue","","","","","","","","","","","","","","","",""
"html-keyboard-response","136","363872","0.0-4.0-1.0-0.6","zdq7s3yu99rmbro","prime","5f5802e065ca7d349e76eb71","5f60e3c0a3b16e07647b2ff9","5f61dbff092fc818c17be1e9","false","null","<span style=""color: black; font-size: 48px"">N + M</span>","null","","","","resp_prompt","","","","","","","","","","","","","","","",""
"categorize-image","137","364958","0.0-4.0-1.0-1.6","zdq7s3yu99rmbro","prime","5f5802e065ca7d349e76eb71","5f60e3c0a3b16e07647b2ff9","5f61dbff092fc818c17be1e9","true","1083.3149999962188","./Stimuli/SelectedImages/LM/LM209.bmp","76","","","","test","true","N + M","76","repetition","LM","LM209.bmp","remember","","55","3","prime1","right","","","",""
"html-keyboard-response","138","366958","0.0-4.0-1.0-3.6","zdq7s3yu99rmbro","prime","5f5802e065ca7d349e76eb71","5f60e3c0a3b16e07647b2ff9","5f61dbff092fc818c17be1e9","false","null","<div style=""align-items: center; display: flex; color: dodgerblue; font-size: 90px""><b>o</b></div>","null","","","","forget_cue","","","","","","","","","","","","","","","",""
"html-keyboard-response","139","367659","0.0-4.0-1.0-0.7","zdq7s3yu99rmbro","prime","5f5802e065ca7d349e76eb71","5f60e3c0a3b16e07647b2ff9","5f61dbff092fc818c17be1e9","false","null","<span style=""color: black; font-size: 48px"">M + N</span>","null","","","","resp_prompt","","","","","","","","","","","","","","","",""
"categorize-image","140","368987","0.0-4.0-1.0-1.7","zdq7s3yu99rmbro","prime","5f5802e065ca7d349e76eb71","5f60e3c0a3b16e07647b2ff9","5f61dbff092fc818c17be1e9","true","1325.9249999537133","./Stimuli/SelectedImages/LN/LN92.bmp","76","","","","test","true","M + N","76","repetition","LN","LN92.bmp","forget","","56","3","prime1","right","","","",""
"html-keyboard-response","141","370988","0.0-4.0-1.0-3.7","zdq7s3yu99rmbro","prime","5f5802e065ca7d349e76eb71","5f60e3c0a3b16e07647b2ff9","5f61dbff092fc818c17be1e9","false","null","<div style=""align-items: center; display: flex; color: darkorange; font-size: 90px""><b>ø</b></div>","null","","","","forget_cue","","","","","","","","","","","","","","","",""
"html-keyboard-response","142","371689","0.0-4.0-1.0-0.8","zdq7s3yu99rmbro","prime","5f5802e065ca7d349e76eb71","5f60e3c0a3b16e07647b2ff9","5f61dbff092fc818c17be1e9","false","null","<span style=""color: black; font-size: 48px"">N + M</span>","null","","","","resp_prompt","","","","","","","","","","","","","","","",""
"categorize-image","143","372476","0.0-4.0-1.0-1.8","zdq7s3yu99rmbro","prime","5f5802e065ca7d349e76eb71","5f60e3c0a3b16e07647b2ff9","5f61dbff092fc818c17be1e9","true","785.2950000087731","./Stimuli/SelectedImages/LM/LM59.bmp","83","","","","test","false","N + M","76","repetition","LM","LM59.bmp","forget","","57","3","prime1","left","","","",""
"html-keyboard-response","144","372977","0.0-4.0-1.0-2.8-0.8","zdq7s3yu99rmbro","prime","5f5802e065ca7d349e76eb71","5f60e3c0a3b16e07647b2ff9","5f61dbff092fc818c17be1e9","false","null","<span style=""color: red; font-size: 48px"">Error!</span>","null","","","","feedback","","","","","","","","","","","","","","","",""
"html-keyboard-response","145","374978","0.0-4.0-1.0-3.8","zdq7s3yu99rmbro","prime","5f5802e065ca7d349e76eb71","5f60e3c0a3b16e07647b2ff9","5f61dbff092fc818c17be1e9","false","null","<div style=""align-items: center; display: flex; color: darkorange; font-size: 90px""><b>ø</b></div>","null","","","","forget_cue","","","","","","","","","","","","","","","",""
"html-keyboard-response","146","375678","0.0-4.0-1.0-0.9","zdq7s3yu99rmbro","prime","5f5802e065ca7d349e76eb71","5f60e3c0a3b16e07647b2ff9","5f61dbff092fc818c17be1e9","false","null","<span style=""color: black; font-size: 48px"">N + M</span>","null","","","","resp_prompt","","","","","","","","","","","","","","","",""
"categorize-image","147","376476","0.0-4.0-1.0-1.9","zdq7s3yu99rmbro","prime","5f5802e065ca7d349e76eb71","5f60e3c0a3b16e07647b2ff9","5f61dbff092fc818c17be1e9","true","794.5900000049733","./Stimuli/SelectedImages/LM/LM103.bmp","76","","","","test","true","N + M","76","switch","LM","LM103.bmp","forget","","58","3","prime1","right","","","",""
"html-keyboard-response","148","378477","0.0-4.0-1.0-3.9","zdq7s3yu99rmbro","prime","5f5802e065ca7d349e76eb71","5f60e3c0a3b16e07647b2ff9","5f61dbff092fc818c17be1e9","false","null","<div style=""align-items: center; display: flex; color: darkorange; font-size: 90px""><b>ø</b></div>","null","","","","forget_cue","","","","","","","","","","","","","","","",""
"html-keyboard-response","149","379178","0.0-4.0-1.0-0.10","zdq7s3yu99rmbro","prime","5f5802e065ca7d349e76eb71","5f60e3c0a3b16e07647b2ff9","5f61dbff092fc818c17be1e9","false","null","<span style=""color: black; font-size: 48px"">M + N</span>","null","","","","resp_prompt","","","","","","","","","","","","","","","",""
"categorize-image","150","379948","0.0-4.0-1.0-1.10","zdq7s3yu99rmbro","prime","5f5802e065ca7d349e76eb71","5f60e3c0a3b16e07647b2ff9","5f61dbff092fc818c17be1e9","true","768.6199999880046","./Stimuli/SelectedImages/LM/LM129.bmp","83","","","","test","true","M + N","83","switch","LM","LM129.bmp","forget","","59","3","prime1","left","","","",""
"html-keyboard-response","151","381949","0.0-4.0-1.0-3.10","zdq7s3yu99rmbro","prime","5f5802e065ca7d349e76eb71","5f60e3c0a3b16e07647b2ff9","5f61dbff092fc818c17be1e9","false","null","<div style=""align-items: center; display: flex; color: darkorange; font-size: 90px""><b>ø</b></div>","null","","","","forget_cue","","","","","","","","","","","","","","","",""
"html-keyboard-response","152","382650","0.0-4.0-1.0-0.11","zdq7s3yu99rmbro","prime","5f5802e065ca7d349e76eb71","5f60e3c0a3b16e07647b2ff9","5f61dbff092fc818c17be1e9","false","null","<span style=""color: black; font-size: 48px"">M + N</span>","null","","","","resp_prompt","","","","","","","","","","","","","","","",""
"categorize-image","153","383613","0.0-4.0-1.0-1.11","zdq7s3yu99rmbro","prime","5f5802e065ca7d349e76eb71","5f60e3c0a3b16e07647b2ff9","5f61dbff092fc818c17be1e9","true","960.8100000186823","./Stimuli/SelectedImages/LM/LM167.bmp","83","","","","test","true","M + N","83","switch","LM","LM167.bmp","forget","","60","3","prime1","left","","","",""
"html-keyboard-response","154","385614","0.0-4.0-1.0-3.11","zdq7s3yu99rmbro","prime","5f5802e065ca7d349e76eb71","5f60e3c0a3b16e07647b2ff9","5f61dbff092fc818c17be1e9","false","null","<div style=""align-items: center; display: flex; color: darkorange; font-size: 90px""><b>ø</b></div>","null","","","","forget_cue","","","","","","","","","","","","","","","",""
"html-keyboard-response","155","386315","0.0-4.0-1.0-0.12","zdq7s3yu99rmbro","prime","5f5802e065ca7d349e76eb71","5f60e3c0a3b16e07647b2ff9","5f61dbff092fc818c17be1e9","false","null","<span style=""color: black; font-size: 48px"">M + N</span>","null","","","","resp_prompt","","","","","","","","","","","","","","","",""
"categorize-image","156","387051","0.0-4.0-1.0-1.12","zdq7s3yu99rmbro","prime","5f5802e065ca7d349e76eb71","5f60e3c0a3b16e07647b2ff9","5f61dbff092fc818c17be1e9","true","733.6749999667518","./Stimuli/SelectedImages/SN/SN140.bmp","76","","","","test","true","M + N","76","repetition","SN","SN140.bmp","remember","","61","3","prime1","right","","","",""
"html-keyboard-response","157","389053","0.0-4.0-1.0-3.12","zdq7s3yu99rmbro","prime","5f5802e065ca7d349e76eb71","5f60e3c0a3b16e07647b2ff9","5f61dbff092fc818c17be1e9","false","null","<div style=""align-items: center; display: flex; color: dodgerblue; font-size: 90px""><b>o</b></div>","null","","","","forget_cue","","","","","","","","","","","","","","","",""
"html-keyboard-response","158","389753","0.0-4.0-1.0-0.13","zdq7s3yu99rmbro","prime","5f5802e065ca7d349e76eb71","5f60e3c0a3b16e07647b2ff9","5f61dbff092fc818c17be1e9","false","null","<span style=""color: black; font-size: 48px"">M + N</span>","null","","","","resp_prompt","","","","","","","","","","","","","","","",""
"categorize-image","159","390629","0.0-4.0-1.0-1.13","zdq7s3yu99rmbro","prime","5f5802e065ca7d349e76eb71","5f60e3c0a3b16e07647b2ff9","5f61dbff092fc818c17be1e9","true","873.3899999642745","./Stimuli/SelectedImages/LM/LM58.bmp","76","","","","test","false","M + N","83","repetition","LM","LM58.bmp","remember","","62","3","prime1","right","","","",""
"html-keyboard-response","160","391129","0.0-4.0-1.0-2.13-0.13","zdq7s3yu99rmbro","prime","5f5802e065ca7d349e76eb71","5f60e3c0a3b16e07647b2ff9","5f61dbff092fc818c17be1e9","false","null","<span style=""color: red; font-size: 48px"">Error!</span>","null","","","","feedback","","","","","","","","","","","","","","","",""
"html-keyboard-response","161","393130","0.0-4.0-1.0-3.13","zdq7s3yu99rmbro","prime","5f5802e065ca7d349e76eb71","5f60e3c0a3b16e07647b2ff9","5f61dbff092fc818c17be1e9","false","null","<div style=""align-items: center; display: flex; color: dodgerblue; font-size: 90px""><b>o</b></div>","null","","","","forget_cue","","","","","","","","","","","","","","","",""
"html-keyboard-response","162","393831","0.0-4.0-1.0-0.14","zdq7s3yu99rmbro","prime","5f5802e065ca7d349e76eb71","5f60e3c0a3b16e07647b2ff9","5f61dbff092fc818c17be1e9","false","null","<span style=""color: black; font-size: 48px"">M + N</span>","null","","","","resp_prompt","","","","","","","","","","","","","","","",""
"categorize-image","163","394827","0.0-4.0-1.0-1.14","zdq7s3yu99rmbro","prime","5f5802e065ca7d349e76eb71","5f60e3c0a3b16e07647b2ff9","5f61dbff092fc818c17be1e9","true","992.3149999813177","./Stimuli/SelectedImages/LN/LN59.bmp","76","","","","test","true","M + N","76","switch","LN","LN59.bmp","forget","","63","3","prime1","right","","","",""
"html-keyboard-response","164","396828","0.0-4.0-1.0-3.14","zdq7s3yu99rmbro","prime","5f5802e065ca7d349e76eb71","5f60e3c0a3b16e07647b2ff9","5f61dbff092fc818c17be1e9","false","null","<div style=""align-items: center; display: flex; color: darkorange; font-size: 90px""><b>ø</b></div>","null","","","","forget_cue","","","","","","","","","","","","","","","",""
"html-keyboard-response","165","397529","0.0-4.0-1.0-0.15","zdq7s3yu99rmbro","prime","5f5802e065ca7d349e76eb71","5f60e3c0a3b16e07647b2ff9","5f61dbff092fc818c17be1e9","false","null","<span style=""color: black; font-size: 48px"">M + N</span>","null","","","","resp_prompt","","","","","","","","","","","","","","","",""
"categorize-image","166","398144","0.0-4.0-1.0-1.15","zdq7s3yu99rmbro","prime","5f5802e065ca7d349e76eb71","5f60e3c0a3b16e07647b2ff9","5f61dbff092fc818c17be1e9","true","612.665000022389","./Stimuli/SelectedImages/LN/LN128.bmp","83","","","","test","false","M + N","76","switch","LN","LN128.bmp","remember","","64","3","prime1","left","","","",""
"html-keyboard-response","167","398645","0.0-4.0-1.0-2.15-0.15","zdq7s3yu99rmbro","prime","5f5802e065ca7d349e76eb71","5f60e3c0a3b16e07647b2ff9","5f61dbff092fc818c17be1e9","false","null","<span style=""color: red; font-size: 48px"">Error!</span>","null","","","","feedback","","","","","","","","","","","","","","","",""
"html-keyboard-response","168","400646","0.0-4.0-1.0-3.15","zdq7s3yu99rmbro","prime","5f5802e065ca7d349e76eb71","5f60e3c0a3b16e07647b2ff9","5f61dbff092fc818c17be1e9","false","null","<div style=""align-items: center; display: flex; color: dodgerblue; font-size: 90px""><b>o</b></div>","null","","","","forget_cue","","","","","","","","","","","","","","","",""
"html-keyboard-response","169","401347","0.0-4.0-1.0-0.16","zdq7s3yu99rmbro","prime","5f5802e065ca7d349e76eb71","5f60e3c0a3b16e07647b2ff9","5f61dbff092fc818c17be1e9","false","null","<span style=""color: black; font-size: 48px"">M + N</span>","null","","","","resp_prompt","","","","","","","","","","","","","","","",""
"categorize-image","170","402355","0.0-4.0-1.0-1.16","zdq7s3yu99rmbro","prime","5f5802e065ca7d349e76eb71","5f60e3c0a3b16e07647b2ff9","5f61dbff092fc818c17be1e9","true","1004.735000024084","./Stimuli/SelectedImages/SN/SN18.bmp","76","","","","test","true","M + N","76","repetition","SN","SN18.bmp","remember","","65","3","prime1","right","","","",""
"html-keyboard-response","171","404355","0.0-4.0-1.0-3.16","zdq7s3yu99rmbro","prime","5f5802e065ca7d349e76eb71","5f60e3c0a3b16e07647b2ff9","5f61dbff092fc818c17be1e9","false","null","<div style=""align-items: center; display: flex; color: dodgerblue; font-size: 90px""><b>o</b></div>","null","","","","forget_cue","","","","","","","","","","","","","","","",""
"html-keyboard-response","172","405056","0.0-4.0-1.0-0.17","zdq7s3yu99rmbro","prime","5f5802e065ca7d349e76eb71","5f60e3c0a3b16e07647b2ff9","5f61dbff092fc818c17be1e9","false","null","<span style=""color: black; font-size: 48px"">M + N</span>","null","","","","resp_prompt","","","","","","","","","","","","","","","",""
"categorize-image","173","406113","0.0-4.0-1.0-1.17","zdq7s3yu99rmbro","prime","5f5802e065ca7d349e76eb71","5f60e3c0a3b16e07647b2ff9","5f61dbff092fc818c17be1e9","true","1053.3900000154972","./Stimuli/SelectedImages/SM/SM184.bmp","83","","","","test","true","M + N","83","switch","SM","SM184.bmp","remember","","66","3","prime1","left","","","",""
"html-keyboard-response","174","408114","0.0-4.0-1.0-3.17","zdq7s3yu99rmbro","prime","5f5802e065ca7d349e76eb71","5f60e3c0a3b16e07647b2ff9","5f61dbff092fc818c17be1e9","false","null","<div style=""align-items: center; display: flex; color: dodgerblue; font-size: 90px""><b>o</b></div>","null","","","","forget_cue","","","","","","","","","","","","","","","",""
"html-keyboard-response","175","408815","0.0-4.0-1.0-0.18","zdq7s3yu99rmbro","prime","5f5802e065ca7d349e76eb71","5f60e3c0a3b16e07647b2ff9","5f61dbff092fc818c17be1e9","false","null","<span style=""color: black; font-size: 48px"">M + N</span>","null","","","","resp_prompt","","","","","","","","","","","","","","","",""
"categorize-image","176","409553","0.0-4.0-1.0-1.18","zdq7s3yu99rmbro","prime","5f5802e065ca7d349e76eb71","5f60e3c0a3b16e07647b2ff9","5f61dbff092fc818c17be1e9","true","736.0950000002049","./Stimuli/SelectedImages/LM/LM216.bmp","83","","","","test","true","M + N","83","repetition","LM","LM216.bmp","forget","","67","3","prime1","left","","","",""
"html-keyboard-response","177","411555","0.0-4.0-1.0-3.18","zdq7s3yu99rmbro","prime","5f5802e065ca7d349e76eb71","5f60e3c0a3b16e07647b2ff9","5f61dbff092fc818c17be1e9","false","null","<div style=""align-items: center; display: flex; color: darkorange; font-size: 90px""><b>ø</b></div>","null","","","","forget_cue","","","","","","","","","","","","","","","",""
"html-keyboard-response","178","412255","0.0-4.0-1.0-0.19","zdq7s3yu99rmbro","prime","5f5802e065ca7d349e76eb71","5f60e3c0a3b16e07647b2ff9","5f61dbff092fc818c17be1e9","false","null","<span style=""color: black; font-size: 48px"">N + M</span>","null","","","","resp_prompt","","","","","","","","","","","","","","","",""
"categorize-image","179","412999","0.0-4.0-1.0-1.19","zdq7s3yu99rmbro","prime","5f5802e065ca7d349e76eb71","5f60e3c0a3b16e07647b2ff9","5f61dbff092fc818c17be1e9","true","741.2800000165589","./Stimuli/SelectedImages/SN/SN64.bmp","83","","","","test","true","N + M","83","repetition","SN","SN64.bmp","forget","","68","3","prime1","left","","","",""
"html-keyboard-response","180","415000","0.0-4.0-1.0-3.19","zdq7s3yu99rmbro","prime","5f5802e065ca7d349e76eb71","5f60e3c0a3b16e07647b2ff9","5f61dbff092fc818c17be1e9","false","null","<div style=""align-items: center; display: flex; color: darkorange; font-size: 90px""><b>ø</b></div>","null","","","","forget_cue","","","","","","","","","","","","","","","",""
"html-keyboard-response","181","415700","0.0-4.0-1.0-0.20","zdq7s3yu99rmbro","prime","5f5802e065ca7d349e76eb71","5f60e3c0a3b16e07647b2ff9","5f61dbff092fc818c17be1e9","false","null","<span style=""color: black; font-size: 48px"">N + M</span>","null","","","","resp_prompt","","","","","","","","","","","","","","","",""
"categorize-image","182","416491","0.0-4.0-1.0-1.20","zdq7s3yu99rmbro","prime","5f5802e065ca7d349e76eb71","5f60e3c0a3b16e07647b2ff9","5f61dbff092fc818c17be1e9","true","788.1050000432879","./Stimuli/SelectedImages/SM/SM148.bmp","76","","","","test","true","N + M","76","switch","SM","SM148.bmp","forget","","69","3","prime1","right","","","",""
"html-keyboard-response","183","418491","0.0-4.0-1.0-3.20","zdq7s3yu99rmbro","prime","5f5802e065ca7d349e76eb71","5f60e3c0a3b16e07647b2ff9","5f61dbff092fc818c17be1e9","false","null","<div style=""align-items: center; display: flex; color: darkorange; font-size: 90px""><b>ø</b></div>","null","","","","forget_cue","","","","","","","","","","","","","","","",""
"html-keyboard-response","184","419192","0.0-4.0-1.0-0.21","zdq7s3yu99rmbro","prime","5f5802e065ca7d349e76eb71","5f60e3c0a3b16e07647b2ff9","5f61dbff092fc818c17be1e9","false","null","<span style=""color: black; font-size: 48px"">M + N</span>","null","","","","resp_prompt","","","","","","","","","","","","","","","",""
"categorize-image","185","420163","0.0-4.0-1.0-1.21","zdq7s3yu99rmbro","prime","5f5802e065ca7d349e76eb71","5f60e3c0a3b16e07647b2ff9","5f61dbff092fc818c17be1e9","true","967.7399999927729","./Stimuli/SelectedImages/LM/LM157.bmp","83","","","","test","true","M + N","83","switch","LM","LM157.bmp","remember","","70","3","prime1","left","","","",""
"html-keyboard-response","186","422164","0.0-4.0-1.0-3.21","zdq7s3yu99rmbro","prime","5f5802e065ca7d349e76eb71","5f60e3c0a3b16e07647b2ff9","5f61dbff092fc818c17be1e9","false","null","<div style=""align-items: center; display: flex; color: dodgerblue; font-size: 90px""><b>o</b></div>","null","","","","forget_cue","","","","","","","","","","","","","","","",""
"html-keyboard-response","187","422864","0.0-4.0-1.0-0.22","zdq7s3yu99rmbro","prime","5f5802e065ca7d349e76eb71","5f60e3c0a3b16e07647b2ff9","5f61dbff092fc818c17be1e9","false","null","<span style=""color: black; font-size: 48px"">M + N</span>","null","","","","resp_prompt","","","","","","","","","","","","","","","",""
"categorize-image","188","423695","0.0-4.0-1.0-1.22","zdq7s3yu99rmbro","prime","5f5802e065ca7d349e76eb71","5f60e3c0a3b16e07647b2ff9","5f61dbff092fc818c17be1e9","true","828.1799999531358","./Stimuli/SelectedImages/LM/LM48.bmp","83","","","","test","true","M + N","83","repetition","LM","LM48.bmp","remember","","71","3","prime1","left","","","",""
"html-keyboard-response","189","425697","0.0-4.0-1.0-3.22","zdq7s3yu99rmbro","prime","5f5802e065ca7d349e76eb71","5f60e3c0a3b16e07647b2ff9","5f61dbff092fc818c17be1e9","false","null","<div style=""align-items: center; display: flex; color: dodgerblue; font-size: 90px""><b>o</b></div>","null","","","","forget_cue","","","","","","","","","","","","","","","",""
"html-keyboard-response","190","426398","0.0-4.0-1.0-0.23","zdq7s3yu99rmbro","prime","5f5802e065ca7d349e76eb71","5f60e3c0a3b16e07647b2ff9","5f61dbff092fc818c17be1e9","false","null","<span style=""color: black; font-size: 48px"">M + N</span>","null","","","","resp_prompt","","","","","","","","","","","","","","","",""
"categorize-image","191","427435","0.0-4.0-1.0-1.23","zdq7s3yu99rmbro","prime","5f5802e065ca7d349e76eb71","5f60e3c0a3b16e07647b2ff9","5f61dbff092fc818c17be1e9","true","1034.650000045076","./Stimuli/SelectedImages/LM/LM51.bmp","83","","","","test","true","M + N","83","repetition","LM","LM51.bmp","forget","","72","3","prime1","left","","","",""
"html-keyboard-response","192","429435","0.0-4.0-1.0-3.23","zdq7s3yu99rmbro","prime","5f5802e065ca7d349e76eb71","5f60e3c0a3b16e07647b2ff9","5f61dbff092fc818c17be1e9","false","null","<div style=""align-items: center; display: flex; color: darkorange; font-size: 90px""><b>ø</b></div>","null","","","","forget_cue","","","","","","","","","","","","","","","",""
"html-keyboard-response","193","430136","0.0-4.0-1.0-0.24","zdq7s3yu99rmbro","prime","5f5802e065ca7d349e76eb71","5f60e3c0a3b16e07647b2ff9","5f61dbff092fc818c17be1e9","false","null","<span style=""color: black; font-size: 48px"">N + M</span>","null","","","","resp_prompt","","","","","","","","","","","","","","","",""
"categorize-image","194","430905","0.0-4.0-1.0-1.24","zdq7s3yu99rmbro","prime","5f5802e065ca7d349e76eb71","5f60e3c0a3b16e07647b2ff9","5f61dbff092fc818c17be1e9","true","765.7400000025518","./Stimuli/SelectedImages/SM/SM24.bmp","76","","","","test","true","N + M","76","switch","SM","SM24.bmp","remember","","73","3","prime1","right","","","",""
"html-keyboard-response","195","432906","0.0-4.0-1.0-3.24","zdq7s3yu99rmbro","prime","5f5802e065ca7d349e76eb71","5f60e3c0a3b16e07647b2ff9","5f61dbff092fc818c17be1e9","false","null","<div style=""align-items: center; display: flex; color: dodgerblue; font-size: 90px""><b>o</b></div>","null","","","","forget_cue","","","","","","","","","","","","","","","",""
"html-keyboard-response","196","433606","0.0-4.0-1.0-0.25","zdq7s3yu99rmbro","prime","5f5802e065ca7d349e76eb71","5f60e3c0a3b16e07647b2ff9","5f61dbff092fc818c17be1e9","false","null","<span style=""color: black; font-size: 48px"">N + M</span>","null","","","","resp_prompt","","","","","","","","","","","","","","","",""
"categorize-image","197","434299","0.0-4.0-1.0-1.25","zdq7s3yu99rmbro","prime","5f5802e065ca7d349e76eb71","5f60e3c0a3b16e07647b2ff9","5f61dbff092fc818c17be1e9","true","690.2549999649636","./Stimuli/SelectedImages/SM/SM76.bmp","76","","","","test","true","N + M","76","switch","SM","SM76.bmp","remember","","74","3","prime1","right","","","",""
"html-keyboard-response","198","436301","0.0-4.0-1.0-3.25","zdq7s3yu99rmbro","prime","5f5802e065ca7d349e76eb71","5f60e3c0a3b16e07647b2ff9","5f61dbff092fc818c17be1e9","false","null","<div style=""align-items: center; display: flex; color: dodgerblue; font-size: 90px""><b>o</b></div>","null","","","","forget_cue","","","","","","","","","","","","","","","",""
"html-keyboard-response","199","437001","0.0-4.0-1.0-0.26","zdq7s3yu99rmbro","prime","5f5802e065ca7d349e76eb71","5f60e3c0a3b16e07647b2ff9","5f61dbff092fc818c17be1e9","false","null","<span style=""color: black; font-size: 48px"">N + M</span>","null","","","","resp_prompt","","","","","","","","","","","","","","","",""
"categorize-image","200","437895","0.0-4.0-1.0-1.26","zdq7s3yu99rmbro","prime","5f5802e065ca7d349e76eb71","5f60e3c0a3b16e07647b2ff9","5f61dbff092fc818c17be1e9","true","891.2850000197068","./Stimuli/SelectedImages/SM/SM17.bmp","76","","","","test","true","N + M","76","repetition","SM","SM17.bmp","forget","","75","3","prime1","right","","","",""
"html-keyboard-response","201","439897","0.0-4.0-1.0-3.26","zdq7s3yu99rmbro","prime","5f5802e065ca7d349e76eb71","5f60e3c0a3b16e07647b2ff9","5f61dbff092fc818c17be1e9","false","null","<div style=""align-items: center; display: flex; color: darkorange; font-size: 90px""><b>ø</b></div>","null","","","","forget_cue","","","","","","","","","","","","","","","",""
"html-keyboard-response","202","440597","0.0-4.0-1.0-0.27","zdq7s3yu99rmbro","prime","5f5802e065ca7d349e76eb71","5f60e3c0a3b16e07647b2ff9","5f61dbff092fc818c17be1e9","false","null","<span style=""color: black; font-size: 48px"">M + N</span>","null","","","","resp_prompt","","","","","","","","","","","","","","","",""
"categorize-image","203","441382","0.0-4.0-1.0-1.27","zdq7s3yu99rmbro","prime","5f5802e065ca7d349e76eb71","5f60e3c0a3b16e07647b2ff9","5f61dbff092fc818c17be1e9","true","781.8199999746867","./Stimuli/SelectedImages/SM/SM74.bmp","83","","","","test","true","M + N","83","repetition","SM","SM74.bmp","forget","","76","3","prime1","left","","","",""
"html-keyboard-response","204","443383","0.0-4.0-1.0-3.27","zdq7s3yu99rmbro","prime","5f5802e065ca7d349e76eb71","5f60e3c0a3b16e07647b2ff9","5f61dbff092fc818c17be1e9","false","null","<div style=""align-items: center; display: flex; color: darkorange; font-size: 90px""><b>ø</b></div>","null","","","","forget_cue","","","","","","","","","","","","","","","",""
"html-keyboard-response","205","444083","0.0-4.0-1.0-0.28","zdq7s3yu99rmbro","prime","5f5802e065ca7d349e76eb71","5f60e3c0a3b16e07647b2ff9","5f61dbff092fc818c17be1e9","false","null","<span style=""color: black; font-size: 48px"">N + M</span>","null","","","","resp_prompt","","","","","","","","","","","","","","","",""
"categorize-image","206","444928","0.0-4.0-1.0-1.28","zdq7s3yu99rmbro","prime","5f5802e065ca7d349e76eb71","5f60e3c0a3b16e07647b2ff9","5f61dbff092fc818c17be1e9","true","842.1249999664724","./Stimuli/SelectedImages/LM/LM150.bmp","76","","","","test","true","N + M","76","switch","LM","LM150.bmp","remember","","77","3","prime1","right","","","",""
"html-keyboard-response","207","446928","0.0-4.0-1.0-3.28","zdq7s3yu99rmbro","prime","5f5802e065ca7d349e76eb71","5f60e3c0a3b16e07647b2ff9","5f61dbff092fc818c17be1e9","false","null","<div style=""align-items: center; display: flex; color: dodgerblue; font-size: 90px""><b>o</b></div>","null","","","","forget_cue","","","","","","","","","","","","","","","",""
"html-keyboard-response","208","447629","0.0-4.0-1.0-0.29","zdq7s3yu99rmbro","prime","5f5802e065ca7d349e76eb71","5f60e3c0a3b16e07647b2ff9","5f61dbff092fc818c17be1e9","false","null","<span style=""color: black; font-size: 48px"">M + N</span>","null","","","","resp_prompt","","","","","","","","","","","","","","","",""
"categorize-image","209","448466","0.0-4.0-1.0-1.29","zdq7s3yu99rmbro","prime","5f5802e065ca7d349e76eb71","5f60e3c0a3b16e07647b2ff9","5f61dbff092fc818c17be1e9","true","834.3149999855086","./Stimuli/SelectedImages/SN/SN179.bmp","76","","","","test","true","M + N","76","repetition","SN","SN179.bmp","forget","","78","3","prime1","right","","","",""
"html-keyboard-response","210","450467","0.0-4.0-1.0-3.29","zdq7s3yu99rmbro","prime","5f5802e065ca7d349e76eb71","5f60e3c0a3b16e07647b2ff9","5f61dbff092fc818c17be1e9","false","null","<div style=""align-items: center; display: flex; color: darkorange; font-size: 90px""><b>ø</b></div>","null","","","","forget_cue","","","","","","","","","","","","","","","",""
"html-keyboard-response","211","451167","0.0-4.0-1.0-0.30","zdq7s3yu99rmbro","prime","5f5802e065ca7d349e76eb71","5f60e3c0a3b16e07647b2ff9","5f61dbff092fc818c17be1e9","false","null","<span style=""color: black; font-size: 48px"">N + M</span>","null","","","","resp_prompt","","","","","","","","","","","","","","","",""
"categorize-image","212","451764","0.0-4.0-1.0-1.30","zdq7s3yu99rmbro","prime","5f5802e065ca7d349e76eb71","5f60e3c0a3b16e07647b2ff9","5f61dbff092fc818c17be1e9","true","593.5900000040419","./Stimuli/SelectedImages/SN/SN240.bmp","83","","","","test","true","N + M","83","switch","SN","SN240.bmp","remember","","79","3","prime1","left","","","",""
"html-keyboard-response","213","453765","0.0-4.0-1.0-3.30","zdq7s3yu99rmbro","prime","5f5802e065ca7d349e76eb71","5f60e3c0a3b16e07647b2ff9","5f61dbff092fc818c17be1e9","false","null","<div style=""align-items: center; display: flex; color: dodgerblue; font-size: 90px""><b>o</b></div>","null","","","","forget_cue","","","","","","","","","","","","","","","",""
"html-keyboard-response","214","454466","0.0-4.0-1.0-0.31","zdq7s3yu99rmbro","prime","5f5802e065ca7d349e76eb71","5f60e3c0a3b16e07647b2ff9","5f61dbff092fc818c17be1e9","false","null","<span style=""color: black; font-size: 48px"">M + N</span>","null","","","","resp_prompt","","","","","","","","","","","","","","","",""
"categorize-image","215","455476","0.0-4.0-1.0-1.31","zdq7s3yu99rmbro","prime","5f5802e065ca7d349e76eb71","5f60e3c0a3b16e07647b2ff9","5f61dbff092fc818c17be1e9","true","1007.1100000059232","./Stimuli/SelectedImages/SN/SN60.bmp","83","","","","test","false","M + N","76","switch","SN","SN60.bmp","forget","","80","3","prime1","left","","","",""
"html-keyboard-response","216","455977","0.0-4.0-1.0-2.31-0.31","zdq7s3yu99rmbro","prime","5f5802e065ca7d349e76eb71","5f60e3c0a3b16e07647b2ff9","5f61dbff092fc818c17be1e9","false","null","<span style=""color: red; font-size: 48px"">Error!</span>","null","","","","feedback","","","","","","","","","","","","","","","",""
"html-keyboard-response","217","457978","0.0-4.0-1.0-3.31","zdq7s3yu99rmbro","prime","5f5802e065ca7d349e76eb71","5f60e3c0a3b16e07647b2ff9","5f61dbff092fc818c17be1e9","false","null","<div style=""align-items: center; display: flex; color: darkorange; font-size: 90px""><b>ø</b></div>","null","","","","forget_cue","","","","","","","","","","","","","","","",""
"html-keyboard-response","218","458678","0.0-4.0-1.0-0.32","zdq7s3yu99rmbro","prime","5f5802e065ca7d349e76eb71","5f60e3c0a3b16e07647b2ff9","5f61dbff092fc818c17be1e9","false","null","<span style=""color: black; font-size: 48px"">N + M</span>","null","","","","resp_prompt","","","","","","","","","","","","","","","",""
"categorize-image","219","459535","0.0-4.0-1.0-1.32","zdq7s3yu99rmbro","prime","5f5802e065ca7d349e76eb71","5f60e3c0a3b16e07647b2ff9","5f61dbff092fc818c17be1e9","true","854.2849999503233","./Stimuli/SelectedImages/LM/LM235.bmp","76","","","","test","true","N + M","76","switch","LM","LM235.bmp","remember","","81","3","prime1","right","","","",""
"html-keyboard-response","220","461536","0.0-4.0-1.0-3.32","zdq7s3yu99rmbro","prime","5f5802e065ca7d349e76eb71","5f60e3c0a3b16e07647b2ff9","5f61dbff092fc818c17be1e9","false","null","<div style=""align-items: center; display: flex; color: dodgerblue; font-size: 90px""><b>o</b></div>","null","","","","forget_cue","","","","","","","","","","","","","","","",""
"html-keyboard-response","221","462236","0.0-4.0-1.0-0.33","zdq7s3yu99rmbro","prime","5f5802e065ca7d349e76eb71","5f60e3c0a3b16e07647b2ff9","5f61dbff092fc818c17be1e9","false","null","<span style=""color: black; font-size: 48px"">M + N</span>","null","","","","resp_prompt","","","","","","","","","","","","","","","",""
"categorize-image","222","463224","0.0-4.0-1.0-1.33","zdq7s3yu99rmbro","prime","5f5802e065ca7d349e76eb71","5f60e3c0a3b16e07647b2ff9","5f61dbff092fc818c17be1e9","true","985.309999960009","./Stimuli/SelectedImages/LN/LN101.bmp","83","","","","test","false","M + N","76","switch","LN","LN101.bmp","forget","","82","3","prime1","left","","","",""
"html-keyboard-response","223","463726","0.0-4.0-1.0-2.33-0.33","zdq7s3yu99rmbro","prime","5f5802e065ca7d349e76eb71","5f60e3c0a3b16e07647b2ff9","5f61dbff092fc818c17be1e9","false","null","<span style=""color: red; font-size: 48px"">Error!</span>","null","","","","feedback","","","","","","","","","","","","","","","",""
"html-keyboard-response","224","465727","0.0-4.0-1.0-3.33","zdq7s3yu99rmbro","prime","5f5802e065ca7d349e76eb71","5f60e3c0a3b16e07647b2ff9","5f61dbff092fc818c17be1e9","false","null","<div style=""align-items: center; display: flex; color: darkorange; font-size: 90px""><b>ø</b></div>","null","","","","forget_cue","","","","","","","","","","","","","","","",""
"html-keyboard-response","225","466427","0.0-4.0-1.0-0.34","zdq7s3yu99rmbro","prime","5f5802e065ca7d349e76eb71","5f60e3c0a3b16e07647b2ff9","5f61dbff092fc818c17be1e9","false","null","<span style=""color: black; font-size: 48px"">N + M</span>","null","","","","resp_prompt","","","","","","","","","","","","","","","",""
"categorize-image","226","467123","0.0-4.0-1.0-1.34","zdq7s3yu99rmbro","prime","5f5802e065ca7d349e76eb71","5f60e3c0a3b16e07647b2ff9","5f61dbff092fc818c17be1e9","true","693.2050000177696","./Stimuli/SelectedImages/SN/SN182.bmp","83","","","","test","true","N + M","83","repetition","SN","SN182.bmp","remember","","83","3","prime1","left","","","",""
"html-keyboard-response","227","469124","0.0-4.0-1.0-3.34","zdq7s3yu99rmbro","prime","5f5802e065ca7d349e76eb71","5f60e3c0a3b16e07647b2ff9","5f61dbff092fc818c17be1e9","false","null","<div style=""align-items: center; display: flex; color: dodgerblue; font-size: 90px""><b>o</b></div>","null","","","","forget_cue","","","","","","","","","","","","","","","",""
"html-keyboard-response","228","469824","0.0-4.0-1.0-0.35","zdq7s3yu99rmbro","prime","5f5802e065ca7d349e76eb71","5f60e3c0a3b16e07647b2ff9","5f61dbff092fc818c17be1e9","false","null","<span style=""color: black; font-size: 48px"">M + N</span>","null","","","","resp_prompt","","","","","","","","","","","","","","","",""
"categorize-image","229","470613","0.0-4.0-1.0-1.35","zdq7s3yu99rmbro","prime","5f5802e065ca7d349e76eb71","5f60e3c0a3b16e07647b2ff9","5f61dbff092fc818c17be1e9","true","786.1949999933131","./Stimuli/SelectedImages/LM/LM179.bmp","83","","","","test","true","M + N","83","switch","LM","LM179.bmp","remember","","84","3","prime1","left","","","",""
"html-keyboard-response","230","472614","0.0-4.0-1.0-3.35","zdq7s3yu99rmbro","prime","5f5802e065ca7d349e76eb71","5f60e3c0a3b16e07647b2ff9","5f61dbff092fc818c17be1e9","false","null","<div style=""align-items: center; display: flex; color: dodgerblue; font-size: 90px""><b>o</b></div>","null","","","","forget_cue","","","","","","","","","","","","","","","",""
"html-keyboard-response","231","473315","0.0-4.0-1.0-0.36","zdq7s3yu99rmbro","prime","5f5802e065ca7d349e76eb71","5f60e3c0a3b16e07647b2ff9","5f61dbff092fc818c17be1e9","false","null","<span style=""color: black; font-size: 48px"">N + M</span>","null","","","","resp_prompt","","","","","","","","","","","","","","","",""
"categorize-image","232","474029","0.0-4.0-1.0-1.36","zdq7s3yu99rmbro","prime","5f5802e065ca7d349e76eb71","5f60e3c0a3b16e07647b2ff9","5f61dbff092fc818c17be1e9","true","711.4350000047125","./Stimuli/SelectedImages/LN/LN177.bmp","76","","","","test","false","N + M","83","repetition","LN","LN177.bmp","remember","","85","3","prime1","right","","","",""
"html-keyboard-response","233","474529","0.0-4.0-1.0-2.36-0.36","zdq7s3yu99rmbro","prime","5f5802e065ca7d349e76eb71","5f60e3c0a3b16e07647b2ff9","5f61dbff092fc818c17be1e9","false","null","<span style=""color: red; font-size: 48px"">Error!</span>","null","","","","feedback","","","","","","","","","","","","","","","",""
"html-keyboard-response","234","476530","0.0-4.0-1.0-3.36","zdq7s3yu99rmbro","prime","5f5802e065ca7d349e76eb71","5f60e3c0a3b16e07647b2ff9","5f61dbff092fc818c17be1e9","false","null","<div style=""align-items: center; display: flex; color: dodgerblue; font-size: 90px""><b>o</b></div>","null","","","","forget_cue","","","","","","","","","","","","","","","",""
"html-keyboard-response","235","477231","0.0-4.0-1.0-0.37","zdq7s3yu99rmbro","prime","5f5802e065ca7d349e76eb71","5f60e3c0a3b16e07647b2ff9","5f61dbff092fc818c17be1e9","false","null","<span style=""color: black; font-size: 48px"">N + M</span>","null","","","","resp_prompt","","","","","","","","","","","","","","","",""
"categorize-image","236","478060","0.0-4.0-1.0-1.37","zdq7s3yu99rmbro","prime","5f5802e065ca7d349e76eb71","5f60e3c0a3b16e07647b2ff9","5f61dbff092fc818c17be1e9","true","826.4399999752641","./Stimuli/SelectedImages/SM/SM200.bmp","76","","","","test","true","N + M","76","repetition","SM","SM200.bmp","remember","","86","3","prime1","right","","","",""
"html-keyboard-response","237","480060","0.0-4.0-1.0-3.37","zdq7s3yu99rmbro","prime","5f5802e065ca7d349e76eb71","5f60e3c0a3b16e07647b2ff9","5f61dbff092fc818c17be1e9","false","null","<div style=""align-items: center; display: flex; color: dodgerblue; font-size: 90px""><b>o</b></div>","null","","","","forget_cue","","","","","","","","","","","","","","","",""
"html-keyboard-response","238","480761","0.0-4.0-1.0-0.38","zdq7s3yu99rmbro","prime","5f5802e065ca7d349e76eb71","5f60e3c0a3b16e07647b2ff9","5f61dbff092fc818c17be1e9","false","null","<span style=""color: black; font-size: 48px"">M + N</span>","null","","","","resp_prompt","","","","","","","","","","","","","","","",""
"categorize-image","239","481262","0.0-4.0-1.0-1.38","zdq7s3yu99rmbro","prime","5f5802e065ca7d349e76eb71","5f60e3c0a3b16e07647b2ff9","5f61dbff092fc818c17be1e9","true","498.19499999284744","./Stimuli/SelectedImages/SM/SM207.bmp","83","","","","test","true","M + N","83","switch","SM","SM207.bmp","forget","","87","3","prime1","left","","","",""
"html-keyboard-response","240","483262","0.0-4.0-1.0-3.38","zdq7s3yu99rmbro","prime","5f5802e065ca7d349e76eb71","5f60e3c0a3b16e07647b2ff9","5f61dbff092fc818c17be1e9","false","null","<div style=""align-items: center; display: flex; color: darkorange; font-size: 90px""><b>ø</b></div>","null","","","","forget_cue","","","","","","","","","","","","","","","",""
"html-keyboard-response","241","483963","0.0-4.0-1.0-0.39","zdq7s3yu99rmbro","prime","5f5802e065ca7d349e76eb71","5f60e3c0a3b16e07647b2ff9","5f61dbff092fc818c17be1e9","false","null","<span style=""color: black; font-size: 48px"">M + N</span>","null","","","","resp_prompt","","","","","","","","","","","","","","","",""
"categorize-image","242","484740","0.0-4.0-1.0-1.39","zdq7s3yu99rmbro","prime","5f5802e065ca7d349e76eb71","5f60e3c0a3b16e07647b2ff9","5f61dbff092fc818c17be1e9","true","775.0550000346266","./Stimuli/SelectedImages/SM/SM106.bmp","83","","","","test","true","M + N","83","switch","SM","SM106.bmp","remember","","88","3","prime1","left","","","",""
"html-keyboard-response","243","486742","0.0-4.0-1.0-3.39","zdq7s3yu99rmbro","prime","5f5802e065ca7d349e76eb71","5f60e3c0a3b16e07647b2ff9","5f61dbff092fc818c17be1e9","false","null","<div style=""align-items: center; display: flex; color: dodgerblue; font-size: 90px""><b>o</b></div>","null","","","","forget_cue","","","","","","","","","","","","","","","",""
"html-keyboard-response","244","487442","0.0-4.0-1.0-0.40","zdq7s3yu99rmbro","prime","5f5802e065ca7d349e76eb71","5f60e3c0a3b16e07647b2ff9","5f61dbff092fc818c17be1e9","false","null","<span style=""color: black; font-size: 48px"">N + M</span>","null","","","","resp_prompt","","","","","","","","","","","","","","","",""
"categorize-image","245","488151","0.0-4.0-1.0-1.40","zdq7s3yu99rmbro","prime","5f5802e065ca7d349e76eb71","5f60e3c0a3b16e07647b2ff9","5f61dbff092fc818c17be1e9","true","706.1349999858066","./Stimuli/SelectedImages/SM/SM205.bmp","76","","","","test","true","N + M","76","repetition","SM","SM205.bmp","forget","","89","3","prime1","right","","","",""
"html-keyboard-response","246","490152","0.0-4.0-1.0-3.40","zdq7s3yu99rmbro","prime","5f5802e065ca7d349e76eb71","5f60e3c0a3b16e07647b2ff9","5f61dbff092fc818c17be1e9","false","null","<div style=""align-items: center; display: flex; color: darkorange; font-size: 90px""><b>ø</b></div>","null","","","","forget_cue","","","","","","","","","","","","","","","",""
"html-keyboard-response","247","490853","0.0-4.0-1.0-0.41","zdq7s3yu99rmbro","prime","5f5802e065ca7d349e76eb71","5f60e3c0a3b16e07647b2ff9","5f61dbff092fc818c17be1e9","false","null","<span style=""color: black; font-size: 48px"">M + N</span>","null","","","","resp_prompt","","","","","","","","","","","","","","","",""
"categorize-image","248","491454","0.0-4.0-1.0-1.41","zdq7s3yu99rmbro","prime","5f5802e065ca7d349e76eb71","5f60e3c0a3b16e07647b2ff9","5f61dbff092fc818c17be1e9","true","598.2499999809079","./Stimuli/SelectedImages/SN/SN128.bmp","76","","","","test","true","M + N","76","switch","SN","SN128.bmp","forget","","90","3","prime1","right","","","",""
"html-keyboard-response","249","493454","0.0-4.0-1.0-3.41","zdq7s3yu99rmbro","prime","5f5802e065ca7d349e76eb71","5f60e3c0a3b16e07647b2ff9","5f61dbff092fc818c17be1e9","false","null","<div style=""align-items: center; display: flex; color: darkorange; font-size: 90px""><b>ø</b></div>","null","","","","forget_cue","","","","","","","","","","","","","","","",""
"html-keyboard-response","250","494156","0.0-4.0-1.0-0.42","zdq7s3yu99rmbro","prime","5f5802e065ca7d349e76eb71","5f60e3c0a3b16e07647b2ff9","5f61dbff092fc818c17be1e9","false","null","<span style=""color: black; font-size: 48px"">N + M</span>","null","","","","resp_prompt","","","","","","","","","","","","","","","",""
"categorize-image","251","494850","0.0-4.0-1.0-1.42","zdq7s3yu99rmbro","prime","5f5802e065ca7d349e76eb71","5f60e3c0a3b16e07647b2ff9","5f61dbff092fc818c17be1e9","true","692.2450000420213","./Stimuli/SelectedImages/SN/SN93.bmp","83","","","","test","true","N + M","83","switch","SN","SN93.bmp","forget","","91","3","prime1","left","","","",""
"html-keyboard-response","252","496851","0.0-4.0-1.0-3.42","zdq7s3yu99rmbro","prime","5f5802e065ca7d349e76eb71","5f60e3c0a3b16e07647b2ff9","5f61dbff092fc818c17be1e9","false","null","<div style=""align-items: center; display: flex; color: darkorange; font-size: 90px""><b>ø</b></div>","null","","","","forget_cue","","","","","","","","","","","","","","","",""
"html-keyboard-response","253","497552","0.0-4.0-1.0-0.43","zdq7s3yu99rmbro","prime","5f5802e065ca7d349e76eb71","5f60e3c0a3b16e07647b2ff9","5f61dbff092fc818c17be1e9","false","null","<span style=""color: black; font-size: 48px"">N + M</span>","null","","","","resp_prompt","","","","","","","","","","","","","","","",""
