"trial_type","trial_index","time_elapsed","internal_node_id","subject","exp_part","prolific_PID","study_ID","session_ID","use","rt","stimulus","key_press","button_pressed","responses","question_order","trial_part","correct","resp_map","correct_resp","probe_condition","category","image","forget_condition","list","trial_num","block_num","block","response","test_part","n_span","sequence","num_spaces"
"pavlovia","0","5","0.0-0.0","9xgl9o16a4l8dwb","","5eaadbfc91f1f204fb1499aa","5f60e3c0a3b16e07647b2ff9","5f61dbf6dd100c184f2477fd","false","","","","","","","","","","","","","","","","","","","","","","",""
"html-keyboard-response","1","30091","0.0-1.0-0.0-0.0","9xgl9o16a4l8dwb","welcome","5eaadbfc91f1f204fb1499aa","5f60e3c0a3b16e07647b2ff9","5f61dbf6dd100c184f2477fd","false","30083.129999999986","<div align=left>Dear participant, <br> thank you for participating in an online study of the Cognition, Action, and Sustainability Unit of the University of Freiburg! <br> <br>The aim of this study is to examine our ability to remember previously learned information. <br>Our goal is to find out, whether our memory improves, when we only remember information that is relevant to us. <br>The experiment will take about 35 minutes to complete. <br> <br>Please, note that you can only participate in this study if you are using a device with a keyboard (PC, Laptop etc.) <br>and not if you are using a mobile device such as a tablet or smartphone.<br> <br>Press 'SPACE' to proceed to the experiment. </div>","32","","","","","","","","","","","","","","","","","","","",""
"html-keyboard-response","2","71215","0.0-1.0-0.0-1.0","9xgl9o16a4l8dwb","welcome","5eaadbfc91f1f204fb1499aa","5f60e3c0a3b16e07647b2ff9","5f61dbf6dd100c184f2477fd","false","41121.265000000225","<div align=left><strong> Time Course of this experiment: </strong> <br><br> <strong> 1.</strong>  First, please fill in some information regarding your demographic data. <br><br> <strong> 2.</strong>  Next, your task will be to classify everyday objects. <br>In addition, you will be asked to remember certain objects and recall them later. <br>Working on these tasks requires your undivided attention and concentration.<br>It is therefore essential that you eliminate any sources of distraction in your  <br>environment and ensure that you will not be disturbed. <br><br><strong> 3.</strong>  At the end of the experiment, you will be asked to answer a few additional questions. <br> <br><strong> Important:</strong> After finishing the experiment, only close the browser window <br> by clicking on the 'end the experiment'-button when you are asked to do so. <br>Closing the browser window prematurely will make the allocation of your participation credit impossible. <br><br> Press 'SPACE' to start the experiment. </div>","32","","","","","","","","","","","","","","","","","","","",""
"html-button-response","3","84489","0.0-1.0-0.0-2.0","9xgl9o16a4l8dwb","welcome","5eaadbfc91f1f204fb1499aa","5f60e3c0a3b16e07647b2ff9","5f61dbf6dd100c184f2477fd","true","13270.21999999987","<div align=left><strong> Informed consent </strong>  <br>The aim of our research is to better understand human behavior and mental processes. <br>In the following study your behavior (e.g. choices, reaction times) will be studied. <br> <br><strong> Voluntariness and Anonymity </strong> <br>Your participation in this study is  <strong> voluntary</strong>.<br>You may withdraw your consent to participate at any time without providing a reason for doing so and without fear of prejudice. <br><br>As no personal data will be collected, <strong>your data and your person cannot be connected after data collection</strong> – the data-set is anonymous. <br>Respectively, deletion of your data will not be possible after data collection has been completed, as we cannot retrace your data-set.<br>The results and anonymized data collected in this study will be published as a scientific publication. <br>This will happen in an <strong>anonymized format</strong>, so that no data can be traced back to a specific person. <br> <br>The anonymized data of this study will be made available to other researchers and/or in a data archive on the Internet as a means of transparency and to enable subsequent re-use. By doing so, this study follows the recommendations of the Deutsche Forschungsgemeinschaft (DFG, German Research Foundation) and Deutsche Gesellschaft für Psychologie (DGPS, German Psychological Society) regarding quality assurance in research.<br>If you have any questions now or after the experiment, please contact our team (experiments@cs.uni-freiburg.de).<br><br><br>I hereby declare, that I understand the above described conditions of participation and I agree to participate under these conditions. <br><br> </div>","","0","","","","","","","","","","","","","","","","","","",""
"html-keyboard-response","4","125707","0.0-1.0-0.0-3.0","9xgl9o16a4l8dwb","welcome","5eaadbfc91f1f204fb1499aa","5f60e3c0a3b16e07647b2ff9","5f61dbf6dd100c184f2477fd","false","41214.23999999979","<div align=left><strong> General information concerning the experiment </strong>  <br> <br>Please follow the instructions:<ol> <li><strong> Do not leave this tab (your browser window) during the experiment and do not reload this tab! </strong>  <br>If you do switch tabs/windows during the experiment (to check your mail or visit another website, for example), <br>the experiment will end automatically and you will <strong>not receive credit</strong> for your participation. <br>Repeated participation or resumption of the experiment is impossible.</li> <br><li>Please close all other programs for the duration of your participation. </li> <br><li>Please mute or turn off your phone and put it out of your reach. </li> <br><li>Please also take off any disturbing accessories (such as wristwatches, bracelets, etc.). </li> <br><li>If you have music playing in the background, please turn it off now. </li> <br></ol>Thank you! <br>Press 'SPACE' to continue. </div>","32","","","","","","","","","","","","","","","","","","","",""
"survey-text","5","130368","0.0-1.0-1.0-0.0","9xgl9o16a4l8dwb","demographics","5eaadbfc91f1f204fb1499aa","5f60e3c0a3b16e07647b2ff9","5f61dbf6dd100c184f2477fd","true","4657.150000000009","","","","{""age"":""21""}","","","","","","","","","","","","","","","","","",""
"survey-multi-choice","6","168669","0.0-1.0-1.0-1.0","9xgl9o16a4l8dwb","demographics","5eaadbfc91f1f204fb1499aa","5f60e3c0a3b16e07647b2ff9","5f61dbf6dd100c184f2477fd","true","38296.3850000001","","","","{""gender"":""female"",""school"":""others"",""education"":""Still in training/ university""}","[0,1,2]","","","","","","","","","","","","","","","","",""
"survey-text","7","217687","0.0-1.0-1.0-2.0-0.0","9xgl9o16a4l8dwb","demographics","5eaadbfc91f1f204fb1499aa","5f60e3c0a3b16e07647b2ff9","5f61dbf6dd100c184f2477fd","true","49000.78999999957","","","","{""education_text"":""BSc (Hons) Music and Sound Production Technology at University.""}","","","","","","","","","","","","","","","","","",""
"html-keyboard-response","8","239271","0.0-1.0-2.0","9xgl9o16a4l8dwb","instructions","5eaadbfc91f1f204fb1499aa","5f60e3c0a3b16e07647b2ff9","5f61dbf6dd100c184f2477fd","false","21580.719999999943","<div align=left> The experiment is now about to start: <br> <br>In the following part, you will be presented pictures of everyday objects. <br>Your first task is to <strong>classify these objects. </strong> <br> <br> You will classify them either as mechanical or non-mechanical objects. <br> <br>Objects that include any kind of technical mechanism (for example, wheels, switches, levers, <br> electronic components) fall under the category of <strong>mechanical</strong> objects. <br>Only objects without any kind of technical mechanism should be classified as <strong>non-mechanical</strong>. <br><br>Press 'SPACE' to continue. </div>","32","","","","","","","","","","","","","","","","","","","",""
"html-keyboard-response","9","303403","0.0-2.0-0.0","9xgl9o16a4l8dwb","instructions","5eaadbfc91f1f204fb1499aa","5f60e3c0a3b16e07647b2ff9","5f61dbf6dd100c184f2477fd","false","64128.42999999973","<div align=justify>You will classify the objects using the <strong>'S'</strong> and the <strong>'L'</strong> keys on your keyboard.<br>For doing so, please place your <strong>left index finger</strong> on the <strong>'S'</strong> key and place your <strong>right index finger</strong> on the <strong>'L'</strong> key. <br><br> Each trial starts with an instruction, indicating which key ('S'/'L') you need to press to classify <br>the object as mechanical (letter M) or non-mechanical (letter N).<br>The instruction <strong>M + N</strong> indicates that, in the current trial, by pressing the left key ('S') you classify the displayed object as mechanical (M) <br> and by pressing the right key ('L') you classify the object as non-mechanical (N). <br>The instruction <strong>N + M</strong> on the other hand indicates that by pressing the left key ('S') you classify the displayed object as non-mechanical (N) <br> and by pressing the right key ('L') you classify the object as mechanical (M). <br><br>Please press the key corresponding to the correct classification as fast as possible as soon as the object is displayed and try to avoid making mistakes.<br>If you do not respond within a 2 second window, a corresponding feedback will be displayed and the next trial will start.<br> The experiment is divided into multiple blocks to give you the opportunity to take a break after each block. <br>First, you can now practice this task. <br><br>Please place your <strong>LEFT INDEX FINGER</strong> on the 'S' key and your <strong>RIGHT INDEX FINGER</strong> on the 'L' key now. <br><br>Press SPACE to continue.</div>","32","","","","","","","","","","","","","","","","","","","",""
"html-keyboard-response","10","324939","0.0-2.0-1.0","9xgl9o16a4l8dwb","instructions","5eaadbfc91f1f204fb1499aa","5f60e3c0a3b16e07647b2ff9","5f61dbf6dd100c184f2477fd","false","21533.240000000165","<div align=left> You will now have time to practice this task.<br><br>Remember: <br> <br><li>Please place your index fingers on the <strong>'S'</strong> and <strong>'L'</strong> keys <br>to respond as fast and accurately as possible.</li><li>Every picture can be classified as either mechanical or non-mechanical.</li><li>If you do not respond in time or commit an error, you will receive a corresponding feedback. </li><li> Please try to respond as <strong> fast </strong> and as <strong> accurately as possible </strong> .<br><li>To ensure optimal results, please minimize distractions and stay focused. </li><br><br>Press SPACE to continue.</div>","32","","","","","","","","","","","","","","","","","","","",""
"html-keyboard-response","11","325643","0.0-2.0-2.0-0.0","9xgl9o16a4l8dwb","practice_no_cue","5eaadbfc91f1f204fb1499aa","5f60e3c0a3b16e07647b2ff9","5f61dbf6dd100c184f2477fd","false","null","<span style=""color: black; font-size: 48px"">M + N</span>","null","","","","resp_prompt","","","","","","","","","","","","","","","",""
"categorize-image","12","326889","0.0-2.0-2.0-1.0","9xgl9o16a4l8dwb","practice_no_cue","5eaadbfc91f1f204fb1499aa","5f60e3c0a3b16e07647b2ff9","5f61dbf6dd100c184f2477fd","true","739.979999999865","./Stimuli/ImagesPractice/LM230.jpg","83","","","","test","true","M + N","83","","LM","LM230.jpg","remember","old","1","1","start","left","","","",""
"html-keyboard-response","13","327591","0.0-2.0-2.0-0.1","9xgl9o16a4l8dwb","practice_no_cue","5eaadbfc91f1f204fb1499aa","5f60e3c0a3b16e07647b2ff9","5f61dbf6dd100c184f2477fd","false","null","<span style=""color: black; font-size: 48px"">N + M</span>","null","","","","resp_prompt","","","","","","","","","","","","","","","",""
"categorize-image","14","328834","0.0-2.0-2.0-1.1","9xgl9o16a4l8dwb","practice_no_cue","5eaadbfc91f1f204fb1499aa","5f60e3c0a3b16e07647b2ff9","5f61dbf6dd100c184f2477fd","true","735.8099999996484","./Stimuli/ImagesPractice/SM35.jpg","76","","","","test","true","N + M","76","","SM","SM35.jpg","forget","old","2","1","start","right","","","",""
"html-keyboard-response","15","329536","0.0-2.0-2.0-0.2","9xgl9o16a4l8dwb","practice_no_cue","5eaadbfc91f1f204fb1499aa","5f60e3c0a3b16e07647b2ff9","5f61dbf6dd100c184f2477fd","false","null","<span style=""color: black; font-size: 48px"">M + N</span>","null","","","","resp_prompt","","","","","","","","","","","","","","","",""
"categorize-image","16","330947","0.0-2.0-2.0-1.2","9xgl9o16a4l8dwb","practice_no_cue","5eaadbfc91f1f204fb1499aa","5f60e3c0a3b16e07647b2ff9","5f61dbf6dd100c184f2477fd","true","909.4250000002794","./Stimuli/ImagesPractice/SN221.jpg","76","","","","test","true","M + N","76","","SN","SN221.jpg","forget","old","3","1","start","right","","","",""
"html-keyboard-response","17","331652","0.0-2.0-2.0-0.3","9xgl9o16a4l8dwb","practice_no_cue","5eaadbfc91f1f204fb1499aa","5f60e3c0a3b16e07647b2ff9","5f61dbf6dd100c184f2477fd","false","null","<span style=""color: black; font-size: 48px"">M + N</span>","null","","","","resp_prompt","","","","","","","","","","","","","","","",""
"categorize-image","18","332951","0.0-2.0-2.0-1.3","9xgl9o16a4l8dwb","practice_no_cue","5eaadbfc91f1f204fb1499aa","5f60e3c0a3b16e07647b2ff9","5f61dbf6dd100c184f2477fd","true","797.0049999998882","./Stimuli/ImagesPractice/LM143.jpg","83","","","","test","true","M + N","83","","LM","LM143.jpg","remember","old","4","1","start","left","","","",""
"html-keyboard-response","19","333657","0.0-2.0-2.0-0.4","9xgl9o16a4l8dwb","practice_no_cue","5eaadbfc91f1f204fb1499aa","5f60e3c0a3b16e07647b2ff9","5f61dbf6dd100c184f2477fd","false","null","<span style=""color: black; font-size: 48px"">N + M</span>","null","","","","resp_prompt","","","","","","","","","","","","","","","",""
"categorize-image","20","335309","0.0-2.0-2.0-1.4","9xgl9o16a4l8dwb","practice_no_cue","5eaadbfc91f1f204fb1499aa","5f60e3c0a3b16e07647b2ff9","5f61dbf6dd100c184f2477fd","true","1145.1999999998952","./Stimuli/ImagesPractice/SM98.jpg","76","","","","test","true","N + M","76","","SM","SM98.jpg","remember","old","5","1","start","right","","","",""
"html-keyboard-response","21","336015","0.0-2.0-2.0-0.5","9xgl9o16a4l8dwb","practice_no_cue","5eaadbfc91f1f204fb1499aa","5f60e3c0a3b16e07647b2ff9","5f61dbf6dd100c184f2477fd","false","null","<span style=""color: black; font-size: 48px"">M + N</span>","null","","","","resp_prompt","","","","","","","","","","","","","","","",""
"categorize-image","22","337415","0.0-2.0-2.0-1.5","9xgl9o16a4l8dwb","practice_no_cue","5eaadbfc91f1f204fb1499aa","5f60e3c0a3b16e07647b2ff9","5f61dbf6dd100c184f2477fd","true","894.0800000000163","./Stimuli/ImagesPractice/SN205.jpg","76","","","","test","true","M + N","76","","SN","SN205.jpg","forget","old","6","1","start","right","","","",""
"html-keyboard-response","23","338116","0.0-2.0-2.0-0.6","9xgl9o16a4l8dwb","practice_no_cue","5eaadbfc91f1f204fb1499aa","5f60e3c0a3b16e07647b2ff9","5f61dbf6dd100c184f2477fd","false","null","<span style=""color: black; font-size: 48px"">N + M</span>","null","","","","resp_prompt","","","","","","","","","","","","","","","",""
"categorize-image","24","339540","0.0-2.0-2.0-1.6","9xgl9o16a4l8dwb","practice_no_cue","5eaadbfc91f1f204fb1499aa","5f60e3c0a3b16e07647b2ff9","5f61dbf6dd100c184f2477fd","true","915.6450000000186","./Stimuli/ImagesPractice/SM62.jpg","76","","","","test","true","N + M","76","","SM","SM62.jpg","forget","old","7","1","start","right","","","",""
"html-keyboard-response","25","340243","0.0-2.0-2.0-0.7","9xgl9o16a4l8dwb","practice_no_cue","5eaadbfc91f1f204fb1499aa","5f60e3c0a3b16e07647b2ff9","5f61dbf6dd100c184f2477fd","false","null","<span style=""color: black; font-size: 48px"">N + M</span>","null","","","","resp_prompt","","","","","","","","","","","","","","","",""
"categorize-image","26","341390","0.0-2.0-2.0-1.7","9xgl9o16a4l8dwb","practice_no_cue","5eaadbfc91f1f204fb1499aa","5f60e3c0a3b16e07647b2ff9","5f61dbf6dd100c184f2477fd","true","640.3700000000536","./Stimuli/ImagesPractice/LM224.jpg","76","","","","test","true","N + M","76","","LM","LM224.jpg","remember","old","8","1","start","right","","","",""
"html-keyboard-response","27","342092","0.0-2.0-2.0-0.8","9xgl9o16a4l8dwb","practice_no_cue","5eaadbfc91f1f204fb1499aa","5f60e3c0a3b16e07647b2ff9","5f61dbf6dd100c184f2477fd","false","null","<span style=""color: black; font-size: 48px"">N + M</span>","null","","","","resp_prompt","","","","","","","","","","","","","","","",""
"categorize-image","28","343619","0.0-2.0-2.0-1.8","9xgl9o16a4l8dwb","practice_no_cue","5eaadbfc91f1f204fb1499aa","5f60e3c0a3b16e07647b2ff9","5f61dbf6dd100c184f2477fd","true","1023.5999999999767","./Stimuli/ImagesPractice/LN4.jpg","83","","","","test","true","N + M","83","","LN","LN4.jpg","forget","old","9","1","start","left","","","",""
"html-keyboard-response","29","344322","0.0-2.0-2.0-0.9","9xgl9o16a4l8dwb","practice_no_cue","5eaadbfc91f1f204fb1499aa","5f60e3c0a3b16e07647b2ff9","5f61dbf6dd100c184f2477fd","false","null","<span style=""color: black; font-size: 48px"">N + M</span>","null","","","","resp_prompt","","","","","","","","","","","","","","","",""
"categorize-image","30","345721","0.0-2.0-2.0-1.9","9xgl9o16a4l8dwb","practice_no_cue","5eaadbfc91f1f204fb1499aa","5f60e3c0a3b16e07647b2ff9","5f61dbf6dd100c184f2477fd","true","894.9199999996927","./Stimuli/ImagesPractice/SN76.jpg","83","","","","test","true","N + M","83","","SN","SN76.jpg","remember","old","10","1","start","left","","","",""
"html-keyboard-response","31","346423","0.0-2.0-2.0-0.10","9xgl9o16a4l8dwb","practice_no_cue","5eaadbfc91f1f204fb1499aa","5f60e3c0a3b16e07647b2ff9","5f61dbf6dd100c184f2477fd","false","null","<span style=""color: black; font-size: 48px"">M + N</span>","null","","","","resp_prompt","","","","","","","","","","","","","","","",""
"categorize-image","32","347625","0.0-2.0-2.0-1.10","9xgl9o16a4l8dwb","practice_no_cue","5eaadbfc91f1f204fb1499aa","5f60e3c0a3b16e07647b2ff9","5f61dbf6dd100c184f2477fd","true","696.1049999999814","./Stimuli/ImagesPractice/LN15.jpg","76","","","","test","true","M + N","76","","LN","LN15.jpg","remember","old","11","1","start","right","","","",""
"html-keyboard-response","33","348327","0.0-2.0-2.0-0.11","9xgl9o16a4l8dwb","practice_no_cue","5eaadbfc91f1f204fb1499aa","5f60e3c0a3b16e07647b2ff9","5f61dbf6dd100c184f2477fd","false","null","<span style=""color: black; font-size: 48px"">M + N</span>","null","","","","resp_prompt","","","","","","","","","","","","","","","",""
"categorize-image","34","349537","0.0-2.0-2.0-1.11","9xgl9o16a4l8dwb","practice_no_cue","5eaadbfc91f1f204fb1499aa","5f60e3c0a3b16e07647b2ff9","5f61dbf6dd100c184f2477fd","true","706.4399999999441","./Stimuli/ImagesPractice/LM147.jpg","83","","","","test","true","M + N","83","","LM","LM147.jpg","forget","old","12","1","start","left","","","",""
"html-keyboard-response","35","350243","0.0-2.0-2.0-0.12","9xgl9o16a4l8dwb","practice_no_cue","5eaadbfc91f1f204fb1499aa","5f60e3c0a3b16e07647b2ff9","5f61dbf6dd100c184f2477fd","false","null","<span style=""color: black; font-size: 48px"">M + N</span>","null","","","","resp_prompt","","","","","","","","","","","","","","","",""
"categorize-image","36","351648","0.0-2.0-2.0-1.12","9xgl9o16a4l8dwb","practice_no_cue","5eaadbfc91f1f204fb1499aa","5f60e3c0a3b16e07647b2ff9","5f61dbf6dd100c184f2477fd","true","899.1599999999744","./Stimuli/ImagesPractice/LM239.jpg","83","","","","test","true","M + N","83","","LM","LM239.jpg","remember","old","13","1","start","left","","","",""
"html-keyboard-response","37","352350","0.0-2.0-2.0-0.13","9xgl9o16a4l8dwb","practice_no_cue","5eaadbfc91f1f204fb1499aa","5f60e3c0a3b16e07647b2ff9","5f61dbf6dd100c184f2477fd","false","null","<span style=""color: black; font-size: 48px"">M + N</span>","null","","","","resp_prompt","","","","","","","","","","","","","","","",""
"categorize-image","38","353551","0.0-2.0-2.0-1.13","9xgl9o16a4l8dwb","practice_no_cue","5eaadbfc91f1f204fb1499aa","5f60e3c0a3b16e07647b2ff9","5f61dbf6dd100c184f2477fd","true","698.4399999997113","./Stimuli/ImagesPractice/SN220.jpg","76","","","","test","true","M + N","76","","SN","SN220.jpg","forget","old","14","1","start","right","","","",""
"html-keyboard-response","39","354254","0.0-2.0-2.0-0.14","9xgl9o16a4l8dwb","practice_no_cue","5eaadbfc91f1f204fb1499aa","5f60e3c0a3b16e07647b2ff9","5f61dbf6dd100c184f2477fd","false","null","<span style=""color: black; font-size: 48px"">N + M</span>","null","","","","resp_prompt","","","","","","","","","","","","","","","",""
"categorize-image","40","355688","0.0-2.0-2.0-1.14","9xgl9o16a4l8dwb","practice_no_cue","5eaadbfc91f1f204fb1499aa","5f60e3c0a3b16e07647b2ff9","5f61dbf6dd100c184f2477fd","true","929.854999999865","./Stimuli/ImagesPractice/LN2.jpg","83","","","","test","true","N + M","83","","LN","LN2.jpg","remember","old","15","1","start","left","","","",""
"html-keyboard-response","41","356391","0.0-2.0-2.0-0.15","9xgl9o16a4l8dwb","practice_no_cue","5eaadbfc91f1f204fb1499aa","5f60e3c0a3b16e07647b2ff9","5f61dbf6dd100c184f2477fd","false","null","<span style=""color: black; font-size: 48px"">N + M</span>","null","","","","resp_prompt","","","","","","","","","","","","","","","",""
"categorize-image","42","357645","0.0-2.0-2.0-1.15","9xgl9o16a4l8dwb","practice_no_cue","5eaadbfc91f1f204fb1499aa","5f60e3c0a3b16e07647b2ff9","5f61dbf6dd100c184f2477fd","true","749.6449999999022","./Stimuli/ImagesPractice/LM55.jpg","76","","","","test","true","N + M","76","","LM","LM55.jpg","forget","old","16","1","start","right","","","",""
"html-keyboard-response","43","385151","0.0-2.0-3.0","9xgl9o16a4l8dwb","break","5eaadbfc91f1f204fb1499aa","5f60e3c0a3b16e07647b2ff9","5f61dbf6dd100c184f2477fd","false","27503.354999999807","<p style='font-size: 32px;'>Break</><br><br><br><br><br><p style='font-size: 24px;'>In the last block, you committed 0 errors and did not respond in time on 0 trials.
</p><p style='font-size: 24px;'>Try to respond as fast and accurately as possible in the next block as well! </p><p style='font-size: 24px;'>Press SPACE to continue.</p>","32","","","","","","","","","","","","","","","","","","","",""
"html-keyboard-response","44","393963","0.0-2.0-4.0","9xgl9o16a4l8dwb","instructions","5eaadbfc91f1f204fb1499aa","5f60e3c0a3b16e07647b2ff9","5f61dbf6dd100c184f2477fd","false","8809.83999999991","<div align=left> Great!<br><br>Are you ready to continue?<br><br>If you want to reread the instructions and redo the practice trials, <br>please press „Z“. <br><br>Press SPACE to CONTINUE with the experiment when you are ready. </div>","32","","","","","","","","","","","","","","","","","","","",""
"html-keyboard-response","45","463912","0.0-3.0-0.0","9xgl9o16a4l8dwb","instructions","5eaadbfc91f1f204fb1499aa","5f60e3c0a3b16e07647b2ff9","5f61dbf6dd100c184f2477fd","false","69946.10499999998","<div align=left>Great!<br> <strong>Attention</strong>! You will now receive a second, additional task! <br><br>To this point it was you <strong>first task</strong> to correctly <strong>classify objects</strong>. <br><br>As mentioned in the beginning, we aim to examine how well humans can remember previously learned information.<br>We would like to find out whether our memory improves if we only remember information that is relevant to us. <br><br>Therefore, your <strong>second task</strong> will be to <strong>remember</strong> the pictures you are to categorize. <br> After the learning phase, there will be a memory test phase, in which you will be asked to indicate whether you have seen a picture before or not. <br>Some, but not all pictures shown in the learning phase will appear in the memory test phase.<br>After classifying a picture, you will be told whether you should remember it for the memory test phase or not. <br>Thus, some pictures can be forgotten, whereas others have to be remembered. <br><br>Note: From now on, feedback will only be displayed if you responded incorrectly or not in time.<br><br>Press SPACE to continue.</div>","32","","","","","","","","","","","","","","","","","","","",""
"html-keyboard-response","46","485406","0.0-3.0-1.0","9xgl9o16a4l8dwb","instructions","5eaadbfc91f1f204fb1499aa","5f60e3c0a3b16e07647b2ff9","5f61dbf6dd100c184f2477fd","false","21491.039999999863","<div align=left>In the following part, you will thus have to remember only some pictures. <br>Immediately after seeing and classifying the picture, a symbol will be displayed, indicating whether you should remember or forget the previous picture. <br><br>A <span style='color: dodgerblue; font-size: 28px'>O</span> indicates REMEMBER. That means, you have to remember this picture, because it will be tested later. <br><br>A <span style='color: darkorange; font-size:28px'>Ø</span> indicates FORGET. You do not have to remember this picture. <br><br> As you will have to remember a lot of pictures, it will be hard for you to remember all of them. <br>It will put you at an advantage if you instantly forget the pictures you are not asked to remember. <br> This will make it easier for you to remember the pictures that will be tested afterwards. <br><br>Press SPACE to continue.</div>","32","","","","","","","","","","","","","","","","","","","",""
"html-keyboard-response","47","500561","0.0-3.0-2.0","9xgl9o16a4l8dwb","instructions","5eaadbfc91f1f204fb1499aa","5f60e3c0a3b16e07647b2ff9","5f61dbf6dd100c184f2477fd","false","15083.450000000128","<div align=left> Now you have the chance to practice both tasks together.<br><br>Remember: <br> <br><li>Please place your index fingers on the <strong>'S'</strong> and <strong>'L'</strong> keys <br>to respond as fast and accurately as possible.</li><li>Every picture can be classified as either mechanical or non-mechanical.</li><li>If you do not respond in time or commit an error, you will receive a corresponding feedback. <br>Please try to respond as <strong> fast </strong> and as <strong> accurately as possible </strong>.</li><li> Please remember only the to-be-remembered <span style='color: dodgerblue; font-size: 28px'>O</span> pictures. <br></li><li> Please minimize distractions and stay focused. </li><br><br>Press SPACE to START</div>","32","","","","","","","","","","","","","","","","","","","",""
"html-keyboard-response","48","501265","0.0-3.0-3.0-0.0","9xgl9o16a4l8dwb","practice_cue","5eaadbfc91f1f204fb1499aa","5f60e3c0a3b16e07647b2ff9","5f61dbf6dd100c184f2477fd","false","null","<span style=""color: black; font-size: 48px"">M + N</span>","null","","","","resp_prompt","","","","","","","","","","","","","","","",""
"categorize-image","49","501909","0.0-3.0-3.0-1.0","9xgl9o16a4l8dwb","practice_cue","5eaadbfc91f1f204fb1499aa","5f60e3c0a3b16e07647b2ff9","5f61dbf6dd100c184f2477fd","true","639.8049999998184","./Stimuli/ImagesPractice/LN15.jpg","76","","","","test","true","M + N","76","","LN","LN15.jpg","remember","old","17","2","practice_forget","right","","","",""
"html-keyboard-response","50","503912","0.0-3.0-3.0-3.0","9xgl9o16a4l8dwb","practice_cue","5eaadbfc91f1f204fb1499aa","5f60e3c0a3b16e07647b2ff9","5f61dbf6dd100c184f2477fd","false","null","<div style=""align-items: center; display: flex; color: dodgerblue; font-size: 90px""><b>o</b></div>","null","","","","forget_cue","","","","","","","","","","","","","","","",""
"html-keyboard-response","51","504614","0.0-3.0-3.0-0.1","9xgl9o16a4l8dwb","practice_cue","5eaadbfc91f1f204fb1499aa","5f60e3c0a3b16e07647b2ff9","5f61dbf6dd100c184f2477fd","false","null","<span style=""color: black; font-size: 48px"">M + N</span>","null","","","","resp_prompt","","","","","","","","","","","","","","","",""
"categorize-image","52","505337","0.0-3.0-3.0-1.1","9xgl9o16a4l8dwb","practice_cue","5eaadbfc91f1f204fb1499aa","5f60e3c0a3b16e07647b2ff9","5f61dbf6dd100c184f2477fd","true","717.6050000002724","./Stimuli/ImagesPractice/LM147.jpg","83","","","","test","true","M + N","83","","LM","LM147.jpg","forget","old","18","2","practice_forget","left","","","",""
"html-keyboard-response","53","507343","0.0-3.0-3.0-3.1","9xgl9o16a4l8dwb","practice_cue","5eaadbfc91f1f204fb1499aa","5f60e3c0a3b16e07647b2ff9","5f61dbf6dd100c184f2477fd","false","null","<div style=""align-items: center; display: flex; color: darkorange; font-size: 90px""><b>ø</b></div>","null","","","","forget_cue","","","","","","","","","","","","","","","",""
"html-keyboard-response","54","508045","0.0-3.0-3.0-0.2","9xgl9o16a4l8dwb","practice_cue","5eaadbfc91f1f204fb1499aa","5f60e3c0a3b16e07647b2ff9","5f61dbf6dd100c184f2477fd","false","null","<span style=""color: black; font-size: 48px"">M + N</span>","null","","","","resp_prompt","","","","","","","","","","","","","","","",""
"categorize-image","55","508855","0.0-3.0-3.0-1.2","9xgl9o16a4l8dwb","practice_cue","5eaadbfc91f1f204fb1499aa","5f60e3c0a3b16e07647b2ff9","5f61dbf6dd100c184f2477fd","true","806.1499999999069","./Stimuli/ImagesPractice/LM143.jpg","83","","","","test","true","M + N","83","","LM","LM143.jpg","remember","old","19","2","practice_forget","left","","","",""
"html-keyboard-response","56","510861","0.0-3.0-3.0-3.2","9xgl9o16a4l8dwb","practice_cue","5eaadbfc91f1f204fb1499aa","5f60e3c0a3b16e07647b2ff9","5f61dbf6dd100c184f2477fd","false","null","<div style=""align-items: center; display: flex; color: dodgerblue; font-size: 90px""><b>o</b></div>","null","","","","forget_cue","","","","","","","","","","","","","","","",""
"html-keyboard-response","57","511563","0.0-3.0-3.0-0.3","9xgl9o16a4l8dwb","practice_cue","5eaadbfc91f1f204fb1499aa","5f60e3c0a3b16e07647b2ff9","5f61dbf6dd100c184f2477fd","false","null","<span style=""color: black; font-size: 48px"">N + M</span>","null","","","","resp_prompt","","","","","","","","","","","","","","","",""
"categorize-image","58","512176","0.0-3.0-3.0-1.3","9xgl9o16a4l8dwb","practice_cue","5eaadbfc91f1f204fb1499aa","5f60e3c0a3b16e07647b2ff9","5f61dbf6dd100c184f2477fd","true","609.015000000014","./Stimuli/ImagesPractice/SM98.jpg","76","","","","test","true","N + M","76","","SM","SM98.jpg","remember","old","20","2","practice_forget","right","","","",""
"html-keyboard-response","59","514181","0.0-3.0-3.0-3.3","9xgl9o16a4l8dwb","practice_cue","5eaadbfc91f1f204fb1499aa","5f60e3c0a3b16e07647b2ff9","5f61dbf6dd100c184f2477fd","false","null","<div style=""align-items: center; display: flex; color: dodgerblue; font-size: 90px""><b>o</b></div>","null","","","","forget_cue","","","","","","","","","","","","","","","",""
"html-keyboard-response","60","514884","0.0-3.0-3.0-0.4","9xgl9o16a4l8dwb","practice_cue","5eaadbfc91f1f204fb1499aa","5f60e3c0a3b16e07647b2ff9","5f61dbf6dd100c184f2477fd","false","null","<span style=""color: black; font-size: 48px"">M + N</span>","null","","","","resp_prompt","","","","","","","","","","","","","","","",""
"categorize-image","61","515563","0.0-3.0-3.0-1.4","9xgl9o16a4l8dwb","practice_cue","5eaadbfc91f1f204fb1499aa","5f60e3c0a3b16e07647b2ff9","5f61dbf6dd100c184f2477fd","true","675.4499999997206","./Stimuli/ImagesPractice/SN221.jpg","76","","","","test","true","M + N","76","","SN","SN221.jpg","forget","old","21","2","practice_forget","right","","","",""
"html-keyboard-response","62","517565","0.0-3.0-3.0-3.4","9xgl9o16a4l8dwb","practice_cue","5eaadbfc91f1f204fb1499aa","5f60e3c0a3b16e07647b2ff9","5f61dbf6dd100c184f2477fd","false","null","<div style=""align-items: center; display: flex; color: darkorange; font-size: 90px""><b>ø</b></div>","null","","","","forget_cue","","","","","","","","","","","","","","","",""
"html-keyboard-response","63","518268","0.0-3.0-3.0-0.5","9xgl9o16a4l8dwb","practice_cue","5eaadbfc91f1f204fb1499aa","5f60e3c0a3b16e07647b2ff9","5f61dbf6dd100c184f2477fd","false","null","<span style=""color: black; font-size: 48px"">N + M</span>","null","","","","resp_prompt","","","","","","","","","","","","","","","",""
"categorize-image","64","518801","0.0-3.0-3.0-1.5","9xgl9o16a4l8dwb","practice_cue","5eaadbfc91f1f204fb1499aa","5f60e3c0a3b16e07647b2ff9","5f61dbf6dd100c184f2477fd","true","528.8350000000792","./Stimuli/ImagesPractice/LM55.jpg","76","","","","test","true","N + M","76","","LM","LM55.jpg","forget","old","22","2","practice_forget","right","","","",""
"html-keyboard-response","65","520804","0.0-3.0-3.0-3.5","9xgl9o16a4l8dwb","practice_cue","5eaadbfc91f1f204fb1499aa","5f60e3c0a3b16e07647b2ff9","5f61dbf6dd100c184f2477fd","false","null","<div style=""align-items: center; display: flex; color: darkorange; font-size: 90px""><b>ø</b></div>","null","","","","forget_cue","","","","","","","","","","","","","","","",""
"html-keyboard-response","66","521507","0.0-3.0-3.0-0.6","9xgl9o16a4l8dwb","practice_cue","5eaadbfc91f1f204fb1499aa","5f60e3c0a3b16e07647b2ff9","5f61dbf6dd100c184f2477fd","false","null","<span style=""color: black; font-size: 48px"">M + N</span>","null","","","","resp_prompt","","","","","","","","","","","","","","","",""
"categorize-image","67","521929","0.0-3.0-3.0-1.6","9xgl9o16a4l8dwb","practice_cue","5eaadbfc91f1f204fb1499aa","5f60e3c0a3b16e07647b2ff9","5f61dbf6dd100c184f2477fd","true","416.4749999999767","./Stimuli/ImagesPractice/SN220.jpg","83","","","","test","false","M + N","76","","SN","SN220.jpg","forget","old","23","2","practice_forget","left","","","",""
"html-keyboard-response","68","522430","0.0-3.0-3.0-2.6-0.6","9xgl9o16a4l8dwb","practice_cue","5eaadbfc91f1f204fb1499aa","5f60e3c0a3b16e07647b2ff9","5f61dbf6dd100c184f2477fd","false","null","<span style=""color: red; font-size: 48px"">Error!</span>","null","","","","feedback","","","","","","","","","","","","","","","",""
"html-keyboard-response","69","524433","0.0-3.0-3.0-3.6","9xgl9o16a4l8dwb","practice_cue","5eaadbfc91f1f204fb1499aa","5f60e3c0a3b16e07647b2ff9","5f61dbf6dd100c184f2477fd","false","null","<div style=""align-items: center; display: flex; color: darkorange; font-size: 90px""><b>ø</b></div>","null","","","","forget_cue","","","","","","","","","","","","","","","",""
"html-keyboard-response","70","525135","0.0-3.0-3.0-0.7","9xgl9o16a4l8dwb","practice_cue","5eaadbfc91f1f204fb1499aa","5f60e3c0a3b16e07647b2ff9","5f61dbf6dd100c184f2477fd","false","null","<span style=""color: black; font-size: 48px"">N + M</span>","null","","","","resp_prompt","","","","","","","","","","","","","","","",""
"categorize-image","71","525812","0.0-3.0-3.0-1.7","9xgl9o16a4l8dwb","practice_cue","5eaadbfc91f1f204fb1499aa","5f60e3c0a3b16e07647b2ff9","5f61dbf6dd100c184f2477fd","true","671.6699999996927","./Stimuli/ImagesPractice/SN76.jpg","83","","","","test","true","N + M","83","","SN","SN76.jpg","remember","old","24","2","practice_forget","left","","","",""
"html-keyboard-response","72","527817","0.0-3.0-3.0-3.7","9xgl9o16a4l8dwb","practice_cue","5eaadbfc91f1f204fb1499aa","5f60e3c0a3b16e07647b2ff9","5f61dbf6dd100c184f2477fd","false","null","<div style=""align-items: center; display: flex; color: dodgerblue; font-size: 90px""><b>o</b></div>","null","","","","forget_cue","","","","","","","","","","","","","","","",""
"html-keyboard-response","73","528523","0.0-3.0-3.0-0.8","9xgl9o16a4l8dwb","practice_cue","5eaadbfc91f1f204fb1499aa","5f60e3c0a3b16e07647b2ff9","5f61dbf6dd100c184f2477fd","false","null","<span style=""color: black; font-size: 48px"">M + N</span>","null","","","","resp_prompt","","","","","","","","","","","","","","","",""
"categorize-image","74","529238","0.0-3.0-3.0-1.8","9xgl9o16a4l8dwb","practice_cue","5eaadbfc91f1f204fb1499aa","5f60e3c0a3b16e07647b2ff9","5f61dbf6dd100c184f2477fd","true","711.1999999997206","./Stimuli/ImagesPractice/LM239.jpg","83","","","","test","true","M + N","83","","LM","LM239.jpg","remember","old","25","2","practice_forget","left","","","",""
"html-keyboard-response","75","531243","0.0-3.0-3.0-3.8","9xgl9o16a4l8dwb","practice_cue","5eaadbfc91f1f204fb1499aa","5f60e3c0a3b16e07647b2ff9","5f61dbf6dd100c184f2477fd","false","null","<div style=""align-items: center; display: flex; color: dodgerblue; font-size: 90px""><b>o</b></div>","null","","","","forget_cue","","","","","","","","","","","","","","","",""
"html-keyboard-response","76","531945","0.0-3.0-3.0-0.9","9xgl9o16a4l8dwb","practice_cue","5eaadbfc91f1f204fb1499aa","5f60e3c0a3b16e07647b2ff9","5f61dbf6dd100c184f2477fd","false","null","<span style=""color: black; font-size: 48px"">M + N</span>","null","","","","resp_prompt","","","","","","","","","","","","","","","",""
"categorize-image","77","532545","0.0-3.0-3.0-1.9","9xgl9o16a4l8dwb","practice_cue","5eaadbfc91f1f204fb1499aa","5f60e3c0a3b16e07647b2ff9","5f61dbf6dd100c184f2477fd","true","595.7549999998882","./Stimuli/ImagesPractice/LM230.jpg","83","","","","test","true","M + N","83","","LM","LM230.jpg","remember","old","26","2","practice_forget","left","","","",""
"html-keyboard-response","78","534551","0.0-3.0-3.0-3.9","9xgl9o16a4l8dwb","practice_cue","5eaadbfc91f1f204fb1499aa","5f60e3c0a3b16e07647b2ff9","5f61dbf6dd100c184f2477fd","false","null","<div style=""align-items: center; display: flex; color: dodgerblue; font-size: 90px""><b>o</b></div>","null","","","","forget_cue","","","","","","","","","","","","","","","",""
"html-keyboard-response","79","535254","0.0-3.0-3.0-0.10","9xgl9o16a4l8dwb","practice_cue","5eaadbfc91f1f204fb1499aa","5f60e3c0a3b16e07647b2ff9","5f61dbf6dd100c184f2477fd","false","null","<span style=""color: black; font-size: 48px"">N + M</span>","null","","","","resp_prompt","","","","","","","","","","","","","","","",""
"categorize-image","80","535826","0.0-3.0-3.0-1.10","9xgl9o16a4l8dwb","practice_cue","5eaadbfc91f1f204fb1499aa","5f60e3c0a3b16e07647b2ff9","5f61dbf6dd100c184f2477fd","true","567.2300000000978","./Stimuli/ImagesPractice/SM62.jpg","76","","","","test","true","N + M","76","","SM","SM62.jpg","forget","old","27","2","practice_forget","right","","","",""
"html-keyboard-response","81","537831","0.0-3.0-3.0-3.10","9xgl9o16a4l8dwb","practice_cue","5eaadbfc91f1f204fb1499aa","5f60e3c0a3b16e07647b2ff9","5f61dbf6dd100c184f2477fd","false","null","<div style=""align-items: center; display: flex; color: darkorange; font-size: 90px""><b>ø</b></div>","null","","","","forget_cue","","","","","","","","","","","","","","","",""
"html-keyboard-response","82","538533","0.0-3.0-3.0-0.11","9xgl9o16a4l8dwb","practice_cue","5eaadbfc91f1f204fb1499aa","5f60e3c0a3b16e07647b2ff9","5f61dbf6dd100c184f2477fd","false","null","<span style=""color: black; font-size: 48px"">N + M</span>","null","","","","resp_prompt","","","","","","","","","","","","","","","",""
"categorize-image","83","539231","0.0-3.0-3.0-1.11","9xgl9o16a4l8dwb","practice_cue","5eaadbfc91f1f204fb1499aa","5f60e3c0a3b16e07647b2ff9","5f61dbf6dd100c184f2477fd","true","693.0999999999767","./Stimuli/ImagesPractice/LN4.jpg","83","","","","test","true","N + M","83","","LN","LN4.jpg","forget","old","28","2","practice_forget","left","","","",""
"html-keyboard-response","84","541233","0.0-3.0-3.0-3.11","9xgl9o16a4l8dwb","practice_cue","5eaadbfc91f1f204fb1499aa","5f60e3c0a3b16e07647b2ff9","5f61dbf6dd100c184f2477fd","false","null","<div style=""align-items: center; display: flex; color: darkorange; font-size: 90px""><b>ø</b></div>","null","","","","forget_cue","","","","","","","","","","","","","","","",""
"html-keyboard-response","85","541936","0.0-3.0-3.0-0.12","9xgl9o16a4l8dwb","practice_cue","5eaadbfc91f1f204fb1499aa","5f60e3c0a3b16e07647b2ff9","5f61dbf6dd100c184f2477fd","false","null","<span style=""color: black; font-size: 48px"">N + M</span>","null","","","","resp_prompt","","","","","","","","","","","","","","","",""
"categorize-image","86","543033","0.0-3.0-3.0-1.12","9xgl9o16a4l8dwb","practice_cue","5eaadbfc91f1f204fb1499aa","5f60e3c0a3b16e07647b2ff9","5f61dbf6dd100c184f2477fd","true","1092.5999999999767","./Stimuli/ImagesPractice/LN2.jpg","83","","","","test","true","N + M","83","","LN","LN2.jpg","remember","old","29","2","practice_forget","left","","","",""
"html-keyboard-response","87","545036","0.0-3.0-3.0-3.12","9xgl9o16a4l8dwb","practice_cue","5eaadbfc91f1f204fb1499aa","5f60e3c0a3b16e07647b2ff9","5f61dbf6dd100c184f2477fd","false","null","<div style=""align-items: center; display: flex; color: dodgerblue; font-size: 90px""><b>o</b></div>","null","","","","forget_cue","","","","","","","","","","","","","","","",""
"html-keyboard-response","88","545738","0.0-3.0-3.0-0.13","9xgl9o16a4l8dwb","practice_cue","5eaadbfc91f1f204fb1499aa","5f60e3c0a3b16e07647b2ff9","5f61dbf6dd100c184f2477fd","false","null","<span style=""color: black; font-size: 48px"">N + M</span>","null","","","","resp_prompt","","","","","","","","","","","","","","","",""
"categorize-image","89","546428","0.0-3.0-3.0-1.13","9xgl9o16a4l8dwb","practice_cue","5eaadbfc91f1f204fb1499aa","5f60e3c0a3b16e07647b2ff9","5f61dbf6dd100c184f2477fd","true","686.2200000000885","./Stimuli/ImagesPractice/LM224.jpg","76","","","","test","true","N + M","76","","LM","LM224.jpg","remember","old","30","2","practice_forget","right","","","",""
"html-keyboard-response","90","548432","0.0-3.0-3.0-3.13","9xgl9o16a4l8dwb","practice_cue","5eaadbfc91f1f204fb1499aa","5f60e3c0a3b16e07647b2ff9","5f61dbf6dd100c184f2477fd","false","null","<div style=""align-items: center; display: flex; color: dodgerblue; font-size: 90px""><b>o</b></div>","null","","","","forget_cue","","","","","","","","","","","","","","","",""
"html-keyboard-response","91","549134","0.0-3.0-3.0-0.14","9xgl9o16a4l8dwb","practice_cue","5eaadbfc91f1f204fb1499aa","5f60e3c0a3b16e07647b2ff9","5f61dbf6dd100c184f2477fd","false","null","<span style=""color: black; font-size: 48px"">M + N</span>","null","","","","resp_prompt","","","","","","","","","","","","","","","",""
"categorize-image","92","549907","0.0-3.0-3.0-1.14","9xgl9o16a4l8dwb","practice_cue","5eaadbfc91f1f204fb1499aa","5f60e3c0a3b16e07647b2ff9","5f61dbf6dd100c184f2477fd","true","768.7649999997811","./Stimuli/ImagesPractice/SN205.jpg","76","","","","test","true","M + N","76","","SN","SN205.jpg","forget","old","31","2","practice_forget","right","","","",""
"html-keyboard-response","93","551909","0.0-3.0-3.0-3.14","9xgl9o16a4l8dwb","practice_cue","5eaadbfc91f1f204fb1499aa","5f60e3c0a3b16e07647b2ff9","5f61dbf6dd100c184f2477fd","false","null","<div style=""align-items: center; display: flex; color: darkorange; font-size: 90px""><b>ø</b></div>","null","","","","forget_cue","","","","","","","","","","","","","","","",""
"html-keyboard-response","94","552611","0.0-3.0-3.0-0.15","9xgl9o16a4l8dwb","practice_cue","5eaadbfc91f1f204fb1499aa","5f60e3c0a3b16e07647b2ff9","5f61dbf6dd100c184f2477fd","false","null","<span style=""color: black; font-size: 48px"">N + M</span>","null","","","","resp_prompt","","","","","","","","","","","","","","","",""
"categorize-image","95","553249","0.0-3.0-3.0-1.15","9xgl9o16a4l8dwb","practice_cue","5eaadbfc91f1f204fb1499aa","5f60e3c0a3b16e07647b2ff9","5f61dbf6dd100c184f2477fd","true","633.515000000014","./Stimuli/ImagesPractice/SM35.jpg","76","","","","test","true","N + M","76","","SM","SM35.jpg","forget","old","32","2","practice_forget","right","","","",""
"html-keyboard-response","96","555253","0.0-3.0-3.0-3.15","9xgl9o16a4l8dwb","practice_cue","5eaadbfc91f1f204fb1499aa","5f60e3c0a3b16e07647b2ff9","5f61dbf6dd100c184f2477fd","false","null","<div style=""align-items: center; display: flex; color: darkorange; font-size: 90px""><b>ø</b></div>","null","","","","forget_cue","","","","","","","","","","","","","","","",""
"html-keyboard-response","97","564501","0.0-3.0-4.0","9xgl9o16a4l8dwb","break","5eaadbfc91f1f204fb1499aa","5f60e3c0a3b16e07647b2ff9","5f61dbf6dd100c184f2477fd","false","9246.229999999749","<p style='font-size: 32px;'>Break</><br><br><br><br><br><p style='font-size: 24px;'>In the last block, you committed 1 errors and did not respond in time on 0 trials.
</p><p style='font-size: 24px;'>Try to respond as fast and accurately as possible in the next block as well! </p><p style='font-size: 24px;'>Press SPACE to continue.</p>","32","","","","","","","","","","","","","","","","","","","",""
"html-keyboard-response","98","602804","0.0-3.0-5.0","9xgl9o16a4l8dwb","instructions","5eaadbfc91f1f204fb1499aa","5f60e3c0a3b16e07647b2ff9","5f61dbf6dd100c184f2477fd","false","38300.415000000154","<div align=left> Now, to practice, we kindly ask you to remember as many of the to-be-remembered pictures<br>of the previous learning phase as possible.<br><br>The pictures you were instructed to remember were the pictures followed by a <span style='color: dodgerblue; font-size: 28px'>O</span>.<br><br>In this memory test phase, you will also see some new pictures.<br>It is your task to remember whether you were presented with this specific picture in this study so far or not.<br>If you recognize an object (you have already seen it in this study), it is an OLD object. <br>If you do not recognize an object (you have NOT seen it in this study), it is a NEW object. <br><strong> Attention</strong>: As already mentioned, <span style='color: darkorange; font-size:28px'>Ø</span>-pictures will <strong>never</strong> appear in this memory test (neither as new objects). <br><br>Press SPACE to continue. </div>","32","","","","","","","","","","","","","","","","","","","",""
"html-keyboard-response","99","649692","0.0-3.0-6.0","9xgl9o16a4l8dwb","instructions","5eaadbfc91f1f204fb1499aa","5f60e3c0a3b16e07647b2ff9","5f61dbf6dd100c184f2477fd","false","46885.040000000154","<div align=left> M and N no longer will appear on the left/right of the fixation cross. <br>Instead there will be a note at the bottom of the left or right side  <br>indicating which key you should press for an old or new object:  <br> <br>Press the <strong>right</strong> key to classify an object as <strong>old</strong> and press the <strong>left</strong>, to classify an object as <strong>new</strong>.<br>Please classify the objects as new/old by again placing your index finger on the 'S' and 'L' keys <br>and press them accordingly.<br><br><strong>Old:</strong> This object has been presented before. <br><strong>New:</strong> This object has <strong>not</strong> been presented.<br><br>Now please put your right and left index fingers on the 'S' and 'L' keys of your keyboard. <br>Please respond as fast and as accurately as possible!<br><br>Press SPACE to continue. </div>","32","","","","","","","","","","","","","","","","","","","",""
"categorize-image","100","651691","0.0-3.0-7.0-0.0","9xgl9o16a4l8dwb","practice_recog","5eaadbfc91f1f204fb1499aa","5f60e3c0a3b16e07647b2ff9","5f61dbf6dd100c184f2477fd","true","1493.1049999999814","./Stimuli/ImagesPractice/SN76.jpg","76","","","","test","true","","76","","SN","SN76.jpg","","old","33","3","practice_recog","right","","","",""
"categorize-image","101","653517","0.0-3.0-7.0-0.1","9xgl9o16a4l8dwb","practice_recog","5eaadbfc91f1f204fb1499aa","5f60e3c0a3b16e07647b2ff9","5f61dbf6dd100c184f2477fd","true","1317.8850000000093","./Stimuli/ImagesPractice/SM97.jpg","83","","","","test","true","","83","","SM","SM97.jpg","","new","34","3","practice_recog","left","","","",""
"categorize-image","102","655409","0.0-3.0-7.0-0.2","9xgl9o16a4l8dwb","practice_recog","5eaadbfc91f1f204fb1499aa","5f60e3c0a3b16e07647b2ff9","5f61dbf6dd100c184f2477fd","true","1386.9799999997485","./Stimuli/ImagesPractice/SM37.jpg","83","","","","test","true","","83","","SM","SM37.jpg","","new","35","3","practice_recog","left","","","",""
"categorize-image","103","657006","0.0-3.0-7.0-0.3","9xgl9o16a4l8dwb","practice_recog","5eaadbfc91f1f204fb1499aa","5f60e3c0a3b16e07647b2ff9","5f61dbf6dd100c184f2477fd","true","1092.2649999997811","./Stimuli/ImagesPractice/LN72.jpg","83","","","","test","true","","83","","LN","LN72.jpg","","new","36","3","practice_recog","left","","","",""
"categorize-image","104","658567","0.0-3.0-7.0-0.4","9xgl9o16a4l8dwb","practice_recog","5eaadbfc91f1f204fb1499aa","5f60e3c0a3b16e07647b2ff9","5f61dbf6dd100c184f2477fd","true","1056.4600000001956","./Stimuli/ImagesPractice/SN222.jpg","83","","","","test","true","","83","","SN","SN222.jpg","","new","37","3","practice_recog","left","","","",""
"categorize-image","105","660085","0.0-3.0-7.0-0.5","9xgl9o16a4l8dwb","practice_recog","5eaadbfc91f1f204fb1499aa","5f60e3c0a3b16e07647b2ff9","5f61dbf6dd100c184f2477fd","true","1013.8150000002934","./Stimuli/ImagesPractice/SN75.jpg","83","","","","test","true","","83","","SN","SN75.jpg","","new","38","3","practice_recog","left","","","",""
"categorize-image","106","661443","0.0-3.0-7.0-0.6","9xgl9o16a4l8dwb","practice_recog","5eaadbfc91f1f204fb1499aa","5f60e3c0a3b16e07647b2ff9","5f61dbf6dd100c184f2477fd","true","854.3150000000605","./Stimuli/ImagesPractice/LN17.jpg","83","","","","test","true","","83","","LN","LN17.jpg","","new","39","3","practice_recog","left","","","",""
"categorize-image","107","662805","0.0-3.0-7.0-0.7","9xgl9o16a4l8dwb","practice_recog","5eaadbfc91f1f204fb1499aa","5f60e3c0a3b16e07647b2ff9","5f61dbf6dd100c184f2477fd","true","858.9949999999953","./Stimuli/ImagesPractice/LN2.jpg","76","","","","test","true","","76","","LN","LN2.jpg","","old","40","3","practice_recog","right","","","",""
"categorize-image","108","664146","0.0-3.0-7.0-0.8","9xgl9o16a4l8dwb","practice_recog","5eaadbfc91f1f204fb1499aa","5f60e3c0a3b16e07647b2ff9","5f61dbf6dd100c184f2477fd","true","836.3600000002189","./Stimuli/ImagesPractice/LN109.jpg","83","","","","test","true","","83","","LN","LN109.jpg","","new","41","3","practice_recog","left","","","",""
"categorize-image","109","665626","0.0-3.0-7.0-0.9","9xgl9o16a4l8dwb","practice_recog","5eaadbfc91f1f204fb1499aa","5f60e3c0a3b16e07647b2ff9","5f61dbf6dd100c184f2477fd","true","975.4750000002095","./Stimuli/ImagesPractice/SM61.jpg","83","","","","test","true","","83","","SM","SM61.jpg","","new","42","3","practice_recog","left","","","",""
"categorize-image","110","666782","0.0-3.0-7.0-0.10","9xgl9o16a4l8dwb","practice_recog","5eaadbfc91f1f204fb1499aa","5f60e3c0a3b16e07647b2ff9","5f61dbf6dd100c184f2477fd","true","653.5750000001863","./Stimuli/ImagesPractice/LN15.jpg","76","","","","test","true","","76","","LN","LN15.jpg","","old","43","3","practice_recog","right","","","",""
"categorize-image","111","668088","0.0-3.0-7.0-0.11","9xgl9o16a4l8dwb","practice_recog","5eaadbfc91f1f204fb1499aa","5f60e3c0a3b16e07647b2ff9","5f61dbf6dd100c184f2477fd","true","799.0549999999348","./Stimuli/ImagesPractice/LM239.jpg","76","","","","test","true","","76","","LM","LM239.jpg","","old","44","3","practice_recog","right","","","",""
"categorize-image","112","669429","0.0-3.0-7.0-0.12","9xgl9o16a4l8dwb","practice_recog","5eaadbfc91f1f204fb1499aa","5f60e3c0a3b16e07647b2ff9","5f61dbf6dd100c184f2477fd","true","837.4049999997951","./Stimuli/ImagesPractice/SM98.jpg","76","","","","test","true","","76","","SM","SM98.jpg","","old","45","3","practice_recog","right","","","",""
"categorize-image","113","670717","0.0-3.0-7.0-0.13","9xgl9o16a4l8dwb","practice_recog","5eaadbfc91f1f204fb1499aa","5f60e3c0a3b16e07647b2ff9","5f61dbf6dd100c184f2477fd","true","781.6450000000186","./Stimuli/ImagesPractice/LM143.jpg","76","","","","test","true","","76","","LM","LM143.jpg","","old","46","3","practice_recog","right","","","",""
"categorize-image","114","671942","0.0-3.0-7.0-0.14","9xgl9o16a4l8dwb","practice_recog","5eaadbfc91f1f204fb1499aa","5f60e3c0a3b16e07647b2ff9","5f61dbf6dd100c184f2477fd","true","723.1500000002561","./Stimuli/ImagesPractice/LM230.jpg","76","","","","test","true","","76","","LM","LM230.jpg","","old","47","3","practice_recog","right","","","",""
"categorize-image","115","673201","0.0-3.0-7.0-0.15","9xgl9o16a4l8dwb","practice_recog","5eaadbfc91f1f204fb1499aa","5f60e3c0a3b16e07647b2ff9","5f61dbf6dd100c184f2477fd","true","755.1199999998789","./Stimuli/ImagesPractice/LM224.jpg","76","","","","test","true","","76","","LM","LM224.jpg","","old","48","3","practice_recog","right","","","",""
"html-keyboard-response","116","700366","0.0-3.0-8.0","9xgl9o16a4l8dwb","instructions","5eaadbfc91f1f204fb1499aa","5f60e3c0a3b16e07647b2ff9","5f61dbf6dd100c184f2477fd","false","27162.95500000019","<div align=left> Great!<br><br>Are you ready to continue?<br>If you want to reread the instructions and redo the practice trials, please <br>press „Z“.<br><br>You can proceed when you are ready.<br><br>After the presentation of each object, you will receive an instruction whether to <br>remember or to forget the object.<br>We will test your memory of the following pictures only at the very end of <br>the experiment after all learning blocks are completed. <br><br>Press SPACE to CONTINUE when you are ready. </div>","32","","","","","","","","","","","","","","","","","","","",""
"html-keyboard-response","117","717619","0.0-4.0-0.0","9xgl9o16a4l8dwb","instructions","5eaadbfc91f1f204fb1499aa","5f60e3c0a3b16e07647b2ff9","5f61dbf6dd100c184f2477fd","false","17250.72499999986","<div align=left> The actual experiment is about to start.<br>The practice trials are over!<br><br>Please always respond both fast and accurately!<br><br>Remember: <br> <br><li> Please place your index fingers on the <strong>'S'</strong> and <strong>'L'</strong> keys <br>to respond as fast and accurately as possible.</li><li> Every picture can be classified as either mechanical or non-mechanical.</li><li> If you do not respond in time or commit an error, you will receive a corresponding feedback.<br> Please try to respond as <strong> fast </strong> and as <strong> accurately as possible </strong>.</li><li> Remember the <span style='color: dodgerblue; font-size: 28px'>O</span> pictures. <br></li><li> Please minimize distractions and stay focused. </li><br><br>Press SPACE to START.</div>","32","","","","","","","","","","","","","","","","","","","",""
"html-keyboard-response","118","718326","0.0-4.0-1.0-0.0","9xgl9o16a4l8dwb","prime","5eaadbfc91f1f204fb1499aa","5f60e3c0a3b16e07647b2ff9","5f61dbf6dd100c184f2477fd","false","null","<span style=""color: black; font-size: 48px"">N + M</span>","null","","","","resp_prompt","","","","","","","","","","","","","","","",""
"categorize-image","119","718983","0.0-4.0-1.0-1.0","9xgl9o16a4l8dwb","prime","5eaadbfc91f1f204fb1499aa","5f60e3c0a3b16e07647b2ff9","5f61dbf6dd100c184f2477fd","true","652.819999999716","./Stimuli/SelectedImages/SN/SN181.bmp","83","","","","test","true","N + M","83","switch","SN","SN181.bmp","remember","","49","3","prime1","left","","","",""
"html-keyboard-response","120","720989","0.0-4.0-1.0-3.0","9xgl9o16a4l8dwb","prime","5eaadbfc91f1f204fb1499aa","5f60e3c0a3b16e07647b2ff9","5f61dbf6dd100c184f2477fd","false","null","<div style=""align-items: center; display: flex; color: dodgerblue; font-size: 90px""><b>o</b></div>","null","","","","forget_cue","","","","","","","","","","","","","","","",""
"html-keyboard-response","121","721693","0.0-4.0-1.0-0.1","9xgl9o16a4l8dwb","prime","5eaadbfc91f1f204fb1499aa","5f60e3c0a3b16e07647b2ff9","5f61dbf6dd100c184f2477fd","false","null","<span style=""color: black; font-size: 48px"">M + N</span>","null","","","","resp_prompt","","","","","","","","","","","","","","","",""
"categorize-image","122","722309","0.0-4.0-1.0-1.1","9xgl9o16a4l8dwb","prime","5eaadbfc91f1f204fb1499aa","5f60e3c0a3b16e07647b2ff9","5f61dbf6dd100c184f2477fd","true","612.9599999999627","./Stimuli/SelectedImages/LN/LN13.bmp","76","","","","test","true","M + N","76","switch","LN","LN13.bmp","remember","","50","3","prime1","right","","","",""
"html-keyboard-response","123","724311","0.0-4.0-1.0-3.1","9xgl9o16a4l8dwb","prime","5eaadbfc91f1f204fb1499aa","5f60e3c0a3b16e07647b2ff9","5f61dbf6dd100c184f2477fd","false","null","<div style=""align-items: center; display: flex; color: dodgerblue; font-size: 90px""><b>o</b></div>","null","","","","forget_cue","","","","","","","","","","","","","","","",""
"html-keyboard-response","124","725013","0.0-4.0-1.0-0.2","9xgl9o16a4l8dwb","prime","5eaadbfc91f1f204fb1499aa","5f60e3c0a3b16e07647b2ff9","5f61dbf6dd100c184f2477fd","false","null","<span style=""color: black; font-size: 48px"">M + N</span>","null","","","","resp_prompt","","","","","","","","","","","","","","","",""
"categorize-image","125","725602","0.0-4.0-1.0-1.2","9xgl9o16a4l8dwb","prime","5eaadbfc91f1f204fb1499aa","5f60e3c0a3b16e07647b2ff9","5f61dbf6dd100c184f2477fd","true","585.1200000002282","./Stimuli/SelectedImages/LM/LM48.bmp","83","","","","test","true","M + N","83","switch","LM","LM48.bmp","forget","","51","3","prime1","left","","","",""
"html-keyboard-response","126","727608","0.0-4.0-1.0-3.2","9xgl9o16a4l8dwb","prime","5eaadbfc91f1f204fb1499aa","5f60e3c0a3b16e07647b2ff9","5f61dbf6dd100c184f2477fd","false","null","<div style=""align-items: center; display: flex; color: darkorange; font-size: 90px""><b>ø</b></div>","null","","","","forget_cue","","","","","","","","","","","","","","","",""
"html-keyboard-response","127","728310","0.0-4.0-1.0-0.3","9xgl9o16a4l8dwb","prime","5eaadbfc91f1f204fb1499aa","5f60e3c0a3b16e07647b2ff9","5f61dbf6dd100c184f2477fd","false","null","<span style=""color: black; font-size: 48px"">M + N</span>","null","","","","resp_prompt","","","","","","","","","","","","","","","",""
"categorize-image","128","729043","0.0-4.0-1.0-1.3","9xgl9o16a4l8dwb","prime","5eaadbfc91f1f204fb1499aa","5f60e3c0a3b16e07647b2ff9","5f61dbf6dd100c184f2477fd","true","727.4799999999814","./Stimuli/SelectedImages/LM/LM235.bmp","83","","","","test","true","M + N","83","repetition","LM","LM235.bmp","forget","","52","3","prime1","left","","","",""
"html-keyboard-response","129","731045","0.0-4.0-1.0-3.3","9xgl9o16a4l8dwb","prime","5eaadbfc91f1f204fb1499aa","5f60e3c0a3b16e07647b2ff9","5f61dbf6dd100c184f2477fd","false","null","<div style=""align-items: center; display: flex; color: darkorange; font-size: 90px""><b>ø</b></div>","null","","","","forget_cue","","","","","","","","","","","","","","","",""
"html-keyboard-response","130","731747","0.0-4.0-1.0-0.4","9xgl9o16a4l8dwb","prime","5eaadbfc91f1f204fb1499aa","5f60e3c0a3b16e07647b2ff9","5f61dbf6dd100c184f2477fd","false","null","<span style=""color: black; font-size: 48px"">N + M</span>","null","","","","resp_prompt","","","","","","","","","","","","","","","",""
"categorize-image","131","732319","0.0-4.0-1.0-1.4","9xgl9o16a4l8dwb","prime","5eaadbfc91f1f204fb1499aa","5f60e3c0a3b16e07647b2ff9","5f61dbf6dd100c184f2477fd","true","568.0600000000559","./Stimuli/SelectedImages/SM/SM213.bmp","76","","","","test","true","N + M","76","switch","SM","SM213.bmp","forget","","53","3","prime1","right","","","",""
"html-keyboard-response","132","734325","0.0-4.0-1.0-3.4","9xgl9o16a4l8dwb","prime","5eaadbfc91f1f204fb1499aa","5f60e3c0a3b16e07647b2ff9","5f61dbf6dd100c184f2477fd","false","null","<div style=""align-items: center; display: flex; color: darkorange; font-size: 90px""><b>ø</b></div>","null","","","","forget_cue","","","","","","","","","","","","","","","",""
"html-keyboard-response","133","735027","0.0-4.0-1.0-0.5","9xgl9o16a4l8dwb","prime","5eaadbfc91f1f204fb1499aa","5f60e3c0a3b16e07647b2ff9","5f61dbf6dd100c184f2477fd","false","null","<span style=""color: black; font-size: 48px"">N + M</span>","null","","","","resp_prompt","","","","","","","","","","","","","","","",""
"categorize-image","134","735588","0.0-4.0-1.0-1.5","9xgl9o16a4l8dwb","prime","5eaadbfc91f1f204fb1499aa","5f60e3c0a3b16e07647b2ff9","5f61dbf6dd100c184f2477fd","true","557.1749999999302","./Stimuli/SelectedImages/LM/LM216.bmp","76","","","","test","true","N + M","76","repetition","LM","LM216.bmp","remember","","54","3","prime1","right","","","",""
"html-keyboard-response","135","737590","0.0-4.0-1.0-3.5","9xgl9o16a4l8dwb","prime","5eaadbfc91f1f204fb1499aa","5f60e3c0a3b16e07647b2ff9","5f61dbf6dd100c184f2477fd","false","null","<div style=""align-items: center; display: flex; color: dodgerblue; font-size: 90px""><b>o</b></div>","null","","","","forget_cue","","","","","","","","","","","","","","","",""
"html-keyboard-response","136","738295","0.0-4.0-1.0-0.6","9xgl9o16a4l8dwb","prime","5eaadbfc91f1f204fb1499aa","5f60e3c0a3b16e07647b2ff9","5f61dbf6dd100c184f2477fd","false","null","<span style=""color: black; font-size: 48px"">N + M</span>","null","","","","resp_prompt","","","","","","","","","","","","","","","",""
"categorize-image","137","739133","0.0-4.0-1.0-1.6","9xgl9o16a4l8dwb","prime","5eaadbfc91f1f204fb1499aa","5f60e3c0a3b16e07647b2ff9","5f61dbf6dd100c184f2477fd","true","833.4150000000373","./Stimuli/SelectedImages/LN/LN9.bmp","76","","","","test","false","N + M","83","repetition","LN","LN9.bmp","remember","","55","3","prime1","right","","","",""
"html-keyboard-response","138","739635","0.0-4.0-1.0-2.6-0.6","9xgl9o16a4l8dwb","prime","5eaadbfc91f1f204fb1499aa","5f60e3c0a3b16e07647b2ff9","5f61dbf6dd100c184f2477fd","false","null","<span style=""color: red; font-size: 48px"">Error!</span>","null","","","","feedback","","","","","","","","","","","","","","","",""
"html-keyboard-response","139","741641","0.0-4.0-1.0-3.6","9xgl9o16a4l8dwb","prime","5eaadbfc91f1f204fb1499aa","5f60e3c0a3b16e07647b2ff9","5f61dbf6dd100c184f2477fd","false","null","<div style=""align-items: center; display: flex; color: dodgerblue; font-size: 90px""><b>o</b></div>","null","","","","forget_cue","","","","","","","","","","","","","","","",""
"html-keyboard-response","140","742347","0.0-4.0-1.0-0.7","9xgl9o16a4l8dwb","prime","5eaadbfc91f1f204fb1499aa","5f60e3c0a3b16e07647b2ff9","5f61dbf6dd100c184f2477fd","false","null","<span style=""color: black; font-size: 48px"">M + N</span>","null","","","","resp_prompt","","","","","","","","","","","","","","","",""
"categorize-image","141","743075","0.0-4.0-1.0-1.7","9xgl9o16a4l8dwb","prime","5eaadbfc91f1f204fb1499aa","5f60e3c0a3b16e07647b2ff9","5f61dbf6dd100c184f2477fd","true","724.0050000001211","./Stimuli/SelectedImages/SN/SN187.bmp","76","","","","test","true","M + N","76","repetition","SN","SN187.bmp","forget","","56","3","prime1","right","","","",""
"html-keyboard-response","142","745081","0.0-4.0-1.0-3.7","9xgl9o16a4l8dwb","prime","5eaadbfc91f1f204fb1499aa","5f60e3c0a3b16e07647b2ff9","5f61dbf6dd100c184f2477fd","false","null","<div style=""align-items: center; display: flex; color: darkorange; font-size: 90px""><b>ø</b></div>","null","","","","forget_cue","","","","","","","","","","","","","","","",""
"html-keyboard-response","143","745786","0.0-4.0-1.0-0.8","9xgl9o16a4l8dwb","prime","5eaadbfc91f1f204fb1499aa","5f60e3c0a3b16e07647b2ff9","5f61dbf6dd100c184f2477fd","false","null","<span style=""color: black; font-size: 48px"">N + M</span>","null","","","","resp_prompt","","","","","","","","","","","","","","","",""
"categorize-image","144","746374","0.0-4.0-1.0-1.8","9xgl9o16a4l8dwb","prime","5eaadbfc91f1f204fb1499aa","5f60e3c0a3b16e07647b2ff9","5f61dbf6dd100c184f2477fd","true","584.3949999997858","./Stimuli/SelectedImages/LM/LM58.bmp","76","","","","test","true","N + M","76","switch","LM","LM58.bmp","forget","","57","3","prime1","right","","","",""
"html-keyboard-response","145","748379","0.0-4.0-1.0-3.8","9xgl9o16a4l8dwb","prime","5eaadbfc91f1f204fb1499aa","5f60e3c0a3b16e07647b2ff9","5f61dbf6dd100c184f2477fd","false","null","<div style=""align-items: center; display: flex; color: darkorange; font-size: 90px""><b>ø</b></div>","null","","","","forget_cue","","","","","","","","","","","","","","","",""
"html-keyboard-response","146","749081","0.0-4.0-1.0-0.9","9xgl9o16a4l8dwb","prime","5eaadbfc91f1f204fb1499aa","5f60e3c0a3b16e07647b2ff9","5f61dbf6dd100c184f2477fd","false","null","<span style=""color: black; font-size: 48px"">M + N</span>","null","","","","resp_prompt","","","","","","","","","","","","","","","",""
"categorize-image","147","750064","0.0-4.0-1.0-1.9","9xgl9o16a4l8dwb","prime","5eaadbfc91f1f204fb1499aa","5f60e3c0a3b16e07647b2ff9","5f61dbf6dd100c184f2477fd","true","978.9399999999441","./Stimuli/SelectedImages/LN/LN150.bmp","76","","","","test","true","M + N","76","repetition","LN","LN150.bmp","forget","","58","3","prime1","right","","","",""
"html-keyboard-response","148","752065","0.0-4.0-1.0-3.9","9xgl9o16a4l8dwb","prime","5eaadbfc91f1f204fb1499aa","5f60e3c0a3b16e07647b2ff9","5f61dbf6dd100c184f2477fd","false","null","<div style=""align-items: center; display: flex; color: darkorange; font-size: 90px""><b>ø</b></div>","null","","","","forget_cue","","","","","","","","","","","","","","","",""
"html-keyboard-response","149","752768","0.0-4.0-1.0-0.10","9xgl9o16a4l8dwb","prime","5eaadbfc91f1f204fb1499aa","5f60e3c0a3b16e07647b2ff9","5f61dbf6dd100c184f2477fd","false","null","<span style=""color: black; font-size: 48px"">M + N</span>","null","","","","resp_prompt","","","","","","","","","","","","","","","",""
"categorize-image","150","753674","0.0-4.0-1.0-1.10","9xgl9o16a4l8dwb","prime","5eaadbfc91f1f204fb1499aa","5f60e3c0a3b16e07647b2ff9","5f61dbf6dd100c184f2477fd","true","902.1850000002887","./Stimuli/SelectedImages/SN/SN111.bmp","76","","","","test","true","M + N","76","switch","SN","SN111.bmp","remember","","59","3","prime1","right","","","",""
"html-keyboard-response","151","755676","0.0-4.0-1.0-3.10","9xgl9o16a4l8dwb","prime","5eaadbfc91f1f204fb1499aa","5f60e3c0a3b16e07647b2ff9","5f61dbf6dd100c184f2477fd","false","null","<div style=""align-items: center; display: flex; color: dodgerblue; font-size: 90px""><b>o</b></div>","null","","","","forget_cue","","","","","","","","","","","","","","","",""
"html-keyboard-response","152","756378","0.0-4.0-1.0-0.11","9xgl9o16a4l8dwb","prime","5eaadbfc91f1f204fb1499aa","5f60e3c0a3b16e07647b2ff9","5f61dbf6dd100c184f2477fd","false","null","<span style=""color: black; font-size: 48px"">N + M</span>","null","","","","resp_prompt","","","","","","","","","","","","","","","",""
"categorize-image","153","757333","0.0-4.0-1.0-1.11","9xgl9o16a4l8dwb","prime","5eaadbfc91f1f204fb1499aa","5f60e3c0a3b16e07647b2ff9","5f61dbf6dd100c184f2477fd","true","950.3150000000605","./Stimuli/SelectedImages/LN/LN166.bmp","83","","","","test","true","N + M","83","repetition","LN","LN166.bmp","forget","","60","3","prime1","left","","","",""
"html-keyboard-response","154","759339","0.0-4.0-1.0-3.11","9xgl9o16a4l8dwb","prime","5eaadbfc91f1f204fb1499aa","5f60e3c0a3b16e07647b2ff9","5f61dbf6dd100c184f2477fd","false","null","<div style=""align-items: center; display: flex; color: darkorange; font-size: 90px""><b>ø</b></div>","null","","","","forget_cue","","","","","","","","","","","","","","","",""
"html-keyboard-response","155","760041","0.0-4.0-1.0-0.12","9xgl9o16a4l8dwb","prime","5eaadbfc91f1f204fb1499aa","5f60e3c0a3b16e07647b2ff9","5f61dbf6dd100c184f2477fd","false","null","<span style=""color: black; font-size: 48px"">M + N</span>","null","","","","resp_prompt","","","","","","","","","","","","","","","",""
"categorize-image","156","760941","0.0-4.0-1.0-1.12","9xgl9o16a4l8dwb","prime","5eaadbfc91f1f204fb1499aa","5f60e3c0a3b16e07647b2ff9","5f61dbf6dd100c184f2477fd","true","896.3800000001211","./Stimuli/SelectedImages/SN/SN155.bmp","76","","","","test","true","M + N","76","repetition","SN","SN155.bmp","forget","","61","3","prime1","right","","","",""
"html-keyboard-response","157","762944","0.0-4.0-1.0-3.12","9xgl9o16a4l8dwb","prime","5eaadbfc91f1f204fb1499aa","5f60e3c0a3b16e07647b2ff9","5f61dbf6dd100c184f2477fd","false","null","<div style=""align-items: center; display: flex; color: darkorange; font-size: 90px""><b>ø</b></div>","null","","","","forget_cue","","","","","","","","","","","","","","","",""
"html-keyboard-response","158","763646","0.0-4.0-1.0-0.13","9xgl9o16a4l8dwb","prime","5eaadbfc91f1f204fb1499aa","5f60e3c0a3b16e07647b2ff9","5f61dbf6dd100c184f2477fd","false","null","<span style=""color: black; font-size: 48px"">N + M</span>","null","","","","resp_prompt","","","","","","","","","","","","","","","",""
"categorize-image","159","764669","0.0-4.0-1.0-1.13","9xgl9o16a4l8dwb","prime","5eaadbfc91f1f204fb1499aa","5f60e3c0a3b16e07647b2ff9","5f61dbf6dd100c184f2477fd","true","1018.3749999996508","./Stimuli/SelectedImages/SN/SN179.bmp","83","","","","test","true","N + M","83","repetition","SN","SN179.bmp","forget","","62","3","prime1","left","","","",""
"html-keyboard-response","160","766671","0.0-4.0-1.0-3.13","9xgl9o16a4l8dwb","prime","5eaadbfc91f1f204fb1499aa","5f60e3c0a3b16e07647b2ff9","5f61dbf6dd100c184f2477fd","false","null","<div style=""align-items: center; display: flex; color: darkorange; font-size: 90px""><b>ø</b></div>","null","","","","forget_cue","","","","","","","","","","","","","","","",""
"html-keyboard-response","161","767373","0.0-4.0-1.0-0.14","9xgl9o16a4l8dwb","prime","5eaadbfc91f1f204fb1499aa","5f60e3c0a3b16e07647b2ff9","5f61dbf6dd100c184f2477fd","false","null","<span style=""color: black; font-size: 48px"">M + N</span>","null","","","","resp_prompt","","","","","","","","","","","","","","","",""
"categorize-image","162","768045","0.0-4.0-1.0-1.14","9xgl9o16a4l8dwb","prime","5eaadbfc91f1f204fb1499aa","5f60e3c0a3b16e07647b2ff9","5f61dbf6dd100c184f2477fd","true","664.6449999997858","./Stimuli/SelectedImages/LN/LN131.bmp","76","","","","test","true","M + N","76","repetition","LN","LN131.bmp","remember","","63","3","prime1","right","","","",""
"html-keyboard-response","163","770050","0.0-4.0-1.0-3.14","9xgl9o16a4l8dwb","prime","5eaadbfc91f1f204fb1499aa","5f60e3c0a3b16e07647b2ff9","5f61dbf6dd100c184f2477fd","false","null","<div style=""align-items: center; display: flex; color: dodgerblue; font-size: 90px""><b>o</b></div>","null","","","","forget_cue","","","","","","","","","","","","","","","",""
"html-keyboard-response","164","770752","0.0-4.0-1.0-0.15","9xgl9o16a4l8dwb","prime","5eaadbfc91f1f204fb1499aa","5f60e3c0a3b16e07647b2ff9","5f61dbf6dd100c184f2477fd","false","null","<span style=""color: black; font-size: 48px"">M + N</span>","null","","","","resp_prompt","","","","","","","","","","","","","","","",""
"categorize-image","165","771906","0.0-4.0-1.0-1.15","9xgl9o16a4l8dwb","prime","5eaadbfc91f1f204fb1499aa","5f60e3c0a3b16e07647b2ff9","5f61dbf6dd100c184f2477fd","true","1150.569999999716","./Stimuli/SelectedImages/SN/SN18.bmp","83","","","","test","false","M + N","76","switch","SN","SN18.bmp","remember","","64","3","prime1","left","","","",""
"html-keyboard-response","166","772407","0.0-4.0-1.0-2.15-0.15","9xgl9o16a4l8dwb","prime","5eaadbfc91f1f204fb1499aa","5f60e3c0a3b16e07647b2ff9","5f61dbf6dd100c184f2477fd","false","null","<span style=""color: red; font-size: 48px"">Error!</span>","null","","","","feedback","","","","","","","","","","","","","","","",""
"html-keyboard-response","167","774409","0.0-4.0-1.0-3.15","9xgl9o16a4l8dwb","prime","5eaadbfc91f1f204fb1499aa","5f60e3c0a3b16e07647b2ff9","5f61dbf6dd100c184f2477fd","false","null","<div style=""align-items: center; display: flex; color: dodgerblue; font-size: 90px""><b>o</b></div>","null","","","","forget_cue","","","","","","","","","","","","","","","",""
"html-keyboard-response","168","775111","0.0-4.0-1.0-0.16","9xgl9o16a4l8dwb","prime","5eaadbfc91f1f204fb1499aa","5f60e3c0a3b16e07647b2ff9","5f61dbf6dd100c184f2477fd","false","null","<span style=""color: black; font-size: 48px"">N + M</span>","null","","","","resp_prompt","","","","","","","","","","","","","","","",""
"categorize-image","169","775866","0.0-4.0-1.0-1.16","9xgl9o16a4l8dwb","prime","5eaadbfc91f1f204fb1499aa","5f60e3c0a3b16e07647b2ff9","5f61dbf6dd100c184f2477fd","true","749.4849999997532","./Stimuli/SelectedImages/SM/SM128.bmp","76","","","","test","true","N + M","76","switch","SM","SM128.bmp","forget","","65","3","prime1","right","","","",""
"html-keyboard-response","170","777869","0.0-4.0-1.0-3.16","9xgl9o16a4l8dwb","prime","5eaadbfc91f1f204fb1499aa","5f60e3c0a3b16e07647b2ff9","5f61dbf6dd100c184f2477fd","false","null","<div style=""align-items: center; display: flex; color: darkorange; font-size: 90px""><b>ø</b></div>","null","","","","forget_cue","","","","","","","","","","","","","","","",""
"html-keyboard-response","171","778571","0.0-4.0-1.0-0.17","9xgl9o16a4l8dwb","prime","5eaadbfc91f1f204fb1499aa","5f60e3c0a3b16e07647b2ff9","5f61dbf6dd100c184f2477fd","false","null","<span style=""color: black; font-size: 48px"">M + N</span>","null","","","","resp_prompt","","","","","","","","","","","","","","","",""
"categorize-image","172","779329","0.0-4.0-1.0-1.17","9xgl9o16a4l8dwb","prime","5eaadbfc91f1f204fb1499aa","5f60e3c0a3b16e07647b2ff9","5f61dbf6dd100c184f2477fd","true","753.7850000003818","./Stimuli/SelectedImages/LM/LM57.bmp","76","","","","test","false","M + N","83","switch","LM","LM57.bmp","forget","","66","3","prime1","right","","","",""
"html-keyboard-response","173","779831","0.0-4.0-1.0-2.17-0.17","9xgl9o16a4l8dwb","prime","5eaadbfc91f1f204fb1499aa","5f60e3c0a3b16e07647b2ff9","5f61dbf6dd100c184f2477fd","false","null","<span style=""color: red; font-size: 48px"">Error!</span>","null","","","","feedback","","","","","","","","","","","","","","","",""
"html-keyboard-response","174","781834","0.0-4.0-1.0-3.17","9xgl9o16a4l8dwb","prime","5eaadbfc91f1f204fb1499aa","5f60e3c0a3b16e07647b2ff9","5f61dbf6dd100c184f2477fd","false","null","<div style=""align-items: center; display: flex; color: darkorange; font-size: 90px""><b>ø</b></div>","null","","","","forget_cue","","","","","","","","","","","","","","","",""
"html-keyboard-response","175","782536","0.0-4.0-1.0-0.18","9xgl9o16a4l8dwb","prime","5eaadbfc91f1f204fb1499aa","5f60e3c0a3b16e07647b2ff9","5f61dbf6dd100c184f2477fd","false","null","<span style=""color: black; font-size: 48px"">M + N</span>","null","","","","resp_prompt","","","","","","","","","","","","","","","",""
"categorize-image","176","783395","0.0-4.0-1.0-1.18","9xgl9o16a4l8dwb","prime","5eaadbfc91f1f204fb1499aa","5f60e3c0a3b16e07647b2ff9","5f61dbf6dd100c184f2477fd","true","854.8700000001118","./Stimuli/SelectedImages/LM/LM179.bmp","83","","","","test","true","M + N","83","switch","LM","LM179.bmp","remember","","67","3","prime1","left","","","",""
"html-keyboard-response","177","785398","0.0-4.0-1.0-3.18","9xgl9o16a4l8dwb","prime","5eaadbfc91f1f204fb1499aa","5f60e3c0a3b16e07647b2ff9","5f61dbf6dd100c184f2477fd","false","null","<div style=""align-items: center; display: flex; color: dodgerblue; font-size: 90px""><b>o</b></div>","null","","","","forget_cue","","","","","","","","","","","","","","","",""
"html-keyboard-response","178","786101","0.0-4.0-1.0-0.19","9xgl9o16a4l8dwb","prime","5eaadbfc91f1f204fb1499aa","5f60e3c0a3b16e07647b2ff9","5f61dbf6dd100c184f2477fd","false","null","<span style=""color: black; font-size: 48px"">N + M</span>","null","","","","resp_prompt","","","","","","","","","","","","","","","",""
"categorize-image","179","786970","0.0-4.0-1.0-1.19","9xgl9o16a4l8dwb","prime","5eaadbfc91f1f204fb1499aa","5f60e3c0a3b16e07647b2ff9","5f61dbf6dd100c184f2477fd","true","863.9200000002747","./Stimuli/SelectedImages/LN/LN28.bmp","83","","","","test","true","N + M","83","switch","LN","LN28.bmp","forget","","68","3","prime1","left","","","",""
"html-keyboard-response","180","788974","0.0-4.0-1.0-3.19","9xgl9o16a4l8dwb","prime","5eaadbfc91f1f204fb1499aa","5f60e3c0a3b16e07647b2ff9","5f61dbf6dd100c184f2477fd","false","null","<div style=""align-items: center; display: flex; color: darkorange; font-size: 90px""><b>ø</b></div>","null","","","","forget_cue","","","","","","","","","","","","","","","",""
"html-keyboard-response","181","789677","0.0-4.0-1.0-0.20","9xgl9o16a4l8dwb","prime","5eaadbfc91f1f204fb1499aa","5f60e3c0a3b16e07647b2ff9","5f61dbf6dd100c184f2477fd","false","null","<span style=""color: black; font-size: 48px"">M + N</span>","null","","","","resp_prompt","","","","","","","","","","","","","","","",""
"categorize-image","182","790400","0.0-4.0-1.0-1.20","9xgl9o16a4l8dwb","prime","5eaadbfc91f1f204fb1499aa","5f60e3c0a3b16e07647b2ff9","5f61dbf6dd100c184f2477fd","true","720.2750000001397","./Stimuli/SelectedImages/SM/SM207.bmp","83","","","","test","true","M + N","83","switch","SM","SM207.bmp","forget","","69","3","prime1","left","","","",""
"html-keyboard-response","183","792405","0.0-4.0-1.0-3.20","9xgl9o16a4l8dwb","prime","5eaadbfc91f1f204fb1499aa","5f60e3c0a3b16e07647b2ff9","5f61dbf6dd100c184f2477fd","false","null","<div style=""align-items: center; display: flex; color: darkorange; font-size: 90px""><b>ø</b></div>","null","","","","forget_cue","","","","","","","","","","","","","","","",""
"html-keyboard-response","184","793108","0.0-4.0-1.0-0.21","9xgl9o16a4l8dwb","prime","5eaadbfc91f1f204fb1499aa","5f60e3c0a3b16e07647b2ff9","5f61dbf6dd100c184f2477fd","false","null","<span style=""color: black; font-size: 48px"">M + N</span>","null","","","","resp_prompt","","","","","","","","","","","","","","","",""
"categorize-image","185","794003","0.0-4.0-1.0-1.21","9xgl9o16a4l8dwb","prime","5eaadbfc91f1f204fb1499aa","5f60e3c0a3b16e07647b2ff9","5f61dbf6dd100c184f2477fd","true","890.8550000000978","./Stimuli/SelectedImages/SM/SM74.bmp","83","","","","test","true","M + N","83","switch","SM","SM74.bmp","forget","","70","3","prime1","left","","","",""
"html-keyboard-response","186","796004","0.0-4.0-1.0-3.21","9xgl9o16a4l8dwb","prime","5eaadbfc91f1f204fb1499aa","5f60e3c0a3b16e07647b2ff9","5f61dbf6dd100c184f2477fd","false","null","<div style=""align-items: center; display: flex; color: darkorange; font-size: 90px""><b>ø</b></div>","null","","","","forget_cue","","","","","","","","","","","","","","","",""
"html-keyboard-response","187","796707","0.0-4.0-1.0-0.22","9xgl9o16a4l8dwb","prime","5eaadbfc91f1f204fb1499aa","5f60e3c0a3b16e07647b2ff9","5f61dbf6dd100c184f2477fd","false","null","<span style=""color: black; font-size: 48px"">M + N</span>","null","","","","resp_prompt","","","","","","","","","","","","","","","",""
"categorize-image","188","797301","0.0-4.0-1.0-1.22","9xgl9o16a4l8dwb","prime","5eaadbfc91f1f204fb1499aa","5f60e3c0a3b16e07647b2ff9","5f61dbf6dd100c184f2477fd","true","590.9250000000466","./Stimuli/SelectedImages/SM/SM108.bmp","83","","","","test","true","M + N","83","switch","SM","SM108.bmp","remember","","71","3","prime1","left","","","",""
"html-keyboard-response","189","799307","0.0-4.0-1.0-3.22","9xgl9o16a4l8dwb","prime","5eaadbfc91f1f204fb1499aa","5f60e3c0a3b16e07647b2ff9","5f61dbf6dd100c184f2477fd","false","null","<div style=""align-items: center; display: flex; color: dodgerblue; font-size: 90px""><b>o</b></div>","null","","","","forget_cue","","","","","","","","","","","","","","","",""
"html-keyboard-response","190","800013","0.0-4.0-1.0-0.23","9xgl9o16a4l8dwb","prime","5eaadbfc91f1f204fb1499aa","5f60e3c0a3b16e07647b2ff9","5f61dbf6dd100c184f2477fd","false","null","<span style=""color: black; font-size: 48px"">N + M</span>","null","","","","resp_prompt","","","","","","","","","","","","","","","",""
"categorize-image","191","800711","0.0-4.0-1.0-1.23","9xgl9o16a4l8dwb","prime","5eaadbfc91f1f204fb1499aa","5f60e3c0a3b16e07647b2ff9","5f61dbf6dd100c184f2477fd","true","693.0250000000233","./Stimuli/SelectedImages/LM/LM59.bmp","76","","","","test","true","N + M","76","repetition","LM","LM59.bmp","forget","","72","3","prime1","right","","","",""
"html-keyboard-response","192","802715","0.0-4.0-1.0-3.23","9xgl9o16a4l8dwb","prime","5eaadbfc91f1f204fb1499aa","5f60e3c0a3b16e07647b2ff9","5f61dbf6dd100c184f2477fd","false","null","<div style=""align-items: center; display: flex; color: darkorange; font-size: 90px""><b>ø</b></div>","null","","","","forget_cue","","","","","","","","","","","","","","","",""
"html-keyboard-response","193","803419","0.0-4.0-1.0-0.24","9xgl9o16a4l8dwb","prime","5eaadbfc91f1f204fb1499aa","5f60e3c0a3b16e07647b2ff9","5f61dbf6dd100c184f2477fd","false","null","<span style=""color: black; font-size: 48px"">N + M</span>","null","","","","resp_prompt","","","","","","","","","","","","","","","",""
"categorize-image","194","804078","0.0-4.0-1.0-1.24","9xgl9o16a4l8dwb","prime","5eaadbfc91f1f204fb1499aa","5f60e3c0a3b16e07647b2ff9","5f61dbf6dd100c184f2477fd","true","655.0449999999255","./Stimuli/SelectedImages/SN/SN240.bmp","83","","","","test","true","N + M","83","switch","SN","SN240.bmp","remember","","73","3","prime1","left","","","",""
"html-keyboard-response","195","806082","0.0-4.0-1.0-3.24","9xgl9o16a4l8dwb","prime","5eaadbfc91f1f204fb1499aa","5f60e3c0a3b16e07647b2ff9","5f61dbf6dd100c184f2477fd","false","null","<div style=""align-items: center; display: flex; color: dodgerblue; font-size: 90px""><b>o</b></div>","null","","","","forget_cue","","","","","","","","","","","","","","","",""
"html-keyboard-response","196","806785","0.0-4.0-1.0-0.25","9xgl9o16a4l8dwb","prime","5eaadbfc91f1f204fb1499aa","5f60e3c0a3b16e07647b2ff9","5f61dbf6dd100c184f2477fd","false","null","<span style=""color: black; font-size: 48px"">M + N</span>","null","","","","resp_prompt","","","","","","","","","","","","","","","",""
"categorize-image","197","807813","0.0-4.0-1.0-1.25","9xgl9o16a4l8dwb","prime","5eaadbfc91f1f204fb1499aa","5f60e3c0a3b16e07647b2ff9","5f61dbf6dd100c184f2477fd","true","1024.669999999809","./Stimuli/SelectedImages/LN/LN177.bmp","76","","","","test","true","M + N","76","switch","LN","LN177.bmp","forget","","74","3","prime1","right","","","",""
"html-keyboard-response","198","809815","0.0-4.0-1.0-3.25","9xgl9o16a4l8dwb","prime","5eaadbfc91f1f204fb1499aa","5f60e3c0a3b16e07647b2ff9","5f61dbf6dd100c184f2477fd","false","null","<div style=""align-items: center; display: flex; color: darkorange; font-size: 90px""><b>ø</b></div>","null","","","","forget_cue","","","","","","","","","","","","","","","",""
"html-keyboard-response","199","810517","0.0-4.0-1.0-0.26","9xgl9o16a4l8dwb","prime","5eaadbfc91f1f204fb1499aa","5f60e3c0a3b16e07647b2ff9","5f61dbf6dd100c184f2477fd","false","null","<span style=""color: black; font-size: 48px"">N + M</span>","null","","","","resp_prompt","","","","","","","","","","","","","","","",""
"categorize-image","200","811209","0.0-4.0-1.0-1.26","9xgl9o16a4l8dwb","prime","5eaadbfc91f1f204fb1499aa","5f60e3c0a3b16e07647b2ff9","5f61dbf6dd100c184f2477fd","true","688.0949999999721","./Stimuli/SelectedImages/SM/SM106.bmp","76","","","","test","true","N + M","76","switch","SM","SM106.bmp","remember","","75","3","prime1","right","","","",""
"html-keyboard-response","201","813211","0.0-4.0-1.0-3.26","9xgl9o16a4l8dwb","prime","5eaadbfc91f1f204fb1499aa","5f60e3c0a3b16e07647b2ff9","5f61dbf6dd100c184f2477fd","false","null","<div style=""align-items: center; display: flex; color: dodgerblue; font-size: 90px""><b>o</b></div>","null","","","","forget_cue","","","","","","","","","","","","","","","",""
"html-keyboard-response","202","813913","0.0-4.0-1.0-0.27","9xgl9o16a4l8dwb","prime","5eaadbfc91f1f204fb1499aa","5f60e3c0a3b16e07647b2ff9","5f61dbf6dd100c184f2477fd","false","null","<span style=""color: black; font-size: 48px"">M + N</span>","null","","","","resp_prompt","","","","","","","","","","","","","","","",""
"categorize-image","203","815489","0.0-4.0-1.0-1.27","9xgl9o16a4l8dwb","prime","5eaadbfc91f1f204fb1499aa","5f60e3c0a3b16e07647b2ff9","5f61dbf6dd100c184f2477fd","true","1572.4800000002142","./Stimuli/SelectedImages/SN/SN140.bmp","76","","","","test","true","M + N","76","switch","SN","SN140.bmp","forget","","76","3","prime1","right","","","",""
"html-keyboard-response","204","817495","0.0-4.0-1.0-3.27","9xgl9o16a4l8dwb","prime","5eaadbfc91f1f204fb1499aa","5f60e3c0a3b16e07647b2ff9","5f61dbf6dd100c184f2477fd","false","null","<div style=""align-items: center; display: flex; color: darkorange; font-size: 90px""><b>ø</b></div>","null","","","","forget_cue","","","","","","","","","","","","","","","",""
"html-keyboard-response","205","818198","0.0-4.0-1.0-0.28","9xgl9o16a4l8dwb","prime","5eaadbfc91f1f204fb1499aa","5f60e3c0a3b16e07647b2ff9","5f61dbf6dd100c184f2477fd","false","null","<span style=""color: black; font-size: 48px"">M + N</span>","null","","","","resp_prompt","","","","","","","","","","","","","","","",""
"categorize-image","206","819011","0.0-4.0-1.0-1.28","9xgl9o16a4l8dwb","prime","5eaadbfc91f1f204fb1499aa","5f60e3c0a3b16e07647b2ff9","5f61dbf6dd100c184f2477fd","true","808.2549999998882","./Stimuli/SelectedImages/SN/SN93.bmp","76","","","","test","true","M + N","76","repetition","SN","SN93.bmp","remember","","77","3","prime1","right","","","",""
"html-keyboard-response","207","821013","0.0-4.0-1.0-3.28","9xgl9o16a4l8dwb","prime","5eaadbfc91f1f204fb1499aa","5f60e3c0a3b16e07647b2ff9","5f61dbf6dd100c184f2477fd","false","null","<div style=""align-items: center; display: flex; color: dodgerblue; font-size: 90px""><b>o</b></div>","null","","","","forget_cue","","","","","","","","","","","","","","","",""
"html-keyboard-response","208","821715","0.0-4.0-1.0-0.29","9xgl9o16a4l8dwb","prime","5eaadbfc91f1f204fb1499aa","5f60e3c0a3b16e07647b2ff9","5f61dbf6dd100c184f2477fd","false","null","<span style=""color: black; font-size: 48px"">N + M</span>","null","","","","resp_prompt","","","","","","","","","","","","","","","",""
"categorize-image","209","822299","0.0-4.0-1.0-1.29","9xgl9o16a4l8dwb","prime","5eaadbfc91f1f204fb1499aa","5f60e3c0a3b16e07647b2ff9","5f61dbf6dd100c184f2477fd","true","580.184999999823","./Stimuli/SelectedImages/SM/SM205.bmp","76","","","","test","true","N + M","76","switch","SM","SM205.bmp","remember","","78","3","prime1","right","","","",""
"html-keyboard-response","210","824304","0.0-4.0-1.0-3.29","9xgl9o16a4l8dwb","prime","5eaadbfc91f1f204fb1499aa","5f60e3c0a3b16e07647b2ff9","5f61dbf6dd100c184f2477fd","false","null","<div style=""align-items: center; display: flex; color: dodgerblue; font-size: 90px""><b>o</b></div>","null","","","","forget_cue","","","","","","","","","","","","","","","",""
"html-keyboard-response","211","825011","0.0-4.0-1.0-0.30","9xgl9o16a4l8dwb","prime","5eaadbfc91f1f204fb1499aa","5f60e3c0a3b16e07647b2ff9","5f61dbf6dd100c184f2477fd","false","null","<span style=""color: black; font-size: 48px"">M + N</span>","null","","","","resp_prompt","","","","","","","","","","","","","","","",""
"categorize-image","212","825893","0.0-4.0-1.0-1.30","9xgl9o16a4l8dwb","prime","5eaadbfc91f1f204fb1499aa","5f60e3c0a3b16e07647b2ff9","5f61dbf6dd100c184f2477fd","true","877.785000000149","./Stimuli/SelectedImages/SN/SN64.bmp","83","","","","test","false","M + N","76","repetition","SN","SN64.bmp","remember","","79","3","prime1","left","","","",""
"html-keyboard-response","213","826394","0.0-4.0-1.0-2.30-0.30","9xgl9o16a4l8dwb","prime","5eaadbfc91f1f204fb1499aa","5f60e3c0a3b16e07647b2ff9","5f61dbf6dd100c184f2477fd","false","null","<span style=""color: red; font-size: 48px"">Error!</span>","null","","","","feedback","","","","","","","","","","","","","","","",""
"html-keyboard-response","214","828397","0.0-4.0-1.0-3.30","9xgl9o16a4l8dwb","prime","5eaadbfc91f1f204fb1499aa","5f60e3c0a3b16e07647b2ff9","5f61dbf6dd100c184f2477fd","false","null","<div style=""align-items: center; display: flex; color: dodgerblue; font-size: 90px""><b>o</b></div>","null","","","","forget_cue","","","","","","","","","","","","","","","",""
"html-keyboard-response","215","829103","0.0-4.0-1.0-0.31","9xgl9o16a4l8dwb","prime","5eaadbfc91f1f204fb1499aa","5f60e3c0a3b16e07647b2ff9","5f61dbf6dd100c184f2477fd","false","null","<span style=""color: black; font-size: 48px"">M + N</span>","null","","","","resp_prompt","","","","","","","","","","","","","","","",""
"categorize-image","216","829816","0.0-4.0-1.0-1.31","9xgl9o16a4l8dwb","prime","5eaadbfc91f1f204fb1499aa","5f60e3c0a3b16e07647b2ff9","5f61dbf6dd100c184f2477fd","true","708.694999999716","./Stimuli/SelectedImages/LM/LM75.bmp","83","","","","test","true","M + N","83","repetition","LM","LM75.bmp","forget","","80","3","prime1","left","","","",""
"html-keyboard-response","217","831822","0.0-4.0-1.0-3.31","9xgl9o16a4l8dwb","prime","5eaadbfc91f1f204fb1499aa","5f60e3c0a3b16e07647b2ff9","5f61dbf6dd100c184f2477fd","false","null","<div style=""align-items: center; display: flex; color: darkorange; font-size: 90px""><b>ø</b></div>","null","","","","forget_cue","","","","","","","","","","","","","","","",""
"html-keyboard-response","218","832525","0.0-4.0-1.0-0.32","9xgl9o16a4l8dwb","prime","5eaadbfc91f1f204fb1499aa","5f60e3c0a3b16e07647b2ff9","5f61dbf6dd100c184f2477fd","false","null","<span style=""color: black; font-size: 48px"">N + M</span>","null","","","","resp_prompt","","","","","","","","","","","","","","","",""
"categorize-image","219","833173","0.0-4.0-1.0-1.32","9xgl9o16a4l8dwb","prime","5eaadbfc91f1f204fb1499aa","5f60e3c0a3b16e07647b2ff9","5f61dbf6dd100c184f2477fd","true","643.9000000000233","./Stimuli/SelectedImages/LN/LN12.bmp","83","","","","test","true","N + M","83","switch","LN","LN12.bmp","remember","","81","3","prime1","left","","","",""
"html-keyboard-response","220","835178","0.0-4.0-1.0-3.32","9xgl9o16a4l8dwb","prime","5eaadbfc91f1f204fb1499aa","5f60e3c0a3b16e07647b2ff9","5f61dbf6dd100c184f2477fd","false","null","<div style=""align-items: center; display: flex; color: dodgerblue; font-size: 90px""><b>o</b></div>","null","","","","forget_cue","","","","","","","","","","","","","","","",""
"html-keyboard-response","221","835880","0.0-4.0-1.0-0.33","9xgl9o16a4l8dwb","prime","5eaadbfc91f1f204fb1499aa","5f60e3c0a3b16e07647b2ff9","5f61dbf6dd100c184f2477fd","false","null","<span style=""color: black; font-size: 48px"">M + N</span>","null","","","","resp_prompt","","","","","","","","","","","","","","","",""
"categorize-image","222","836585","0.0-4.0-1.0-1.33","9xgl9o16a4l8dwb","prime","5eaadbfc91f1f204fb1499aa","5f60e3c0a3b16e07647b2ff9","5f61dbf6dd100c184f2477fd","true","700.5800000001909","./Stimuli/SelectedImages/SN/SN60.bmp","76","","","","test","true","M + N","76","switch","SN","SN60.bmp","forget","","82","3","prime1","right","","","",""
"html-keyboard-response","223","838591","0.0-4.0-1.0-3.33","9xgl9o16a4l8dwb","prime","5eaadbfc91f1f204fb1499aa","5f60e3c0a3b16e07647b2ff9","5f61dbf6dd100c184f2477fd","false","null","<div style=""align-items: center; display: flex; color: darkorange; font-size: 90px""><b>ø</b></div>","null","","","","forget_cue","","","","","","","","","","","","","","","",""
"html-keyboard-response","224","839293","0.0-4.0-1.0-0.34","9xgl9o16a4l8dwb","prime","5eaadbfc91f1f204fb1499aa","5f60e3c0a3b16e07647b2ff9","5f61dbf6dd100c184f2477fd","false","null","<span style=""color: black; font-size: 48px"">M + N</span>","null","","","","resp_prompt","","","","","","","","","","","","","","","",""
"categorize-image","225","840001","0.0-4.0-1.0-1.34","9xgl9o16a4l8dwb","prime","5eaadbfc91f1f204fb1499aa","5f60e3c0a3b16e07647b2ff9","5f61dbf6dd100c184f2477fd","true","703.6849999999395","./Stimuli/SelectedImages/LM/LM167.bmp","83","","","","test","true","M + N","83","repetition","LM","LM167.bmp","remember","","83","3","prime1","left","","","",""
"html-keyboard-response","226","842004","0.0-4.0-1.0-3.34","9xgl9o16a4l8dwb","prime","5eaadbfc91f1f204fb1499aa","5f60e3c0a3b16e07647b2ff9","5f61dbf6dd100c184f2477fd","false","null","<div style=""align-items: center; display: flex; color: dodgerblue; font-size: 90px""><b>o</b></div>","null","","","","forget_cue","","","","","","","","","","","","","","","",""
"html-keyboard-response","227","842707","0.0-4.0-1.0-0.35","9xgl9o16a4l8dwb","prime","5eaadbfc91f1f204fb1499aa","5f60e3c0a3b16e07647b2ff9","5f61dbf6dd100c184f2477fd","false","null","<span style=""color: black; font-size: 48px"">N + M</span>","null","","","","resp_prompt","","","","","","","","","","","","","","","",""
"categorize-image","228","843479","0.0-4.0-1.0-1.35","9xgl9o16a4l8dwb","prime","5eaadbfc91f1f204fb1499aa","5f60e3c0a3b16e07647b2ff9","5f61dbf6dd100c184f2477fd","true","768.25","./Stimuli/SelectedImages/LN/LN149.bmp","83","","","","test","true","N + M","83","repetition","LN","LN149.bmp","forget","","84","3","prime1","left","","","",""
"html-keyboard-response","229","845485","0.0-4.0-1.0-3.35","9xgl9o16a4l8dwb","prime","5eaadbfc91f1f204fb1499aa","5f60e3c0a3b16e07647b2ff9","5f61dbf6dd100c184f2477fd","false","null","<div style=""align-items: center; display: flex; color: darkorange; font-size: 90px""><b>ø</b></div>","null","","","","forget_cue","","","","","","","","","","","","","","","",""
"html-keyboard-response","230","846190","0.0-4.0-1.0-0.36","9xgl9o16a4l8dwb","prime","5eaadbfc91f1f204fb1499aa","5f60e3c0a3b16e07647b2ff9","5f61dbf6dd100c184f2477fd","false","null","<span style=""color: black; font-size: 48px"">M + N</span>","null","","","","resp_prompt","","","","","","","","","","","","","","","",""
"categorize-image","231","846966","0.0-4.0-1.0-1.36","9xgl9o16a4l8dwb","prime","5eaadbfc91f1f204fb1499aa","5f60e3c0a3b16e07647b2ff9","5f61dbf6dd100c184f2477fd","true","772.2250000000931","./Stimuli/SelectedImages/LN/LN92.bmp","76","","","","test","true","M + N","76","switch","LN","LN92.bmp","remember","","85","3","prime1","right","","","",""
"html-keyboard-response","232","848971","0.0-4.0-1.0-3.36","9xgl9o16a4l8dwb","prime","5eaadbfc91f1f204fb1499aa","5f60e3c0a3b16e07647b2ff9","5f61dbf6dd100c184f2477fd","false","null","<div style=""align-items: center; display: flex; color: dodgerblue; font-size: 90px""><b>o</b></div>","null","","","","forget_cue","","","","","","","","","","","","","","","",""
"html-keyboard-response","233","849673","0.0-4.0-1.0-0.37","9xgl9o16a4l8dwb","prime","5eaadbfc91f1f204fb1499aa","5f60e3c0a3b16e07647b2ff9","5f61dbf6dd100c184f2477fd","false","null","<span style=""color: black; font-size: 48px"">M + N</span>","null","","","","resp_prompt","","","","","","","","","","","","","","","",""
"categorize-image","234","850410","0.0-4.0-1.0-1.37","9xgl9o16a4l8dwb","prime","5eaadbfc91f1f204fb1499aa","5f60e3c0a3b16e07647b2ff9","5f61dbf6dd100c184f2477fd","true","731.6749999999302","./Stimuli/SelectedImages/SM/SM78.bmp","83","","","","test","true","M + N","83","repetition","SM","SM78.bmp","forget","","86","3","prime1","left","","","",""
"html-keyboard-response","235","852416","0.0-4.0-1.0-3.37","9xgl9o16a4l8dwb","prime","5eaadbfc91f1f204fb1499aa","5f60e3c0a3b16e07647b2ff9","5f61dbf6dd100c184f2477fd","false","null","<div style=""align-items: center; display: flex; color: darkorange; font-size: 90px""><b>ø</b></div>","null","","","","forget_cue","","","","","","","","","","","","","","","",""
"html-keyboard-response","236","853121","0.0-4.0-1.0-0.38","9xgl9o16a4l8dwb","prime","5eaadbfc91f1f204fb1499aa","5f60e3c0a3b16e07647b2ff9","5f61dbf6dd100c184f2477fd","false","null","<span style=""color: black; font-size: 48px"">M + N</span>","null","","","","resp_prompt","","","","","","","","","","","","","","","",""
"categorize-image","237","853742","0.0-4.0-1.0-1.38","9xgl9o16a4l8dwb","prime","5eaadbfc91f1f204fb1499aa","5f60e3c0a3b16e07647b2ff9","5f61dbf6dd100c184f2477fd","true","615.4650000003166","./Stimuli/SelectedImages/SM/SM76.bmp","83","","","","test","true","M + N","83","switch","SM","SM76.bmp","remember","","87","3","prime1","left","","","",""
"html-keyboard-response","238","855745","0.0-4.0-1.0-3.38","9xgl9o16a4l8dwb","prime","5eaadbfc91f1f204fb1499aa","5f60e3c0a3b16e07647b2ff9","5f61dbf6dd100c184f2477fd","false","null","<div style=""align-items: center; display: flex; color: dodgerblue; font-size: 90px""><b>o</b></div>","null","","","","forget_cue","","","","","","","","","","","","","","","",""
"html-keyboard-response","239","856448","0.0-4.0-1.0-0.39","9xgl9o16a4l8dwb","prime","5eaadbfc91f1f204fb1499aa","5f60e3c0a3b16e07647b2ff9","5f61dbf6dd100c184f2477fd","false","null","<span style=""color: black; font-size: 48px"">N + M</span>","null","","","","resp_prompt","","","","","","","","","","","","","","","",""
"categorize-image","240","857120","0.0-4.0-1.0-1.39","9xgl9o16a4l8dwb","prime","5eaadbfc91f1f204fb1499aa","5f60e3c0a3b16e07647b2ff9","5f61dbf6dd100c184f2477fd","true","667.8449999999721","./Stimuli/SelectedImages/LM/LM129.bmp","76","","","","test","true","N + M","76","switch","LM","LM129.bmp","remember","","88","3","prime1","right","","","",""
"html-keyboard-response","241","859124","0.0-4.0-1.0-3.39","9xgl9o16a4l8dwb","prime","5eaadbfc91f1f204fb1499aa","5f60e3c0a3b16e07647b2ff9","5f61dbf6dd100c184f2477fd","false","null","<div style=""align-items: center; display: flex; color: dodgerblue; font-size: 90px""><b>o</b></div>","null","","","","forget_cue","","","","","","","","","","","","","","","",""
"html-keyboard-response","242","859826","0.0-4.0-1.0-0.40","9xgl9o16a4l8dwb","prime","5eaadbfc91f1f204fb1499aa","5f60e3c0a3b16e07647b2ff9","5f61dbf6dd100c184f2477fd","false","null","<span style=""color: black; font-size: 48px"">M + N</span>","null","","","","resp_prompt","","","","","","","","","","","","","","","",""
"categorize-image","243","861126","0.0-4.0-1.0-1.40","9xgl9o16a4l8dwb","prime","5eaadbfc91f1f204fb1499aa","5f60e3c0a3b16e07647b2ff9","5f61dbf6dd100c184f2477fd","true","1294.2600000001257","./Stimuli/SelectedImages/LN/LN111.bmp","76","","","","test","true","M + N","76","repetition","LN","LN111.bmp","forget","","89","3","prime1","right","","","",""
"html-keyboard-response","244","863129","0.0-4.0-1.0-3.40","9xgl9o16a4l8dwb","prime","5eaadbfc91f1f204fb1499aa","5f60e3c0a3b16e07647b2ff9","5f61dbf6dd100c184f2477fd","false","null","<div style=""align-items: center; display: flex; color: darkorange; font-size: 90px""><b>ø</b></div>","null","","","","forget_cue","","","","","","","","","","","","","","","",""
"html-keyboard-response","245","863832","0.0-4.0-1.0-0.41","9xgl9o16a4l8dwb","prime","5eaadbfc91f1f204fb1499aa","5f60e3c0a3b16e07647b2ff9","5f61dbf6dd100c184f2477fd","false","null","<span style=""color: black; font-size: 48px"">M + N</span>","null","","","","resp_prompt","","","","","","","","","","","","","","","",""
"categorize-image","246","864484","0.0-4.0-1.0-1.41","9xgl9o16a4l8dwb","prime","5eaadbfc91f1f204fb1499aa","5f60e3c0a3b16e07647b2ff9","5f61dbf6dd100c184f2477fd","true","648.050000000163","./Stimuli/SelectedImages/SM/SM200.bmp","83","","","","test","true","M + N","83","repetition","SM","SM200.bmp","remember","","90","3","prime1","left","","","",""
"html-keyboard-response","247","866491","0.0-4.0-1.0-3.41","9xgl9o16a4l8dwb","prime","5eaadbfc91f1f204fb1499aa","5f60e3c0a3b16e07647b2ff9","5f61dbf6dd100c184f2477fd","false","null","<div style=""align-items: center; display: flex; color: dodgerblue; font-size: 90px""><b>o</b></div>","null","","","","forget_cue","","","","","","","","","","","","","","","",""
"html-keyboard-response","248","867193","0.0-4.0-1.0-0.42","9xgl9o16a4l8dwb","prime","5eaadbfc91f1f204fb1499aa","5f60e3c0a3b16e07647b2ff9","5f61dbf6dd100c184f2477fd","false","null","<span style=""color: black; font-size: 48px"">M + N</span>","null","","","","resp_prompt","","","","","","","","","","","","","","","",""
"categorize-image","249","867778","0.0-4.0-1.0-1.42","9xgl9o16a4l8dwb","prime","5eaadbfc91f1f204fb1499aa","5f60e3c0a3b16e07647b2ff9","5f61dbf6dd100c184f2477fd","true","580.9699999999721","./Stimuli/SelectedImages/SM/SM184.bmp","83","","","","test","true","M + N","83","repetition","SM","SM184.bmp","forget","","91","3","prime1","left","","","",""
"html-keyboard-response","250","869782","0.0-4.0-1.0-3.42","9xgl9o16a4l8dwb","prime","5eaadbfc91f1f204fb1499aa","5f60e3c0a3b16e07647b2ff9","5f61dbf6dd100c184f2477fd","false","null","<div style=""align-items: center; display: flex; color: darkorange; font-size: 90px""><b>ø</b></div>","null","","","","forget_cue","","","","","","","","","","","","","","","",""
"html-keyboard-response","251","870485","0.0-4.0-1.0-0.43","9xgl9o16a4l8dwb","prime","5eaadbfc91f1f204fb1499aa","5f60e3c0a3b16e07647b2ff9","5f61dbf6dd100c184f2477fd","false","null","<span style=""color: black; font-size: 48px"">N + M</span>","null","","","","resp_prompt","","","","","","","","","","","","","","","",""
"categorize-image","252","871100","0.0-4.0-1.0-1.43","9xgl9o16a4l8dwb","prime","5eaadbfc91f1f204fb1499aa","5f60e3c0a3b16e07647b2ff9","5f61dbf6dd100c184f2477fd","true","611.6799999999348","./Stimuli/SelectedImages/SN/SN49.bmp","83","","","","test","true","N + M","83","repetition","SN","SN49.bmp","remember","","92","3","prime1","left","","","",""
