"trial_type","trial_index","time_elapsed","internal_node_id","subject","exp_part","prolific_PID","study_ID","session_ID","use","rt","stimulus","key_press","button_pressed","responses","question_order","trial_part","correct","resp_map","correct_resp","probe_condition","category","image","forget_condition","list","trial_num","block_num","block","response","test_part","n_span","sequence","num_spaces"
"pavlovia","0","5","0.0-0.0","dckwzq4drwfsv9w","","5ecbc73afde495760c9ea423","5f60e3c0a3b16e07647b2ff9","5f638027b04cd006b691f8b3","false","","","","","","","","","","","","","","","","","","","","","","",""
"html-keyboard-response","1","6657","0.0-1.0-0.0-0.0","dckwzq4drwfsv9w","welcome","5ecbc73afde495760c9ea423","5f60e3c0a3b16e07647b2ff9","5f638027b04cd006b691f8b3","false","6649.559999999838","<div align=left>Dear participant, <br> thank you for participating in an online study of the Cognition, Action, and Sustainability Unit of the University of Freiburg! <br> <br>The aim of this study is to examine our ability to remember previously learned information. <br>Our goal is to find out, whether our memory improves, when we only remember information that is relevant to us. <br>The experiment will take about 35 minutes to complete. <br> <br>Please, note that you can only participate in this study if you are using a device with a keyboard (PC, Laptop etc.) <br>and not if you are using a mobile device such as a tablet or smartphone.<br> <br>Press 'SPACE' to proceed to the experiment. </div>","32","","","","","","","","","","","","","","","","","","","",""
"html-keyboard-response","2","13362","0.0-1.0-0.0-1.0","dckwzq4drwfsv9w","welcome","5ecbc73afde495760c9ea423","5f60e3c0a3b16e07647b2ff9","5f638027b04cd006b691f8b3","false","6704.115000000456","<div align=left><strong> Time Course of this experiment: </strong> <br><br> <strong> 1.</strong>  First, please fill in some information regarding your demographic data. <br><br> <strong> 2.</strong>  Next, your task will be to classify everyday objects. <br>In addition, you will be asked to remember certain objects and recall them later. <br>Working on these tasks requires your undivided attention and concentration.<br>It is therefore essential that you eliminate any sources of distraction in your  <br>environment and ensure that you will not be disturbed. <br><br><strong> 3.</strong>  At the end of the experiment, you will be asked to answer a few additional questions. <br> <br><strong> Important:</strong> After finishing the experiment, only close the browser window <br> by clicking on the 'end the experiment'-button when you are asked to do so. <br>Closing the browser window prematurely will make the allocation of your participation credit impossible. <br><br> Press 'SPACE' to start the experiment. </div>","32","","","","","","","","","","","","","","","","","","","",""
"html-button-response","3","16215","0.0-1.0-0.0-2.0","dckwzq4drwfsv9w","welcome","5ecbc73afde495760c9ea423","5f60e3c0a3b16e07647b2ff9","5f638027b04cd006b691f8b3","true","2850.8099999999104","<div align=left><strong> Informed consent </strong>  <br>The aim of our research is to better understand human behavior and mental processes. <br>In the following study your behavior (e.g. choices, reaction times) will be studied. <br> <br><strong> Voluntariness and Anonymity </strong> <br>Your participation in this study is  <strong> voluntary</strong>.<br>You may withdraw your consent to participate at any time without providing a reason for doing so and without fear of prejudice. <br><br>As no personal data will be collected, <strong>your data and your person cannot be connected after data collection</strong> – the data-set is anonymous. <br>Respectively, deletion of your data will not be possible after data collection has been completed, as we cannot retrace your data-set.<br>The results and anonymized data collected in this study will be published as a scientific publication. <br>This will happen in an <strong>anonymized format</strong>, so that no data can be traced back to a specific person. <br> <br>The anonymized data of this study will be made available to other researchers and/or in a data archive on the Internet as a means of transparency and to enable subsequent re-use. By doing so, this study follows the recommendations of the Deutsche Forschungsgemeinschaft (DFG, German Research Foundation) and Deutsche Gesellschaft für Psychologie (DGPS, German Psychological Society) regarding quality assurance in research.<br>If you have any questions now or after the experiment, please contact our team (experiments@cs.uni-freiburg.de).<br><br><br>I hereby declare, that I understand the above described conditions of participation and I agree to participate under these conditions. <br><br> </div>","","0","","","","","","","","","","","","","","","","","","",""
"html-keyboard-response","4","30935","0.0-1.0-0.0-3.0","dckwzq4drwfsv9w","welcome","5ecbc73afde495760c9ea423","5f60e3c0a3b16e07647b2ff9","5f638027b04cd006b691f8b3","false","14718.300000000454","<div align=left><strong> General information concerning the experiment </strong>  <br> <br>Please follow the instructions:<ol> <li><strong> Do not leave this tab (your browser window) during the experiment and do not reload this tab! </strong>  <br>If you do switch tabs/windows during the experiment (to check your mail or visit another website, for example), <br>the experiment will end automatically and you will <strong>not receive credit</strong> for your participation. <br>Repeated participation or resumption of the experiment is impossible.</li> <br><li>Please close all other programs for the duration of your participation. </li> <br><li>Please mute or turn off your phone and put it out of your reach. </li> <br><li>Please also take off any disturbing accessories (such as wristwatches, bracelets, etc.). </li> <br><li>If you have music playing in the background, please turn it off now. </li> <br></ol>Thank you! <br>Press 'SPACE' to continue. </div>","32","","","","","","","","","","","","","","","","","","","",""
"survey-text","5","33639","0.0-1.0-1.0-0.0","dckwzq4drwfsv9w","demographics","5ecbc73afde495760c9ea423","5f60e3c0a3b16e07647b2ff9","5f638027b04cd006b691f8b3","true","2698.449999999866","","","","{""age"":""21""}","","","","","","","","","","","","","","","","","",""
"survey-multi-choice","6","49950","0.0-1.0-1.0-1.0","dckwzq4drwfsv9w","demographics","5ecbc73afde495760c9ea423","5f60e3c0a3b16e07647b2ff9","5f638027b04cd006b691f8b3","true","16308.73000000065","","","","{""gender"":""male"",""school"":""high school"",""education"":""High school graduate, diploma or equivalent""}","[0,1,2]","","","","","","","","","","","","","","","","",""
"html-keyboard-response","7","50951","0.0-1.0-2.0","dckwzq4drwfsv9w","instructions","5ecbc73afde495760c9ea423","5f60e3c0a3b16e07647b2ff9","5f638027b04cd006b691f8b3","false","994.0999999998894","<div align=left> The experiment is now about to start: <br> <br>In the following part, you will be presented pictures of everyday objects. <br>Your first task is to <strong>classify these objects. </strong> <br> <br> You will classify them either as mechanical or non-mechanical objects. <br> <br>Objects that include any kind of technical mechanism (for example, wheels, switches, levers, <br> electronic components) fall under the category of <strong>mechanical</strong> objects. <br>Only objects without any kind of technical mechanism should be classified as <strong>non-mechanical</strong>. <br><br>Press 'SPACE' to continue. </div>","32","","","","","","","","","","","","","","","","","","","",""
"html-keyboard-response","8","104159","0.0-2.0-0.0","dckwzq4drwfsv9w","instructions","5ecbc73afde495760c9ea423","5f60e3c0a3b16e07647b2ff9","5f638027b04cd006b691f8b3","false","53208.73500000016","<div align=justify>You will classify the objects using the <strong>'S'</strong> and the <strong>'L'</strong> keys on your keyboard.<br>For doing so, please place your <strong>left index finger</strong> on the <strong>'S'</strong> key and place your <strong>right index finger</strong> on the <strong>'L'</strong> key. <br><br> Each trial starts with an instruction, indicating which key ('S'/'L') you need to press to classify <br>the object as mechanical (letter M) or non-mechanical (letter N).<br>The instruction <strong>M + N</strong> indicates that, in the current trial, by pressing the left key ('S') you classify the displayed object as mechanical (M) <br> and by pressing the right key ('L') you classify the object as non-mechanical (N). <br>The instruction <strong>N + M</strong> on the other hand indicates that by pressing the left key ('S') you classify the displayed object as non-mechanical (N) <br> and by pressing the right key ('L') you classify the object as mechanical (M). <br><br>Please press the key corresponding to the correct classification as fast as possible as soon as the object is displayed and try to avoid making mistakes.<br>If you do not respond within a 2 second window, a corresponding feedback will be displayed and the next trial will start.<br> The experiment is divided into multiple blocks to give you the opportunity to take a break after each block. <br>First, you can now practice this task. <br><br>Please place your <strong>LEFT INDEX FINGER</strong> on the 'S' key and your <strong>RIGHT INDEX FINGER</strong> on the 'L' key now. <br><br>Press SPACE to continue.</div>","32","","","","","","","","","","","","","","","","","","","",""
"html-keyboard-response","9","113016","0.0-2.0-1.0","dckwzq4drwfsv9w","instructions","5ecbc73afde495760c9ea423","5f60e3c0a3b16e07647b2ff9","5f638027b04cd006b691f8b3","false","8855.964999998832","<div align=left> You will now have time to practice this task.<br><br>Remember: <br> <br><li>Please place your index fingers on the <strong>'S'</strong> and <strong>'L'</strong> keys <br>to respond as fast and accurately as possible.</li><li>Every picture can be classified as either mechanical or non-mechanical.</li><li>If you do not respond in time or commit an error, you will receive a corresponding feedback. </li><li> Please try to respond as <strong> fast </strong> and as <strong> accurately as possible </strong> .<br><li>To ensure optimal results, please minimize distractions and stay focused. </li><br><br>Press SPACE to continue.</div>","32","","","","","","","","","","","","","","","","","","","",""
"html-keyboard-response","10","113724","0.0-2.0-2.0-0.0","dckwzq4drwfsv9w","practice_no_cue","5ecbc73afde495760c9ea423","5f60e3c0a3b16e07647b2ff9","5f638027b04cd006b691f8b3","false","null","<span style=""color: black; font-size: 48px"">N + M</span>","null","","","","resp_prompt","","","","","","","","","","","","","","","",""
"categorize-image","11","115694","0.0-2.0-2.0-1.0","dckwzq4drwfsv9w","practice_no_cue","5ecbc73afde495760c9ea423","5f60e3c0a3b16e07647b2ff9","5f638027b04cd006b691f8b3","true","1465.7200000001467","./Stimuli/ImagesPractice/SN76.jpg","76","","","","test","false","N + M","83","","SN","SN76.jpg","remember","old","1","1","start","right","","","",""
"html-keyboard-response","12","116400","0.0-2.0-2.0-0.1","dckwzq4drwfsv9w","practice_no_cue","5ecbc73afde495760c9ea423","5f60e3c0a3b16e07647b2ff9","5f638027b04cd006b691f8b3","false","null","<span style=""color: black; font-size: 48px"">M + N</span>","null","","","","resp_prompt","","","","","","","","","","","","","","","",""
"categorize-image","13","118504","0.0-2.0-2.0-1.1","dckwzq4drwfsv9w","practice_no_cue","5ecbc73afde495760c9ea423","5f60e3c0a3b16e07647b2ff9","5f638027b04cd006b691f8b3","true","1597.9349999997794","./Stimuli/ImagesPractice/LM143.jpg","83","","","","test","true","M + N","83","","LM","LM143.jpg","remember","old","2","1","start","left","","","",""
"html-keyboard-response","14","119206","0.0-2.0-2.0-0.2","dckwzq4drwfsv9w","practice_no_cue","5ecbc73afde495760c9ea423","5f60e3c0a3b16e07647b2ff9","5f638027b04cd006b691f8b3","false","null","<span style=""color: black; font-size: 48px"">N + M</span>","null","","","","resp_prompt","","","","","","","","","","","","","","","",""
"categorize-image","15","120478","0.0-2.0-2.0-1.2","dckwzq4drwfsv9w","practice_no_cue","5ecbc73afde495760c9ea423","5f60e3c0a3b16e07647b2ff9","5f638027b04cd006b691f8b3","true","770.1900000010937","./Stimuli/ImagesPractice/LM230.jpg","83","","","","test","false","N + M","76","","LM","LM230.jpg","remember","old","3","1","start","left","","","",""
"html-keyboard-response","16","121184","0.0-2.0-2.0-0.3","dckwzq4drwfsv9w","practice_no_cue","5ecbc73afde495760c9ea423","5f60e3c0a3b16e07647b2ff9","5f638027b04cd006b691f8b3","false","null","<span style=""color: black; font-size: 48px"">N + M</span>","null","","","","resp_prompt","","","","","","","","","","","","","","","",""
"categorize-image","17","122700","0.0-2.0-2.0-1.3","dckwzq4drwfsv9w","practice_no_cue","5ecbc73afde495760c9ea423","5f60e3c0a3b16e07647b2ff9","5f638027b04cd006b691f8b3","true","1013.209999999177","./Stimuli/ImagesPractice/LN15.jpg","83","","","","test","true","N + M","83","","LN","LN15.jpg","remember","old","4","1","start","left","","","",""
"html-keyboard-response","18","123401","0.0-2.0-2.0-0.4","dckwzq4drwfsv9w","practice_no_cue","5ecbc73afde495760c9ea423","5f60e3c0a3b16e07647b2ff9","5f638027b04cd006b691f8b3","false","null","<span style=""color: black; font-size: 48px"">N + M</span>","null","","","","resp_prompt","","","","","","","","","","","","","","","",""
"categorize-image","19","124624","0.0-2.0-2.0-1.4","dckwzq4drwfsv9w","practice_no_cue","5ecbc73afde495760c9ea423","5f60e3c0a3b16e07647b2ff9","5f638027b04cd006b691f8b3","true","716.2099999986822","./Stimuli/ImagesPractice/SM62.jpg","76","","","","test","true","N + M","76","","SM","SM62.jpg","remember","old","5","1","start","right","","","",""
"html-keyboard-response","20","125326","0.0-2.0-2.0-0.5","dckwzq4drwfsv9w","practice_no_cue","5ecbc73afde495760c9ea423","5f60e3c0a3b16e07647b2ff9","5f638027b04cd006b691f8b3","false","null","<span style=""color: black; font-size: 48px"">N + M</span>","null","","","","resp_prompt","","","","","","","","","","","","","","","",""
"categorize-image","21","126368","0.0-2.0-2.0-1.5","dckwzq4drwfsv9w","practice_no_cue","5ecbc73afde495760c9ea423","5f60e3c0a3b16e07647b2ff9","5f638027b04cd006b691f8b3","true","538.9799999993411","./Stimuli/ImagesPractice/LM147.jpg","76","","","","test","true","N + M","76","","LM","LM147.jpg","forget","old","6","1","start","right","","","",""
"html-keyboard-response","22","127070","0.0-2.0-2.0-0.6","dckwzq4drwfsv9w","practice_no_cue","5ecbc73afde495760c9ea423","5f60e3c0a3b16e07647b2ff9","5f638027b04cd006b691f8b3","false","null","<span style=""color: black; font-size: 48px"">M + N</span>","null","","","","resp_prompt","","","","","","","","","","","","","","","",""
"categorize-image","23","128288","0.0-2.0-2.0-1.6","dckwzq4drwfsv9w","practice_no_cue","5ecbc73afde495760c9ea423","5f60e3c0a3b16e07647b2ff9","5f638027b04cd006b691f8b3","true","711.9849999999278","./Stimuli/ImagesPractice/SN75.jpg","83","","","","test","false","M + N","76","","SN","SN75.jpg","remember","old","7","1","start","left","","","",""
"html-keyboard-response","24","128992","0.0-2.0-2.0-0.7","dckwzq4drwfsv9w","practice_no_cue","5ecbc73afde495760c9ea423","5f60e3c0a3b16e07647b2ff9","5f638027b04cd006b691f8b3","false","null","<span style=""color: black; font-size: 48px"">M + N</span>","null","","","","resp_prompt","","","","","","","","","","","","","","","",""
"categorize-image","25","130286","0.0-2.0-2.0-1.7","dckwzq4drwfsv9w","practice_no_cue","5ecbc73afde495760c9ea423","5f60e3c0a3b16e07647b2ff9","5f638027b04cd006b691f8b3","true","789.6200000013923","./Stimuli/ImagesPractice/LN4.jpg","76","","","","test","true","M + N","76","","LN","LN4.jpg","forget","old","8","1","start","right","","","",""
"html-keyboard-response","26","130989","0.0-2.0-2.0-0.8","dckwzq4drwfsv9w","practice_no_cue","5ecbc73afde495760c9ea423","5f60e3c0a3b16e07647b2ff9","5f638027b04cd006b691f8b3","false","null","<span style=""color: black; font-size: 48px"">N + M</span>","null","","","","resp_prompt","","","","","","","","","","","","","","","",""
"categorize-image","27","132167","0.0-2.0-2.0-1.8","dckwzq4drwfsv9w","practice_no_cue","5ecbc73afde495760c9ea423","5f60e3c0a3b16e07647b2ff9","5f638027b04cd006b691f8b3","true","672.6849999995611","./Stimuli/ImagesPractice/SN205.jpg","83","","","","test","true","N + M","83","","SN","SN205.jpg","forget","old","9","1","start","left","","","",""
"html-keyboard-response","28","132873","0.0-2.0-2.0-0.9","dckwzq4drwfsv9w","practice_no_cue","5ecbc73afde495760c9ea423","5f60e3c0a3b16e07647b2ff9","5f638027b04cd006b691f8b3","false","null","<span style=""color: black; font-size: 48px"">M + N</span>","null","","","","resp_prompt","","","","","","","","","","","","","","","",""
"categorize-image","29","134062","0.0-2.0-2.0-1.9","dckwzq4drwfsv9w","practice_no_cue","5ecbc73afde495760c9ea423","5f60e3c0a3b16e07647b2ff9","5f638027b04cd006b691f8b3","true","683.1600000004983","./Stimuli/ImagesPractice/SM61.jpg","76","","","","test","false","M + N","83","","SM","SM61.jpg","forget","old","10","1","start","right","","","",""
"html-keyboard-response","30","134767","0.0-2.0-2.0-0.10","dckwzq4drwfsv9w","practice_no_cue","5ecbc73afde495760c9ea423","5f60e3c0a3b16e07647b2ff9","5f638027b04cd006b691f8b3","false","null","<span style=""color: black; font-size: 48px"">N + M</span>","null","","","","resp_prompt","","","","","","","","","","","","","","","",""
"categorize-image","31","135960","0.0-2.0-2.0-1.10","dckwzq4drwfsv9w","practice_no_cue","5ecbc73afde495760c9ea423","5f60e3c0a3b16e07647b2ff9","5f638027b04cd006b691f8b3","true","689.8399999990943","./Stimuli/ImagesPractice/LM55.jpg","76","","","","test","true","N + M","76","","LM","LM55.jpg","forget","old","11","1","start","right","","","",""
"html-keyboard-response","32","136663","0.0-2.0-2.0-0.11","dckwzq4drwfsv9w","practice_no_cue","5ecbc73afde495760c9ea423","5f60e3c0a3b16e07647b2ff9","5f638027b04cd006b691f8b3","false","null","<span style=""color: black; font-size: 48px"">M + N</span>","null","","","","resp_prompt","","","","","","","","","","","","","","","",""
"categorize-image","33","137862","0.0-2.0-2.0-1.11","dckwzq4drwfsv9w","practice_no_cue","5ecbc73afde495760c9ea423","5f60e3c0a3b16e07647b2ff9","5f638027b04cd006b691f8b3","true","694.7650000001886","./Stimuli/ImagesPractice/SM35.jpg","76","","","","test","false","M + N","83","","SM","SM35.jpg","forget","old","12","1","start","right","","","",""
"html-keyboard-response","34","138568","0.0-2.0-2.0-0.12","dckwzq4drwfsv9w","practice_no_cue","5ecbc73afde495760c9ea423","5f60e3c0a3b16e07647b2ff9","5f638027b04cd006b691f8b3","false","null","<span style=""color: black; font-size: 48px"">M + N</span>","null","","","","resp_prompt","","","","","","","","","","","","","","","",""
"categorize-image","35","139708","0.0-2.0-2.0-1.12","dckwzq4drwfsv9w","practice_no_cue","5ecbc73afde495760c9ea423","5f60e3c0a3b16e07647b2ff9","5f638027b04cd006b691f8b3","true","636.0049999984913","./Stimuli/ImagesPractice/SN221.jpg","83","","","","test","false","M + N","76","","SN","SN221.jpg","remember","old","13","1","start","left","","","",""
"html-keyboard-response","36","140411","0.0-2.0-2.0-0.13","dckwzq4drwfsv9w","practice_no_cue","5ecbc73afde495760c9ea423","5f60e3c0a3b16e07647b2ff9","5f638027b04cd006b691f8b3","false","null","<span style=""color: black; font-size: 48px"">M + N</span>","null","","","","resp_prompt","","","","","","","","","","","","","","","",""
"categorize-image","37","141751","0.0-2.0-2.0-1.13","dckwzq4drwfsv9w","practice_no_cue","5ecbc73afde495760c9ea423","5f60e3c0a3b16e07647b2ff9","5f638027b04cd006b691f8b3","true","833.7350000001607","./Stimuli/ImagesPractice/SM98.jpg","76","","","","test","false","M + N","83","","SM","SM98.jpg","forget","old","14","1","start","right","","","",""
"html-keyboard-response","38","142457","0.0-2.0-2.0-0.14","dckwzq4drwfsv9w","practice_no_cue","5ecbc73afde495760c9ea423","5f60e3c0a3b16e07647b2ff9","5f638027b04cd006b691f8b3","false","null","<span style=""color: black; font-size: 48px"">M + N</span>","null","","","","resp_prompt","","","","","","","","","","","","","","","",""
"categorize-image","39","143823","0.0-2.0-2.0-1.14","dckwzq4drwfsv9w","practice_no_cue","5ecbc73afde495760c9ea423","5f60e3c0a3b16e07647b2ff9","5f638027b04cd006b691f8b3","true","859.359999998589","./Stimuli/ImagesPractice/SN222.jpg","83","","","","test","false","M + N","76","","SN","SN222.jpg","remember","old","15","1","start","left","","","",""
"html-keyboard-response","40","144524","0.0-2.0-2.0-0.15","dckwzq4drwfsv9w","practice_no_cue","5ecbc73afde495760c9ea423","5f60e3c0a3b16e07647b2ff9","5f638027b04cd006b691f8b3","false","null","<span style=""color: black; font-size: 48px"">N + M</span>","null","","","","resp_prompt","","","","","","","","","","","","","","","",""
"categorize-image","41","145543","0.0-2.0-2.0-1.15","dckwzq4drwfsv9w","practice_no_cue","5ecbc73afde495760c9ea423","5f60e3c0a3b16e07647b2ff9","5f638027b04cd006b691f8b3","true","512.5399999997171","./Stimuli/ImagesPractice/SN220.jpg","76","","","","test","false","N + M","83","","SN","SN220.jpg","forget","old","16","1","start","right","","","",""
"html-keyboard-response","42","162493","0.0-2.0-3.0","dckwzq4drwfsv9w","break","5ecbc73afde495760c9ea423","5f60e3c0a3b16e07647b2ff9","5f638027b04cd006b691f8b3","false","16948.49000000069","<p style='font-size: 32px;'>Break</><br><br><br><br><br><p style='font-size: 24px;'>In the last block, you committed 9 errors and did not respond in time on 0 trials.
</p><p style='font-size: 24px;'>Try to respond as fast and accurately as possible in the next block as well! </p><p style='font-size: 24px;'>Press SPACE to continue.</p>","32","","","","","","","","","","","","","","","","","","","",""
"html-keyboard-response","43","168188","0.0-2.0-4.0","dckwzq4drwfsv9w","instructions","5ecbc73afde495760c9ea423","5f60e3c0a3b16e07647b2ff9","5f638027b04cd006b691f8b3","false","5693.035000000236","<div align=left> Great!<br><br>Are you ready to continue?<br><br>If you want to reread the instructions and redo the practice trials, <br>please press „Z“. <br><br>Press SPACE to CONTINUE with the experiment when you are ready. </div>","32","","","","","","","","","","","","","","","","","","","",""
"html-keyboard-response","44","183657","0.0-3.0-0.0","dckwzq4drwfsv9w","instructions","5ecbc73afde495760c9ea423","5f60e3c0a3b16e07647b2ff9","5f638027b04cd006b691f8b3","false","15468.57000000091","<div align=left>Great!<br> <strong>Attention</strong>! You will now receive a second, additional task! <br><br>To this point it was you <strong>first task</strong> to correctly <strong>classify objects</strong>. <br><br>As mentioned in the beginning, we aim to examine how well humans can remember previously learned information.<br>We would like to find out whether our memory improves if we only remember information that is relevant to us. <br><br>Therefore, your <strong>second task</strong> will be to <strong>remember</strong> the pictures you are to categorize. <br> After the learning phase, there will be a memory test phase, in which you will be asked to indicate whether you have seen a picture before or not. <br>Some, but not all pictures shown in the learning phase will appear in the memory test phase.<br>After classifying a picture, you will be told whether you should remember it for the memory test phase or not. <br>Thus, some pictures can be forgotten, whereas others have to be remembered. <br><br>Note: From now on, feedback will only be displayed if you responded incorrectly or not in time.<br><br>Press SPACE to continue.</div>","32","","","","","","","","","","","","","","","","","","","",""
"html-keyboard-response","45","208100","0.0-3.0-1.0","dckwzq4drwfsv9w","instructions","5ecbc73afde495760c9ea423","5f60e3c0a3b16e07647b2ff9","5f638027b04cd006b691f8b3","false","24442.455000000366","<div align=left>In the following part, you will thus have to remember only some pictures. <br>Immediately after seeing and classifying the picture, a symbol will be displayed, indicating whether you should remember or forget the previous picture. <br><br>A <span style='color: dodgerblue; font-size: 28px'>O</span> indicates REMEMBER. That means, you have to remember this picture, because it will be tested later. <br><br>A <span style='color: darkorange; font-size:28px'>Ø</span> indicates FORGET. You do not have to remember this picture. <br><br> As you will have to remember a lot of pictures, it will be hard for you to remember all of them. <br>It will put you at an advantage if you instantly forget the pictures you are not asked to remember. <br> This will make it easier for you to remember the pictures that will be tested afterwards. <br><br>Press SPACE to continue.</div>","32","","","","","","","","","","","","","","","","","","","",""
"html-keyboard-response","46","220881","0.0-3.0-2.0","dckwzq4drwfsv9w","instructions","5ecbc73afde495760c9ea423","5f60e3c0a3b16e07647b2ff9","5f638027b04cd006b691f8b3","false","12780.214999998861","<div align=left> Now you have the chance to practice both tasks together.<br><br>Remember: <br> <br><li>Please place your index fingers on the <strong>'S'</strong> and <strong>'L'</strong> keys <br>to respond as fast and accurately as possible.</li><li>Every picture can be classified as either mechanical or non-mechanical.</li><li>If you do not respond in time or commit an error, you will receive a corresponding feedback. <br>Please try to respond as <strong> fast </strong> and as <strong> accurately as possible </strong>.</li><li> Please remember only the to-be-remembered <span style='color: dodgerblue; font-size: 28px'>O</span> pictures. <br></li><li> Please minimize distractions and stay focused. </li><br><br>Press SPACE to START</div>","32","","","","","","","","","","","","","","","","","","","",""
"html-keyboard-response","47","221584","0.0-3.0-3.0-0.0","dckwzq4drwfsv9w","practice_cue","5ecbc73afde495760c9ea423","5f60e3c0a3b16e07647b2ff9","5f638027b04cd006b691f8b3","false","null","<span style=""color: black; font-size: 48px"">N + M</span>","null","","","","resp_prompt","","","","","","","","","","","","","","","",""
"categorize-image","48","222282","0.0-3.0-3.0-1.0","dckwzq4drwfsv9w","practice_cue","5ecbc73afde495760c9ea423","5f60e3c0a3b16e07647b2ff9","5f638027b04cd006b691f8b3","true","693.7799999995914","./Stimuli/ImagesPractice/SN205.jpg","76","","","","test","false","N + M","83","","SN","SN205.jpg","forget","old","17","2","practice_forget","right","","","",""
"html-keyboard-response","49","222784","0.0-3.0-3.0-2.0-0.0","dckwzq4drwfsv9w","practice_cue","5ecbc73afde495760c9ea423","5f60e3c0a3b16e07647b2ff9","5f638027b04cd006b691f8b3","false","null","<span style=""color: red; font-size: 48px"">Error!</span>","null","","","","feedback","","","","","","","","","","","","","","","",""
"html-keyboard-response","50","224790","0.0-3.0-3.0-3.0","dckwzq4drwfsv9w","practice_cue","5ecbc73afde495760c9ea423","5f60e3c0a3b16e07647b2ff9","5f638027b04cd006b691f8b3","false","null","<div style=""align-items: center; display: flex; color: darkorange; font-size: 90px""><b>ø</b></div>","null","","","","forget_cue","","","","","","","","","","","","","","","",""
"html-keyboard-response","51","225493","0.0-3.0-3.0-0.1","dckwzq4drwfsv9w","practice_cue","5ecbc73afde495760c9ea423","5f60e3c0a3b16e07647b2ff9","5f638027b04cd006b691f8b3","false","null","<span style=""color: black; font-size: 48px"">M + N</span>","null","","","","resp_prompt","","","","","","","","","","","","","","","",""
"categorize-image","52","226500","0.0-3.0-3.0-1.1","dckwzq4drwfsv9w","practice_cue","5ecbc73afde495760c9ea423","5f60e3c0a3b16e07647b2ff9","5f638027b04cd006b691f8b3","true","1003.7749999992375","./Stimuli/ImagesPractice/LM143.jpg","76","","","","test","false","M + N","83","","LM","LM143.jpg","remember","old","18","2","practice_forget","right","","","",""
"html-keyboard-response","53","227003","0.0-3.0-3.0-2.1-0.1","dckwzq4drwfsv9w","practice_cue","5ecbc73afde495760c9ea423","5f60e3c0a3b16e07647b2ff9","5f638027b04cd006b691f8b3","false","null","<span style=""color: red; font-size: 48px"">Error!</span>","null","","","","feedback","","","","","","","","","","","","","","","",""
"html-keyboard-response","54","229009","0.0-3.0-3.0-3.1","dckwzq4drwfsv9w","practice_cue","5ecbc73afde495760c9ea423","5f60e3c0a3b16e07647b2ff9","5f638027b04cd006b691f8b3","false","null","<div style=""align-items: center; display: flex; color: dodgerblue; font-size: 90px""><b>o</b></div>","null","","","","forget_cue","","","","","","","","","","","","","","","",""
"html-keyboard-response","55","229715","0.0-3.0-3.0-0.2","dckwzq4drwfsv9w","practice_cue","5ecbc73afde495760c9ea423","5f60e3c0a3b16e07647b2ff9","5f638027b04cd006b691f8b3","false","null","<span style=""color: black; font-size: 48px"">N + M</span>","null","","","","resp_prompt","","","","","","","","","","","","","","","",""
"categorize-image","56","230513","0.0-3.0-3.0-1.2","dckwzq4drwfsv9w","practice_cue","5ecbc73afde495760c9ea423","5f60e3c0a3b16e07647b2ff9","5f638027b04cd006b691f8b3","true","794.0450000005658","./Stimuli/ImagesPractice/SN220.jpg","83","","","","test","true","N + M","83","","SN","SN220.jpg","forget","old","19","2","practice_forget","left","","","",""
"html-keyboard-response","57","232515","0.0-3.0-3.0-3.2","dckwzq4drwfsv9w","practice_cue","5ecbc73afde495760c9ea423","5f60e3c0a3b16e07647b2ff9","5f638027b04cd006b691f8b3","false","null","<div style=""align-items: center; display: flex; color: darkorange; font-size: 90px""><b>ø</b></div>","null","","","","forget_cue","","","","","","","","","","","","","","","",""
"html-keyboard-response","58","233218","0.0-3.0-3.0-0.3","dckwzq4drwfsv9w","practice_cue","5ecbc73afde495760c9ea423","5f60e3c0a3b16e07647b2ff9","5f638027b04cd006b691f8b3","false","null","<span style=""color: black; font-size: 48px"">N + M</span>","null","","","","resp_prompt","","","","","","","","","","","","","","","",""
"categorize-image","59","234513","0.0-3.0-3.0-1.3","dckwzq4drwfsv9w","practice_cue","5ecbc73afde495760c9ea423","5f60e3c0a3b16e07647b2ff9","5f638027b04cd006b691f8b3","true","1291.284999999334","./Stimuli/ImagesPractice/LN15.jpg","76","","","","test","false","N + M","83","","LN","LN15.jpg","remember","old","20","2","practice_forget","right","","","",""
"html-keyboard-response","60","235014","0.0-3.0-3.0-2.3-0.3","dckwzq4drwfsv9w","practice_cue","5ecbc73afde495760c9ea423","5f60e3c0a3b16e07647b2ff9","5f638027b04cd006b691f8b3","false","null","<span style=""color: red; font-size: 48px"">Error!</span>","null","","","","feedback","","","","","","","","","","","","","","","",""
"html-keyboard-response","61","237020","0.0-3.0-3.0-3.3","dckwzq4drwfsv9w","practice_cue","5ecbc73afde495760c9ea423","5f60e3c0a3b16e07647b2ff9","5f638027b04cd006b691f8b3","false","null","<div style=""align-items: center; display: flex; color: dodgerblue; font-size: 90px""><b>o</b></div>","null","","","","forget_cue","","","","","","","","","","","","","","","",""
"html-keyboard-response","62","237725","0.0-3.0-3.0-0.4","dckwzq4drwfsv9w","practice_cue","5ecbc73afde495760c9ea423","5f60e3c0a3b16e07647b2ff9","5f638027b04cd006b691f8b3","false","null","<span style=""color: black; font-size: 48px"">M + N</span>","null","","","","resp_prompt","","","","","","","","","","","","","","","",""
"categorize-image","63","239417","0.0-3.0-3.0-1.4","dckwzq4drwfsv9w","practice_cue","5ecbc73afde495760c9ea423","5f60e3c0a3b16e07647b2ff9","5f638027b04cd006b691f8b3","true","1688.1549999998242","./Stimuli/ImagesPractice/SN221.jpg","83","","","","test","false","M + N","76","","SN","SN221.jpg","remember","old","21","2","practice_forget","left","","","",""
"html-keyboard-response","64","239920","0.0-3.0-3.0-2.4-0.4","dckwzq4drwfsv9w","practice_cue","5ecbc73afde495760c9ea423","5f60e3c0a3b16e07647b2ff9","5f638027b04cd006b691f8b3","false","null","<span style=""color: red; font-size: 48px"">Error!</span>","null","","","","feedback","","","","","","","","","","","","","","","",""
"html-keyboard-response","65","241926","0.0-3.0-3.0-3.4","dckwzq4drwfsv9w","practice_cue","5ecbc73afde495760c9ea423","5f60e3c0a3b16e07647b2ff9","5f638027b04cd006b691f8b3","false","null","<div style=""align-items: center; display: flex; color: dodgerblue; font-size: 90px""><b>o</b></div>","null","","","","forget_cue","","","","","","","","","","","","","","","",""
"html-keyboard-response","66","242631","0.0-3.0-3.0-0.5","dckwzq4drwfsv9w","practice_cue","5ecbc73afde495760c9ea423","5f60e3c0a3b16e07647b2ff9","5f638027b04cd006b691f8b3","false","null","<span style=""color: black; font-size: 48px"">N + M</span>","null","","","","resp_prompt","","","","","","","","","","","","","","","",""
"categorize-image","67","244167","0.0-3.0-3.0-1.5","dckwzq4drwfsv9w","practice_cue","5ecbc73afde495760c9ea423","5f60e3c0a3b16e07647b2ff9","5f638027b04cd006b691f8b3","true","1532.0449999999255","./Stimuli/ImagesPractice/LM55.jpg","83","","","","test","false","N + M","76","","LM","LM55.jpg","forget","old","22","2","practice_forget","left","","","",""
"html-keyboard-response","68","244670","0.0-3.0-3.0-2.5-0.5","dckwzq4drwfsv9w","practice_cue","5ecbc73afde495760c9ea423","5f60e3c0a3b16e07647b2ff9","5f638027b04cd006b691f8b3","false","null","<span style=""color: red; font-size: 48px"">Error!</span>","null","","","","feedback","","","","","","","","","","","","","","","",""
"html-keyboard-response","69","246671","0.0-3.0-3.0-3.5","dckwzq4drwfsv9w","practice_cue","5ecbc73afde495760c9ea423","5f60e3c0a3b16e07647b2ff9","5f638027b04cd006b691f8b3","false","null","<div style=""align-items: center; display: flex; color: darkorange; font-size: 90px""><b>ø</b></div>","null","","","","forget_cue","","","","","","","","","","","","","","","",""
"html-keyboard-response","70","247372","0.0-3.0-3.0-0.6","dckwzq4drwfsv9w","practice_cue","5ecbc73afde495760c9ea423","5f60e3c0a3b16e07647b2ff9","5f638027b04cd006b691f8b3","false","null","<span style=""color: black; font-size: 48px"">M + N</span>","null","","","","resp_prompt","","","","","","","","","","","","","","","",""
"categorize-image","71","248091","0.0-3.0-3.0-1.6","dckwzq4drwfsv9w","practice_cue","5ecbc73afde495760c9ea423","5f60e3c0a3b16e07647b2ff9","5f638027b04cd006b691f8b3","true","715.4750000008789","./Stimuli/ImagesPractice/LN4.jpg","76","","","","test","true","M + N","76","","LN","LN4.jpg","forget","old","23","2","practice_forget","right","","","",""
"html-keyboard-response","72","250097","0.0-3.0-3.0-3.6","dckwzq4drwfsv9w","practice_cue","5ecbc73afde495760c9ea423","5f60e3c0a3b16e07647b2ff9","5f638027b04cd006b691f8b3","false","null","<div style=""align-items: center; display: flex; color: darkorange; font-size: 90px""><b>ø</b></div>","null","","","","forget_cue","","","","","","","","","","","","","","","",""
"html-keyboard-response","73","250800","0.0-3.0-3.0-0.7","dckwzq4drwfsv9w","practice_cue","5ecbc73afde495760c9ea423","5f60e3c0a3b16e07647b2ff9","5f638027b04cd006b691f8b3","false","null","<span style=""color: black; font-size: 48px"">N + M</span>","null","","","","resp_prompt","","","","","","","","","","","","","","","",""
"categorize-image","74","251462","0.0-3.0-3.0-1.7","dckwzq4drwfsv9w","practice_cue","5ecbc73afde495760c9ea423","5f60e3c0a3b16e07647b2ff9","5f638027b04cd006b691f8b3","true","659.1349999998929","./Stimuli/ImagesPractice/SM62.jpg","76","","","","test","true","N + M","76","","SM","SM62.jpg","remember","old","24","2","practice_forget","right","","","",""
"html-keyboard-response","75","253463","0.0-3.0-3.0-3.7","dckwzq4drwfsv9w","practice_cue","5ecbc73afde495760c9ea423","5f60e3c0a3b16e07647b2ff9","5f638027b04cd006b691f8b3","false","null","<div style=""align-items: center; display: flex; color: dodgerblue; font-size: 90px""><b>o</b></div>","null","","","","forget_cue","","","","","","","","","","","","","","","",""
"html-keyboard-response","76","254167","0.0-3.0-3.0-0.8","dckwzq4drwfsv9w","practice_cue","5ecbc73afde495760c9ea423","5f60e3c0a3b16e07647b2ff9","5f638027b04cd006b691f8b3","false","null","<span style=""color: black; font-size: 48px"">M + N</span>","null","","","","resp_prompt","","","","","","","","","","","","","","","",""
"categorize-image","77","255614","0.0-3.0-3.0-1.8","dckwzq4drwfsv9w","practice_cue","5ecbc73afde495760c9ea423","5f60e3c0a3b16e07647b2ff9","5f638027b04cd006b691f8b3","true","1443.5050000010524","./Stimuli/ImagesPractice/SN75.jpg","76","","","","test","true","M + N","76","","SN","SN75.jpg","remember","old","25","2","practice_forget","right","","","",""
"html-keyboard-response","78","257619","0.0-3.0-3.0-3.8","dckwzq4drwfsv9w","practice_cue","5ecbc73afde495760c9ea423","5f60e3c0a3b16e07647b2ff9","5f638027b04cd006b691f8b3","false","null","<div style=""align-items: center; display: flex; color: dodgerblue; font-size: 90px""><b>o</b></div>","null","","","","forget_cue","","","","","","","","","","","","","","","",""
"html-keyboard-response","79","258321","0.0-3.0-3.0-0.9","dckwzq4drwfsv9w","practice_cue","5ecbc73afde495760c9ea423","5f60e3c0a3b16e07647b2ff9","5f638027b04cd006b691f8b3","false","null","<span style=""color: black; font-size: 48px"">M + N</span>","null","","","","resp_prompt","","","","","","","","","","","","","","","",""
"categorize-image","80","258863","0.0-3.0-3.0-1.9","dckwzq4drwfsv9w","practice_cue","5ecbc73afde495760c9ea423","5f60e3c0a3b16e07647b2ff9","5f638027b04cd006b691f8b3","true","537.6100000012666","./Stimuli/ImagesPractice/SM98.jpg","83","","","","test","true","M + N","83","","SM","SM98.jpg","forget","old","26","2","practice_forget","left","","","",""
"html-keyboard-response","81","260865","0.0-3.0-3.0-3.9","dckwzq4drwfsv9w","practice_cue","5ecbc73afde495760c9ea423","5f60e3c0a3b16e07647b2ff9","5f638027b04cd006b691f8b3","false","null","<div style=""align-items: center; display: flex; color: darkorange; font-size: 90px""><b>ø</b></div>","null","","","","forget_cue","","","","","","","","","","","","","","","",""
"html-keyboard-response","82","261567","0.0-3.0-3.0-0.10","dckwzq4drwfsv9w","practice_cue","5ecbc73afde495760c9ea423","5f60e3c0a3b16e07647b2ff9","5f638027b04cd006b691f8b3","false","null","<span style=""color: black; font-size: 48px"">M + N</span>","null","","","","resp_prompt","","","","","","","","","","","","","","","",""
"categorize-image","83","262654","0.0-3.0-3.0-1.10","dckwzq4drwfsv9w","practice_cue","5ecbc73afde495760c9ea423","5f60e3c0a3b16e07647b2ff9","5f638027b04cd006b691f8b3","true","1083.6999999991967","./Stimuli/ImagesPractice/SM35.jpg","83","","","","test","true","M + N","83","","SM","SM35.jpg","forget","old","27","2","practice_forget","left","","","",""
"html-keyboard-response","84","264660","0.0-3.0-3.0-3.10","dckwzq4drwfsv9w","practice_cue","5ecbc73afde495760c9ea423","5f60e3c0a3b16e07647b2ff9","5f638027b04cd006b691f8b3","false","null","<div style=""align-items: center; display: flex; color: darkorange; font-size: 90px""><b>ø</b></div>","null","","","","forget_cue","","","","","","","","","","","","","","","",""
"html-keyboard-response","85","265361","0.0-3.0-3.0-0.11","dckwzq4drwfsv9w","practice_cue","5ecbc73afde495760c9ea423","5f60e3c0a3b16e07647b2ff9","5f638027b04cd006b691f8b3","false","null","<span style=""color: black; font-size: 48px"">M + N</span>","null","","","","resp_prompt","","","","","","","","","","","","","","","",""
"categorize-image","86","266109","0.0-3.0-3.0-1.11","dckwzq4drwfsv9w","practice_cue","5ecbc73afde495760c9ea423","5f60e3c0a3b16e07647b2ff9","5f638027b04cd006b691f8b3","true","743.9199999989942","./Stimuli/ImagesPractice/SM61.jpg","83","","","","test","true","M + N","83","","SM","SM61.jpg","forget","old","28","2","practice_forget","left","","","",""
"html-keyboard-response","87","268110","0.0-3.0-3.0-3.11","dckwzq4drwfsv9w","practice_cue","5ecbc73afde495760c9ea423","5f60e3c0a3b16e07647b2ff9","5f638027b04cd006b691f8b3","false","null","<div style=""align-items: center; display: flex; color: darkorange; font-size: 90px""><b>ø</b></div>","null","","","","forget_cue","","","","","","","","","","","","","","","",""
"html-keyboard-response","88","268816","0.0-3.0-3.0-0.12","dckwzq4drwfsv9w","practice_cue","5ecbc73afde495760c9ea423","5f60e3c0a3b16e07647b2ff9","5f638027b04cd006b691f8b3","false","null","<span style=""color: black; font-size: 48px"">N + M</span>","null","","","","resp_prompt","","","","","","","","","","","","","","","",""
"categorize-image","89","270302","0.0-3.0-3.0-1.12","dckwzq4drwfsv9w","practice_cue","5ecbc73afde495760c9ea423","5f60e3c0a3b16e07647b2ff9","5f638027b04cd006b691f8b3","true","1483.3349999989732","./Stimuli/ImagesPractice/LM147.jpg","83","","","","test","false","N + M","76","","LM","LM147.jpg","forget","old","29","2","practice_forget","left","","","",""
"html-keyboard-response","90","270806","0.0-3.0-3.0-2.12-0.12","dckwzq4drwfsv9w","practice_cue","5ecbc73afde495760c9ea423","5f60e3c0a3b16e07647b2ff9","5f638027b04cd006b691f8b3","false","null","<span style=""color: red; font-size: 48px"">Error!</span>","null","","","","feedback","","","","","","","","","","","","","","","",""
"html-keyboard-response","91","272808","0.0-3.0-3.0-3.12","dckwzq4drwfsv9w","practice_cue","5ecbc73afde495760c9ea423","5f60e3c0a3b16e07647b2ff9","5f638027b04cd006b691f8b3","false","null","<div style=""align-items: center; display: flex; color: darkorange; font-size: 90px""><b>ø</b></div>","null","","","","forget_cue","","","","","","","","","","","","","","","",""
"html-keyboard-response","92","273514","0.0-3.0-3.0-0.13","dckwzq4drwfsv9w","practice_cue","5ecbc73afde495760c9ea423","5f60e3c0a3b16e07647b2ff9","5f638027b04cd006b691f8b3","false","null","<span style=""color: black; font-size: 48px"">M + N</span>","null","","","","resp_prompt","","","","","","","","","","","","","","","",""
"categorize-image","93","274283","0.0-3.0-3.0-1.13","dckwzq4drwfsv9w","practice_cue","5ecbc73afde495760c9ea423","5f60e3c0a3b16e07647b2ff9","5f638027b04cd006b691f8b3","true","765.4249999995809","./Stimuli/ImagesPractice/SN222.jpg","76","","","","test","true","M + N","76","","SN","SN222.jpg","remember","old","30","2","practice_forget","right","","","",""
"html-keyboard-response","94","276284","0.0-3.0-3.0-3.13","dckwzq4drwfsv9w","practice_cue","5ecbc73afde495760c9ea423","5f60e3c0a3b16e07647b2ff9","5f638027b04cd006b691f8b3","false","null","<div style=""align-items: center; display: flex; color: dodgerblue; font-size: 90px""><b>o</b></div>","null","","","","forget_cue","","","","","","","","","","","","","","","",""
"html-keyboard-response","95","276985","0.0-3.0-3.0-0.14","dckwzq4drwfsv9w","practice_cue","5ecbc73afde495760c9ea423","5f60e3c0a3b16e07647b2ff9","5f638027b04cd006b691f8b3","false","null","<span style=""color: black; font-size: 48px"">N + M</span>","null","","","","resp_prompt","","","","","","","","","","","","","","","",""
"categorize-image","96","277597","0.0-3.0-3.0-1.14","dckwzq4drwfsv9w","practice_cue","5ecbc73afde495760c9ea423","5f60e3c0a3b16e07647b2ff9","5f638027b04cd006b691f8b3","true","608.9549999997253","./Stimuli/ImagesPractice/SN76.jpg","76","","","","test","false","N + M","83","","SN","SN76.jpg","remember","old","31","2","practice_forget","right","","","",""
"html-keyboard-response","97","278099","0.0-3.0-3.0-2.14-0.14","dckwzq4drwfsv9w","practice_cue","5ecbc73afde495760c9ea423","5f60e3c0a3b16e07647b2ff9","5f638027b04cd006b691f8b3","false","null","<span style=""color: red; font-size: 48px"">Error!</span>","null","","","","feedback","","","","","","","","","","","","","","","",""
"html-keyboard-response","98","280102","0.0-3.0-3.0-3.14","dckwzq4drwfsv9w","practice_cue","5ecbc73afde495760c9ea423","5f60e3c0a3b16e07647b2ff9","5f638027b04cd006b691f8b3","false","null","<div style=""align-items: center; display: flex; color: dodgerblue; font-size: 90px""><b>o</b></div>","null","","","","forget_cue","","","","","","","","","","","","","","","",""
"html-keyboard-response","99","280804","0.0-3.0-3.0-0.15","dckwzq4drwfsv9w","practice_cue","5ecbc73afde495760c9ea423","5f60e3c0a3b16e07647b2ff9","5f638027b04cd006b691f8b3","false","null","<span style=""color: black; font-size: 48px"">N + M</span>","null","","","","resp_prompt","","","","","","","","","","","","","","","",""
"categorize-image","100","281886","0.0-3.0-3.0-1.15","dckwzq4drwfsv9w","practice_cue","5ecbc73afde495760c9ea423","5f60e3c0a3b16e07647b2ff9","5f638027b04cd006b691f8b3","true","1078.5449999985285","./Stimuli/ImagesPractice/LM230.jpg","83","","","","test","false","N + M","76","","LM","LM230.jpg","remember","old","32","2","practice_forget","left","","","",""
"html-keyboard-response","101","282389","0.0-3.0-3.0-2.15-0.15","dckwzq4drwfsv9w","practice_cue","5ecbc73afde495760c9ea423","5f60e3c0a3b16e07647b2ff9","5f638027b04cd006b691f8b3","false","null","<span style=""color: red; font-size: 48px"">Error!</span>","null","","","","feedback","","","","","","","","","","","","","","","",""
"html-keyboard-response","102","284392","0.0-3.0-3.0-3.15","dckwzq4drwfsv9w","practice_cue","5ecbc73afde495760c9ea423","5f60e3c0a3b16e07647b2ff9","5f638027b04cd006b691f8b3","false","null","<div style=""align-items: center; display: flex; color: dodgerblue; font-size: 90px""><b>o</b></div>","null","","","","forget_cue","","","","","","","","","","","","","","","",""
"html-keyboard-response","103","289246","0.0-3.0-4.0","dckwzq4drwfsv9w","break","5ecbc73afde495760c9ea423","5f60e3c0a3b16e07647b2ff9","5f638027b04cd006b691f8b3","false","4852.595000000263","<p style='font-size: 32px;'>Break</><br><br><br><br><br><p style='font-size: 24px;'>In the last block, you committed 8 errors and did not respond in time on 0 trials.
</p><p style='font-size: 24px;'>Try to respond as fast and accurately as possible in the next block as well! </p><p style='font-size: 24px;'>Press SPACE to continue.</p>","32","","","","","","","","","","","","","","","","","","","",""
"html-keyboard-response","104","299053","0.0-3.0-5.0","dckwzq4drwfsv9w","instructions","5ecbc73afde495760c9ea423","5f60e3c0a3b16e07647b2ff9","5f638027b04cd006b691f8b3","false","9806.40499999933","<div align=left> Now, to practice, we kindly ask you to remember as many of the to-be-remembered pictures<br>of the previous learning phase as possible.<br><br>The pictures you were instructed to remember were the pictures followed by a <span style='color: dodgerblue; font-size: 28px'>O</span>.<br><br>In this memory test phase, you will also see some new pictures.<br>It is your task to remember whether you were presented with this specific picture in this study so far or not.<br>If you recognize an object (you have already seen it in this study), it is an OLD object. <br>If you do not recognize an object (you have NOT seen it in this study), it is a NEW object. <br><strong> Attention</strong>: As already mentioned, <span style='color: darkorange; font-size:28px'>Ø</span>-pictures will <strong>never</strong> appear in this memory test (neither as new objects). <br><br>Press SPACE to continue. </div>","32","","","","","","","","","","","","","","","","","","","",""
"html-keyboard-response","105","310203","0.0-3.0-6.0","dckwzq4drwfsv9w","instructions","5ecbc73afde495760c9ea423","5f60e3c0a3b16e07647b2ff9","5f638027b04cd006b691f8b3","false","11148.779999999504","<div align=left> M and N no longer will appear on the left/right of the fixation cross. <br>Instead there will be a note at the bottom of the left or right side  <br>indicating which key you should press for an old or new object:  <br> <br>Press the <strong>right</strong> key to classify an object as <strong>old</strong> and press the <strong>left</strong>, to classify an object as <strong>new</strong>.<br>Please classify the objects as new/old by again placing your index finger on the 'S' and 'L' keys <br>and press them accordingly.<br><br><strong>Old:</strong> This object has been presented before. <br><strong>New:</strong> This object has <strong>not</strong> been presented.<br><br>Now please put your right and left index fingers on the 'S' and 'L' keys of your keyboard. <br>Please respond as fast and as accurately as possible!<br><br>Press SPACE to continue. </div>","32","","","","","","","","","","","","","","","","","","","",""
"categorize-image","106","313175","0.0-3.0-7.0-0.0","dckwzq4drwfsv9w","practice_recog","5ecbc73afde495760c9ea423","5f60e3c0a3b16e07647b2ff9","5f638027b04cd006b691f8b3","true","2468.7200000007288","./Stimuli/ImagesPractice/SN75.jpg","83","","","","test","true","","83","","SN","SN75.jpg","","old","33","3","practice_recog","left","","","",""
"categorize-image","107","315297","0.0-3.0-7.0-0.1","dckwzq4drwfsv9w","practice_recog","5ecbc73afde495760c9ea423","5f60e3c0a3b16e07647b2ff9","5f638027b04cd006b691f8b3","true","1618.789999998582","./Stimuli/ImagesPractice/LN15.jpg","83","","","","test","true","","83","","LN","LN15.jpg","","old","34","3","practice_recog","left","","","",""
"categorize-image","108","316687","0.0-3.0-7.0-0.2","dckwzq4drwfsv9w","practice_recog","5ecbc73afde495760c9ea423","5f60e3c0a3b16e07647b2ff9","5f638027b04cd006b691f8b3","true","886.9950000008103","./Stimuli/ImagesPractice/SN76.jpg","83","","","","test","true","","83","","SN","SN76.jpg","","old","35","3","practice_recog","left","","","",""
"categorize-image","109","318539","0.0-3.0-7.0-0.3","dckwzq4drwfsv9w","practice_recog","5ecbc73afde495760c9ea423","5f60e3c0a3b16e07647b2ff9","5f638027b04cd006b691f8b3","true","1345.3799999988405","./Stimuli/ImagesPractice/SM62.jpg","76","","","","test","false","","83","","SM","SM62.jpg","","old","36","3","practice_recog","right","","","",""
"categorize-image","110","319910","0.0-3.0-7.0-0.4","dckwzq4drwfsv9w","practice_recog","5ecbc73afde495760c9ea423","5f60e3c0a3b16e07647b2ff9","5f638027b04cd006b691f8b3","true","869.2399999999907","./Stimuli/ImagesPractice/LM239.jpg","83","","","","test","false","","76","","LM","LM239.jpg","","new","37","3","practice_recog","left","","","",""
"categorize-image","111","321814","0.0-3.0-7.0-0.5","dckwzq4drwfsv9w","practice_recog","5ecbc73afde495760c9ea423","5f60e3c0a3b16e07647b2ff9","5f638027b04cd006b691f8b3","true","1402.5199999996694","./Stimuli/ImagesPractice/LM230.jpg","76","","","","test","false","","83","","LM","LM230.jpg","","old","38","3","practice_recog","right","","","",""
"categorize-image","112","324837","0.0-3.0-7.0-0.6","dckwzq4drwfsv9w","practice_recog","5ecbc73afde495760c9ea423","5f60e3c0a3b16e07647b2ff9","5f638027b04cd006b691f8b3","true","2515.9249999996973","./Stimuli/ImagesPractice/LN2.jpg","76","","","","test","true","","76","","LN","LN2.jpg","","new","39","3","practice_recog","right","","","",""
"categorize-image","113","326986","0.0-3.0-7.0-0.7","dckwzq4drwfsv9w","practice_recog","5ecbc73afde495760c9ea423","5f60e3c0a3b16e07647b2ff9","5f638027b04cd006b691f8b3","true","1642.5049999997718","./Stimuli/ImagesPractice/LM224.jpg","76","","","","test","true","","76","","LM","LM224.jpg","","new","40","3","practice_recog","right","","","",""
"categorize-image","114","329309","0.0-3.0-7.0-0.8","dckwzq4drwfsv9w","practice_recog","5ecbc73afde495760c9ea423","5f60e3c0a3b16e07647b2ff9","5f638027b04cd006b691f8b3","true","1815.8549999989336","./Stimuli/ImagesPractice/LN109.jpg","76","","","","test","true","","76","","LN","LN109.jpg","","new","41","3","practice_recog","right","","","",""
"categorize-image","115","330754","0.0-3.0-7.0-0.9","dckwzq4drwfsv9w","practice_recog","5ecbc73afde495760c9ea423","5f60e3c0a3b16e07647b2ff9","5f638027b04cd006b691f8b3","true","938.7249999999767","./Stimuli/ImagesPractice/LN72.jpg","83","","","","test","false","","76","","LN","LN72.jpg","","new","42","3","practice_recog","left","","","",""
"categorize-image","116","332802","0.0-3.0-7.0-0.10","dckwzq4drwfsv9w","practice_recog","5ecbc73afde495760c9ea423","5f60e3c0a3b16e07647b2ff9","5f638027b04cd006b691f8b3","true","1541.8399999999092","./Stimuli/ImagesPractice/SN221.jpg","76","","","","test","false","","83","","SN","SN221.jpg","","old","43","3","practice_recog","right","","","",""
"categorize-image","117","334240","0.0-3.0-7.0-0.11","dckwzq4drwfsv9w","practice_recog","5ecbc73afde495760c9ea423","5f60e3c0a3b16e07647b2ff9","5f638027b04cd006b691f8b3","true","932.6999999993714","./Stimuli/ImagesPractice/SN222.jpg","83","","","","test","true","","83","","SN","SN222.jpg","","old","44","3","practice_recog","left","","","",""
"categorize-image","118","336049","0.0-3.0-7.0-0.12","dckwzq4drwfsv9w","practice_recog","5ecbc73afde495760c9ea423","5f60e3c0a3b16e07647b2ff9","5f638027b04cd006b691f8b3","true","1304.8449999987497","./Stimuli/ImagesPractice/LN17.jpg","83","","","","test","false","","76","","LN","LN17.jpg","","new","45","3","practice_recog","left","","","",""
"categorize-image","119","338346","0.0-3.0-7.0-0.13","dckwzq4drwfsv9w","practice_recog","5ecbc73afde495760c9ea423","5f60e3c0a3b16e07647b2ff9","5f638027b04cd006b691f8b3","true","1790.0449999997509","./Stimuli/ImagesPractice/SM37.jpg","76","","","","test","true","","76","","SM","SM37.jpg","","new","46","3","practice_recog","right","","","",""
"categorize-image","120","340405","0.0-3.0-7.0-0.14","dckwzq4drwfsv9w","practice_recog","5ecbc73afde495760c9ea423","5f60e3c0a3b16e07647b2ff9","5f638027b04cd006b691f8b3","true","1551.939999999362","./Stimuli/ImagesPractice/SM97.jpg","76","","","","test","true","","76","","SM","SM97.jpg","","new","47","3","practice_recog","right","","","",""
"categorize-image","121","342720","0.0-3.0-7.0-0.15","dckwzq4drwfsv9w","practice_recog","5ecbc73afde495760c9ea423","5f60e3c0a3b16e07647b2ff9","5f638027b04cd006b691f8b3","true","1810.5700000014622","./Stimuli/ImagesPractice/LM143.jpg","83","","","","test","true","","83","","LM","LM143.jpg","","old","48","3","practice_recog","left","","","",""
"html-keyboard-response","122","347855","0.0-3.0-8.0","dckwzq4drwfsv9w","instructions","5ecbc73afde495760c9ea423","5f60e3c0a3b16e07647b2ff9","5f638027b04cd006b691f8b3","false","5133.205000000133","<div align=left> Great!<br><br>Are you ready to continue?<br>If you want to reread the instructions and redo the practice trials, please <br>press „Z“.<br><br>You can proceed when you are ready.<br><br>After the presentation of each object, you will receive an instruction whether to <br>remember or to forget the object.<br>We will test your memory of the following pictures only at the very end of <br>the experiment after all learning blocks are completed. <br><br>Press SPACE to CONTINUE when you are ready. </div>","32","","","","","","","","","","","","","","","","","","","",""
"html-keyboard-response","123","353617","0.0-4.0-0.0","dckwzq4drwfsv9w","instructions","5ecbc73afde495760c9ea423","5f60e3c0a3b16e07647b2ff9","5f638027b04cd006b691f8b3","false","5761.005000000296","<div align=left> The actual experiment is about to start.<br>The practice trials are over!<br><br>Please always respond both fast and accurately!<br><br>Remember: <br> <br><li> Please place your index fingers on the <strong>'S'</strong> and <strong>'L'</strong> keys <br>to respond as fast and accurately as possible.</li><li> Every picture can be classified as either mechanical or non-mechanical.</li><li> If you do not respond in time or commit an error, you will receive a corresponding feedback.<br> Please try to respond as <strong> fast </strong> and as <strong> accurately as possible </strong>.</li><li> Remember the <span style='color: dodgerblue; font-size: 28px'>O</span> pictures. <br></li><li> Please minimize distractions and stay focused. </li><br><br>Press SPACE to START.</div>","32","","","","","","","","","","","","","","","","","","","",""
"html-keyboard-response","124","354322","0.0-4.0-1.0-0.0","dckwzq4drwfsv9w","prime","5ecbc73afde495760c9ea423","5f60e3c0a3b16e07647b2ff9","5f638027b04cd006b691f8b3","false","null","<span style=""color: black; font-size: 48px"">M + N</span>","null","","","","resp_prompt","","","","","","","","","","","","","","","",""
"categorize-image","125","356330","0.0-4.0-1.0-1.0","dckwzq4drwfsv9w","prime","5ecbc73afde495760c9ea423","5f60e3c0a3b16e07647b2ff9","5f638027b04cd006b691f8b3","true","null","./Stimuli/SelectedImages/LM/LM209.bmp","null","","","","test","false","M + N","83","switch","LM","LM209.bmp","remember","","49","3","prime1","too_slow","","","",""
"html-keyboard-response","126","356836","0.0-4.0-1.0-2.0-0.0","dckwzq4drwfsv9w","prime","5ecbc73afde495760c9ea423","5f60e3c0a3b16e07647b2ff9","5f638027b04cd006b691f8b3","false","null","<span style=""color: red; font-size: 48px"">Too slow!</span>","null","","","","feedback","","","","","","","","","","","","","","","",""
"html-keyboard-response","127","358838","0.0-4.0-1.0-3.0","dckwzq4drwfsv9w","prime","5ecbc73afde495760c9ea423","5f60e3c0a3b16e07647b2ff9","5f638027b04cd006b691f8b3","false","null","<div style=""align-items: center; display: flex; color: dodgerblue; font-size: 90px""><b>o</b></div>","null","","","","forget_cue","","","","","","","","","","","","","","","",""
"html-keyboard-response","128","359539","0.0-4.0-1.0-0.1","dckwzq4drwfsv9w","prime","5ecbc73afde495760c9ea423","5f60e3c0a3b16e07647b2ff9","5f638027b04cd006b691f8b3","false","null","<span style=""color: black; font-size: 48px"">N + M</span>","null","","","","resp_prompt","","","","","","","","","","","","","","","",""
"categorize-image","129","360187","0.0-4.0-1.0-1.1","dckwzq4drwfsv9w","prime","5ecbc73afde495760c9ea423","5f60e3c0a3b16e07647b2ff9","5f638027b04cd006b691f8b3","true","644.490000000631","./Stimuli/SelectedImages/LN/LN59.bmp","76","","","","test","false","N + M","83","switch","LN","LN59.bmp","forget","","50","3","prime1","right","","","",""
"html-keyboard-response","130","360690","0.0-4.0-1.0-2.1-0.1","dckwzq4drwfsv9w","prime","5ecbc73afde495760c9ea423","5f60e3c0a3b16e07647b2ff9","5f638027b04cd006b691f8b3","false","null","<span style=""color: red; font-size: 48px"">Error!</span>","null","","","","feedback","","","","","","","","","","","","","","","",""
"html-keyboard-response","131","362696","0.0-4.0-1.0-3.1","dckwzq4drwfsv9w","prime","5ecbc73afde495760c9ea423","5f60e3c0a3b16e07647b2ff9","5f638027b04cd006b691f8b3","false","null","<div style=""align-items: center; display: flex; color: darkorange; font-size: 90px""><b>ø</b></div>","null","","","","forget_cue","","","","","","","","","","","","","","","",""
"html-keyboard-response","132","363402","0.0-4.0-1.0-0.2","dckwzq4drwfsv9w","prime","5ecbc73afde495760c9ea423","5f60e3c0a3b16e07647b2ff9","5f638027b04cd006b691f8b3","false","null","<span style=""color: black; font-size: 48px"">N + M</span>","null","","","","resp_prompt","","","","","","","","","","","","","","","",""
"categorize-image","133","364069","0.0-4.0-1.0-1.2","dckwzq4drwfsv9w","prime","5ecbc73afde495760c9ea423","5f60e3c0a3b16e07647b2ff9","5f638027b04cd006b691f8b3","true","663.2800000006682","./Stimuli/SelectedImages/LN/LN111.bmp","76","","","","test","false","N + M","83","switch","LN","LN111.bmp","remember","","51","3","prime1","right","","","",""
"html-keyboard-response","134","364571","0.0-4.0-1.0-2.2-0.2","dckwzq4drwfsv9w","prime","5ecbc73afde495760c9ea423","5f60e3c0a3b16e07647b2ff9","5f638027b04cd006b691f8b3","false","null","<span style=""color: red; font-size: 48px"">Error!</span>","null","","","","feedback","","","","","","","","","","","","","","","",""
"html-keyboard-response","135","366574","0.0-4.0-1.0-3.2","dckwzq4drwfsv9w","prime","5ecbc73afde495760c9ea423","5f60e3c0a3b16e07647b2ff9","5f638027b04cd006b691f8b3","false","null","<div style=""align-items: center; display: flex; color: dodgerblue; font-size: 90px""><b>o</b></div>","null","","","","forget_cue","","","","","","","","","","","","","","","",""
"html-keyboard-response","136","367276","0.0-4.0-1.0-0.3","dckwzq4drwfsv9w","prime","5ecbc73afde495760c9ea423","5f60e3c0a3b16e07647b2ff9","5f638027b04cd006b691f8b3","false","null","<span style=""color: black; font-size: 48px"">N + M</span>","null","","","","resp_prompt","","","","","","","","","","","","","","","",""
"categorize-image","137","368422","0.0-4.0-1.0-1.3","dckwzq4drwfsv9w","prime","5ecbc73afde495760c9ea423","5f60e3c0a3b16e07647b2ff9","5f638027b04cd006b691f8b3","true","1142.1250000003492","./Stimuli/SelectedImages/LN/LN9.bmp","83","","","","test","true","N + M","83","repetition","LN","LN9.bmp","forget","","52","3","prime1","left","","","",""
"html-keyboard-response","138","370426","0.0-4.0-1.0-3.3","dckwzq4drwfsv9w","prime","5ecbc73afde495760c9ea423","5f60e3c0a3b16e07647b2ff9","5f638027b04cd006b691f8b3","false","null","<div style=""align-items: center; display: flex; color: darkorange; font-size: 90px""><b>ø</b></div>","null","","","","forget_cue","","","","","","","","","","","","","","","",""
"html-keyboard-response","139","371129","0.0-4.0-1.0-0.4","dckwzq4drwfsv9w","prime","5ecbc73afde495760c9ea423","5f60e3c0a3b16e07647b2ff9","5f638027b04cd006b691f8b3","false","null","<span style=""color: black; font-size: 48px"">N + M</span>","null","","","","resp_prompt","","","","","","","","","","","","","","","",""
"categorize-image","140","372101","0.0-4.0-1.0-1.4","dckwzq4drwfsv9w","prime","5ecbc73afde495760c9ea423","5f60e3c0a3b16e07647b2ff9","5f638027b04cd006b691f8b3","true","969.039999999979","./Stimuli/SelectedImages/SN/SN140.bmp","76","","","","test","false","N + M","83","switch","SN","SN140.bmp","remember","","53","3","prime1","right","","","",""
"html-keyboard-response","141","372603","0.0-4.0-1.0-2.4-0.4","dckwzq4drwfsv9w","prime","5ecbc73afde495760c9ea423","5f60e3c0a3b16e07647b2ff9","5f638027b04cd006b691f8b3","false","null","<span style=""color: red; font-size: 48px"">Error!</span>","null","","","","feedback","","","","","","","","","","","","","","","",""
"html-keyboard-response","142","374605","0.0-4.0-1.0-3.4","dckwzq4drwfsv9w","prime","5ecbc73afde495760c9ea423","5f60e3c0a3b16e07647b2ff9","5f638027b04cd006b691f8b3","false","null","<div style=""align-items: center; display: flex; color: dodgerblue; font-size: 90px""><b>o</b></div>","null","","","","forget_cue","","","","","","","","","","","","","","","",""
"html-keyboard-response","143","375309","0.0-4.0-1.0-0.5","dckwzq4drwfsv9w","prime","5ecbc73afde495760c9ea423","5f60e3c0a3b16e07647b2ff9","5f638027b04cd006b691f8b3","false","null","<span style=""color: black; font-size: 48px"">N + M</span>","null","","","","resp_prompt","","","","","","","","","","","","","","","",""
"categorize-image","144","376101","0.0-4.0-1.0-1.5","dckwzq4drwfsv9w","prime","5ecbc73afde495760c9ea423","5f60e3c0a3b16e07647b2ff9","5f638027b04cd006b691f8b3","true","788.6899999994203","./Stimuli/SelectedImages/LM/LM179.bmp","83","","","","test","false","N + M","76","repetition","LM","LM179.bmp","forget","","54","3","prime1","left","","","",""
"html-keyboard-response","145","376604","0.0-4.0-1.0-2.5-0.5","dckwzq4drwfsv9w","prime","5ecbc73afde495760c9ea423","5f60e3c0a3b16e07647b2ff9","5f638027b04cd006b691f8b3","false","null","<span style=""color: red; font-size: 48px"">Error!</span>","null","","","","feedback","","","","","","","","","","","","","","","",""
"html-keyboard-response","146","378610","0.0-4.0-1.0-3.5","dckwzq4drwfsv9w","prime","5ecbc73afde495760c9ea423","5f60e3c0a3b16e07647b2ff9","5f638027b04cd006b691f8b3","false","null","<div style=""align-items: center; display: flex; color: darkorange; font-size: 90px""><b>ø</b></div>","null","","","","forget_cue","","","","","","","","","","","","","","","",""
"html-keyboard-response","147","379315","0.0-4.0-1.0-0.6","dckwzq4drwfsv9w","prime","5ecbc73afde495760c9ea423","5f60e3c0a3b16e07647b2ff9","5f638027b04cd006b691f8b3","false","null","<span style=""color: black; font-size: 48px"">N + M</span>","null","","","","resp_prompt","","","","","","","","","","","","","","","",""
"categorize-image","148","380384","0.0-4.0-1.0-1.6","dckwzq4drwfsv9w","prime","5ecbc73afde495760c9ea423","5f60e3c0a3b16e07647b2ff9","5f638027b04cd006b691f8b3","true","1065.205000000773","./Stimuli/SelectedImages/SN/SN111.bmp","76","","","","test","false","N + M","83","repetition","SN","SN111.bmp","remember","","55","3","prime1","right","","","",""
"html-keyboard-response","149","380887","0.0-4.0-1.0-2.6-0.6","dckwzq4drwfsv9w","prime","5ecbc73afde495760c9ea423","5f60e3c0a3b16e07647b2ff9","5f638027b04cd006b691f8b3","false","null","<span style=""color: red; font-size: 48px"">Error!</span>","null","","","","feedback","","","","","","","","","","","","","","","",""
"html-keyboard-response","150","382889","0.0-4.0-1.0-3.6","dckwzq4drwfsv9w","prime","5ecbc73afde495760c9ea423","5f60e3c0a3b16e07647b2ff9","5f638027b04cd006b691f8b3","false","null","<div style=""align-items: center; display: flex; color: dodgerblue; font-size: 90px""><b>o</b></div>","null","","","","forget_cue","","","","","","","","","","","","","","","",""
"html-keyboard-response","151","383595","0.0-4.0-1.0-0.7","dckwzq4drwfsv9w","prime","5ecbc73afde495760c9ea423","5f60e3c0a3b16e07647b2ff9","5f638027b04cd006b691f8b3","false","null","<span style=""color: black; font-size: 48px"">M + N</span>","null","","","","resp_prompt","","","","","","","","","","","","","","","",""
"categorize-image","152","383978","0.0-4.0-1.0-1.7","dckwzq4drwfsv9w","prime","5ecbc73afde495760c9ea423","5f60e3c0a3b16e07647b2ff9","5f638027b04cd006b691f8b3","true","379.3499999992782","./Stimuli/SelectedImages/LM/LM100.bmp","76","","","","test","false","M + N","83","repetition","LM","LM100.bmp","remember","","56","3","prime1","right","","","",""
"html-keyboard-response","153","384481","0.0-4.0-1.0-2.7-0.7","dckwzq4drwfsv9w","prime","5ecbc73afde495760c9ea423","5f60e3c0a3b16e07647b2ff9","5f638027b04cd006b691f8b3","false","null","<span style=""color: red; font-size: 48px"">Error!</span>","null","","","","feedback","","","","","","","","","","","","","","","",""
"html-keyboard-response","154","386487","0.0-4.0-1.0-3.7","dckwzq4drwfsv9w","prime","5ecbc73afde495760c9ea423","5f60e3c0a3b16e07647b2ff9","5f638027b04cd006b691f8b3","false","null","<div style=""align-items: center; display: flex; color: dodgerblue; font-size: 90px""><b>o</b></div>","null","","","","forget_cue","","","","","","","","","","","","","","","",""
"html-keyboard-response","155","387189","0.0-4.0-1.0-0.8","dckwzq4drwfsv9w","prime","5ecbc73afde495760c9ea423","5f60e3c0a3b16e07647b2ff9","5f638027b04cd006b691f8b3","false","null","<span style=""color: black; font-size: 48px"">N + M</span>","null","","","","resp_prompt","","","","","","","","","","","","","","","",""
"categorize-image","156","387983","0.0-4.0-1.0-1.8","dckwzq4drwfsv9w","prime","5ecbc73afde495760c9ea423","5f60e3c0a3b16e07647b2ff9","5f638027b04cd006b691f8b3","true","790.7500000001164","./Stimuli/SelectedImages/SM/SM205.bmp","83","","","","test","false","N + M","76","switch","SM","SM205.bmp","forget","","57","3","prime1","left","","","",""
"html-keyboard-response","157","388484","0.0-4.0-1.0-2.8-0.8","dckwzq4drwfsv9w","prime","5ecbc73afde495760c9ea423","5f60e3c0a3b16e07647b2ff9","5f638027b04cd006b691f8b3","false","null","<span style=""color: red; font-size: 48px"">Error!</span>","null","","","","feedback","","","","","","","","","","","","","","","",""
"html-keyboard-response","158","390488","0.0-4.0-1.0-3.8","dckwzq4drwfsv9w","prime","5ecbc73afde495760c9ea423","5f60e3c0a3b16e07647b2ff9","5f638027b04cd006b691f8b3","false","null","<div style=""align-items: center; display: flex; color: darkorange; font-size: 90px""><b>ø</b></div>","null","","","","forget_cue","","","","","","","","","","","","","","","",""
"html-keyboard-response","159","391193","0.0-4.0-1.0-0.9","dckwzq4drwfsv9w","prime","5ecbc73afde495760c9ea423","5f60e3c0a3b16e07647b2ff9","5f638027b04cd006b691f8b3","false","null","<span style=""color: black; font-size: 48px"">N + M</span>","null","","","","resp_prompt","","","","","","","","","","","","","","","",""
"categorize-image","160","392535","0.0-4.0-1.0-1.9","dckwzq4drwfsv9w","prime","5ecbc73afde495760c9ea423","5f60e3c0a3b16e07647b2ff9","5f638027b04cd006b691f8b3","true","1338.714999999851","./Stimuli/SelectedImages/SM/SM184.bmp","83","","","","test","false","N + M","76","repetition","SM","SM184.bmp","remember","","58","3","prime1","left","","","",""
"html-keyboard-response","161","393037","0.0-4.0-1.0-2.9-0.9","dckwzq4drwfsv9w","prime","5ecbc73afde495760c9ea423","5f60e3c0a3b16e07647b2ff9","5f638027b04cd006b691f8b3","false","null","<span style=""color: red; font-size: 48px"">Error!</span>","null","","","","feedback","","","","","","","","","","","","","","","",""
"html-keyboard-response","162","395038","0.0-4.0-1.0-3.9","dckwzq4drwfsv9w","prime","5ecbc73afde495760c9ea423","5f60e3c0a3b16e07647b2ff9","5f638027b04cd006b691f8b3","false","null","<div style=""align-items: center; display: flex; color: dodgerblue; font-size: 90px""><b>o</b></div>","null","","","","forget_cue","","","","","","","","","","","","","","","",""
"html-keyboard-response","163","395741","0.0-4.0-1.0-0.10","dckwzq4drwfsv9w","prime","5ecbc73afde495760c9ea423","5f60e3c0a3b16e07647b2ff9","5f638027b04cd006b691f8b3","false","null","<span style=""color: black; font-size: 48px"">N + M</span>","null","","","","resp_prompt","","","","","","","","","","","","","","","",""
"categorize-image","164","396492","0.0-4.0-1.0-1.10","dckwzq4drwfsv9w","prime","5ecbc73afde495760c9ea423","5f60e3c0a3b16e07647b2ff9","5f638027b04cd006b691f8b3","true","747.2149999994435","./Stimuli/SelectedImages/LM/LM75.bmp","76","","","","test","true","N + M","76","repetition","LM","LM75.bmp","remember","","59","3","prime1","right","","","",""
"html-keyboard-response","165","398496","0.0-4.0-1.0-3.10","dckwzq4drwfsv9w","prime","5ecbc73afde495760c9ea423","5f60e3c0a3b16e07647b2ff9","5f638027b04cd006b691f8b3","false","null","<div style=""align-items: center; display: flex; color: dodgerblue; font-size: 90px""><b>o</b></div>","null","","","","forget_cue","","","","","","","","","","","","","","","",""
"html-keyboard-response","166","399201","0.0-4.0-1.0-0.11","dckwzq4drwfsv9w","prime","5ecbc73afde495760c9ea423","5f60e3c0a3b16e07647b2ff9","5f638027b04cd006b691f8b3","false","null","<span style=""color: black; font-size: 48px"">M + N</span>","null","","","","resp_prompt","","","","","","","","","","","","","","","",""
"categorize-image","167","399892","0.0-4.0-1.0-1.11","dckwzq4drwfsv9w","prime","5ecbc73afde495760c9ea423","5f60e3c0a3b16e07647b2ff9","5f638027b04cd006b691f8b3","true","687.5200000012992","./Stimuli/SelectedImages/LN/LN101.bmp","83","","","","test","false","M + N","76","switch","LN","LN101.bmp","forget","","60","3","prime1","left","","","",""
"html-keyboard-response","168","400394","0.0-4.0-1.0-2.11-0.11","dckwzq4drwfsv9w","prime","5ecbc73afde495760c9ea423","5f60e3c0a3b16e07647b2ff9","5f638027b04cd006b691f8b3","false","null","<span style=""color: red; font-size: 48px"">Error!</span>","null","","","","feedback","","","","","","","","","","","","","","","",""
"html-keyboard-response","169","402395","0.0-4.0-1.0-3.11","dckwzq4drwfsv9w","prime","5ecbc73afde495760c9ea423","5f60e3c0a3b16e07647b2ff9","5f638027b04cd006b691f8b3","false","null","<div style=""align-items: center; display: flex; color: darkorange; font-size: 90px""><b>ø</b></div>","null","","","","forget_cue","","","","","","","","","","","","","","","",""
"html-keyboard-response","170","403098","0.0-4.0-1.0-0.12","dckwzq4drwfsv9w","prime","5ecbc73afde495760c9ea423","5f60e3c0a3b16e07647b2ff9","5f638027b04cd006b691f8b3","false","null","<span style=""color: black; font-size: 48px"">M + N</span>","null","","","","resp_prompt","","","","","","","","","","","","","","","",""
"categorize-image","171","404423","0.0-4.0-1.0-1.12","dckwzq4drwfsv9w","prime","5ecbc73afde495760c9ea423","5f60e3c0a3b16e07647b2ff9","5f638027b04cd006b691f8b3","true","1321.429999999993","./Stimuli/SelectedImages/SN/SN49.bmp","83","","","","test","false","M + N","76","switch","SN","SN49.bmp","remember","","61","3","prime1","left","","","",""
"html-keyboard-response","172","404926","0.0-4.0-1.0-2.12-0.12","dckwzq4drwfsv9w","prime","5ecbc73afde495760c9ea423","5f60e3c0a3b16e07647b2ff9","5f638027b04cd006b691f8b3","false","null","<span style=""color: red; font-size: 48px"">Error!</span>","null","","","","feedback","","","","","","","","","","","","","","","",""
"html-keyboard-response","173","406932","0.0-4.0-1.0-3.12","dckwzq4drwfsv9w","prime","5ecbc73afde495760c9ea423","5f60e3c0a3b16e07647b2ff9","5f638027b04cd006b691f8b3","false","null","<div style=""align-items: center; display: flex; color: dodgerblue; font-size: 90px""><b>o</b></div>","null","","","","forget_cue","","","","","","","","","","","","","","","",""
"html-keyboard-response","174","407636","0.0-4.0-1.0-0.13","dckwzq4drwfsv9w","prime","5ecbc73afde495760c9ea423","5f60e3c0a3b16e07647b2ff9","5f638027b04cd006b691f8b3","false","null","<span style=""color: black; font-size: 48px"">M + N</span>","null","","","","resp_prompt","","","","","","","","","","","","","","","",""
"categorize-image","175","408425","0.0-4.0-1.0-1.13","dckwzq4drwfsv9w","prime","5ecbc73afde495760c9ea423","5f60e3c0a3b16e07647b2ff9","5f638027b04cd006b691f8b3","true","785.0049999997136","./Stimuli/SelectedImages/LM/LM235.bmp","76","","","","test","false","M + N","83","switch","LM","LM235.bmp","forget","","62","3","prime1","right","","","",""
"html-keyboard-response","176","408926","0.0-4.0-1.0-2.13-0.13","dckwzq4drwfsv9w","prime","5ecbc73afde495760c9ea423","5f60e3c0a3b16e07647b2ff9","5f638027b04cd006b691f8b3","false","null","<span style=""color: red; font-size: 48px"">Error!</span>","null","","","","feedback","","","","","","","","","","","","","","","",""
"html-keyboard-response","177","410931","0.0-4.0-1.0-3.13","dckwzq4drwfsv9w","prime","5ecbc73afde495760c9ea423","5f60e3c0a3b16e07647b2ff9","5f638027b04cd006b691f8b3","false","null","<div style=""align-items: center; display: flex; color: darkorange; font-size: 90px""><b>ø</b></div>","null","","","","forget_cue","","","","","","","","","","","","","","","",""
"html-keyboard-response","178","411637","0.0-4.0-1.0-0.14","dckwzq4drwfsv9w","prime","5ecbc73afde495760c9ea423","5f60e3c0a3b16e07647b2ff9","5f638027b04cd006b691f8b3","false","null","<span style=""color: black; font-size: 48px"">N + M</span>","null","","","","resp_prompt","","","","","","","","","","","","","","","",""
"categorize-image","179","412043","0.0-4.0-1.0-1.14","dckwzq4drwfsv9w","prime","5ecbc73afde495760c9ea423","5f60e3c0a3b16e07647b2ff9","5f638027b04cd006b691f8b3","true","402.0000000000582","./Stimuli/SelectedImages/SM/SM200.bmp","76","","","","test","true","N + M","76","repetition","SM","SM200.bmp","forget","","63","3","prime1","right","","","",""
"html-keyboard-response","180","414049","0.0-4.0-1.0-3.14","dckwzq4drwfsv9w","prime","5ecbc73afde495760c9ea423","5f60e3c0a3b16e07647b2ff9","5f638027b04cd006b691f8b3","false","null","<div style=""align-items: center; display: flex; color: darkorange; font-size: 90px""><b>ø</b></div>","null","","","","forget_cue","","","","","","","","","","","","","","","",""
"html-keyboard-response","181","414751","0.0-4.0-1.0-0.15","dckwzq4drwfsv9w","prime","5ecbc73afde495760c9ea423","5f60e3c0a3b16e07647b2ff9","5f638027b04cd006b691f8b3","false","null","<span style=""color: black; font-size: 48px"">M + N</span>","null","","","","resp_prompt","","","","","","","","","","","","","","","",""
"categorize-image","182","415217","0.0-4.0-1.0-1.15","dckwzq4drwfsv9w","prime","5ecbc73afde495760c9ea423","5f60e3c0a3b16e07647b2ff9","5f638027b04cd006b691f8b3","true","462.534999998752","./Stimuli/SelectedImages/SM/SM17.bmp","76","","","","test","false","M + N","83","repetition","SM","SM17.bmp","remember","","64","3","prime1","right","","","",""
"html-keyboard-response","183","415720","0.0-4.0-1.0-2.15-0.15","dckwzq4drwfsv9w","prime","5ecbc73afde495760c9ea423","5f60e3c0a3b16e07647b2ff9","5f638027b04cd006b691f8b3","false","null","<span style=""color: red; font-size: 48px"">Error!</span>","null","","","","feedback","","","","","","","","","","","","","","","",""
"html-keyboard-response","184","417721","0.0-4.0-1.0-3.15","dckwzq4drwfsv9w","prime","5ecbc73afde495760c9ea423","5f60e3c0a3b16e07647b2ff9","5f638027b04cd006b691f8b3","false","null","<div style=""align-items: center; display: flex; color: dodgerblue; font-size: 90px""><b>o</b></div>","null","","","","forget_cue","","","","","","","","","","","","","","","",""
"html-keyboard-response","185","418423","0.0-4.0-1.0-0.16","dckwzq4drwfsv9w","prime","5ecbc73afde495760c9ea423","5f60e3c0a3b16e07647b2ff9","5f638027b04cd006b691f8b3","false","null","<span style=""color: black; font-size: 48px"">N + M</span>","null","","","","resp_prompt","","","","","","","","","","","","","","","",""
"categorize-image","186","419001","0.0-4.0-1.0-1.16","dckwzq4drwfsv9w","prime","5ecbc73afde495760c9ea423","5f60e3c0a3b16e07647b2ff9","5f638027b04cd006b691f8b3","true","573.6449999985634","./Stimuli/SelectedImages/SN/SN181.bmp","83","","","","test","true","N + M","83","repetition","SN","SN181.bmp","forget","","65","3","prime1","left","","","",""
"html-keyboard-response","187","421006","0.0-4.0-1.0-3.16","dckwzq4drwfsv9w","prime","5ecbc73afde495760c9ea423","5f60e3c0a3b16e07647b2ff9","5f638027b04cd006b691f8b3","false","null","<div style=""align-items: center; display: flex; color: darkorange; font-size: 90px""><b>ø</b></div>","null","","","","forget_cue","","","","","","","","","","","","","","","",""
"html-keyboard-response","188","421708","0.0-4.0-1.0-0.17","dckwzq4drwfsv9w","prime","5ecbc73afde495760c9ea423","5f60e3c0a3b16e07647b2ff9","5f638027b04cd006b691f8b3","false","null","<span style=""color: black; font-size: 48px"">M + N</span>","null","","","","resp_prompt","","","","","","","","","","","","","","","",""
"categorize-image","189","422426","0.0-4.0-1.0-1.17","dckwzq4drwfsv9w","prime","5ecbc73afde495760c9ea423","5f60e3c0a3b16e07647b2ff9","5f638027b04cd006b691f8b3","true","715.0299999993877","./Stimuli/SelectedImages/LN/LN131.bmp","83","","","","test","false","M + N","76","switch","LN","LN131.bmp","forget","","66","3","prime1","left","","","",""
"html-keyboard-response","190","422929","0.0-4.0-1.0-2.17-0.17","dckwzq4drwfsv9w","prime","5ecbc73afde495760c9ea423","5f60e3c0a3b16e07647b2ff9","5f638027b04cd006b691f8b3","false","null","<span style=""color: red; font-size: 48px"">Error!</span>","null","","","","feedback","","","","","","","","","","","","","","","",""
"html-keyboard-response","191","424932","0.0-4.0-1.0-3.17","dckwzq4drwfsv9w","prime","5ecbc73afde495760c9ea423","5f60e3c0a3b16e07647b2ff9","5f638027b04cd006b691f8b3","false","null","<div style=""align-items: center; display: flex; color: darkorange; font-size: 90px""><b>ø</b></div>","null","","","","forget_cue","","","","","","","","","","","","","","","",""
"html-keyboard-response","192","425636","0.0-4.0-1.0-0.18","dckwzq4drwfsv9w","prime","5ecbc73afde495760c9ea423","5f60e3c0a3b16e07647b2ff9","5f638027b04cd006b691f8b3","false","null","<span style=""color: black; font-size: 48px"">M + N</span>","null","","","","resp_prompt","","","","","","","","","","","","","","","",""
"categorize-image","193","426414","0.0-4.0-1.0-1.18","dckwzq4drwfsv9w","prime","5ecbc73afde495760c9ea423","5f60e3c0a3b16e07647b2ff9","5f638027b04cd006b691f8b3","true","775.1050000006217","./Stimuli/SelectedImages/SN/SN93.bmp","76","","","","test","true","M + N","76","repetition","SN","SN93.bmp","forget","","67","3","prime1","right","","","",""
"html-keyboard-response","194","428417","0.0-4.0-1.0-3.18","dckwzq4drwfsv9w","prime","5ecbc73afde495760c9ea423","5f60e3c0a3b16e07647b2ff9","5f638027b04cd006b691f8b3","false","null","<div style=""align-items: center; display: flex; color: darkorange; font-size: 90px""><b>ø</b></div>","null","","","","forget_cue","","","","","","","","","","","","","","","",""
"html-keyboard-response","195","429121","0.0-4.0-1.0-0.19","dckwzq4drwfsv9w","prime","5ecbc73afde495760c9ea423","5f60e3c0a3b16e07647b2ff9","5f638027b04cd006b691f8b3","false","null","<span style=""color: black; font-size: 48px"">M + N</span>","null","","","","resp_prompt","","","","","","","","","","","","","","","",""
"categorize-image","196","429704","0.0-4.0-1.0-1.19","dckwzq4drwfsv9w","prime","5ecbc73afde495760c9ea423","5f60e3c0a3b16e07647b2ff9","5f638027b04cd006b691f8b3","true","579.9600000009523","./Stimuli/SelectedImages/LM/LM129.bmp","76","","","","test","false","M + N","83","repetition","LM","LM129.bmp","forget","","68","3","prime1","right","","","",""
"html-keyboard-response","197","430207","0.0-4.0-1.0-2.19-0.19","dckwzq4drwfsv9w","prime","5ecbc73afde495760c9ea423","5f60e3c0a3b16e07647b2ff9","5f638027b04cd006b691f8b3","false","null","<span style=""color: red; font-size: 48px"">Error!</span>","null","","","","feedback","","","","","","","","","","","","","","","",""
"html-keyboard-response","198","432208","0.0-4.0-1.0-3.19","dckwzq4drwfsv9w","prime","5ecbc73afde495760c9ea423","5f60e3c0a3b16e07647b2ff9","5f638027b04cd006b691f8b3","false","null","<div style=""align-items: center; display: flex; color: darkorange; font-size: 90px""><b>ø</b></div>","null","","","","forget_cue","","","","","","","","","","","","","","","",""
"html-keyboard-response","199","432911","0.0-4.0-1.0-0.20","dckwzq4drwfsv9w","prime","5ecbc73afde495760c9ea423","5f60e3c0a3b16e07647b2ff9","5f638027b04cd006b691f8b3","false","null","<span style=""color: black; font-size: 48px"">N + M</span>","null","","","","resp_prompt","","","","","","","","","","","","","","","",""
"categorize-image","200","434086","0.0-4.0-1.0-1.20","dckwzq4drwfsv9w","prime","5ecbc73afde495760c9ea423","5f60e3c0a3b16e07647b2ff9","5f638027b04cd006b691f8b3","true","1171.184999999241","./Stimuli/SelectedImages/LN/LN92.bmp","83","","","","test","true","N + M","83","repetition","LN","LN92.bmp","remember","","69","3","prime1","left","","","",""
"html-keyboard-response","201","436088","0.0-4.0-1.0-3.20","dckwzq4drwfsv9w","prime","5ecbc73afde495760c9ea423","5f60e3c0a3b16e07647b2ff9","5f638027b04cd006b691f8b3","false","null","<div style=""align-items: center; display: flex; color: dodgerblue; font-size: 90px""><b>o</b></div>","null","","","","forget_cue","","","","","","","","","","","","","","","",""
"html-keyboard-response","202","436790","0.0-4.0-1.0-0.21","dckwzq4drwfsv9w","prime","5ecbc73afde495760c9ea423","5f60e3c0a3b16e07647b2ff9","5f638027b04cd006b691f8b3","false","null","<span style=""color: black; font-size: 48px"">N + M</span>","null","","","","resp_prompt","","","","","","","","","","","","","","","",""
"categorize-image","203","437652","0.0-4.0-1.0-1.21","dckwzq4drwfsv9w","prime","5ecbc73afde495760c9ea423","5f60e3c0a3b16e07647b2ff9","5f638027b04cd006b691f8b3","true","858.2249999999767","./Stimuli/SelectedImages/LN/LN177.bmp","83","","","","test","true","N + M","83","repetition","LN","LN177.bmp","remember","","70","3","prime1","left","","","",""
"html-keyboard-response","204","439654","0.0-4.0-1.0-3.21","dckwzq4drwfsv9w","prime","5ecbc73afde495760c9ea423","5f60e3c0a3b16e07647b2ff9","5f638027b04cd006b691f8b3","false","null","<div style=""align-items: center; display: flex; color: dodgerblue; font-size: 90px""><b>o</b></div>","null","","","","forget_cue","","","","","","","","","","","","","","","",""
"html-keyboard-response","205","440360","0.0-4.0-1.0-0.22","dckwzq4drwfsv9w","prime","5ecbc73afde495760c9ea423","5f60e3c0a3b16e07647b2ff9","5f638027b04cd006b691f8b3","false","null","<span style=""color: black; font-size: 48px"">M + N</span>","null","","","","resp_prompt","","","","","","","","","","","","","","","",""
"categorize-image","206","441449","0.0-4.0-1.0-1.22","dckwzq4drwfsv9w","prime","5ecbc73afde495760c9ea423","5f60e3c0a3b16e07647b2ff9","5f638027b04cd006b691f8b3","true","1085.3299999998417","./Stimuli/SelectedImages/LN/LN28.bmp","76","","","","test","true","M + N","76","repetition","LN","LN28.bmp","remember","","71","3","prime1","right","","","",""
"html-keyboard-response","207","443450","0.0-4.0-1.0-3.22","dckwzq4drwfsv9w","prime","5ecbc73afde495760c9ea423","5f60e3c0a3b16e07647b2ff9","5f638027b04cd006b691f8b3","false","null","<div style=""align-items: center; display: flex; color: dodgerblue; font-size: 90px""><b>o</b></div>","null","","","","forget_cue","","","","","","","","","","","","","","","",""
"html-keyboard-response","208","444156","0.0-4.0-1.0-0.23","dckwzq4drwfsv9w","prime","5ecbc73afde495760c9ea423","5f60e3c0a3b16e07647b2ff9","5f638027b04cd006b691f8b3","false","null","<span style=""color: black; font-size: 48px"">M + N</span>","null","","","","resp_prompt","","","","","","","","","","","","","","","",""
"categorize-image","209","445217","0.0-4.0-1.0-1.23","dckwzq4drwfsv9w","prime","5ecbc73afde495760c9ea423","5f60e3c0a3b16e07647b2ff9","5f638027b04cd006b691f8b3","true","1057.5800000005984","./Stimuli/SelectedImages/LM/LM157.bmp","83","","","","test","true","M + N","83","repetition","LM","LM157.bmp","remember","","72","3","prime1","left","","","",""
"html-keyboard-response","210","447221","0.0-4.0-1.0-3.23","dckwzq4drwfsv9w","prime","5ecbc73afde495760c9ea423","5f60e3c0a3b16e07647b2ff9","5f638027b04cd006b691f8b3","false","null","<div style=""align-items: center; display: flex; color: dodgerblue; font-size: 90px""><b>o</b></div>","null","","","","forget_cue","","","","","","","","","","","","","","","",""
"html-keyboard-response","211","447925","0.0-4.0-1.0-0.24","dckwzq4drwfsv9w","prime","5ecbc73afde495760c9ea423","5f60e3c0a3b16e07647b2ff9","5f638027b04cd006b691f8b3","false","null","<span style=""color: black; font-size: 48px"">N + M</span>","null","","","","resp_prompt","","","","","","","","","","","","","","","",""
"categorize-image","212","448737","0.0-4.0-1.0-1.24","dckwzq4drwfsv9w","prime","5ecbc73afde495760c9ea423","5f60e3c0a3b16e07647b2ff9","5f638027b04cd006b691f8b3","true","808.24500000017","./Stimuli/SelectedImages/SN/SN182.bmp","76","","","","test","false","N + M","83","repetition","SN","SN182.bmp","remember","","73","3","prime1","right","","","",""
"html-keyboard-response","213","449239","0.0-4.0-1.0-2.24-0.24","dckwzq4drwfsv9w","prime","5ecbc73afde495760c9ea423","5f60e3c0a3b16e07647b2ff9","5f638027b04cd006b691f8b3","false","null","<span style=""color: red; font-size: 48px"">Error!</span>","null","","","","feedback","","","","","","","","","","","","","","","",""
"html-keyboard-response","214","451242","0.0-4.0-1.0-3.24","dckwzq4drwfsv9w","prime","5ecbc73afde495760c9ea423","5f60e3c0a3b16e07647b2ff9","5f638027b04cd006b691f8b3","false","null","<div style=""align-items: center; display: flex; color: dodgerblue; font-size: 90px""><b>o</b></div>","null","","","","forget_cue","","","","","","","","","","","","","","","",""
"html-keyboard-response","215","451948","0.0-4.0-1.0-0.25","dckwzq4drwfsv9w","prime","5ecbc73afde495760c9ea423","5f60e3c0a3b16e07647b2ff9","5f638027b04cd006b691f8b3","false","null","<span style=""color: black; font-size: 48px"">M + N</span>","null","","","","resp_prompt","","","","","","","","","","","","","","","",""
"categorize-image","216","452641","0.0-4.0-1.0-1.25","dckwzq4drwfsv9w","prime","5ecbc73afde495760c9ea423","5f60e3c0a3b16e07647b2ff9","5f638027b04cd006b691f8b3","true","689.1199999991222","./Stimuli/SelectedImages/LN/LN149.bmp","83","","","","test","false","M + N","76","switch","LN","LN149.bmp","remember","","74","3","prime1","left","","","",""
"html-keyboard-response","217","453143","0.0-4.0-1.0-2.25-0.25","dckwzq4drwfsv9w","prime","5ecbc73afde495760c9ea423","5f60e3c0a3b16e07647b2ff9","5f638027b04cd006b691f8b3","false","null","<span style=""color: red; font-size: 48px"">Error!</span>","null","","","","feedback","","","","","","","","","","","","","","","",""
"html-keyboard-response","218","455149","0.0-4.0-1.0-3.25","dckwzq4drwfsv9w","prime","5ecbc73afde495760c9ea423","5f60e3c0a3b16e07647b2ff9","5f638027b04cd006b691f8b3","false","null","<div style=""align-items: center; display: flex; color: dodgerblue; font-size: 90px""><b>o</b></div>","null","","","","forget_cue","","","","","","","","","","","","","","","",""
"html-keyboard-response","219","455850","0.0-4.0-1.0-0.26","dckwzq4drwfsv9w","prime","5ecbc73afde495760c9ea423","5f60e3c0a3b16e07647b2ff9","5f638027b04cd006b691f8b3","false","null","<span style=""color: black; font-size: 48px"">N + M</span>","null","","","","resp_prompt","","","","","","","","","","","","","","","",""
"categorize-image","220","456768","0.0-4.0-1.0-1.26","dckwzq4drwfsv9w","prime","5ecbc73afde495760c9ea423","5f60e3c0a3b16e07647b2ff9","5f638027b04cd006b691f8b3","true","914.8150000001187","./Stimuli/SelectedImages/SM/SM74.bmp","76","","","","test","true","N + M","76","repetition","SM","SM74.bmp","forget","","75","3","prime1","right","","","",""
"html-keyboard-response","221","458774","0.0-4.0-1.0-3.26","dckwzq4drwfsv9w","prime","5ecbc73afde495760c9ea423","5f60e3c0a3b16e07647b2ff9","5f638027b04cd006b691f8b3","false","null","<div style=""align-items: center; display: flex; color: darkorange; font-size: 90px""><b>ø</b></div>","null","","","","forget_cue","","","","","","","","","","","","","","","",""
"html-keyboard-response","222","459480","0.0-4.0-1.0-0.27","dckwzq4drwfsv9w","prime","5ecbc73afde495760c9ea423","5f60e3c0a3b16e07647b2ff9","5f638027b04cd006b691f8b3","false","null","<span style=""color: black; font-size: 48px"">N + M</span>","null","","","","resp_prompt","","","","","","","","","","","","","","","",""
"categorize-image","223","460562","0.0-4.0-1.0-1.27","dckwzq4drwfsv9w","prime","5ecbc73afde495760c9ea423","5f60e3c0a3b16e07647b2ff9","5f638027b04cd006b691f8b3","true","1078.7199999995064","./Stimuli/SelectedImages/LM/LM58.bmp","76","","","","test","true","N + M","76","switch","LM","LM58.bmp","remember","","76","3","prime1","right","","","",""
"html-keyboard-response","224","462568","0.0-4.0-1.0-3.27","dckwzq4drwfsv9w","prime","5ecbc73afde495760c9ea423","5f60e3c0a3b16e07647b2ff9","5f638027b04cd006b691f8b3","false","null","<div style=""align-items: center; display: flex; color: dodgerblue; font-size: 90px""><b>o</b></div>","null","","","","forget_cue","","","","","","","","","","","","","","","",""
"html-keyboard-response","225","463274","0.0-4.0-1.0-0.28","dckwzq4drwfsv9w","prime","5ecbc73afde495760c9ea423","5f60e3c0a3b16e07647b2ff9","5f638027b04cd006b691f8b3","false","null","<span style=""color: black; font-size: 48px"">N + M</span>","null","","","","resp_prompt","","","","","","","","","","","","","","","",""
"categorize-image","226","464040","0.0-4.0-1.0-1.28","dckwzq4drwfsv9w","prime","5ecbc73afde495760c9ea423","5f60e3c0a3b16e07647b2ff9","5f638027b04cd006b691f8b3","true","762.7649999994901","./Stimuli/SelectedImages/SM/SM106.bmp","76","","","","test","true","N + M","76","switch","SM","SM106.bmp","remember","","77","3","prime1","right","","","",""
"html-keyboard-response","227","466045","0.0-4.0-1.0-3.28","dckwzq4drwfsv9w","prime","5ecbc73afde495760c9ea423","5f60e3c0a3b16e07647b2ff9","5f638027b04cd006b691f8b3","false","null","<div style=""align-items: center; display: flex; color: dodgerblue; font-size: 90px""><b>o</b></div>","null","","","","forget_cue","","","","","","","","","","","","","","","",""
"html-keyboard-response","228","466751","0.0-4.0-1.0-0.29","dckwzq4drwfsv9w","prime","5ecbc73afde495760c9ea423","5f60e3c0a3b16e07647b2ff9","5f638027b04cd006b691f8b3","false","null","<span style=""color: black; font-size: 48px"">M + N</span>","null","","","","resp_prompt","","","","","","","","","","","","","","","",""
"categorize-image","229","467798","0.0-4.0-1.0-1.29","dckwzq4drwfsv9w","prime","5ecbc73afde495760c9ea423","5f60e3c0a3b16e07647b2ff9","5f638027b04cd006b691f8b3","true","1042.9700000004377","./Stimuli/SelectedImages/SN/SN155.bmp","83","","","","test","false","M + N","76","repetition","SN","SN155.bmp","remember","","78","3","prime1","left","","","",""
"html-keyboard-response","230","468299","0.0-4.0-1.0-2.29-0.29","dckwzq4drwfsv9w","prime","5ecbc73afde495760c9ea423","5f60e3c0a3b16e07647b2ff9","5f638027b04cd006b691f8b3","false","null","<span style=""color: red; font-size: 48px"">Error!</span>","null","","","","feedback","","","","","","","","","","","","","","","",""
"html-keyboard-response","231","470305","0.0-4.0-1.0-3.29","dckwzq4drwfsv9w","prime","5ecbc73afde495760c9ea423","5f60e3c0a3b16e07647b2ff9","5f638027b04cd006b691f8b3","false","null","<div style=""align-items: center; display: flex; color: dodgerblue; font-size: 90px""><b>o</b></div>","null","","","","forget_cue","","","","","","","","","","","","","","","",""
"html-keyboard-response","232","471011","0.0-4.0-1.0-0.30","dckwzq4drwfsv9w","prime","5ecbc73afde495760c9ea423","5f60e3c0a3b16e07647b2ff9","5f638027b04cd006b691f8b3","false","null","<span style=""color: black; font-size: 48px"">M + N</span>","null","","","","resp_prompt","","","","","","","","","","","","","","","",""
"categorize-image","233","471913","0.0-4.0-1.0-1.30","dckwzq4drwfsv9w","prime","5ecbc73afde495760c9ea423","5f60e3c0a3b16e07647b2ff9","5f638027b04cd006b691f8b3","true","898.0099999989616","./Stimuli/SelectedImages/LM/LM51.bmp","76","","","","test","false","M + N","83","switch","LM","LM51.bmp","forget","","79","3","prime1","right","","","",""
"html-keyboard-response","234","472416","0.0-4.0-1.0-2.30-0.30","dckwzq4drwfsv9w","prime","5ecbc73afde495760c9ea423","5f60e3c0a3b16e07647b2ff9","5f638027b04cd006b691f8b3","false","null","<span style=""color: red; font-size: 48px"">Error!</span>","null","","","","feedback","","","","","","","","","","","","","","","",""
"html-keyboard-response","235","474422","0.0-4.0-1.0-3.30","dckwzq4drwfsv9w","prime","5ecbc73afde495760c9ea423","5f60e3c0a3b16e07647b2ff9","5f638027b04cd006b691f8b3","false","null","<div style=""align-items: center; display: flex; color: darkorange; font-size: 90px""><b>ø</b></div>","null","","","","forget_cue","","","","","","","","","","","","","","","",""
"html-keyboard-response","236","475128","0.0-4.0-1.0-0.31","dckwzq4drwfsv9w","prime","5ecbc73afde495760c9ea423","5f60e3c0a3b16e07647b2ff9","5f638027b04cd006b691f8b3","false","null","<span style=""color: black; font-size: 48px"">N + M</span>","null","","","","resp_prompt","","","","","","","","","","","","","","","",""
"categorize-image","237","475939","0.0-4.0-1.0-1.31","dckwzq4drwfsv9w","prime","5ecbc73afde495760c9ea423","5f60e3c0a3b16e07647b2ff9","5f638027b04cd006b691f8b3","true","807.015000000305","./Stimuli/SelectedImages/SN/SN52.bmp","76","","","","test","false","N + M","83","switch","SN","SN52.bmp","remember","","80","3","prime1","right","","","",""
"html-keyboard-response","238","476440","0.0-4.0-1.0-2.31-0.31","dckwzq4drwfsv9w","prime","5ecbc73afde495760c9ea423","5f60e3c0a3b16e07647b2ff9","5f638027b04cd006b691f8b3","false","null","<span style=""color: red; font-size: 48px"">Error!</span>","null","","","","feedback","","","","","","","","","","","","","","","",""
"html-keyboard-response","239","478443","0.0-4.0-1.0-3.31","dckwzq4drwfsv9w","prime","5ecbc73afde495760c9ea423","5f60e3c0a3b16e07647b2ff9","5f638027b04cd006b691f8b3","false","null","<div style=""align-items: center; display: flex; color: dodgerblue; font-size: 90px""><b>o</b></div>","null","","","","forget_cue","","","","","","","","","","","","","","","",""
"html-keyboard-response","240","479144","0.0-4.0-1.0-0.32","dckwzq4drwfsv9w","prime","5ecbc73afde495760c9ea423","5f60e3c0a3b16e07647b2ff9","5f638027b04cd006b691f8b3","false","null","<span style=""color: black; font-size: 48px"">M + N</span>","null","","","","resp_prompt","","","","","","","","","","","","","","","",""
"categorize-image","241","480480","0.0-4.0-1.0-1.32","dckwzq4drwfsv9w","prime","5ecbc73afde495760c9ea423","5f60e3c0a3b16e07647b2ff9","5f638027b04cd006b691f8b3","true","1332.4599999996135","./Stimuli/SelectedImages/LN/LN13.bmp","76","","","","test","true","M + N","76","repetition","LN","LN13.bmp","remember","","81","3","prime1","right","","","",""
"html-keyboard-response","242","482483","0.0-4.0-1.0-3.32","dckwzq4drwfsv9w","prime","5ecbc73afde495760c9ea423","5f60e3c0a3b16e07647b2ff9","5f638027b04cd006b691f8b3","false","null","<div style=""align-items: center; display: flex; color: dodgerblue; font-size: 90px""><b>o</b></div>","null","","","","forget_cue","","","","","","","","","","","","","","","",""
"html-keyboard-response","243","483185","0.0-4.0-1.0-0.33","dckwzq4drwfsv9w","prime","5ecbc73afde495760c9ea423","5f60e3c0a3b16e07647b2ff9","5f638027b04cd006b691f8b3","false","null","<span style=""color: black; font-size: 48px"">M + N</span>","null","","","","resp_prompt","","","","","","","","","","","","","","","",""
"categorize-image","244","484272","0.0-4.0-1.0-1.33","dckwzq4drwfsv9w","prime","5ecbc73afde495760c9ea423","5f60e3c0a3b16e07647b2ff9","5f638027b04cd006b691f8b3","true","1083.05499999912","./Stimuli/SelectedImages/SM/SM24.bmp","83","","","","test","true","M + N","83","repetition","SM","SM24.bmp","forget","","82","3","prime1","left","","","",""
"html-keyboard-response","245","486278","0.0-4.0-1.0-3.33","dckwzq4drwfsv9w","prime","5ecbc73afde495760c9ea423","5f60e3c0a3b16e07647b2ff9","5f638027b04cd006b691f8b3","false","null","<div style=""align-items: center; display: flex; color: darkorange; font-size: 90px""><b>ø</b></div>","null","","","","forget_cue","","","","","","","","","","","","","","","",""
"html-keyboard-response","246","486984","0.0-4.0-1.0-0.34","dckwzq4drwfsv9w","prime","5ecbc73afde495760c9ea423","5f60e3c0a3b16e07647b2ff9","5f638027b04cd006b691f8b3","false","null","<span style=""color: black; font-size: 48px"">M + N</span>","null","","","","resp_prompt","","","","","","","","","","","","","","","",""
"categorize-image","247","487777","0.0-4.0-1.0-1.34","dckwzq4drwfsv9w","prime","5ecbc73afde495760c9ea423","5f60e3c0a3b16e07647b2ff9","5f638027b04cd006b691f8b3","true","788.7949999985285","./Stimuli/SelectedImages/SM/SM148.bmp","83","","","","test","true","M + N","83","repetition","SM","SM148.bmp","remember","","83","3","prime1","left","","","",""
"html-keyboard-response","248","489778","0.0-4.0-1.0-3.34","dckwzq4drwfsv9w","prime","5ecbc73afde495760c9ea423","5f60e3c0a3b16e07647b2ff9","5f638027b04cd006b691f8b3","false","null","<div style=""align-items: center; display: flex; color: dodgerblue; font-size: 90px""><b>o</b></div>","null","","","","forget_cue","","","","","","","","","","","","","","","",""
"html-keyboard-response","249","490480","0.0-4.0-1.0-0.35","dckwzq4drwfsv9w","prime","5ecbc73afde495760c9ea423","5f60e3c0a3b16e07647b2ff9","5f638027b04cd006b691f8b3","false","null","<span style=""color: black; font-size: 48px"">N + M</span>","null","","","","resp_prompt","","","","","","","","","","","","","","","",""
"categorize-image","250","491310","0.0-4.0-1.0-1.35","dckwzq4drwfsv9w","prime","5ecbc73afde495760c9ea423","5f60e3c0a3b16e07647b2ff9","5f638027b04cd006b691f8b3","true","826.5250000004307","./Stimuli/SelectedImages/SN/SN128.bmp","76","","","","test","false","N + M","83","switch","SN","SN128.bmp","forget","","84","3","prime1","right","","","",""
"html-keyboard-response","251","491813","0.0-4.0-1.0-2.35-0.35","dckwzq4drwfsv9w","prime","5ecbc73afde495760c9ea423","5f60e3c0a3b16e07647b2ff9","5f638027b04cd006b691f8b3","false","null","<span style=""color: red; font-size: 48px"">Error!</span>","null","","","","feedback","","","","","","","","","","","","","","","",""
"html-keyboard-response","252","493819","0.0-4.0-1.0-3.35","dckwzq4drwfsv9w","prime","5ecbc73afde495760c9ea423","5f60e3c0a3b16e07647b2ff9","5f638027b04cd006b691f8b3","false","null","<div style=""align-items: center; display: flex; color: darkorange; font-size: 90px""><b>ø</b></div>","null","","","","forget_cue","","","","","","","","","","","","","","","",""
"html-keyboard-response","253","494525","0.0-4.0-1.0-0.36","dckwzq4drwfsv9w","prime","5ecbc73afde495760c9ea423","5f60e3c0a3b16e07647b2ff9","5f638027b04cd006b691f8b3","false","null","<span style=""color: black; font-size: 48px"">M + N</span>","null","","","","resp_prompt","","","","","","","","","","","","","","","",""
"categorize-image","254","495461","0.0-4.0-1.0-1.36","dckwzq4drwfsv9w","prime","5ecbc73afde495760c9ea423","5f60e3c0a3b16e07647b2ff9","5f638027b04cd006b691f8b3","true","933.3050000005169","./Stimuli/SelectedImages/SN/SN60.bmp","83","","","","test","false","M + N","76","switch","SN","SN60.bmp","remember","","85","3","prime1","left","","","",""
