"trial_type","trial_index","time_elapsed","internal_node_id","subject","exp_part","prolific_PID","study_ID","session_ID","use","rt","stimulus","key_press","button_pressed","responses","question_order","trial_part","correct","resp_map","correct_resp","probe_condition","category","image","forget_condition","list","trial_num","block_num","block","response","test_part","n_span","sequence","num_spaces"
"pavlovia","0","5","0.0-0.0","pr57vemnaupfq4v","","5ea300a5733c8107ec2478a3","5f60e3c0a3b16e07647b2ff9","5f61dc2c01d085184886c24a","false","","","","","","","","","","","","","","","","","","","","","","",""
"html-keyboard-response","1","7666","0.0-1.0-0.0-0.0","pr57vemnaupfq4v","welcome","5ea300a5733c8107ec2478a3","5f60e3c0a3b16e07647b2ff9","5f61dc2c01d085184886c24a","false","7658.390000000509","<div align=left>Dear participant, <br> thank you for participating in an online study of the Cognition, Action, and Sustainability Unit of the University of Freiburg! <br> <br>The aim of this study is to examine our ability to remember previously learned information. <br>Our goal is to find out, whether our memory improves, when we only remember information that is relevant to us. <br>The experiment will take about 35 minutes to complete. <br> <br>Please, note that you can only participate in this study if you are using a device with a keyboard (PC, Laptop etc.) <br>and not if you are using a mobile device such as a tablet or smartphone.<br> <br>Press 'SPACE' to proceed to the experiment. </div>","32","","","","","","","","","","","","","","","","","","","",""
"html-keyboard-response","2","15033","0.0-1.0-0.0-1.0","pr57vemnaupfq4v","welcome","5ea300a5733c8107ec2478a3","5f60e3c0a3b16e07647b2ff9","5f61dc2c01d085184886c24a","false","7364.620000000286","<div align=left><strong> Time Course of this experiment: </strong> <br><br> <strong> 1.</strong>  First, please fill in some information regarding your demographic data. <br><br> <strong> 2.</strong>  Next, your task will be to classify everyday objects. <br>In addition, you will be asked to remember certain objects and recall them later. <br>Working on these tasks requires your undivided attention and concentration.<br>It is therefore essential that you eliminate any sources of distraction in your  <br>environment and ensure that you will not be disturbed. <br><br><strong> 3.</strong>  At the end of the experiment, you will be asked to answer a few additional questions. <br> <br><strong> Important:</strong> After finishing the experiment, only close the browser window <br> by clicking on the 'end the experiment'-button when you are asked to do so. <br>Closing the browser window prematurely will make the allocation of your participation credit impossible. <br><br> Press 'SPACE' to start the experiment. </div>","32","","","","","","","","","","","","","","","","","","","",""
"html-button-response","3","17277","0.0-1.0-0.0-2.0","pr57vemnaupfq4v","welcome","5ea300a5733c8107ec2478a3","5f60e3c0a3b16e07647b2ff9","5f61dc2c01d085184886c24a","true","2241.2999999996828","<div align=left><strong> Informed consent </strong>  <br>The aim of our research is to better understand human behavior and mental processes. <br>In the following study your behavior (e.g. choices, reaction times) will be studied. <br> <br><strong> Voluntariness and Anonymity </strong> <br>Your participation in this study is  <strong> voluntary</strong>.<br>You may withdraw your consent to participate at any time without providing a reason for doing so and without fear of prejudice. <br><br>As no personal data will be collected, <strong>your data and your person cannot be connected after data collection</strong> – the data-set is anonymous. <br>Respectively, deletion of your data will not be possible after data collection has been completed, as we cannot retrace your data-set.<br>The results and anonymized data collected in this study will be published as a scientific publication. <br>This will happen in an <strong>anonymized format</strong>, so that no data can be traced back to a specific person. <br> <br>The anonymized data of this study will be made available to other researchers and/or in a data archive on the Internet as a means of transparency and to enable subsequent re-use. By doing so, this study follows the recommendations of the Deutsche Forschungsgemeinschaft (DFG, German Research Foundation) and Deutsche Gesellschaft für Psychologie (DGPS, German Psychological Society) regarding quality assurance in research.<br>If you have any questions now or after the experiment, please contact our team (experiments@cs.uni-freiburg.de).<br><br><br>I hereby declare, that I understand the above described conditions of participation and I agree to participate under these conditions. <br><br> </div>","","0","","","","","","","","","","","","","","","","","","",""
"html-keyboard-response","4","22109","0.0-1.0-0.0-3.0","pr57vemnaupfq4v","welcome","5ea300a5733c8107ec2478a3","5f60e3c0a3b16e07647b2ff9","5f61dc2c01d085184886c24a","false","4829.455000000053","<div align=left><strong> General information concerning the experiment </strong>  <br> <br>Please follow the instructions:<ol> <li><strong> Do not leave this tab (your browser window) during the experiment and do not reload this tab! </strong>  <br>If you do switch tabs/windows during the experiment (to check your mail or visit another website, for example), <br>the experiment will end automatically and you will <strong>not receive credit</strong> for your participation. <br>Repeated participation or resumption of the experiment is impossible.</li> <br><li>Please close all other programs for the duration of your participation. </li> <br><li>Please mute or turn off your phone and put it out of your reach. </li> <br><li>Please also take off any disturbing accessories (such as wristwatches, bracelets, etc.). </li> <br><li>If you have music playing in the background, please turn it off now. </li> <br></ol>Thank you! <br>Press 'SPACE' to continue. </div>","32","","","","","","","","","","","","","","","","","","","",""
"survey-text","5","24708","0.0-1.0-1.0-0.0","pr57vemnaupfq4v","demographics","5ea300a5733c8107ec2478a3","5f60e3c0a3b16e07647b2ff9","5f61dc2c01d085184886c24a","true","2594.145000000026","","","","{""age"":""23""}","","","","","","","","","","","","","","","","","",""
"survey-multi-choice","6","43620","0.0-1.0-1.0-1.0","pr57vemnaupfq4v","demographics","5ea300a5733c8107ec2478a3","5f60e3c0a3b16e07647b2ff9","5f61dc2c01d085184886c24a","true","18908.214999999473","","","","{""gender"":""female"",""school"":""high school"",""education"":""Completed university degree or equivalent""}","[0,1,2]","","","","","","","","","","","","","","","","",""
"html-keyboard-response","7","45458","0.0-1.0-2.0","pr57vemnaupfq4v","instructions","5ea300a5733c8107ec2478a3","5f60e3c0a3b16e07647b2ff9","5f61dc2c01d085184886c24a","false","1834.925000000112","<div align=left> The experiment is now about to start: <br> <br>In the following part, you will be presented pictures of everyday objects. <br>Your first task is to <strong>classify these objects. </strong> <br> <br> You will classify them either as mechanical or non-mechanical objects. <br> <br>Objects that include any kind of technical mechanism (for example, wheels, switches, levers, <br> electronic components) fall under the category of <strong>mechanical</strong> objects. <br>Only objects without any kind of technical mechanism should be classified as <strong>non-mechanical</strong>. <br><br>Press 'SPACE' to continue. </div>","32","","","","","","","","","","","","","","","","","","","",""
"html-keyboard-response","8","72372","0.0-2.0-0.0","pr57vemnaupfq4v","instructions","5ea300a5733c8107ec2478a3","5f60e3c0a3b16e07647b2ff9","5f61dc2c01d085184886c24a","false","26911.88500000043","<div align=justify>You will classify the objects using the <strong>'S'</strong> and the <strong>'L'</strong> keys on your keyboard.<br>For doing so, please place your <strong>left index finger</strong> on the <strong>'S'</strong> key and place your <strong>right index finger</strong> on the <strong>'L'</strong> key. <br><br> Each trial starts with an instruction, indicating which key ('S'/'L') you need to press to classify <br>the object as mechanical (letter M) or non-mechanical (letter N).<br>The instruction <strong>M + N</strong> indicates that, in the current trial, by pressing the left key ('S') you classify the displayed object as mechanical (M) <br> and by pressing the right key ('L') you classify the object as non-mechanical (N). <br>The instruction <strong>N + M</strong> on the other hand indicates that by pressing the left key ('S') you classify the displayed object as non-mechanical (N) <br> and by pressing the right key ('L') you classify the object as mechanical (M). <br><br>Please press the key corresponding to the correct classification as fast as possible as soon as the object is displayed and try to avoid making mistakes.<br>If you do not respond within a 2 second window, a corresponding feedback will be displayed and the next trial will start.<br> The experiment is divided into multiple blocks to give you the opportunity to take a break after each block. <br>First, you can now practice this task. <br><br>Please place your <strong>LEFT INDEX FINGER</strong> on the 'S' key and your <strong>RIGHT INDEX FINGER</strong> on the 'L' key now. <br><br>Press SPACE to continue.</div>","32","","","","","","","","","","","","","","","","","","","",""
"html-keyboard-response","9","78559","0.0-2.0-1.0","pr57vemnaupfq4v","instructions","5ea300a5733c8107ec2478a3","5f60e3c0a3b16e07647b2ff9","5f61dc2c01d085184886c24a","false","6185.720000000394","<div align=left> You will now have time to practice this task.<br><br>Remember: <br> <br><li>Please place your index fingers on the <strong>'S'</strong> and <strong>'L'</strong> keys <br>to respond as fast and accurately as possible.</li><li>Every picture can be classified as either mechanical or non-mechanical.</li><li>If you do not respond in time or commit an error, you will receive a corresponding feedback. </li><li> Please try to respond as <strong> fast </strong> and as <strong> accurately as possible </strong> .<br><li>To ensure optimal results, please minimize distractions and stay focused. </li><br><br>Press SPACE to continue.</div>","32","","","","","","","","","","","","","","","","","","","",""
"html-keyboard-response","10","79265","0.0-2.0-2.0-0.0","pr57vemnaupfq4v","practice_no_cue","5ea300a5733c8107ec2478a3","5f60e3c0a3b16e07647b2ff9","5f61dc2c01d085184886c24a","false","null","<span style=""color: black; font-size: 48px"">N + M</span>","null","","","","resp_prompt","","","","","","","","","","","","","","","",""
"categorize-image","11","81775","0.0-2.0-2.0-1.0","pr57vemnaupfq4v","practice_no_cue","5ea300a5733c8107ec2478a3","5f60e3c0a3b16e07647b2ff9","5f61dc2c01d085184886c24a","true","null","./Stimuli/ImagesPractice/LM55.jpg","null","","","","test","false","N + M","76","","LM","LM55.jpg","forget","old","1","1","start","too_slow","","","",""
"html-keyboard-response","12","82481","0.0-2.0-2.0-0.1","pr57vemnaupfq4v","practice_no_cue","5ea300a5733c8107ec2478a3","5f60e3c0a3b16e07647b2ff9","5f61dc2c01d085184886c24a","false","null","<span style=""color: black; font-size: 48px"">M + N</span>","null","","","","resp_prompt","","","","","","","","","","","","","","","",""
"categorize-image","13","83998","0.0-2.0-2.0-1.1","pr57vemnaupfq4v","practice_no_cue","5ea300a5733c8107ec2478a3","5f60e3c0a3b16e07647b2ff9","5f61dc2c01d085184886c24a","true","1014.3850000004022","./Stimuli/ImagesPractice/SM98.jpg","76","","","","test","false","M + N","83","","SM","SM98.jpg","forget","old","2","1","start","right","","","",""
"html-keyboard-response","14","84704","0.0-2.0-2.0-0.2","pr57vemnaupfq4v","practice_no_cue","5ea300a5733c8107ec2478a3","5f60e3c0a3b16e07647b2ff9","5f61dc2c01d085184886c24a","false","null","<span style=""color: black; font-size: 48px"">M + N</span>","null","","","","resp_prompt","","","","","","","","","","","","","","","",""
"categorize-image","15","86092","0.0-2.0-2.0-1.2","pr57vemnaupfq4v","practice_no_cue","5ea300a5733c8107ec2478a3","5f60e3c0a3b16e07647b2ff9","5f61dc2c01d085184886c24a","true","884.7650000007125","./Stimuli/ImagesPractice/LN2.jpg","83","","","","test","false","M + N","76","","LN","LN2.jpg","remember","old","3","1","start","left","","","",""
"html-keyboard-response","16","86797","0.0-2.0-2.0-0.3","pr57vemnaupfq4v","practice_no_cue","5ea300a5733c8107ec2478a3","5f60e3c0a3b16e07647b2ff9","5f61dc2c01d085184886c24a","false","null","<span style=""color: black; font-size: 48px"">N + M</span>","null","","","","resp_prompt","","","","","","","","","","","","","","","",""
"categorize-image","17","88209","0.0-2.0-2.0-1.3","pr57vemnaupfq4v","practice_no_cue","5ea300a5733c8107ec2478a3","5f60e3c0a3b16e07647b2ff9","5f61dc2c01d085184886c24a","true","909.3349999993807","./Stimuli/ImagesPractice/LM239.jpg","83","","","","test","false","N + M","76","","LM","LM239.jpg","forget","old","4","1","start","left","","","",""
"html-keyboard-response","18","88914","0.0-2.0-2.0-0.4","pr57vemnaupfq4v","practice_no_cue","5ea300a5733c8107ec2478a3","5f60e3c0a3b16e07647b2ff9","5f61dc2c01d085184886c24a","false","null","<span style=""color: black; font-size: 48px"">M + N</span>","null","","","","resp_prompt","","","","","","","","","","","","","","","",""
"categorize-image","19","90412","0.0-2.0-2.0-1.4","pr57vemnaupfq4v","practice_no_cue","5ea300a5733c8107ec2478a3","5f60e3c0a3b16e07647b2ff9","5f61dc2c01d085184886c24a","true","994.6300000001356","./Stimuli/ImagesPractice/LN109.jpg","76","","","","test","true","M + N","76","","LN","LN109.jpg","remember","old","5","1","start","right","","","",""
"html-keyboard-response","20","91114","0.0-2.0-2.0-0.5","pr57vemnaupfq4v","practice_no_cue","5ea300a5733c8107ec2478a3","5f60e3c0a3b16e07647b2ff9","5f61dc2c01d085184886c24a","false","null","<span style=""color: black; font-size: 48px"">M + N</span>","null","","","","resp_prompt","","","","","","","","","","","","","","","",""
"categorize-image","21","92593","0.0-2.0-2.0-1.5","pr57vemnaupfq4v","practice_no_cue","5ea300a5733c8107ec2478a3","5f60e3c0a3b16e07647b2ff9","5f61dc2c01d085184886c24a","true","976.2899999996152","./Stimuli/ImagesPractice/SM97.jpg","83","","","","test","true","M + N","83","","SM","SM97.jpg","forget","old","6","1","start","left","","","",""
"html-keyboard-response","22","93298","0.0-2.0-2.0-0.6","pr57vemnaupfq4v","practice_no_cue","5ea300a5733c8107ec2478a3","5f60e3c0a3b16e07647b2ff9","5f61dc2c01d085184886c24a","false","null","<span style=""color: black; font-size: 48px"">N + M</span>","null","","","","resp_prompt","","","","","","","","","","","","","","","",""
"categorize-image","23","94804","0.0-2.0-2.0-1.6","pr57vemnaupfq4v","practice_no_cue","5ea300a5733c8107ec2478a3","5f60e3c0a3b16e07647b2ff9","5f61dc2c01d085184886c24a","true","1001.099999999511","./Stimuli/ImagesPractice/LM143.jpg","83","","","","test","false","N + M","76","","LM","LM143.jpg","forget","old","7","1","start","left","","","",""
"html-keyboard-response","24","95511","0.0-2.0-2.0-0.7","pr57vemnaupfq4v","practice_no_cue","5ea300a5733c8107ec2478a3","5f60e3c0a3b16e07647b2ff9","5f61dc2c01d085184886c24a","false","null","<span style=""color: black; font-size: 48px"">M + N</span>","null","","","","resp_prompt","","","","","","","","","","","","","","","",""
"categorize-image","25","96915","0.0-2.0-2.0-1.7","pr57vemnaupfq4v","practice_no_cue","5ea300a5733c8107ec2478a3","5f60e3c0a3b16e07647b2ff9","5f61dc2c01d085184886c24a","true","901.2450000000099","./Stimuli/ImagesPractice/LN4.jpg","76","","","","test","true","M + N","76","","LN","LN4.jpg","remember","old","8","1","start","right","","","",""
"html-keyboard-response","26","97621","0.0-2.0-2.0-0.8","pr57vemnaupfq4v","practice_no_cue","5ea300a5733c8107ec2478a3","5f60e3c0a3b16e07647b2ff9","5f61dc2c01d085184886c24a","false","null","<span style=""color: black; font-size: 48px"">N + M</span>","null","","","","resp_prompt","","","","","","","","","","","","","","","",""
"categorize-image","27","99015","0.0-2.0-2.0-1.8","pr57vemnaupfq4v","practice_no_cue","5ea300a5733c8107ec2478a3","5f60e3c0a3b16e07647b2ff9","5f61dc2c01d085184886c24a","true","890.2600000001257","./Stimuli/ImagesPractice/LN17.jpg","83","","","","test","true","N + M","83","","LN","LN17.jpg","remember","old","9","1","start","left","","","",""
"html-keyboard-response","28","99717","0.0-2.0-2.0-0.9","pr57vemnaupfq4v","practice_no_cue","5ea300a5733c8107ec2478a3","5f60e3c0a3b16e07647b2ff9","5f61dc2c01d085184886c24a","false","null","<span style=""color: black; font-size: 48px"">N + M</span>","null","","","","resp_prompt","","","","","","","","","","","","","","","",""
"categorize-image","29","100998","0.0-2.0-2.0-1.9","pr57vemnaupfq4v","practice_no_cue","5ea300a5733c8107ec2478a3","5f60e3c0a3b16e07647b2ff9","5f61dc2c01d085184886c24a","true","777.0499999996828","./Stimuli/ImagesPractice/SN220.jpg","83","","","","test","true","N + M","83","","SN","SN220.jpg","forget","old","10","1","start","left","","","",""
"html-keyboard-response","30","101702","0.0-2.0-2.0-0.10","pr57vemnaupfq4v","practice_no_cue","5ea300a5733c8107ec2478a3","5f60e3c0a3b16e07647b2ff9","5f61dc2c01d085184886c24a","false","null","<span style=""color: black; font-size: 48px"">N + M</span>","null","","","","resp_prompt","","","","","","","","","","","","","","","",""
"categorize-image","31","103222","0.0-2.0-2.0-1.10","pr57vemnaupfq4v","practice_no_cue","5ea300a5733c8107ec2478a3","5f60e3c0a3b16e07647b2ff9","5f61dc2c01d085184886c24a","true","1015.7399999998306","./Stimuli/ImagesPractice/SM61.jpg","83","","","","test","false","N + M","76","","SM","SM61.jpg","remember","old","11","1","start","left","","","",""
"html-keyboard-response","32","103927","0.0-2.0-2.0-0.11","pr57vemnaupfq4v","practice_no_cue","5ea300a5733c8107ec2478a3","5f60e3c0a3b16e07647b2ff9","5f61dc2c01d085184886c24a","false","null","<span style=""color: black; font-size: 48px"">N + M</span>","null","","","","resp_prompt","","","","","","","","","","","","","","","",""
"categorize-image","33","105227","0.0-2.0-2.0-1.11","pr57vemnaupfq4v","practice_no_cue","5ea300a5733c8107ec2478a3","5f60e3c0a3b16e07647b2ff9","5f61dc2c01d085184886c24a","true","793.8500000000204","./Stimuli/ImagesPractice/LM147.jpg","76","","","","test","true","N + M","76","","LM","LM147.jpg","remember","old","12","1","start","right","","","",""
"html-keyboard-response","34","105931","0.0-2.0-2.0-0.12","pr57vemnaupfq4v","practice_no_cue","5ea300a5733c8107ec2478a3","5f60e3c0a3b16e07647b2ff9","5f61dc2c01d085184886c24a","false","null","<span style=""color: black; font-size: 48px"">N + M</span>","null","","","","resp_prompt","","","","","","","","","","","","","","","",""
"categorize-image","35","107032","0.0-2.0-2.0-1.12","pr57vemnaupfq4v","practice_no_cue","5ea300a5733c8107ec2478a3","5f60e3c0a3b16e07647b2ff9","5f61dc2c01d085184886c24a","true","593.9150000003865","./Stimuli/ImagesPractice/SM62.jpg","76","","","","test","true","N + M","76","","SM","SM62.jpg","remember","old","13","1","start","right","","","",""
"html-keyboard-response","36","107734","0.0-2.0-2.0-0.13","pr57vemnaupfq4v","practice_no_cue","5ea300a5733c8107ec2478a3","5f60e3c0a3b16e07647b2ff9","5f61dc2c01d085184886c24a","false","null","<span style=""color: black; font-size: 48px"">M + N</span>","null","","","","resp_prompt","","","","","","","","","","","","","","","",""
"categorize-image","37","109444","0.0-2.0-2.0-1.13","pr57vemnaupfq4v","practice_no_cue","5ea300a5733c8107ec2478a3","5f60e3c0a3b16e07647b2ff9","5f61dc2c01d085184886c24a","true","1205.0200000003242","./Stimuli/ImagesPractice/LN72.jpg","76","","","","test","true","M + N","76","","LN","LN72.jpg","forget","old","14","1","start","right","","","",""
"html-keyboard-response","38","110148","0.0-2.0-2.0-0.14","pr57vemnaupfq4v","practice_no_cue","5ea300a5733c8107ec2478a3","5f60e3c0a3b16e07647b2ff9","5f61dc2c01d085184886c24a","false","null","<span style=""color: black; font-size: 48px"">M + N</span>","null","","","","resp_prompt","","","","","","","","","","","","","","","",""
"categorize-image","39","111347","0.0-2.0-2.0-1.14","pr57vemnaupfq4v","practice_no_cue","5ea300a5733c8107ec2478a3","5f60e3c0a3b16e07647b2ff9","5f61dc2c01d085184886c24a","true","695.1550000003481","./Stimuli/ImagesPractice/LN15.jpg","76","","","","test","true","M + N","76","","LN","LN15.jpg","remember","old","15","1","start","right","","","",""
"html-keyboard-response","40","112049","0.0-2.0-2.0-0.15","pr57vemnaupfq4v","practice_no_cue","5ea300a5733c8107ec2478a3","5f60e3c0a3b16e07647b2ff9","5f61dc2c01d085184886c24a","false","null","<span style=""color: black; font-size: 48px"">M + N</span>","null","","","","resp_prompt","","","","","","","","","","","","","","","",""
"categorize-image","41","113486","0.0-2.0-2.0-1.15","pr57vemnaupfq4v","practice_no_cue","5ea300a5733c8107ec2478a3","5f60e3c0a3b16e07647b2ff9","5f61dc2c01d085184886c24a","true","934.4650000002584","./Stimuli/ImagesPractice/SM37.jpg","83","","","","test","true","M + N","83","","SM","SM37.jpg","forget","old","16","1","start","left","","","",""
"html-keyboard-response","42","115754","0.0-2.0-3.0","pr57vemnaupfq4v","break","5ea300a5733c8107ec2478a3","5f60e3c0a3b16e07647b2ff9","5f61dc2c01d085184886c24a","false","2264.55499999976","<p style='font-size: 32px;'>Break</><br><br><br><br><br><p style='font-size: 24px;'>In the last block, you committed 5 errors and did not respond in time on 1 trials.
</p><p style='font-size: 24px;'>Try to respond as fast and accurately as possible in the next block as well! </p><p style='font-size: 24px;'>Press SPACE to continue.</p>","32","","","","","","","","","","","","","","","","","","","",""
"html-keyboard-response","43","119820","0.0-2.0-4.0","pr57vemnaupfq4v","instructions","5ea300a5733c8107ec2478a3","5f60e3c0a3b16e07647b2ff9","5f61dc2c01d085184886c24a","false","4065.0150000001304","<div align=left> Great!<br><br>Are you ready to continue?<br><br>If you want to reread the instructions and redo the practice trials, <br>please press „Z“. <br><br>Press SPACE to CONTINUE with the experiment when you are ready. </div>","32","","","","","","","","","","","","","","","","","","","",""
"html-keyboard-response","44","133658","0.0-3.0-0.0","pr57vemnaupfq4v","instructions","5ea300a5733c8107ec2478a3","5f60e3c0a3b16e07647b2ff9","5f61dc2c01d085184886c24a","false","13835.834999999846","<div align=left>Great!<br> <strong>Attention</strong>! You will now receive a second, additional task! <br><br>To this point it was you <strong>first task</strong> to correctly <strong>classify objects</strong>. <br><br>As mentioned in the beginning, we aim to examine how well humans can remember previously learned information.<br>We would like to find out whether our memory improves if we only remember information that is relevant to us. <br><br>Therefore, your <strong>second task</strong> will be to <strong>remember</strong> the pictures you are to categorize. <br> After the learning phase, there will be a memory test phase, in which you will be asked to indicate whether you have seen a picture before or not. <br>Some, but not all pictures shown in the learning phase will appear in the memory test phase.<br>After classifying a picture, you will be told whether you should remember it for the memory test phase or not. <br>Thus, some pictures can be forgotten, whereas others have to be remembered. <br><br>Note: From now on, feedback will only be displayed if you responded incorrectly or not in time.<br><br>Press SPACE to continue.</div>","32","","","","","","","","","","","","","","","","","","","",""
"html-keyboard-response","45","146845","0.0-3.0-1.0","pr57vemnaupfq4v","instructions","5ea300a5733c8107ec2478a3","5f60e3c0a3b16e07647b2ff9","5f61dc2c01d085184886c24a","false","13184.440000000002","<div align=left>In the following part, you will thus have to remember only some pictures. <br>Immediately after seeing and classifying the picture, a symbol will be displayed, indicating whether you should remember or forget the previous picture. <br><br>A <span style='color: dodgerblue; font-size: 28px'>O</span> indicates REMEMBER. That means, you have to remember this picture, because it will be tested later. <br><br>A <span style='color: darkorange; font-size:28px'>Ø</span> indicates FORGET. You do not have to remember this picture. <br><br> As you will have to remember a lot of pictures, it will be hard for you to remember all of them. <br>It will put you at an advantage if you instantly forget the pictures you are not asked to remember. <br> This will make it easier for you to remember the pictures that will be tested afterwards. <br><br>Press SPACE to continue.</div>","32","","","","","","","","","","","","","","","","","","","",""
"html-keyboard-response","46","148343","0.0-3.0-2.0","pr57vemnaupfq4v","instructions","5ea300a5733c8107ec2478a3","5f60e3c0a3b16e07647b2ff9","5f61dc2c01d085184886c24a","false","1496.779999999504","<div align=left> Now you have the chance to practice both tasks together.<br><br>Remember: <br> <br><li>Please place your index fingers on the <strong>'S'</strong> and <strong>'L'</strong> keys <br>to respond as fast and accurately as possible.</li><li>Every picture can be classified as either mechanical or non-mechanical.</li><li>If you do not respond in time or commit an error, you will receive a corresponding feedback. <br>Please try to respond as <strong> fast </strong> and as <strong> accurately as possible </strong>.</li><li> Please remember only the to-be-remembered <span style='color: dodgerblue; font-size: 28px'>O</span> pictures. <br></li><li> Please minimize distractions and stay focused. </li><br><br>Press SPACE to START</div>","32","","","","","","","","","","","","","","","","","","","",""
"html-keyboard-response","47","149044","0.0-3.0-3.0-0.0","pr57vemnaupfq4v","practice_cue","5ea300a5733c8107ec2478a3","5f60e3c0a3b16e07647b2ff9","5f61dc2c01d085184886c24a","false","null","<span style=""color: black; font-size: 48px"">M + N</span>","null","","","","resp_prompt","","","","","","","","","","","","","","","",""
"categorize-image","48","149903","0.0-3.0-3.0-1.0","pr57vemnaupfq4v","practice_cue","5ea300a5733c8107ec2478a3","5f60e3c0a3b16e07647b2ff9","5f61dc2c01d085184886c24a","true","853.8749999997963","./Stimuli/ImagesPractice/LN15.jpg","76","","","","test","true","M + N","76","","LN","LN15.jpg","remember","old","17","2","practice_forget","right","","","",""
"html-keyboard-response","49","151907","0.0-3.0-3.0-3.0","pr57vemnaupfq4v","practice_cue","5ea300a5733c8107ec2478a3","5f60e3c0a3b16e07647b2ff9","5f61dc2c01d085184886c24a","false","null","<div style=""align-items: center; display: flex; color: dodgerblue; font-size: 90px""><b>o</b></div>","null","","","","forget_cue","","","","","","","","","","","","","","","",""
"html-keyboard-response","50","152613","0.0-3.0-3.0-0.1","pr57vemnaupfq4v","practice_cue","5ea300a5733c8107ec2478a3","5f60e3c0a3b16e07647b2ff9","5f61dc2c01d085184886c24a","false","null","<span style=""color: black; font-size: 48px"">N + M</span>","null","","","","resp_prompt","","","","","","","","","","","","","","","",""
"categorize-image","51","153657","0.0-3.0-3.0-1.1","pr57vemnaupfq4v","practice_cue","5ea300a5733c8107ec2478a3","5f60e3c0a3b16e07647b2ff9","5f61dc2c01d085184886c24a","true","1040.8549999992829","./Stimuli/ImagesPractice/LN17.jpg","83","","","","test","true","N + M","83","","LN","LN17.jpg","remember","old","18","2","practice_forget","left","","","",""
"html-keyboard-response","52","155663","0.0-3.0-3.0-3.1","pr57vemnaupfq4v","practice_cue","5ea300a5733c8107ec2478a3","5f60e3c0a3b16e07647b2ff9","5f61dc2c01d085184886c24a","false","null","<div style=""align-items: center; display: flex; color: dodgerblue; font-size: 90px""><b>o</b></div>","null","","","","forget_cue","","","","","","","","","","","","","","","",""
"html-keyboard-response","53","156367","0.0-3.0-3.0-0.2","pr57vemnaupfq4v","practice_cue","5ea300a5733c8107ec2478a3","5f60e3c0a3b16e07647b2ff9","5f61dc2c01d085184886c24a","false","null","<span style=""color: black; font-size: 48px"">N + M</span>","null","","","","resp_prompt","","","","","","","","","","","","","","","",""
"categorize-image","54","157242","0.0-3.0-3.0-1.2","pr57vemnaupfq4v","practice_cue","5ea300a5733c8107ec2478a3","5f60e3c0a3b16e07647b2ff9","5f61dc2c01d085184886c24a","true","871.3449999995646","./Stimuli/ImagesPractice/LM55.jpg","76","","","","test","true","N + M","76","","LM","LM55.jpg","forget","old","19","2","practice_forget","right","","","",""
"html-keyboard-response","55","159246","0.0-3.0-3.0-3.2","pr57vemnaupfq4v","practice_cue","5ea300a5733c8107ec2478a3","5f60e3c0a3b16e07647b2ff9","5f61dc2c01d085184886c24a","false","null","<div style=""align-items: center; display: flex; color: darkorange; font-size: 90px""><b>ø</b></div>","null","","","","forget_cue","","","","","","","","","","","","","","","",""
"html-keyboard-response","56","159951","0.0-3.0-3.0-0.3","pr57vemnaupfq4v","practice_cue","5ea300a5733c8107ec2478a3","5f60e3c0a3b16e07647b2ff9","5f61dc2c01d085184886c24a","false","null","<span style=""color: black; font-size: 48px"">M + N</span>","null","","","","resp_prompt","","","","","","","","","","","","","","","",""
"categorize-image","57","160820","0.0-3.0-3.0-1.3","pr57vemnaupfq4v","practice_cue","5ea300a5733c8107ec2478a3","5f60e3c0a3b16e07647b2ff9","5f61dc2c01d085184886c24a","true","865.1550000004063","./Stimuli/ImagesPractice/SM98.jpg","83","","","","test","true","M + N","83","","SM","SM98.jpg","forget","old","20","2","practice_forget","left","","","",""
"html-keyboard-response","58","162823","0.0-3.0-3.0-3.3","pr57vemnaupfq4v","practice_cue","5ea300a5733c8107ec2478a3","5f60e3c0a3b16e07647b2ff9","5f61dc2c01d085184886c24a","false","null","<div style=""align-items: center; display: flex; color: darkorange; font-size: 90px""><b>ø</b></div>","null","","","","forget_cue","","","","","","","","","","","","","","","",""
"html-keyboard-response","59","163526","0.0-3.0-3.0-0.4","pr57vemnaupfq4v","practice_cue","5ea300a5733c8107ec2478a3","5f60e3c0a3b16e07647b2ff9","5f61dc2c01d085184886c24a","false","null","<span style=""color: black; font-size: 48px"">N + M</span>","null","","","","resp_prompt","","","","","","","","","","","","","","","",""
"categorize-image","60","164931","0.0-3.0-3.0-1.4","pr57vemnaupfq4v","practice_cue","5ea300a5733c8107ec2478a3","5f60e3c0a3b16e07647b2ff9","5f61dc2c01d085184886c24a","true","1399.82000000056","./Stimuli/ImagesPractice/LM147.jpg","76","","","","test","true","N + M","76","","LM","LM147.jpg","remember","old","21","2","practice_forget","right","","","",""
"html-keyboard-response","61","166937","0.0-3.0-3.0-3.4","pr57vemnaupfq4v","practice_cue","5ea300a5733c8107ec2478a3","5f60e3c0a3b16e07647b2ff9","5f61dc2c01d085184886c24a","false","null","<div style=""align-items: center; display: flex; color: dodgerblue; font-size: 90px""><b>o</b></div>","null","","","","forget_cue","","","","","","","","","","","","","","","",""
"html-keyboard-response","62","167641","0.0-3.0-3.0-0.5","pr57vemnaupfq4v","practice_cue","5ea300a5733c8107ec2478a3","5f60e3c0a3b16e07647b2ff9","5f61dc2c01d085184886c24a","false","null","<span style=""color: black; font-size: 48px"">N + M</span>","null","","","","resp_prompt","","","","","","","","","","","","","","","",""
"categorize-image","63","168715","0.0-3.0-3.0-1.5","pr57vemnaupfq4v","practice_cue","5ea300a5733c8107ec2478a3","5f60e3c0a3b16e07647b2ff9","5f61dc2c01d085184886c24a","true","1069.975000000326","./Stimuli/ImagesPractice/SM62.jpg","76","","","","test","true","N + M","76","","SM","SM62.jpg","remember","old","22","2","practice_forget","right","","","",""
"html-keyboard-response","64","170721","0.0-3.0-3.0-3.5","pr57vemnaupfq4v","practice_cue","5ea300a5733c8107ec2478a3","5f60e3c0a3b16e07647b2ff9","5f61dc2c01d085184886c24a","false","null","<div style=""align-items: center; display: flex; color: dodgerblue; font-size: 90px""><b>o</b></div>","null","","","","forget_cue","","","","","","","","","","","","","","","",""
"html-keyboard-response","65","171427","0.0-3.0-3.0-0.6","pr57vemnaupfq4v","practice_cue","5ea300a5733c8107ec2478a3","5f60e3c0a3b16e07647b2ff9","5f61dc2c01d085184886c24a","false","null","<span style=""color: black; font-size: 48px"">N + M</span>","null","","","","resp_prompt","","","","","","","","","","","","","","","",""
"categorize-image","66","172431","0.0-3.0-3.0-1.6","pr57vemnaupfq4v","practice_cue","5ea300a5733c8107ec2478a3","5f60e3c0a3b16e07647b2ff9","5f61dc2c01d085184886c24a","true","1000.2900000008522","./Stimuli/ImagesPractice/LM143.jpg","83","","","","test","false","N + M","76","","LM","LM143.jpg","forget","old","23","2","practice_forget","left","","","",""
"html-keyboard-response","67","172933","0.0-3.0-3.0-2.6-0.6","pr57vemnaupfq4v","practice_cue","5ea300a5733c8107ec2478a3","5f60e3c0a3b16e07647b2ff9","5f61dc2c01d085184886c24a","false","null","<span style=""color: red; font-size: 48px"">Error!</span>","null","","","","feedback","","","","","","","","","","","","","","","",""
"html-keyboard-response","68","174939","0.0-3.0-3.0-3.6","pr57vemnaupfq4v","practice_cue","5ea300a5733c8107ec2478a3","5f60e3c0a3b16e07647b2ff9","5f61dc2c01d085184886c24a","false","null","<div style=""align-items: center; display: flex; color: darkorange; font-size: 90px""><b>ø</b></div>","null","","","","forget_cue","","","","","","","","","","","","","","","",""
"html-keyboard-response","69","175641","0.0-3.0-3.0-0.7","pr57vemnaupfq4v","practice_cue","5ea300a5733c8107ec2478a3","5f60e3c0a3b16e07647b2ff9","5f61dc2c01d085184886c24a","false","null","<span style=""color: black; font-size: 48px"">M + N</span>","null","","","","resp_prompt","","","","","","","","","","","","","","","",""
"categorize-image","70","176586","0.0-3.0-3.0-1.7","pr57vemnaupfq4v","practice_cue","5ea300a5733c8107ec2478a3","5f60e3c0a3b16e07647b2ff9","5f61dc2c01d085184886c24a","true","940.8849999999802","./Stimuli/ImagesPractice/LN2.jpg","76","","","","test","true","M + N","76","","LN","LN2.jpg","remember","old","24","2","practice_forget","right","","","",""
"html-keyboard-response","71","178588","0.0-3.0-3.0-3.7","pr57vemnaupfq4v","practice_cue","5ea300a5733c8107ec2478a3","5f60e3c0a3b16e07647b2ff9","5f61dc2c01d085184886c24a","false","null","<div style=""align-items: center; display: flex; color: dodgerblue; font-size: 90px""><b>o</b></div>","null","","","","forget_cue","","","","","","","","","","","","","","","",""
"html-keyboard-response","72","179293","0.0-3.0-3.0-0.8","pr57vemnaupfq4v","practice_cue","5ea300a5733c8107ec2478a3","5f60e3c0a3b16e07647b2ff9","5f61dc2c01d085184886c24a","false","null","<span style=""color: black; font-size: 48px"">N + M</span>","null","","","","resp_prompt","","","","","","","","","","","","","","","",""
"categorize-image","73","180520","0.0-3.0-3.0-1.8","pr57vemnaupfq4v","practice_cue","5ea300a5733c8107ec2478a3","5f60e3c0a3b16e07647b2ff9","5f61dc2c01d085184886c24a","true","1222.6549999995623","./Stimuli/ImagesPractice/SM61.jpg","83","","","","test","false","N + M","76","","SM","SM61.jpg","remember","old","25","2","practice_forget","left","","","",""
"html-keyboard-response","74","181022","0.0-3.0-3.0-2.8-0.8","pr57vemnaupfq4v","practice_cue","5ea300a5733c8107ec2478a3","5f60e3c0a3b16e07647b2ff9","5f61dc2c01d085184886c24a","false","null","<span style=""color: red; font-size: 48px"">Error!</span>","null","","","","feedback","","","","","","","","","","","","","","","",""
"html-keyboard-response","75","183025","0.0-3.0-3.0-3.8","pr57vemnaupfq4v","practice_cue","5ea300a5733c8107ec2478a3","5f60e3c0a3b16e07647b2ff9","5f61dc2c01d085184886c24a","false","null","<div style=""align-items: center; display: flex; color: dodgerblue; font-size: 90px""><b>o</b></div>","null","","","","forget_cue","","","","","","","","","","","","","","","",""
"html-keyboard-response","76","183730","0.0-3.0-3.0-0.9","pr57vemnaupfq4v","practice_cue","5ea300a5733c8107ec2478a3","5f60e3c0a3b16e07647b2ff9","5f61dc2c01d085184886c24a","false","null","<span style=""color: black; font-size: 48px"">M + N</span>","null","","","","resp_prompt","","","","","","","","","","","","","","","",""
"categorize-image","77","184865","0.0-3.0-3.0-1.9","pr57vemnaupfq4v","practice_cue","5ea300a5733c8107ec2478a3","5f60e3c0a3b16e07647b2ff9","5f61dc2c01d085184886c24a","true","1130.4700000000594","./Stimuli/ImagesPractice/SM97.jpg","83","","","","test","true","M + N","83","","SM","SM97.jpg","forget","old","26","2","practice_forget","left","","","",""
"html-keyboard-response","78","186869","0.0-3.0-3.0-3.9","pr57vemnaupfq4v","practice_cue","5ea300a5733c8107ec2478a3","5f60e3c0a3b16e07647b2ff9","5f61dc2c01d085184886c24a","false","null","<div style=""align-items: center; display: flex; color: darkorange; font-size: 90px""><b>ø</b></div>","null","","","","forget_cue","","","","","","","","","","","","","","","",""
"html-keyboard-response","79","187575","0.0-3.0-3.0-0.10","pr57vemnaupfq4v","practice_cue","5ea300a5733c8107ec2478a3","5f60e3c0a3b16e07647b2ff9","5f61dc2c01d085184886c24a","false","null","<span style=""color: black; font-size: 48px"">M + N</span>","null","","","","resp_prompt","","","","","","","","","","","","","","","",""
"categorize-image","80","189400","0.0-3.0-3.0-1.10","pr57vemnaupfq4v","practice_cue","5ea300a5733c8107ec2478a3","5f60e3c0a3b16e07647b2ff9","5f61dc2c01d085184886c24a","true","1820.020000000106","./Stimuli/ImagesPractice/LN109.jpg","76","","","","test","true","M + N","76","","LN","LN109.jpg","remember","old","27","2","practice_forget","right","","","",""
"html-keyboard-response","81","191403","0.0-3.0-3.0-3.10","pr57vemnaupfq4v","practice_cue","5ea300a5733c8107ec2478a3","5f60e3c0a3b16e07647b2ff9","5f61dc2c01d085184886c24a","false","null","<div style=""align-items: center; display: flex; color: dodgerblue; font-size: 90px""><b>o</b></div>","null","","","","forget_cue","","","","","","","","","","","","","","","",""
"html-keyboard-response","82","192106","0.0-3.0-3.0-0.11","pr57vemnaupfq4v","practice_cue","5ea300a5733c8107ec2478a3","5f60e3c0a3b16e07647b2ff9","5f61dc2c01d085184886c24a","false","null","<span style=""color: black; font-size: 48px"">N + M</span>","null","","","","resp_prompt","","","","","","","","","","","","","","","",""
"categorize-image","83","193050","0.0-3.0-3.0-1.11","pr57vemnaupfq4v","practice_cue","5ea300a5733c8107ec2478a3","5f60e3c0a3b16e07647b2ff9","5f61dc2c01d085184886c24a","true","940.1500000003434","./Stimuli/ImagesPractice/SN220.jpg","83","","","","test","true","N + M","83","","SN","SN220.jpg","forget","old","28","2","practice_forget","left","","","",""
"html-keyboard-response","84","195054","0.0-3.0-3.0-3.11","pr57vemnaupfq4v","practice_cue","5ea300a5733c8107ec2478a3","5f60e3c0a3b16e07647b2ff9","5f61dc2c01d085184886c24a","false","null","<div style=""align-items: center; display: flex; color: darkorange; font-size: 90px""><b>ø</b></div>","null","","","","forget_cue","","","","","","","","","","","","","","","",""
"html-keyboard-response","85","195759","0.0-3.0-3.0-0.12","pr57vemnaupfq4v","practice_cue","5ea300a5733c8107ec2478a3","5f60e3c0a3b16e07647b2ff9","5f61dc2c01d085184886c24a","false","null","<span style=""color: black; font-size: 48px"">M + N</span>","null","","","","resp_prompt","","","","","","","","","","","","","","","",""
"categorize-image","86","196717","0.0-3.0-3.0-1.12","pr57vemnaupfq4v","practice_cue","5ea300a5733c8107ec2478a3","5f60e3c0a3b16e07647b2ff9","5f61dc2c01d085184886c24a","true","954.1699999999546","./Stimuli/ImagesPractice/LN4.jpg","76","","","","test","true","M + N","76","","LN","LN4.jpg","remember","old","29","2","practice_forget","right","","","",""
"html-keyboard-response","87","198720","0.0-3.0-3.0-3.12","pr57vemnaupfq4v","practice_cue","5ea300a5733c8107ec2478a3","5f60e3c0a3b16e07647b2ff9","5f61dc2c01d085184886c24a","false","null","<div style=""align-items: center; display: flex; color: dodgerblue; font-size: 90px""><b>o</b></div>","null","","","","forget_cue","","","","","","","","","","","","","","","",""
"html-keyboard-response","88","199426","0.0-3.0-3.0-0.13","pr57vemnaupfq4v","practice_cue","5ea300a5733c8107ec2478a3","5f60e3c0a3b16e07647b2ff9","5f61dc2c01d085184886c24a","false","null","<span style=""color: black; font-size: 48px"">M + N</span>","null","","","","resp_prompt","","","","","","","","","","","","","","","",""
"categorize-image","89","200220","0.0-3.0-3.0-1.13","pr57vemnaupfq4v","practice_cue","5ea300a5733c8107ec2478a3","5f60e3c0a3b16e07647b2ff9","5f61dc2c01d085184886c24a","true","789.5449999996345","./Stimuli/ImagesPractice/SM37.jpg","83","","","","test","true","M + N","83","","SM","SM37.jpg","forget","old","30","2","practice_forget","left","","","",""
"html-keyboard-response","90","202222","0.0-3.0-3.0-3.13","pr57vemnaupfq4v","practice_cue","5ea300a5733c8107ec2478a3","5f60e3c0a3b16e07647b2ff9","5f61dc2c01d085184886c24a","false","null","<div style=""align-items: center; display: flex; color: darkorange; font-size: 90px""><b>ø</b></div>","null","","","","forget_cue","","","","","","","","","","","","","","","",""
"html-keyboard-response","91","202924","0.0-3.0-3.0-0.14","pr57vemnaupfq4v","practice_cue","5ea300a5733c8107ec2478a3","5f60e3c0a3b16e07647b2ff9","5f61dc2c01d085184886c24a","false","null","<span style=""color: black; font-size: 48px"">N + M</span>","null","","","","resp_prompt","","","","","","","","","","","","","","","",""
"categorize-image","92","204226","0.0-3.0-3.0-1.14","pr57vemnaupfq4v","practice_cue","5ea300a5733c8107ec2478a3","5f60e3c0a3b16e07647b2ff9","5f61dc2c01d085184886c24a","true","1297.255000000412","./Stimuli/ImagesPractice/LM239.jpg","83","","","","test","false","N + M","76","","LM","LM239.jpg","forget","old","31","2","practice_forget","left","","","",""
"html-keyboard-response","93","204727","0.0-3.0-3.0-2.14-0.14","pr57vemnaupfq4v","practice_cue","5ea300a5733c8107ec2478a3","5f60e3c0a3b16e07647b2ff9","5f61dc2c01d085184886c24a","false","null","<span style=""color: red; font-size: 48px"">Error!</span>","null","","","","feedback","","","","","","","","","","","","","","","",""
"html-keyboard-response","94","206732","0.0-3.0-3.0-3.14","pr57vemnaupfq4v","practice_cue","5ea300a5733c8107ec2478a3","5f60e3c0a3b16e07647b2ff9","5f61dc2c01d085184886c24a","false","null","<div style=""align-items: center; display: flex; color: darkorange; font-size: 90px""><b>ø</b></div>","null","","","","forget_cue","","","","","","","","","","","","","","","",""
"html-keyboard-response","95","207437","0.0-3.0-3.0-0.15","pr57vemnaupfq4v","practice_cue","5ea300a5733c8107ec2478a3","5f60e3c0a3b16e07647b2ff9","5f61dc2c01d085184886c24a","false","null","<span style=""color: black; font-size: 48px"">M + N</span>","null","","","","resp_prompt","","","","","","","","","","","","","","","",""
"categorize-image","96","208197","0.0-3.0-3.0-1.15","pr57vemnaupfq4v","practice_cue","5ea300a5733c8107ec2478a3","5f60e3c0a3b16e07647b2ff9","5f61dc2c01d085184886c24a","true","755.7500000002619","./Stimuli/ImagesPractice/LN72.jpg","76","","","","test","true","M + N","76","","LN","LN72.jpg","forget","old","32","2","practice_forget","right","","","",""
"html-keyboard-response","97","210200","0.0-3.0-3.0-3.15","pr57vemnaupfq4v","practice_cue","5ea300a5733c8107ec2478a3","5f60e3c0a3b16e07647b2ff9","5f61dc2c01d085184886c24a","false","null","<div style=""align-items: center; display: flex; color: darkorange; font-size: 90px""><b>ø</b></div>","null","","","","forget_cue","","","","","","","","","","","","","","","",""
"html-keyboard-response","98","211843","0.0-3.0-4.0","pr57vemnaupfq4v","break","5ea300a5733c8107ec2478a3","5f60e3c0a3b16e07647b2ff9","5f61dc2c01d085184886c24a","false","1639.8949999993201","<p style='font-size: 32px;'>Break</><br><br><br><br><br><p style='font-size: 24px;'>In the last block, you committed 3 errors and did not respond in time on 0 trials.
</p><p style='font-size: 24px;'>Try to respond as fast and accurately as possible in the next block as well! </p><p style='font-size: 24px;'>Press SPACE to continue.</p>","32","","","","","","","","","","","","","","","","","","","",""
"html-keyboard-response","99","213218","0.0-3.0-5.0","pr57vemnaupfq4v","instructions","5ea300a5733c8107ec2478a3","5f60e3c0a3b16e07647b2ff9","5f61dc2c01d085184886c24a","false","1374.1000000000058","<div align=left> Now, to practice, we kindly ask you to remember as many of the to-be-remembered pictures<br>of the previous learning phase as possible.<br><br>The pictures you were instructed to remember were the pictures followed by a <span style='color: dodgerblue; font-size: 28px'>O</span>.<br><br>In this memory test phase, you will also see some new pictures.<br>It is your task to remember whether you were presented with this specific picture in this study so far or not.<br>If you recognize an object (you have already seen it in this study), it is an OLD object. <br>If you do not recognize an object (you have NOT seen it in this study), it is a NEW object. <br><strong> Attention</strong>: As already mentioned, <span style='color: darkorange; font-size:28px'>Ø</span>-pictures will <strong>never</strong> appear in this memory test (neither as new objects). <br><br>Press SPACE to continue. </div>","32","","","","","","","","","","","","","","","","","","","",""
"html-keyboard-response","100","234324","0.0-3.0-6.0","pr57vemnaupfq4v","instructions","5ea300a5733c8107ec2478a3","5f60e3c0a3b16e07647b2ff9","5f61dc2c01d085184886c24a","false","21103.72000000006","<div align=left> M and N no longer will appear on the left/right of the fixation cross. <br>Instead there will be a note at the bottom of the left or right side  <br>indicating which key you should press for an old or new object:  <br> <br>Press the <strong>right</strong> key to classify an object as <strong>old</strong> and press the <strong>left</strong>, to classify an object as <strong>new</strong>.<br>Please classify the objects as new/old by again placing your index finger on the 'S' and 'L' keys <br>and press them accordingly.<br><br><strong>Old:</strong> This object has been presented before. <br><strong>New:</strong> This object has <strong>not</strong> been presented.<br><br>Now please put your right and left index fingers on the 'S' and 'L' keys of your keyboard. <br>Please respond as fast and as accurately as possible!<br><br>Press SPACE to continue. </div>","32","","","","","","","","","","","","","","","","","","","",""
"categorize-image","101","236877","0.0-3.0-7.0-0.0","pr57vemnaupfq4v","practice_recog","5ea300a5733c8107ec2478a3","5f60e3c0a3b16e07647b2ff9","5f61dc2c01d085184886c24a","true","2048.2099999999336","./Stimuli/ImagesPractice/LN4.jpg","76","","","","test","true","","76","","LN","LN4.jpg","","old","33","3","practice_recog","right","","","",""
"categorize-image","102","238234","0.0-3.0-7.0-0.1","pr57vemnaupfq4v","practice_recog","5ea300a5733c8107ec2478a3","5f60e3c0a3b16e07647b2ff9","5f61dc2c01d085184886c24a","true","852.3549999999814","./Stimuli/ImagesPractice/LN2.jpg","76","","","","test","true","","76","","LN","LN2.jpg","","old","34","3","practice_recog","right","","","",""
"categorize-image","103","239397","0.0-3.0-7.0-0.2","pr57vemnaupfq4v","practice_recog","5ea300a5733c8107ec2478a3","5f60e3c0a3b16e07647b2ff9","5f61dc2c01d085184886c24a","true","660.4299999999057","./Stimuli/ImagesPractice/LN109.jpg","76","","","","test","true","","76","","LN","LN109.jpg","","old","35","3","practice_recog","right","","","",""
"categorize-image","104","240573","0.0-3.0-7.0-0.3","pr57vemnaupfq4v","practice_recog","5ea300a5733c8107ec2478a3","5f60e3c0a3b16e07647b2ff9","5f61dc2c01d085184886c24a","true","672.1250000000582","./Stimuli/ImagesPractice/SN222.jpg","83","","","","test","true","","83","","SN","SN222.jpg","","new","36","3","practice_recog","left","","","",""
"categorize-image","105","241972","0.0-3.0-7.0-0.4","pr57vemnaupfq4v","practice_recog","5ea300a5733c8107ec2478a3","5f60e3c0a3b16e07647b2ff9","5f61dc2c01d085184886c24a","true","894.1500000000815","./Stimuli/ImagesPractice/LM230.jpg","83","","","","test","true","","83","","LM","LM230.jpg","","new","37","3","practice_recog","left","","","",""
"categorize-image","106","243189","0.0-3.0-7.0-0.5","pr57vemnaupfq4v","practice_recog","5ea300a5733c8107ec2478a3","5f60e3c0a3b16e07647b2ff9","5f61dc2c01d085184886c24a","true","709.8550000000687","./Stimuli/ImagesPractice/LN17.jpg","76","","","","test","true","","76","","LN","LN17.jpg","","old","38","3","practice_recog","right","","","",""
"categorize-image","107","244391","0.0-3.0-7.0-0.6","pr57vemnaupfq4v","practice_recog","5ea300a5733c8107ec2478a3","5f60e3c0a3b16e07647b2ff9","5f61dc2c01d085184886c24a","true","696.2850000000035","./Stimuli/ImagesPractice/SN76.jpg","76","","","","test","false","","83","","SN","SN76.jpg","","new","39","3","practice_recog","right","","","",""
"categorize-image","108","245664","0.0-3.0-7.0-0.7","pr57vemnaupfq4v","practice_recog","5ea300a5733c8107ec2478a3","5f60e3c0a3b16e07647b2ff9","5f61dc2c01d085184886c24a","true","769.4499999997788","./Stimuli/ImagesPractice/SM35.jpg","76","","","","test","false","","83","","SM","SM35.jpg","","new","40","3","practice_recog","right","","","",""
"categorize-image","109","247189","0.0-3.0-7.0-0.8","pr57vemnaupfq4v","practice_recog","5ea300a5733c8107ec2478a3","5f60e3c0a3b16e07647b2ff9","5f61dc2c01d085184886c24a","true","1019.7149999994435","./Stimuli/ImagesPractice/SN75.jpg","83","","","","test","true","","83","","SN","SN75.jpg","","new","41","3","practice_recog","left","","","",""
"categorize-image","110","248697","0.0-3.0-7.0-0.9","pr57vemnaupfq4v","practice_recog","5ea300a5733c8107ec2478a3","5f60e3c0a3b16e07647b2ff9","5f61dc2c01d085184886c24a","true","1004.3750000004366","./Stimuli/ImagesPractice/LM224.jpg","83","","","","test","true","","83","","LM","LM224.jpg","","new","42","3","practice_recog","left","","","",""
"categorize-image","111","250001","0.0-3.0-7.0-0.10","pr57vemnaupfq4v","practice_recog","5ea300a5733c8107ec2478a3","5f60e3c0a3b16e07647b2ff9","5f61dc2c01d085184886c24a","true","800.6500000001397","./Stimuli/ImagesPractice/SN205.jpg","83","","","","test","true","","83","","SN","SN205.jpg","","new","43","3","practice_recog","left","","","",""
"categorize-image","112","251278","0.0-3.0-7.0-0.11","pr57vemnaupfq4v","practice_recog","5ea300a5733c8107ec2478a3","5f60e3c0a3b16e07647b2ff9","5f61dc2c01d085184886c24a","true","773.0099999998638","./Stimuli/ImagesPractice/SM62.jpg","76","","","","test","true","","76","","SM","SM62.jpg","","old","44","3","practice_recog","right","","","",""
"categorize-image","113","252905","0.0-3.0-7.0-0.12","pr57vemnaupfq4v","practice_recog","5ea300a5733c8107ec2478a3","5f60e3c0a3b16e07647b2ff9","5f61dc2c01d085184886c24a","true","1121.7699999997567","./Stimuli/ImagesPractice/SN221.jpg","83","","","","test","true","","83","","SN","SN221.jpg","","new","45","3","practice_recog","left","","","",""
"categorize-image","114","254199","0.0-3.0-7.0-0.13","pr57vemnaupfq4v","practice_recog","5ea300a5733c8107ec2478a3","5f60e3c0a3b16e07647b2ff9","5f61dc2c01d085184886c24a","true","788.0949999998556","./Stimuli/ImagesPractice/LM147.jpg","76","","","","test","true","","76","","LM","LM147.jpg","","old","46","3","practice_recog","right","","","",""
"categorize-image","115","255489","0.0-3.0-7.0-0.14","pr57vemnaupfq4v","practice_recog","5ea300a5733c8107ec2478a3","5f60e3c0a3b16e07647b2ff9","5f61dc2c01d085184886c24a","true","786.1000000002678","./Stimuli/ImagesPractice/SM61.jpg","76","","","","test","true","","76","","SM","SM61.jpg","","old","47","3","practice_recog","right","","","",""
"categorize-image","116","256817","0.0-3.0-7.0-0.15","pr57vemnaupfq4v","practice_recog","5ea300a5733c8107ec2478a3","5f60e3c0a3b16e07647b2ff9","5f61dc2c01d085184886c24a","true","824.3549999997485","./Stimuli/ImagesPractice/LN15.jpg","76","","","","test","true","","76","","LN","LN15.jpg","","old","48","3","practice_recog","right","","","",""
"html-keyboard-response","117","260623","0.0-3.0-8.0","pr57vemnaupfq4v","instructions","5ea300a5733c8107ec2478a3","5f60e3c0a3b16e07647b2ff9","5f61dc2c01d085184886c24a","false","3804.415000000532","<div align=left> Great!<br><br>Are you ready to continue?<br>If you want to reread the instructions and redo the practice trials, please <br>press „Z“.<br><br>You can proceed when you are ready.<br><br>After the presentation of each object, you will receive an instruction whether to <br>remember or to forget the object.<br>We will test your memory of the following pictures only at the very end of <br>the experiment after all learning blocks are completed. <br><br>Press SPACE to CONTINUE when you are ready. </div>","32","","","","","","","","","","","","","","","","","","","",""
"html-keyboard-response","118","269626","0.0-4.0-0.0","pr57vemnaupfq4v","instructions","5ea300a5733c8107ec2478a3","5f60e3c0a3b16e07647b2ff9","5f61dc2c01d085184886c24a","false","9000.759999999893","<div align=left> The actual experiment is about to start.<br>The practice trials are over!<br><br>Please always respond both fast and accurately!<br><br>Remember: <br> <br><li> Please place your index fingers on the <strong>'S'</strong> and <strong>'L'</strong> keys <br>to respond as fast and accurately as possible.</li><li> Every picture can be classified as either mechanical or non-mechanical.</li><li> If you do not respond in time or commit an error, you will receive a corresponding feedback.<br> Please try to respond as <strong> fast </strong> and as <strong> accurately as possible </strong>.</li><li> Remember the <span style='color: dodgerblue; font-size: 28px'>O</span> pictures. <br></li><li> Please minimize distractions and stay focused. </li><br><br>Press SPACE to START.</div>","32","","","","","","","","","","","","","","","","","","","",""
"html-keyboard-response","119","270331","0.0-4.0-1.0-0.0","pr57vemnaupfq4v","prime","5ea300a5733c8107ec2478a3","5f60e3c0a3b16e07647b2ff9","5f61dc2c01d085184886c24a","false","null","<span style=""color: black; font-size: 48px"">N + M</span>","null","","","","resp_prompt","","","","","","","","","","","","","","","",""
"categorize-image","120","271167","0.0-4.0-1.0-1.0","pr57vemnaupfq4v","prime","5ea300a5733c8107ec2478a3","5f60e3c0a3b16e07647b2ff9","5f61dc2c01d085184886c24a","true","831.2249999999185","./Stimuli/SelectedImages/SM/SM76.bmp","76","","","","test","true","N + M","76","switch","SM","SM76.bmp","remember","","49","3","prime1","right","","","",""
"html-keyboard-response","121","273173","0.0-4.0-1.0-3.0","pr57vemnaupfq4v","prime","5ea300a5733c8107ec2478a3","5f60e3c0a3b16e07647b2ff9","5f61dc2c01d085184886c24a","false","null","<div style=""align-items: center; display: flex; color: dodgerblue; font-size: 90px""><b>o</b></div>","null","","","","forget_cue","","","","","","","","","","","","","","","",""
"html-keyboard-response","122","273876","0.0-4.0-1.0-0.1","pr57vemnaupfq4v","prime","5ea300a5733c8107ec2478a3","5f60e3c0a3b16e07647b2ff9","5f61dc2c01d085184886c24a","false","null","<span style=""color: black; font-size: 48px"">M + N</span>","null","","","","resp_prompt","","","","","","","","","","","","","","","",""
"categorize-image","123","275069","0.0-4.0-1.0-1.1","pr57vemnaupfq4v","prime","5ea300a5733c8107ec2478a3","5f60e3c0a3b16e07647b2ff9","5f61dc2c01d085184886c24a","true","1188.484999999695","./Stimuli/SelectedImages/LN/LN82.bmp","76","","","","test","true","M + N","76","switch","LN","LN82.bmp","remember","","50","3","prime1","right","","","",""
"html-keyboard-response","124","277073","0.0-4.0-1.0-3.1","pr57vemnaupfq4v","prime","5ea300a5733c8107ec2478a3","5f60e3c0a3b16e07647b2ff9","5f61dc2c01d085184886c24a","false","null","<div style=""align-items: center; display: flex; color: dodgerblue; font-size: 90px""><b>o</b></div>","null","","","","forget_cue","","","","","","","","","","","","","","","",""
"html-keyboard-response","125","277779","0.0-4.0-1.0-0.2","pr57vemnaupfq4v","prime","5ea300a5733c8107ec2478a3","5f60e3c0a3b16e07647b2ff9","5f61dc2c01d085184886c24a","false","null","<span style=""color: black; font-size: 48px"">N + M</span>","null","","","","resp_prompt","","","","","","","","","","","","","","","",""
"categorize-image","126","278879","0.0-4.0-1.0-1.2","pr57vemnaupfq4v","prime","5ea300a5733c8107ec2478a3","5f60e3c0a3b16e07647b2ff9","5f61dc2c01d085184886c24a","true","1096.4300000005169","./Stimuli/SelectedImages/SN/SN49.bmp","83","","","","test","true","N + M","83","switch","SN","SN49.bmp","forget","","51","3","prime1","left","","","",""
"html-keyboard-response","127","280886","0.0-4.0-1.0-3.2","pr57vemnaupfq4v","prime","5ea300a5733c8107ec2478a3","5f60e3c0a3b16e07647b2ff9","5f61dc2c01d085184886c24a","false","null","<div style=""align-items: center; display: flex; color: darkorange; font-size: 90px""><b>ø</b></div>","null","","","","forget_cue","","","","","","","","","","","","","","","",""
"html-keyboard-response","128","281590","0.0-4.0-1.0-0.3","pr57vemnaupfq4v","prime","5ea300a5733c8107ec2478a3","5f60e3c0a3b16e07647b2ff9","5f61dc2c01d085184886c24a","false","null","<span style=""color: black; font-size: 48px"">M + N</span>","null","","","","resp_prompt","","","","","","","","","","","","","","","",""
"categorize-image","129","283020","0.0-4.0-1.0-1.3","pr57vemnaupfq4v","prime","5ea300a5733c8107ec2478a3","5f60e3c0a3b16e07647b2ff9","5f61dc2c01d085184886c24a","true","1424.3549999991665","./Stimuli/SelectedImages/SM/SM73.bmp","83","","","","test","true","M + N","83","repetition","SM","SM73.bmp","remember","","52","3","prime1","left","","","",""
"html-keyboard-response","130","285025","0.0-4.0-1.0-3.3","pr57vemnaupfq4v","prime","5ea300a5733c8107ec2478a3","5f60e3c0a3b16e07647b2ff9","5f61dc2c01d085184886c24a","false","null","<div style=""align-items: center; display: flex; color: dodgerblue; font-size: 90px""><b>o</b></div>","null","","","","forget_cue","","","","","","","","","","","","","","","",""
"html-keyboard-response","131","285730","0.0-4.0-1.0-0.4","pr57vemnaupfq4v","prime","5ea300a5733c8107ec2478a3","5f60e3c0a3b16e07647b2ff9","5f61dc2c01d085184886c24a","false","null","<span style=""color: black; font-size: 48px"">N + M</span>","null","","","","resp_prompt","","","","","","","","","","","","","","","",""
"categorize-image","132","287731","0.0-4.0-1.0-1.4","pr57vemnaupfq4v","prime","5ea300a5733c8107ec2478a3","5f60e3c0a3b16e07647b2ff9","5f61dc2c01d085184886c24a","true","1996.9400000000023","./Stimuli/SelectedImages/SN/SN93.bmp","83","","","","test","true","N + M","83","repetition","SN","SN93.bmp","forget","","53","3","prime1","left","","","",""
"html-keyboard-response","133","289732","0.0-4.0-1.0-3.4","pr57vemnaupfq4v","prime","5ea300a5733c8107ec2478a3","5f60e3c0a3b16e07647b2ff9","5f61dc2c01d085184886c24a","false","null","<div style=""align-items: center; display: flex; color: darkorange; font-size: 90px""><b>ø</b></div>","null","","","","forget_cue","","","","","","","","","","","","","","","",""
"html-keyboard-response","134","290438","0.0-4.0-1.0-0.5","pr57vemnaupfq4v","prime","5ea300a5733c8107ec2478a3","5f60e3c0a3b16e07647b2ff9","5f61dc2c01d085184886c24a","false","null","<span style=""color: black; font-size: 48px"">M + N</span>","null","","","","resp_prompt","","","","","","","","","","","","","","","",""
"categorize-image","135","291422","0.0-4.0-1.0-1.5","pr57vemnaupfq4v","prime","5ea300a5733c8107ec2478a3","5f60e3c0a3b16e07647b2ff9","5f61dc2c01d085184886c24a","true","979.2999999999884","./Stimuli/SelectedImages/LM/LM58.bmp","83","","","","test","true","M + N","83","switch","LM","LM58.bmp","forget","","54","3","prime1","left","","","",""
"html-keyboard-response","136","293425","0.0-4.0-1.0-3.5","pr57vemnaupfq4v","prime","5ea300a5733c8107ec2478a3","5f60e3c0a3b16e07647b2ff9","5f61dc2c01d085184886c24a","false","null","<div style=""align-items: center; display: flex; color: darkorange; font-size: 90px""><b>ø</b></div>","null","","","","forget_cue","","","","","","","","","","","","","","","",""
"html-keyboard-response","137","294130","0.0-4.0-1.0-0.6","pr57vemnaupfq4v","prime","5ea300a5733c8107ec2478a3","5f60e3c0a3b16e07647b2ff9","5f61dc2c01d085184886c24a","false","null","<span style=""color: black; font-size: 48px"">N + M</span>","null","","","","resp_prompt","","","","","","","","","","","","","","","",""
"categorize-image","138","295057","0.0-4.0-1.0-1.6","pr57vemnaupfq4v","prime","5ea300a5733c8107ec2478a3","5f60e3c0a3b16e07647b2ff9","5f61dc2c01d085184886c24a","true","923.7949999996927","./Stimuli/SelectedImages/SN/SN179.bmp","83","","","","test","true","N + M","83","repetition","SN","SN179.bmp","forget","","55","3","prime1","left","","","",""
"html-keyboard-response","139","297061","0.0-4.0-1.0-3.6","pr57vemnaupfq4v","prime","5ea300a5733c8107ec2478a3","5f60e3c0a3b16e07647b2ff9","5f61dc2c01d085184886c24a","false","null","<div style=""align-items: center; display: flex; color: darkorange; font-size: 90px""><b>ø</b></div>","null","","","","forget_cue","","","","","","","","","","","","","","","",""
"html-keyboard-response","140","297764","0.0-4.0-1.0-0.7","pr57vemnaupfq4v","prime","5ea300a5733c8107ec2478a3","5f60e3c0a3b16e07647b2ff9","5f61dc2c01d085184886c24a","false","null","<span style=""color: black; font-size: 48px"">M + N</span>","null","","","","resp_prompt","","","","","","","","","","","","","","","",""
"categorize-image","141","298708","0.0-4.0-1.0-1.7","pr57vemnaupfq4v","prime","5ea300a5733c8107ec2478a3","5f60e3c0a3b16e07647b2ff9","5f61dc2c01d085184886c24a","true","938.9649999993853","./Stimuli/SelectedImages/LN/LN42.bmp","76","","","","test","true","M + N","76","repetition","LN","LN42.bmp","forget","","56","3","prime1","right","","","",""
"html-keyboard-response","142","300711","0.0-4.0-1.0-3.7","pr57vemnaupfq4v","prime","5ea300a5733c8107ec2478a3","5f60e3c0a3b16e07647b2ff9","5f61dc2c01d085184886c24a","false","null","<div style=""align-items: center; display: flex; color: darkorange; font-size: 90px""><b>ø</b></div>","null","","","","forget_cue","","","","","","","","","","","","","","","",""
"html-keyboard-response","143","301417","0.0-4.0-1.0-0.8","pr57vemnaupfq4v","prime","5ea300a5733c8107ec2478a3","5f60e3c0a3b16e07647b2ff9","5f61dc2c01d085184886c24a","false","null","<span style=""color: black; font-size: 48px"">M + N</span>","null","","","","resp_prompt","","","","","","","","","","","","","","","",""
"categorize-image","144","302197","0.0-4.0-1.0-1.8","pr57vemnaupfq4v","prime","5ea300a5733c8107ec2478a3","5f60e3c0a3b16e07647b2ff9","5f61dc2c01d085184886c24a","true","775.7300000002724","./Stimuli/SelectedImages/LN/LN131.bmp","76","","","","test","true","M + N","76","repetition","LN","LN131.bmp","remember","","57","3","prime1","right","","","",""
"html-keyboard-response","145","304200","0.0-4.0-1.0-3.8","pr57vemnaupfq4v","prime","5ea300a5733c8107ec2478a3","5f60e3c0a3b16e07647b2ff9","5f61dc2c01d085184886c24a","false","null","<div style=""align-items: center; display: flex; color: dodgerblue; font-size: 90px""><b>o</b></div>","null","","","","forget_cue","","","","","","","","","","","","","","","",""
"html-keyboard-response","146","304902","0.0-4.0-1.0-0.9","pr57vemnaupfq4v","prime","5ea300a5733c8107ec2478a3","5f60e3c0a3b16e07647b2ff9","5f61dc2c01d085184886c24a","false","null","<span style=""color: black; font-size: 48px"">N + M</span>","null","","","","resp_prompt","","","","","","","","","","","","","","","",""
"categorize-image","147","305685","0.0-4.0-1.0-1.9","pr57vemnaupfq4v","prime","5ea300a5733c8107ec2478a3","5f60e3c0a3b16e07647b2ff9","5f61dc2c01d085184886c24a","true","778.4050000000279","./Stimuli/SelectedImages/LN/LN177.bmp","83","","","","test","true","N + M","83","repetition","LN","LN177.bmp","remember","","58","3","prime1","left","","","",""
"html-keyboard-response","148","307687","0.0-4.0-1.0-3.9","pr57vemnaupfq4v","prime","5ea300a5733c8107ec2478a3","5f60e3c0a3b16e07647b2ff9","5f61dc2c01d085184886c24a","false","null","<div style=""align-items: center; display: flex; color: dodgerblue; font-size: 90px""><b>o</b></div>","null","","","","forget_cue","","","","","","","","","","","","","","","",""
"html-keyboard-response","149","308393","0.0-4.0-1.0-0.10","pr57vemnaupfq4v","prime","5ea300a5733c8107ec2478a3","5f60e3c0a3b16e07647b2ff9","5f61dc2c01d085184886c24a","false","null","<span style=""color: black; font-size: 48px"">N + M</span>","null","","","","resp_prompt","","","","","","","","","","","","","","","",""
"categorize-image","150","309083","0.0-4.0-1.0-1.10","pr57vemnaupfq4v","prime","5ea300a5733c8107ec2478a3","5f60e3c0a3b16e07647b2ff9","5f61dc2c01d085184886c24a","true","686.2449999998789","./Stimuli/SelectedImages/LN/LN128.bmp","83","","","","test","true","N + M","83","switch","LN","LN128.bmp","forget","","59","3","prime1","left","","","",""
"html-keyboard-response","151","311089","0.0-4.0-1.0-3.10","pr57vemnaupfq4v","prime","5ea300a5733c8107ec2478a3","5f60e3c0a3b16e07647b2ff9","5f61dc2c01d085184886c24a","false","null","<div style=""align-items: center; display: flex; color: darkorange; font-size: 90px""><b>ø</b></div>","null","","","","forget_cue","","","","","","","","","","","","","","","",""
"html-keyboard-response","152","311791","0.0-4.0-1.0-0.11","pr57vemnaupfq4v","prime","5ea300a5733c8107ec2478a3","5f60e3c0a3b16e07647b2ff9","5f61dc2c01d085184886c24a","false","null","<span style=""color: black; font-size: 48px"">M + N</span>","null","","","","resp_prompt","","","","","","","","","","","","","","","",""
"categorize-image","153","312635","0.0-4.0-1.0-1.11","pr57vemnaupfq4v","prime","5ea300a5733c8107ec2478a3","5f60e3c0a3b16e07647b2ff9","5f61dc2c01d085184886c24a","true","840.1849999999977","./Stimuli/SelectedImages/SN/SN52.bmp","76","","","","test","true","M + N","76","switch","SN","SN52.bmp","forget","","60","3","prime1","right","","","",""
"html-keyboard-response","154","314637","0.0-4.0-1.0-3.11","pr57vemnaupfq4v","prime","5ea300a5733c8107ec2478a3","5f60e3c0a3b16e07647b2ff9","5f61dc2c01d085184886c24a","false","null","<div style=""align-items: center; display: flex; color: darkorange; font-size: 90px""><b>ø</b></div>","null","","","","forget_cue","","","","","","","","","","","","","","","",""
"html-keyboard-response","155","315342","0.0-4.0-1.0-0.12","pr57vemnaupfq4v","prime","5ea300a5733c8107ec2478a3","5f60e3c0a3b16e07647b2ff9","5f61dc2c01d085184886c24a","false","null","<span style=""color: black; font-size: 48px"">M + N</span>","null","","","","resp_prompt","","","","","","","","","","","","","","","",""
"categorize-image","156","316641","0.0-4.0-1.0-1.12","pr57vemnaupfq4v","prime","5ea300a5733c8107ec2478a3","5f60e3c0a3b16e07647b2ff9","5f61dc2c01d085184886c24a","true","1295.4950000002864","./Stimuli/SelectedImages/SM/SM195.bmp","83","","","","test","true","M + N","83","switch","SM","SM195.bmp","remember","","61","3","prime1","left","","","",""
"html-keyboard-response","157","318643","0.0-4.0-1.0-3.12","pr57vemnaupfq4v","prime","5ea300a5733c8107ec2478a3","5f60e3c0a3b16e07647b2ff9","5f61dc2c01d085184886c24a","false","null","<div style=""align-items: center; display: flex; color: dodgerblue; font-size: 90px""><b>o</b></div>","null","","","","forget_cue","","","","","","","","","","","","","","","",""
"html-keyboard-response","158","319344","0.0-4.0-1.0-0.13","pr57vemnaupfq4v","prime","5ea300a5733c8107ec2478a3","5f60e3c0a3b16e07647b2ff9","5f61dc2c01d085184886c24a","false","null","<span style=""color: black; font-size: 48px"">N + M</span>","null","","","","resp_prompt","","","","","","","","","","","","","","","",""
"categorize-image","159","320210","0.0-4.0-1.0-1.13","pr57vemnaupfq4v","prime","5ea300a5733c8107ec2478a3","5f60e3c0a3b16e07647b2ff9","5f61dc2c01d085184886c24a","true","862.1750000002212","./Stimuli/SelectedImages/SM/SM207.bmp","76","","","","test","true","N + M","76","switch","SM","SM207.bmp","forget","","62","3","prime1","right","","","",""
"html-keyboard-response","160","322215","0.0-4.0-1.0-3.13","pr57vemnaupfq4v","prime","5ea300a5733c8107ec2478a3","5f60e3c0a3b16e07647b2ff9","5f61dc2c01d085184886c24a","false","null","<div style=""align-items: center; display: flex; color: darkorange; font-size: 90px""><b>ø</b></div>","null","","","","forget_cue","","","","","","","","","","","","","","","",""
"html-keyboard-response","161","322921","0.0-4.0-1.0-0.14","pr57vemnaupfq4v","prime","5ea300a5733c8107ec2478a3","5f60e3c0a3b16e07647b2ff9","5f61dc2c01d085184886c24a","false","null","<span style=""color: black; font-size: 48px"">M + N</span>","null","","","","resp_prompt","","","","","","","","","","","","","","","",""
"categorize-image","162","323957","0.0-4.0-1.0-1.14","pr57vemnaupfq4v","prime","5ea300a5733c8107ec2478a3","5f60e3c0a3b16e07647b2ff9","5f61dc2c01d085184886c24a","true","1032.1949999997742","./Stimuli/SelectedImages/SN/SN27.bmp","76","","","","test","true","M + N","76","switch","SN","SN27.bmp","remember","","63","3","prime1","right","","","",""
"html-keyboard-response","163","325960","0.0-4.0-1.0-3.14","pr57vemnaupfq4v","prime","5ea300a5733c8107ec2478a3","5f60e3c0a3b16e07647b2ff9","5f61dc2c01d085184886c24a","false","null","<div style=""align-items: center; display: flex; color: dodgerblue; font-size: 90px""><b>o</b></div>","null","","","","forget_cue","","","","","","","","","","","","","","","",""
"html-keyboard-response","164","326664","0.0-4.0-1.0-0.15","pr57vemnaupfq4v","prime","5ea300a5733c8107ec2478a3","5f60e3c0a3b16e07647b2ff9","5f61dc2c01d085184886c24a","false","null","<span style=""color: black; font-size: 48px"">N + M</span>","null","","","","resp_prompt","","","","","","","","","","","","","","","",""
"categorize-image","165","327549","0.0-4.0-1.0-1.15","pr57vemnaupfq4v","prime","5ea300a5733c8107ec2478a3","5f60e3c0a3b16e07647b2ff9","5f61dc2c01d085184886c24a","true","879.4649999999674","./Stimuli/SelectedImages/SM/SM205.bmp","76","","","","test","true","N + M","76","repetition","SM","SM205.bmp","forget","","64","3","prime1","right","","","",""
"html-keyboard-response","166","329555","0.0-4.0-1.0-3.15","pr57vemnaupfq4v","prime","5ea300a5733c8107ec2478a3","5f60e3c0a3b16e07647b2ff9","5f61dc2c01d085184886c24a","false","null","<div style=""align-items: center; display: flex; color: darkorange; font-size: 90px""><b>ø</b></div>","null","","","","forget_cue","","","","","","","","","","","","","","","",""
"html-keyboard-response","167","330260","0.0-4.0-1.0-0.16","pr57vemnaupfq4v","prime","5ea300a5733c8107ec2478a3","5f60e3c0a3b16e07647b2ff9","5f61dc2c01d085184886c24a","false","null","<span style=""color: black; font-size: 48px"">N + M</span>","null","","","","resp_prompt","","","","","","","","","","","","","","","",""
"categorize-image","168","331258","0.0-4.0-1.0-1.16","pr57vemnaupfq4v","prime","5ea300a5733c8107ec2478a3","5f60e3c0a3b16e07647b2ff9","5f61dc2c01d085184886c24a","true","993.824999999546","./Stimuli/SelectedImages/SM/SM106.bmp","76","","","","test","true","N + M","76","switch","SM","SM106.bmp","remember","","65","3","prime1","right","","","",""
"html-keyboard-response","169","333260","0.0-4.0-1.0-3.16","pr57vemnaupfq4v","prime","5ea300a5733c8107ec2478a3","5f60e3c0a3b16e07647b2ff9","5f61dc2c01d085184886c24a","false","null","<div style=""align-items: center; display: flex; color: dodgerblue; font-size: 90px""><b>o</b></div>","null","","","","forget_cue","","","","","","","","","","","","","","","",""
"html-keyboard-response","170","333966","0.0-4.0-1.0-0.17","pr57vemnaupfq4v","prime","5ea300a5733c8107ec2478a3","5f60e3c0a3b16e07647b2ff9","5f61dc2c01d085184886c24a","false","null","<span style=""color: black; font-size: 48px"">M + N</span>","null","","","","resp_prompt","","","","","","","","","","","","","","","",""
"categorize-image","171","335365","0.0-4.0-1.0-1.17","pr57vemnaupfq4v","prime","5ea300a5733c8107ec2478a3","5f60e3c0a3b16e07647b2ff9","5f61dc2c01d085184886c24a","true","1395.774999999965","./Stimuli/SelectedImages/LM/LM209.bmp","83","","","","test","true","M + N","83","repetition","LM","LM209.bmp","remember","","66","3","prime1","left","","","",""
"html-keyboard-response","172","337368","0.0-4.0-1.0-3.17","pr57vemnaupfq4v","prime","5ea300a5733c8107ec2478a3","5f60e3c0a3b16e07647b2ff9","5f61dc2c01d085184886c24a","false","null","<div style=""align-items: center; display: flex; color: dodgerblue; font-size: 90px""><b>o</b></div>","null","","","","forget_cue","","","","","","","","","","","","","","","",""
"html-keyboard-response","173","338073","0.0-4.0-1.0-0.18","pr57vemnaupfq4v","prime","5ea300a5733c8107ec2478a3","5f60e3c0a3b16e07647b2ff9","5f61dc2c01d085184886c24a","false","null","<span style=""color: black; font-size: 48px"">N + M</span>","null","","","","resp_prompt","","","","","","","","","","","","","","","",""
"categorize-image","174","339761","0.0-4.0-1.0-1.18","pr57vemnaupfq4v","prime","5ea300a5733c8107ec2478a3","5f60e3c0a3b16e07647b2ff9","5f61dc2c01d085184886c24a","true","1683.6899999998277","./Stimuli/SelectedImages/LN/LN12.bmp","83","","","","test","true","N + M","83","switch","LN","LN12.bmp","remember","","67","3","prime1","left","","","",""
"html-keyboard-response","175","341766","0.0-4.0-1.0-3.18","pr57vemnaupfq4v","prime","5ea300a5733c8107ec2478a3","5f60e3c0a3b16e07647b2ff9","5f61dc2c01d085184886c24a","false","null","<div style=""align-items: center; display: flex; color: dodgerblue; font-size: 90px""><b>o</b></div>","null","","","","forget_cue","","","","","","","","","","","","","","","",""
"html-keyboard-response","176","342470","0.0-4.0-1.0-0.19","pr57vemnaupfq4v","prime","5ea300a5733c8107ec2478a3","5f60e3c0a3b16e07647b2ff9","5f61dc2c01d085184886c24a","false","null","<span style=""color: black; font-size: 48px"">N + M</span>","null","","","","resp_prompt","","","","","","","","","","","","","","","",""
"categorize-image","177","343220","0.0-4.0-1.0-1.19","pr57vemnaupfq4v","prime","5ea300a5733c8107ec2478a3","5f60e3c0a3b16e07647b2ff9","5f61dc2c01d085184886c24a","true","745.6149999998161","./Stimuli/SelectedImages/SM/SM184.bmp","76","","","","test","true","N + M","76","repetition","SM","SM184.bmp","remember","","68","3","prime1","right","","","",""
"html-keyboard-response","178","345223","0.0-4.0-1.0-3.19","pr57vemnaupfq4v","prime","5ea300a5733c8107ec2478a3","5f60e3c0a3b16e07647b2ff9","5f61dc2c01d085184886c24a","false","null","<div style=""align-items: center; display: flex; color: dodgerblue; font-size: 90px""><b>o</b></div>","null","","","","forget_cue","","","","","","","","","","","","","","","",""
"html-keyboard-response","179","345926","0.0-4.0-1.0-0.20","pr57vemnaupfq4v","prime","5ea300a5733c8107ec2478a3","5f60e3c0a3b16e07647b2ff9","5f61dc2c01d085184886c24a","false","null","<span style=""color: black; font-size: 48px"">N + M</span>","null","","","","resp_prompt","","","","","","","","","","","","","","","",""
"categorize-image","180","346730","0.0-4.0-1.0-1.20","pr57vemnaupfq4v","prime","5ea300a5733c8107ec2478a3","5f60e3c0a3b16e07647b2ff9","5f61dc2c01d085184886c24a","true","798.824999999837","./Stimuli/SelectedImages/LN/LN111.bmp","83","","","","test","true","N + M","83","repetition","LN","LN111.bmp","remember","","69","3","prime1","left","","","",""
"html-keyboard-response","181","348732","0.0-4.0-1.0-3.20","pr57vemnaupfq4v","prime","5ea300a5733c8107ec2478a3","5f60e3c0a3b16e07647b2ff9","5f61dc2c01d085184886c24a","false","null","<div style=""align-items: center; display: flex; color: dodgerblue; font-size: 90px""><b>o</b></div>","null","","","","forget_cue","","","","","","","","","","","","","","","",""
"html-keyboard-response","182","349433","0.0-4.0-1.0-0.21","pr57vemnaupfq4v","prime","5ea300a5733c8107ec2478a3","5f60e3c0a3b16e07647b2ff9","5f61dc2c01d085184886c24a","false","null","<span style=""color: black; font-size: 48px"">M + N</span>","null","","","","resp_prompt","","","","","","","","","","","","","","","",""
"categorize-image","183","350453","0.0-4.0-1.0-1.21","pr57vemnaupfq4v","prime","5ea300a5733c8107ec2478a3","5f60e3c0a3b16e07647b2ff9","5f61dc2c01d085184886c24a","true","1016.4250000007451","./Stimuli/SelectedImages/SN/SN181.bmp","76","","","","test","true","M + N","76","repetition","SN","SN181.bmp","remember","","70","3","prime1","right","","","",""
"html-keyboard-response","184","352459","0.0-4.0-1.0-3.21","pr57vemnaupfq4v","prime","5ea300a5733c8107ec2478a3","5f60e3c0a3b16e07647b2ff9","5f61dc2c01d085184886c24a","false","null","<div style=""align-items: center; display: flex; color: dodgerblue; font-size: 90px""><b>o</b></div>","null","","","","forget_cue","","","","","","","","","","","","","","","",""
"html-keyboard-response","185","353161","0.0-4.0-1.0-0.22","pr57vemnaupfq4v","prime","5ea300a5733c8107ec2478a3","5f60e3c0a3b16e07647b2ff9","5f61dc2c01d085184886c24a","false","null","<span style=""color: black; font-size: 48px"">N + M</span>","null","","","","resp_prompt","","","","","","","","","","","","","","","",""
"categorize-image","186","353904","0.0-4.0-1.0-1.22","pr57vemnaupfq4v","prime","5ea300a5733c8107ec2478a3","5f60e3c0a3b16e07647b2ff9","5f61dc2c01d085184886c24a","true","738.6850000002305","./Stimuli/SelectedImages/SN/SN155.bmp","83","","","","test","true","N + M","83","switch","SN","SN155.bmp","forget","","71","3","prime1","left","","","",""
"html-keyboard-response","187","355907","0.0-4.0-1.0-3.22","pr57vemnaupfq4v","prime","5ea300a5733c8107ec2478a3","5f60e3c0a3b16e07647b2ff9","5f61dc2c01d085184886c24a","false","null","<div style=""align-items: center; display: flex; color: darkorange; font-size: 90px""><b>ø</b></div>","null","","","","forget_cue","","","","","","","","","","","","","","","",""
"html-keyboard-response","188","356612","0.0-4.0-1.0-0.23","pr57vemnaupfq4v","prime","5ea300a5733c8107ec2478a3","5f60e3c0a3b16e07647b2ff9","5f61dc2c01d085184886c24a","false","null","<span style=""color: black; font-size: 48px"">N + M</span>","null","","","","resp_prompt","","","","","","","","","","","","","","","",""
"categorize-image","189","357254","0.0-4.0-1.0-1.23","pr57vemnaupfq4v","prime","5ea300a5733c8107ec2478a3","5f60e3c0a3b16e07647b2ff9","5f61dc2c01d085184886c24a","true","637.9500000003027","./Stimuli/SelectedImages/LM/LM179.bmp","76","","","","test","true","N + M","76","repetition","LM","LM179.bmp","forget","","72","3","prime1","right","","","",""
"html-keyboard-response","190","359258","0.0-4.0-1.0-3.23","pr57vemnaupfq4v","prime","5ea300a5733c8107ec2478a3","5f60e3c0a3b16e07647b2ff9","5f61dc2c01d085184886c24a","false","null","<div style=""align-items: center; display: flex; color: darkorange; font-size: 90px""><b>ø</b></div>","null","","","","forget_cue","","","","","","","","","","","","","","","",""
"html-keyboard-response","191","359961","0.0-4.0-1.0-0.24","pr57vemnaupfq4v","prime","5ea300a5733c8107ec2478a3","5f60e3c0a3b16e07647b2ff9","5f61dc2c01d085184886c24a","false","null","<span style=""color: black; font-size: 48px"">M + N</span>","null","","","","resp_prompt","","","","","","","","","","","","","","","",""
"categorize-image","192","360876","0.0-4.0-1.0-1.24","pr57vemnaupfq4v","prime","5ea300a5733c8107ec2478a3","5f60e3c0a3b16e07647b2ff9","5f61dc2c01d085184886c24a","true","911.2949999998673","./Stimuli/SelectedImages/SN/SN128.bmp","76","","","","test","true","M + N","76","repetition","SN","SN128.bmp","forget","","73","3","prime1","right","","","",""
"html-keyboard-response","193","362878","0.0-4.0-1.0-3.24","pr57vemnaupfq4v","prime","5ea300a5733c8107ec2478a3","5f60e3c0a3b16e07647b2ff9","5f61dc2c01d085184886c24a","false","null","<div style=""align-items: center; display: flex; color: darkorange; font-size: 90px""><b>ø</b></div>","null","","","","forget_cue","","","","","","","","","","","","","","","",""
"html-keyboard-response","194","363579","0.0-4.0-1.0-0.25","pr57vemnaupfq4v","prime","5ea300a5733c8107ec2478a3","5f60e3c0a3b16e07647b2ff9","5f61dc2c01d085184886c24a","false","null","<span style=""color: black; font-size: 48px"">M + N</span>","null","","","","resp_prompt","","","","","","","","","","","","","","","",""
"categorize-image","195","364254","0.0-4.0-1.0-1.25","pr57vemnaupfq4v","prime","5ea300a5733c8107ec2478a3","5f60e3c0a3b16e07647b2ff9","5f61dc2c01d085184886c24a","true","671.3999999992666","./Stimuli/SelectedImages/LM/LM48.bmp","83","","","","test","true","M + N","83","repetition","LM","LM48.bmp","forget","","74","3","prime1","left","","","",""
"html-keyboard-response","196","366258","0.0-4.0-1.0-3.25","pr57vemnaupfq4v","prime","5ea300a5733c8107ec2478a3","5f60e3c0a3b16e07647b2ff9","5f61dc2c01d085184886c24a","false","null","<div style=""align-items: center; display: flex; color: darkorange; font-size: 90px""><b>ø</b></div>","null","","","","forget_cue","","","","","","","","","","","","","","","",""
"html-keyboard-response","197","366961","0.0-4.0-1.0-0.26","pr57vemnaupfq4v","prime","5ea300a5733c8107ec2478a3","5f60e3c0a3b16e07647b2ff9","5f61dc2c01d085184886c24a","false","null","<span style=""color: black; font-size: 48px"">N + M</span>","null","","","","resp_prompt","","","","","","","","","","","","","","","",""
"categorize-image","198","367635","0.0-4.0-1.0-1.26","pr57vemnaupfq4v","prime","5ea300a5733c8107ec2478a3","5f60e3c0a3b16e07647b2ff9","5f61dc2c01d085184886c24a","true","669.5499999996391","./Stimuli/SelectedImages/LN/LN13.bmp","83","","","","test","true","N + M","83","switch","LN","LN13.bmp","remember","","75","3","prime1","left","","","",""
"html-keyboard-response","199","369638","0.0-4.0-1.0-3.26","pr57vemnaupfq4v","prime","5ea300a5733c8107ec2478a3","5f60e3c0a3b16e07647b2ff9","5f61dc2c01d085184886c24a","false","null","<div style=""align-items: center; display: flex; color: dodgerblue; font-size: 90px""><b>o</b></div>","null","","","","forget_cue","","","","","","","","","","","","","","","",""
"html-keyboard-response","200","370342","0.0-4.0-1.0-0.27","pr57vemnaupfq4v","prime","5ea300a5733c8107ec2478a3","5f60e3c0a3b16e07647b2ff9","5f61dc2c01d085184886c24a","false","null","<span style=""color: black; font-size: 48px"">N + M</span>","null","","","","resp_prompt","","","","","","","","","","","","","","","",""
"categorize-image","201","371005","0.0-4.0-1.0-1.27","pr57vemnaupfq4v","prime","5ea300a5733c8107ec2478a3","5f60e3c0a3b16e07647b2ff9","5f61dc2c01d085184886c24a","true","658.8050000000512","./Stimuli/SelectedImages/LM/LM100.bmp","76","","","","test","true","N + M","76","repetition","LM","LM100.bmp","remember","","76","3","prime1","right","","","",""
"html-keyboard-response","202","373007","0.0-4.0-1.0-3.27","pr57vemnaupfq4v","prime","5ea300a5733c8107ec2478a3","5f60e3c0a3b16e07647b2ff9","5f61dc2c01d085184886c24a","false","null","<div style=""align-items: center; display: flex; color: dodgerblue; font-size: 90px""><b>o</b></div>","null","","","","forget_cue","","","","","","","","","","","","","","","",""
"html-keyboard-response","203","373712","0.0-4.0-1.0-0.28","pr57vemnaupfq4v","prime","5ea300a5733c8107ec2478a3","5f60e3c0a3b16e07647b2ff9","5f61dc2c01d085184886c24a","false","null","<span style=""color: black; font-size: 48px"">N + M</span>","null","","","","resp_prompt","","","","","","","","","","","","","","","",""
"categorize-image","204","374576","0.0-4.0-1.0-1.28","pr57vemnaupfq4v","prime","5ea300a5733c8107ec2478a3","5f60e3c0a3b16e07647b2ff9","5f61dc2c01d085184886c24a","true","860.0249999999651","./Stimuli/SelectedImages/LM/LM57.bmp","76","","","","test","true","N + M","76","switch","LM","LM57.bmp","remember","","77","3","prime1","right","","","",""
"html-keyboard-response","205","376578","0.0-4.0-1.0-3.28","pr57vemnaupfq4v","prime","5ea300a5733c8107ec2478a3","5f60e3c0a3b16e07647b2ff9","5f61dc2c01d085184886c24a","false","null","<div style=""align-items: center; display: flex; color: dodgerblue; font-size: 90px""><b>o</b></div>","null","","","","forget_cue","","","","","","","","","","","","","","","",""
"html-keyboard-response","206","377282","0.0-4.0-1.0-0.29","pr57vemnaupfq4v","prime","5ea300a5733c8107ec2478a3","5f60e3c0a3b16e07647b2ff9","5f61dc2c01d085184886c24a","false","null","<span style=""color: black; font-size: 48px"">M + N</span>","null","","","","resp_prompt","","","","","","","","","","","","","","","",""
"categorize-image","207","378035","0.0-4.0-1.0-1.29","pr57vemnaupfq4v","prime","5ea300a5733c8107ec2478a3","5f60e3c0a3b16e07647b2ff9","5f61dc2c01d085184886c24a","true","748.749999999709","./Stimuli/SelectedImages/LM/LM167.bmp","76","","","","test","false","M + N","83","switch","LM","LM167.bmp","forget","","78","3","prime1","right","","","",""
"html-keyboard-response","208","378537","0.0-4.0-1.0-2.29-0.29","pr57vemnaupfq4v","prime","5ea300a5733c8107ec2478a3","5f60e3c0a3b16e07647b2ff9","5f61dc2c01d085184886c24a","false","null","<span style=""color: red; font-size: 48px"">Error!</span>","null","","","","feedback","","","","","","","","","","","","","","","",""
"html-keyboard-response","209","380539","0.0-4.0-1.0-3.29","pr57vemnaupfq4v","prime","5ea300a5733c8107ec2478a3","5f60e3c0a3b16e07647b2ff9","5f61dc2c01d085184886c24a","false","null","<div style=""align-items: center; display: flex; color: darkorange; font-size: 90px""><b>ø</b></div>","null","","","","forget_cue","","","","","","","","","","","","","","","",""
"html-keyboard-response","210","381242","0.0-4.0-1.0-0.30","pr57vemnaupfq4v","prime","5ea300a5733c8107ec2478a3","5f60e3c0a3b16e07647b2ff9","5f61dc2c01d085184886c24a","false","null","<span style=""color: black; font-size: 48px"">M + N</span>","null","","","","resp_prompt","","","","","","","","","","","","","","","",""
"categorize-image","211","381838","0.0-4.0-1.0-1.30","pr57vemnaupfq4v","prime","5ea300a5733c8107ec2478a3","5f60e3c0a3b16e07647b2ff9","5f61dc2c01d085184886c24a","true","591.7399999998743","./Stimuli/SelectedImages/SM/SM200.bmp","83","","","","test","true","M + N","83","repetition","SM","SM200.bmp","forget","","79","3","prime1","left","","","",""
"html-keyboard-response","212","383844","0.0-4.0-1.0-3.30","pr57vemnaupfq4v","prime","5ea300a5733c8107ec2478a3","5f60e3c0a3b16e07647b2ff9","5f61dc2c01d085184886c24a","false","null","<div style=""align-items: center; display: flex; color: darkorange; font-size: 90px""><b>ø</b></div>","null","","","","forget_cue","","","","","","","","","","","","","","","",""
"html-keyboard-response","213","384549","0.0-4.0-1.0-0.31","pr57vemnaupfq4v","prime","5ea300a5733c8107ec2478a3","5f60e3c0a3b16e07647b2ff9","5f61dc2c01d085184886c24a","false","null","<span style=""color: black; font-size: 48px"">N + M</span>","null","","","","resp_prompt","","","","","","","","","","","","","","","",""
"categorize-image","214","385327","0.0-4.0-1.0-1.31","pr57vemnaupfq4v","prime","5ea300a5733c8107ec2478a3","5f60e3c0a3b16e07647b2ff9","5f61dc2c01d085184886c24a","true","773.5899999997928","./Stimuli/SelectedImages/LM/LM216.bmp","76","","","","test","true","N + M","76","switch","LM","LM216.bmp","forget","","80","3","prime1","right","","","",""
"html-keyboard-response","215","387329","0.0-4.0-1.0-3.31","pr57vemnaupfq4v","prime","5ea300a5733c8107ec2478a3","5f60e3c0a3b16e07647b2ff9","5f61dc2c01d085184886c24a","false","null","<div style=""align-items: center; display: flex; color: darkorange; font-size: 90px""><b>ø</b></div>","null","","","","forget_cue","","","","","","","","","","","","","","","",""
"html-keyboard-response","216","388035","0.0-4.0-1.0-0.32","pr57vemnaupfq4v","prime","5ea300a5733c8107ec2478a3","5f60e3c0a3b16e07647b2ff9","5f61dc2c01d085184886c24a","false","null","<span style=""color: black; font-size: 48px"">M + N</span>","null","","","","resp_prompt","","","","","","","","","","","","","","","",""
"categorize-image","217","388723","0.0-4.0-1.0-1.32","pr57vemnaupfq4v","prime","5ea300a5733c8107ec2478a3","5f60e3c0a3b16e07647b2ff9","5f61dc2c01d085184886c24a","true","683.274999999383","./Stimuli/SelectedImages/SN/SN140.bmp","76","","","","test","true","M + N","76","repetition","SN","SN140.bmp","forget","","81","3","prime1","right","","","",""
"html-keyboard-response","218","390725","0.0-4.0-1.0-3.32","pr57vemnaupfq4v","prime","5ea300a5733c8107ec2478a3","5f60e3c0a3b16e07647b2ff9","5f61dc2c01d085184886c24a","false","null","<div style=""align-items: center; display: flex; color: darkorange; font-size: 90px""><b>ø</b></div>","null","","","","forget_cue","","","","","","","","","","","","","","","",""
"html-keyboard-response","219","391429","0.0-4.0-1.0-0.33","pr57vemnaupfq4v","prime","5ea300a5733c8107ec2478a3","5f60e3c0a3b16e07647b2ff9","5f61dc2c01d085184886c24a","false","null","<span style=""color: black; font-size: 48px"">M + N</span>","null","","","","resp_prompt","","","","","","","","","","","","","","","",""
"categorize-image","220","392031","0.0-4.0-1.0-1.33","pr57vemnaupfq4v","prime","5ea300a5733c8107ec2478a3","5f60e3c0a3b16e07647b2ff9","5f61dc2c01d085184886c24a","true","598.2800000001444","./Stimuli/SelectedImages/LM/LM59.bmp","83","","","","test","true","M + N","83","switch","LM","LM59.bmp","remember","","82","3","prime1","left","","","",""
"html-keyboard-response","221","394033","0.0-4.0-1.0-3.33","pr57vemnaupfq4v","prime","5ea300a5733c8107ec2478a3","5f60e3c0a3b16e07647b2ff9","5f61dc2c01d085184886c24a","false","null","<div style=""align-items: center; display: flex; color: dodgerblue; font-size: 90px""><b>o</b></div>","null","","","","forget_cue","","","","","","","","","","","","","","","",""
"html-keyboard-response","222","394736","0.0-4.0-1.0-0.34","pr57vemnaupfq4v","prime","5ea300a5733c8107ec2478a3","5f60e3c0a3b16e07647b2ff9","5f61dc2c01d085184886c24a","false","null","<span style=""color: black; font-size: 48px"">N + M</span>","null","","","","resp_prompt","","","","","","","","","","","","","","","",""
"categorize-image","223","395244","0.0-4.0-1.0-1.34","pr57vemnaupfq4v","prime","5ea300a5733c8107ec2478a3","5f60e3c0a3b16e07647b2ff9","5f61dc2c01d085184886c24a","true","503.75999999960186","./Stimuli/SelectedImages/LM/LM157.bmp","76","","","","test","true","N + M","76","switch","LM","LM157.bmp","remember","","83","3","prime1","right","","","",""
"html-keyboard-response","224","397249","0.0-4.0-1.0-3.34","pr57vemnaupfq4v","prime","5ea300a5733c8107ec2478a3","5f60e3c0a3b16e07647b2ff9","5f61dc2c01d085184886c24a","false","null","<div style=""align-items: center; display: flex; color: dodgerblue; font-size: 90px""><b>o</b></div>","null","","","","forget_cue","","","","","","","","","","","","","","","",""
"html-keyboard-response","225","397953","0.0-4.0-1.0-0.35","pr57vemnaupfq4v","prime","5ea300a5733c8107ec2478a3","5f60e3c0a3b16e07647b2ff9","5f61dc2c01d085184886c24a","false","null","<span style=""color: black; font-size: 48px"">M + N</span>","null","","","","resp_prompt","","","","","","","","","","","","","","","",""
"categorize-image","226","399963","0.0-4.0-1.0-1.35","pr57vemnaupfq4v","prime","5ea300a5733c8107ec2478a3","5f60e3c0a3b16e07647b2ff9","5f61dc2c01d085184886c24a","true","null","./Stimuli/SelectedImages/SM/SM17.bmp","null","","","","test","false","M + N","83","repetition","SM","SM17.bmp","remember","","84","3","prime1","too_slow","","","",""
"html-keyboard-response","227","400467","0.0-4.0-1.0-2.35-0.35","pr57vemnaupfq4v","prime","5ea300a5733c8107ec2478a3","5f60e3c0a3b16e07647b2ff9","5f61dc2c01d085184886c24a","false","null","<span style=""color: red; font-size: 48px"">Too slow!</span>","null","","","","feedback","","","","","","","","","","","","","","","",""
"html-keyboard-response","228","402468","0.0-4.0-1.0-3.35","pr57vemnaupfq4v","prime","5ea300a5733c8107ec2478a3","5f60e3c0a3b16e07647b2ff9","5f61dc2c01d085184886c24a","false","null","<div style=""align-items: center; display: flex; color: dodgerblue; font-size: 90px""><b>o</b></div>","null","","","","forget_cue","","","","","","","","","","","","","","","",""
"html-keyboard-response","229","403173","0.0-4.0-1.0-0.36","pr57vemnaupfq4v","prime","5ea300a5733c8107ec2478a3","5f60e3c0a3b16e07647b2ff9","5f61dc2c01d085184886c24a","false","null","<span style=""color: black; font-size: 48px"">N + M</span>","null","","","","resp_prompt","","","","","","","","","","","","","","","",""
"categorize-image","230","403842","0.0-4.0-1.0-1.36","pr57vemnaupfq4v","prime","5ea300a5733c8107ec2478a3","5f60e3c0a3b16e07647b2ff9","5f61dc2c01d085184886c24a","true","665.0399999998626","./Stimuli/SelectedImages/LM/LM103.bmp","76","","","","test","true","N + M","76","repetition","LM","LM103.bmp","remember","","85","3","prime1","right","","","",""
"html-keyboard-response","231","405846","0.0-4.0-1.0-3.36","pr57vemnaupfq4v","prime","5ea300a5733c8107ec2478a3","5f60e3c0a3b16e07647b2ff9","5f61dc2c01d085184886c24a","false","null","<div style=""align-items: center; display: flex; color: dodgerblue; font-size: 90px""><b>o</b></div>","null","","","","forget_cue","","","","","","","","","","","","","","","",""
"html-keyboard-response","232","406552","0.0-4.0-1.0-0.37","pr57vemnaupfq4v","prime","5ea300a5733c8107ec2478a3","5f60e3c0a3b16e07647b2ff9","5f61dc2c01d085184886c24a","false","null","<span style=""color: black; font-size: 48px"">M + N</span>","null","","","","resp_prompt","","","","","","","","","","","","","","","",""
"categorize-image","233","407540","0.0-4.0-1.0-1.37","pr57vemnaupfq4v","prime","5ea300a5733c8107ec2478a3","5f60e3c0a3b16e07647b2ff9","5f61dc2c01d085184886c24a","true","984.0949999997974","./Stimuli/SelectedImages/LN/LN59.bmp","76","","","","test","true","M + N","76","switch","LN","LN59.bmp","forget","","86","3","prime1","right","","","",""
"html-keyboard-response","234","409544","0.0-4.0-1.0-3.37","pr57vemnaupfq4v","prime","5ea300a5733c8107ec2478a3","5f60e3c0a3b16e07647b2ff9","5f61dc2c01d085184886c24a","false","null","<div style=""align-items: center; display: flex; color: darkorange; font-size: 90px""><b>ø</b></div>","null","","","","forget_cue","","","","","","","","","","","","","","","",""
"html-keyboard-response","235","410247","0.0-4.0-1.0-0.38","pr57vemnaupfq4v","prime","5ea300a5733c8107ec2478a3","5f60e3c0a3b16e07647b2ff9","5f61dc2c01d085184886c24a","false","null","<span style=""color: black; font-size: 48px"">N + M</span>","null","","","","resp_prompt","","","","","","","","","","","","","","","",""
"categorize-image","236","411181","0.0-4.0-1.0-1.38","pr57vemnaupfq4v","prime","5ea300a5733c8107ec2478a3","5f60e3c0a3b16e07647b2ff9","5f61dc2c01d085184886c24a","true","931.0949999999139","./Stimuli/SelectedImages/SN/SN18.bmp","83","","","","test","true","N + M","83","switch","SN","SN18.bmp","remember","","87","3","prime1","left","","","",""
"html-keyboard-response","237","413184","0.0-4.0-1.0-3.38","pr57vemnaupfq4v","prime","5ea300a5733c8107ec2478a3","5f60e3c0a3b16e07647b2ff9","5f61dc2c01d085184886c24a","false","null","<div style=""align-items: center; display: flex; color: dodgerblue; font-size: 90px""><b>o</b></div>","null","","","","forget_cue","","","","","","","","","","","","","","","",""
"html-keyboard-response","238","413890","0.0-4.0-1.0-0.39","pr57vemnaupfq4v","prime","5ea300a5733c8107ec2478a3","5f60e3c0a3b16e07647b2ff9","5f61dc2c01d085184886c24a","false","null","<span style=""color: black; font-size: 48px"">M + N</span>","null","","","","resp_prompt","","","","","","","","","","","","","","","",""
"categorize-image","239","414722","0.0-4.0-1.0-1.39","pr57vemnaupfq4v","prime","5ea300a5733c8107ec2478a3","5f60e3c0a3b16e07647b2ff9","5f61dc2c01d085184886c24a","true","826.5400000000373","./Stimuli/SelectedImages/SN/SN60.bmp","76","","","","test","true","M + N","76","switch","SN","SN60.bmp","forget","","88","3","prime1","right","","","",""
"html-keyboard-response","240","416726","0.0-4.0-1.0-3.39","pr57vemnaupfq4v","prime","5ea300a5733c8107ec2478a3","5f60e3c0a3b16e07647b2ff9","5f61dc2c01d085184886c24a","false","null","<div style=""align-items: center; display: flex; color: darkorange; font-size: 90px""><b>ø</b></div>","null","","","","forget_cue","","","","","","","","","","","","","","","",""
"html-keyboard-response","241","417430","0.0-4.0-1.0-0.40","pr57vemnaupfq4v","prime","5ea300a5733c8107ec2478a3","5f60e3c0a3b16e07647b2ff9","5f61dc2c01d085184886c24a","false","null","<span style=""color: black; font-size: 48px"">N + M</span>","null","","","","resp_prompt","","","","","","","","","","","","","","","",""
"categorize-image","242","418272","0.0-4.0-1.0-1.40","pr57vemnaupfq4v","prime","5ea300a5733c8107ec2478a3","5f60e3c0a3b16e07647b2ff9","5f61dc2c01d085184886c24a","true","838.0799999995506","./Stimuli/SelectedImages/LN/LN149.bmp","83","","","","test","true","N + M","83","repetition","LN","LN149.bmp","forget","","89","3","prime1","left","","","",""
"html-keyboard-response","243","420276","0.0-4.0-1.0-3.40","pr57vemnaupfq4v","prime","5ea300a5733c8107ec2478a3","5f60e3c0a3b16e07647b2ff9","5f61dc2c01d085184886c24a","false","null","<div style=""align-items: center; display: flex; color: darkorange; font-size: 90px""><b>ø</b></div>","null","","","","forget_cue","","","","","","","","","","","","","","","",""
"html-keyboard-response","244","420981","0.0-4.0-1.0-0.41","pr57vemnaupfq4v","prime","5ea300a5733c8107ec2478a3","5f60e3c0a3b16e07647b2ff9","5f61dc2c01d085184886c24a","false","null","<span style=""color: black; font-size: 48px"">N + M</span>","null","","","","resp_prompt","","","","","","","","","","","","","","","",""
"categorize-image","245","421764","0.0-4.0-1.0-1.41","pr57vemnaupfq4v","prime","5ea300a5733c8107ec2478a3","5f60e3c0a3b16e07647b2ff9","5f61dc2c01d085184886c24a","true","779.2150000004331","./Stimuli/SelectedImages/SM/SM108.bmp","76","","","","test","true","N + M","76","repetition","SM","SM108.bmp","forget","","90","3","prime1","right","","","",""
"html-keyboard-response","246","423770","0.0-4.0-1.0-3.41","pr57vemnaupfq4v","prime","5ea300a5733c8107ec2478a3","5f60e3c0a3b16e07647b2ff9","5f61dc2c01d085184886c24a","false","null","<div style=""align-items: center; display: flex; color: darkorange; font-size: 90px""><b>ø</b></div>","null","","","","forget_cue","","","","","","","","","","","","","","","",""
"html-keyboard-response","247","424476","0.0-4.0-1.0-0.42","pr57vemnaupfq4v","prime","5ea300a5733c8107ec2478a3","5f60e3c0a3b16e07647b2ff9","5f61dc2c01d085184886c24a","false","null","<span style=""color: black; font-size: 48px"">M + N</span>","null","","","","resp_prompt","","","","","","","","","","","","","","","",""
"categorize-image","248","425243","0.0-4.0-1.0-1.42","pr57vemnaupfq4v","prime","5ea300a5733c8107ec2478a3","5f60e3c0a3b16e07647b2ff9","5f61dc2c01d085184886c24a","true","762.4949999999371","./Stimuli/SelectedImages/LN/LN150.bmp","76","","","","test","true","M + N","76","switch","LN","LN150.bmp","remember","","91","3","prime1","right","","","",""
"html-keyboard-response","249","427247","0.0-4.0-1.0-3.42","pr57vemnaupfq4v","prime","5ea300a5733c8107ec2478a3","5f60e3c0a3b16e07647b2ff9","5f61dc2c01d085184886c24a","false","null","<div style=""align-items: center; display: flex; color: dodgerblue; font-size: 90px""><b>o</b></div>","null","","","","forget_cue","","","","","","","","","","","","","","","",""
"html-keyboard-response","250","427952","0.0-4.0-1.0-0.43","pr57vemnaupfq4v","prime","5ea300a5733c8107ec2478a3","5f60e3c0a3b16e07647b2ff9","5f61dc2c01d085184886c24a","false","null","<span style=""color: black; font-size: 48px"">N + M</span>","null","","","","resp_prompt","","","","","","","","","","","","","","","",""
"categorize-image","251","429102","0.0-4.0-1.0-1.43","pr57vemnaupfq4v","prime","5ea300a5733c8107ec2478a3","5f60e3c0a3b16e07647b2ff9","5f61dc2c01d085184886c24a","true","1145.6450000004843","./Stimuli/SelectedImages/SM/SM213.bmp","83","","","","test","false","N + M","76","repetition","SM","SM213.bmp","remember","","92","3","prime1","left","","","",""
"html-keyboard-response","252","429604","0.0-4.0-1.0-2.43-0.43","pr57vemnaupfq4v","prime","5ea300a5733c8107ec2478a3","5f60e3c0a3b16e07647b2ff9","5f61dc2c01d085184886c24a","false","null","<span style=""color: red; font-size: 48px"">Error!</span>","null","","","","feedback","","","","","","","","","","","","","","","",""
