"trial_type","trial_index","time_elapsed","internal_node_id","subject","exp_part","prolific_PID","study_ID","session_ID","use","rt","stimulus","key_press","button_pressed","responses","question_order","trial_part","correct","resp_map","correct_resp","probe_condition","category","image","forget_condition","list","trial_num","block_num","block","response","test_part","n_span","sequence","num_spaces"
"pavlovia","0","15","0.0-0.0","q1s5fm4uajy8lqg","","5c6c08c5d9c1580001ce9aab","5f60e3c0a3b16e07647b2ff9","5f60f4dc9170a70223fb31eb","false","","","","","","","","","","","","","","","","","","","","","","",""
"html-keyboard-response","1","12055","0.0-1.0-0.0-0.0","q1s5fm4uajy8lqg","welcome","5c6c08c5d9c1580001ce9aab","5f60e3c0a3b16e07647b2ff9","5f60f4dc9170a70223fb31eb","false","12034.10999989137","<div align=left>Dear participant, <br> thank you for participating in an online study of the Cognition, Action, and Sustainability Unit of the University of Freiburg! <br> <br>The aim of this study is to examine our ability to remember previously learned information. <br>Our goal is to find out, whether our memory improves, when we only remember information that is relevant to us. <br>The experiment will take about 35 minutes to complete. <br> <br>Please, note that you can only participate in this study if you are using a device with a keyboard (PC, Laptop etc.) <br>and not if you are using a mobile device such as a tablet or smartphone.<br> <br>Press 'SPACE' to proceed to the experiment. </div>","32","","","","","","","","","","","","","","","","","","","",""
"html-keyboard-response","2","22578","0.0-1.0-0.0-1.0","q1s5fm4uajy8lqg","welcome","5c6c08c5d9c1580001ce9aab","5f60e3c0a3b16e07647b2ff9","5f60f4dc9170a70223fb31eb","false","10520.714999875054","<div align=left><strong> Time Course of this experiment: </strong> <br><br> <strong> 1.</strong>  First, please fill in some information regarding your demographic data. <br><br> <strong> 2.</strong>  Next, your task will be to classify everyday objects. <br>In addition, you will be asked to remember certain objects and recall them later. <br>Working on these tasks requires your undivided attention and concentration.<br>It is therefore essential that you eliminate any sources of distraction in your  <br>environment and ensure that you will not be disturbed. <br><br><strong> 3.</strong>  At the end of the experiment, you will be asked to answer a few additional questions. <br> <br><strong> Important:</strong> After finishing the experiment, only close the browser window <br> by clicking on the 'end the experiment'-button when you are asked to do so. <br>Closing the browser window prematurely will make the allocation of your participation credit impossible. <br><br> Press 'SPACE' to start the experiment. </div>","32","","","","","","","","","","","","","","","","","","","",""
"html-button-response","3","28481","0.0-1.0-0.0-2.0","q1s5fm4uajy8lqg","welcome","5c6c08c5d9c1580001ce9aab","5f60e3c0a3b16e07647b2ff9","5f60f4dc9170a70223fb31eb","true","5899.995000101626","<div align=left><strong> Informed consent </strong>  <br>The aim of our research is to better understand human behavior and mental processes. <br>In the following study your behavior (e.g. choices, reaction times) will be studied. <br> <br><strong> Voluntariness and Anonymity </strong> <br>Your participation in this study is  <strong> voluntary</strong>.<br>You may withdraw your consent to participate at any time without providing a reason for doing so and without fear of prejudice. <br><br>As no personal data will be collected, <strong>your data and your person cannot be connected after data collection</strong> – the data-set is anonymous. <br>Respectively, deletion of your data will not be possible after data collection has been completed, as we cannot retrace your data-set.<br>The results and anonymized data collected in this study will be published as a scientific publication. <br>This will happen in an <strong>anonymized format</strong>, so that no data can be traced back to a specific person. <br> <br>The anonymized data of this study will be made available to other researchers and/or in a data archive on the Internet as a means of transparency and to enable subsequent re-use. By doing so, this study follows the recommendations of the Deutsche Forschungsgemeinschaft (DFG, German Research Foundation) and Deutsche Gesellschaft für Psychologie (DGPS, German Psychological Society) regarding quality assurance in research.<br>If you have any questions now or after the experiment, please contact our team (experiments@cs.uni-freiburg.de).<br><br><br>I hereby declare, that I understand the above described conditions of participation and I agree to participate under these conditions. <br><br> </div>","","0","","","","","","","","","","","","","","","","","","",""
"html-keyboard-response","4","47257","0.0-1.0-0.0-3.0","q1s5fm4uajy8lqg","welcome","5c6c08c5d9c1580001ce9aab","5f60e3c0a3b16e07647b2ff9","5f60f4dc9170a70223fb31eb","false","18772.82000007108","<div align=left><strong> General information concerning the experiment </strong>  <br> <br>Please follow the instructions:<ol> <li><strong> Do not leave this tab (your browser window) during the experiment and do not reload this tab! </strong>  <br>If you do switch tabs/windows during the experiment (to check your mail or visit another website, for example), <br>the experiment will end automatically and you will <strong>not receive credit</strong> for your participation. <br>Repeated participation or resumption of the experiment is impossible.</li> <br><li>Please close all other programs for the duration of your participation. </li> <br><li>Please mute or turn off your phone and put it out of your reach. </li> <br><li>Please also take off any disturbing accessories (such as wristwatches, bracelets, etc.). </li> <br><li>If you have music playing in the background, please turn it off now. </li> <br></ol>Thank you! <br>Press 'SPACE' to continue. </div>","32","","","","","","","","","","","","","","","","","","","",""
"survey-text","5","51287","0.0-1.0-1.0-0.0","q1s5fm4uajy8lqg","demographics","5c6c08c5d9c1580001ce9aab","5f60e3c0a3b16e07647b2ff9","5f60f4dc9170a70223fb31eb","true","4023.134999908507","","","","{""age"":""40""}","","","","","","","","","","","","","","","","","",""
"survey-multi-choice","6","63969","0.0-1.0-1.0-1.0","q1s5fm4uajy8lqg","demographics","5c6c08c5d9c1580001ce9aab","5f60e3c0a3b16e07647b2ff9","5f60f4dc9170a70223fb31eb","true","12679.444999899715","","","","{""gender"":""female"",""school"":""others"",""education"":""Completed university degree or equivalent""}","[0,1,2]","","","","","","","","","","","","","","","","",""
"html-keyboard-response","7","74230","0.0-1.0-2.0","q1s5fm4uajy8lqg","instructions","5c6c08c5d9c1580001ce9aab","5f60e3c0a3b16e07647b2ff9","5f60f4dc9170a70223fb31eb","false","10257.379999849945","<div align=left> The experiment is now about to start: <br> <br>In the following part, you will be presented pictures of everyday objects. <br>Your first task is to <strong>classify these objects. </strong> <br> <br> You will classify them either as mechanical or non-mechanical objects. <br> <br>Objects that include any kind of technical mechanism (for example, wheels, switches, levers, <br> electronic components) fall under the category of <strong>mechanical</strong> objects. <br>Only objects without any kind of technical mechanism should be classified as <strong>non-mechanical</strong>. <br><br>Press 'SPACE' to continue. </div>","32","","","","","","","","","","","","","","","","","","","",""
"html-keyboard-response","8","164527","0.0-2.0-0.0","q1s5fm4uajy8lqg","instructions","5c6c08c5d9c1580001ce9aab","5f60e3c0a3b16e07647b2ff9","5f60f4dc9170a70223fb31eb","false","90295.06999999285","<div align=justify>You will classify the objects using the <strong>'S'</strong> and the <strong>'L'</strong> keys on your keyboard.<br>For doing so, please place your <strong>left index finger</strong> on the <strong>'S'</strong> key and place your <strong>right index finger</strong> on the <strong>'L'</strong> key. <br><br> Each trial starts with an instruction, indicating which key ('S'/'L') you need to press to classify <br>the object as mechanical (letter M) or non-mechanical (letter N).<br>The instruction <strong>M + N</strong> indicates that, in the current trial, by pressing the left key ('S') you classify the displayed object as mechanical (M) <br> and by pressing the right key ('L') you classify the object as non-mechanical (N). <br>The instruction <strong>N + M</strong> on the other hand indicates that by pressing the left key ('S') you classify the displayed object as non-mechanical (N) <br> and by pressing the right key ('L') you classify the object as mechanical (M). <br><br>Please press the key corresponding to the correct classification as fast as possible as soon as the object is displayed and try to avoid making mistakes.<br>If you do not respond within a 2 second window, a corresponding feedback will be displayed and the next trial will start.<br> The experiment is divided into multiple blocks to give you the opportunity to take a break after each block. <br>First, you can now practice this task. <br><br>Please place your <strong>LEFT INDEX FINGER</strong> on the 'S' key and your <strong>RIGHT INDEX FINGER</strong> on the 'L' key now. <br><br>Press SPACE to continue.</div>","32","","","","","","","","","","","","","","","","","","","",""
"html-keyboard-response","9","168184","0.0-2.0-1.0","q1s5fm4uajy8lqg","instructions","5c6c08c5d9c1580001ce9aab","5f60e3c0a3b16e07647b2ff9","5f60f4dc9170a70223fb31eb","false","3655.724999960512","<div align=left> You will now have time to practice this task.<br><br>Remember: <br> <br><li>Please place your index fingers on the <strong>'S'</strong> and <strong>'L'</strong> keys <br>to respond as fast and accurately as possible.</li><li>Every picture can be classified as either mechanical or non-mechanical.</li><li>If you do not respond in time or commit an error, you will receive a corresponding feedback. </li><li> Please try to respond as <strong> fast </strong> and as <strong> accurately as possible </strong> .<br><li>To ensure optimal results, please minimize distractions and stay focused. </li><br><br>Press SPACE to continue.</div>","32","","","","","","","","","","","","","","","","","","","",""
"html-keyboard-response","10","168887","0.0-2.0-2.0-0.0","q1s5fm4uajy8lqg","practice_no_cue","5c6c08c5d9c1580001ce9aab","5f60e3c0a3b16e07647b2ff9","5f60f4dc9170a70223fb31eb","false","null","<span style=""color: black; font-size: 48px"">N + M</span>","null","","","","resp_prompt","","","","","","","","","","","","","","","",""
"categorize-image","11","171356","0.0-2.0-2.0-1.0","q1s5fm4uajy8lqg","practice_no_cue","5c6c08c5d9c1580001ce9aab","5f60e3c0a3b16e07647b2ff9","5f60f4dc9170a70223fb31eb","true","1965.010000159964","./Stimuli/ImagesPractice/SM61.jpg","76","","","","test","true","N + M","76","","SM","SM61.jpg","remember","old","1","1","start","right","","","",""
"html-keyboard-response","12","172059","0.0-2.0-2.0-0.1","q1s5fm4uajy8lqg","practice_no_cue","5c6c08c5d9c1580001ce9aab","5f60e3c0a3b16e07647b2ff9","5f60f4dc9170a70223fb31eb","false","null","<span style=""color: black; font-size: 48px"">M + N</span>","null","","","","resp_prompt","","","","","","","","","","","","","","","",""
"categorize-image","13","173366","0.0-2.0-2.0-1.1","q1s5fm4uajy8lqg","practice_no_cue","5c6c08c5d9c1580001ce9aab","5f60e3c0a3b16e07647b2ff9","5f60f4dc9170a70223fb31eb","true","805.1599999889731","./Stimuli/ImagesPractice/SM37.jpg","83","","","","test","true","M + N","83","","SM","SM37.jpg","forget","old","2","1","start","left","","","",""
"html-keyboard-response","14","174067","0.0-2.0-2.0-0.2","q1s5fm4uajy8lqg","practice_no_cue","5c6c08c5d9c1580001ce9aab","5f60e3c0a3b16e07647b2ff9","5f60f4dc9170a70223fb31eb","false","null","<span style=""color: black; font-size: 48px"">M + N</span>","null","","","","resp_prompt","","","","","","","","","","","","","","","",""
"categorize-image","15","175648","0.0-2.0-2.0-1.2","q1s5fm4uajy8lqg","practice_no_cue","5c6c08c5d9c1580001ce9aab","5f60e3c0a3b16e07647b2ff9","5f60f4dc9170a70223fb31eb","true","1077.8999999165535","./Stimuli/ImagesPractice/LM143.jpg","76","","","","test","false","M + N","83","","LM","LM143.jpg","forget","old","3","1","start","right","","","",""
"html-keyboard-response","16","176350","0.0-2.0-2.0-0.3","q1s5fm4uajy8lqg","practice_no_cue","5c6c08c5d9c1580001ce9aab","5f60e3c0a3b16e07647b2ff9","5f60f4dc9170a70223fb31eb","false","null","<span style=""color: black; font-size: 48px"">M + N</span>","null","","","","resp_prompt","","","","","","","","","","","","","","","",""
"categorize-image","17","177608","0.0-2.0-2.0-1.3","q1s5fm4uajy8lqg","practice_no_cue","5c6c08c5d9c1580001ce9aab","5f60e3c0a3b16e07647b2ff9","5f60f4dc9170a70223fb31eb","true","755.1900001708418","./Stimuli/ImagesPractice/SM35.jpg","83","","","","test","true","M + N","83","","SM","SM35.jpg","forget","old","4","1","start","left","","","",""
"html-keyboard-response","18","178310","0.0-2.0-2.0-0.4","q1s5fm4uajy8lqg","practice_no_cue","5c6c08c5d9c1580001ce9aab","5f60e3c0a3b16e07647b2ff9","5f60f4dc9170a70223fb31eb","false","null","<span style=""color: black; font-size: 48px"">N + M</span>","null","","","","resp_prompt","","","","","","","","","","","","","","","",""
"categorize-image","19","179449","0.0-2.0-2.0-1.4","q1s5fm4uajy8lqg","practice_no_cue","5c6c08c5d9c1580001ce9aab","5f60e3c0a3b16e07647b2ff9","5f60f4dc9170a70223fb31eb","true","635.234999936074","./Stimuli/ImagesPractice/LM224.jpg","76","","","","test","true","N + M","76","","LM","LM224.jpg","remember","old","5","1","start","right","","","",""
"html-keyboard-response","20","180151","0.0-2.0-2.0-0.5","q1s5fm4uajy8lqg","practice_no_cue","5c6c08c5d9c1580001ce9aab","5f60e3c0a3b16e07647b2ff9","5f60f4dc9170a70223fb31eb","false","null","<span style=""color: black; font-size: 48px"">N + M</span>","null","","","","resp_prompt","","","","","","","","","","","","","","","",""
"categorize-image","21","181242","0.0-2.0-2.0-1.5","q1s5fm4uajy8lqg","practice_no_cue","5c6c08c5d9c1580001ce9aab","5f60e3c0a3b16e07647b2ff9","5f60f4dc9170a70223fb31eb","true","588.1850000005215","./Stimuli/ImagesPractice/LN109.jpg","76","","","","test","false","N + M","83","","LN","LN109.jpg","forget","old","6","1","start","right","","","",""
"html-keyboard-response","22","181943","0.0-2.0-2.0-0.6","q1s5fm4uajy8lqg","practice_no_cue","5c6c08c5d9c1580001ce9aab","5f60e3c0a3b16e07647b2ff9","5f60f4dc9170a70223fb31eb","false","null","<span style=""color: black; font-size: 48px"">N + M</span>","null","","","","resp_prompt","","","","","","","","","","","","","","","",""
"categorize-image","23","183434","0.0-2.0-2.0-1.6","q1s5fm4uajy8lqg","practice_no_cue","5c6c08c5d9c1580001ce9aab","5f60e3c0a3b16e07647b2ff9","5f60f4dc9170a70223fb31eb","true","987.6800000201911","./Stimuli/ImagesPractice/LM239.jpg","76","","","","test","true","N + M","76","","LM","LM239.jpg","forget","old","7","1","start","right","","","",""
"html-keyboard-response","24","184137","0.0-2.0-2.0-0.7","q1s5fm4uajy8lqg","practice_no_cue","5c6c08c5d9c1580001ce9aab","5f60e3c0a3b16e07647b2ff9","5f60f4dc9170a70223fb31eb","false","null","<span style=""color: black; font-size: 48px"">N + M</span>","null","","","","resp_prompt","","","","","","","","","","","","","","","",""
"categorize-image","25","185584","0.0-2.0-2.0-1.7","q1s5fm4uajy8lqg","practice_no_cue","5c6c08c5d9c1580001ce9aab","5f60e3c0a3b16e07647b2ff9","5f60f4dc9170a70223fb31eb","true","944.0750000067055","./Stimuli/ImagesPractice/LN72.jpg","83","","","","test","true","N + M","83","","LN","LN72.jpg","remember","old","8","1","start","left","","","",""
"html-keyboard-response","26","186288","0.0-2.0-2.0-0.8","q1s5fm4uajy8lqg","practice_no_cue","5c6c08c5d9c1580001ce9aab","5f60e3c0a3b16e07647b2ff9","5f60f4dc9170a70223fb31eb","false","null","<span style=""color: black; font-size: 48px"">N + M</span>","null","","","","resp_prompt","","","","","","","","","","","","","","","",""
"categorize-image","27","187598","0.0-2.0-2.0-1.8","q1s5fm4uajy8lqg","practice_no_cue","5c6c08c5d9c1580001ce9aab","5f60e3c0a3b16e07647b2ff9","5f60f4dc9170a70223fb31eb","true","806.7999999038875","./Stimuli/ImagesPractice/LM55.jpg","76","","","","test","true","N + M","76","","LM","LM55.jpg","forget","old","9","1","start","right","","","",""
"html-keyboard-response","28","188300","0.0-2.0-2.0-0.9","q1s5fm4uajy8lqg","practice_no_cue","5c6c08c5d9c1580001ce9aab","5f60e3c0a3b16e07647b2ff9","5f60f4dc9170a70223fb31eb","false","null","<span style=""color: black; font-size: 48px"">M + N</span>","null","","","","resp_prompt","","","","","","","","","","","","","","","",""
"categorize-image","29","189576","0.0-2.0-2.0-1.9","q1s5fm4uajy8lqg","practice_no_cue","5c6c08c5d9c1580001ce9aab","5f60e3c0a3b16e07647b2ff9","5f60f4dc9170a70223fb31eb","true","773.7600000109524","./Stimuli/ImagesPractice/LN15.jpg","76","","","","test","true","M + N","76","","LN","LN15.jpg","remember","old","10","1","start","right","","","",""
"html-keyboard-response","30","190278","0.0-2.0-2.0-0.10","q1s5fm4uajy8lqg","practice_no_cue","5c6c08c5d9c1580001ce9aab","5f60e3c0a3b16e07647b2ff9","5f60f4dc9170a70223fb31eb","false","null","<span style=""color: black; font-size: 48px"">N + M</span>","null","","","","resp_prompt","","","","","","","","","","","","","","","",""
"categorize-image","31","191552","0.0-2.0-2.0-1.10","q1s5fm4uajy8lqg","practice_no_cue","5c6c08c5d9c1580001ce9aab","5f60e3c0a3b16e07647b2ff9","5f60f4dc9170a70223fb31eb","true","770.1799999922514","./Stimuli/ImagesPractice/LN4.jpg","76","","","","test","false","N + M","83","","LN","LN4.jpg","remember","old","11","1","start","right","","","",""
"html-keyboard-response","32","192255","0.0-2.0-2.0-0.11","q1s5fm4uajy8lqg","practice_no_cue","5c6c08c5d9c1580001ce9aab","5f60e3c0a3b16e07647b2ff9","5f60f4dc9170a70223fb31eb","false","null","<span style=""color: black; font-size: 48px"">M + N</span>","null","","","","resp_prompt","","","","","","","","","","","","","","","",""
"categorize-image","33","193716","0.0-2.0-2.0-1.11","q1s5fm4uajy8lqg","practice_no_cue","5c6c08c5d9c1580001ce9aab","5f60e3c0a3b16e07647b2ff9","5f60f4dc9170a70223fb31eb","true","958.2150001078844","./Stimuli/ImagesPractice/LN17.jpg","76","","","","test","true","M + N","76","","LN","LN17.jpg","remember","old","12","1","start","right","","","",""
"html-keyboard-response","34","194417","0.0-2.0-2.0-0.12","q1s5fm4uajy8lqg","practice_no_cue","5c6c08c5d9c1580001ce9aab","5f60e3c0a3b16e07647b2ff9","5f60f4dc9170a70223fb31eb","false","null","<span style=""color: black; font-size: 48px"">M + N</span>","null","","","","resp_prompt","","","","","","","","","","","","","","","",""
"categorize-image","35","195483","0.0-2.0-2.0-1.12","q1s5fm4uajy8lqg","practice_no_cue","5c6c08c5d9c1580001ce9aab","5f60e3c0a3b16e07647b2ff9","5f60f4dc9170a70223fb31eb","true","563.4500000160187","./Stimuli/ImagesPractice/SN222.jpg","76","","","","test","true","M + N","76","","SN","SN222.jpg","remember","old","13","1","start","right","","","",""
"html-keyboard-response","36","196185","0.0-2.0-2.0-0.13","q1s5fm4uajy8lqg","practice_no_cue","5c6c08c5d9c1580001ce9aab","5f60e3c0a3b16e07647b2ff9","5f60f4dc9170a70223fb31eb","false","null","<span style=""color: black; font-size: 48px"">M + N</span>","null","","","","resp_prompt","","","","","","","","","","","","","","","",""
"categorize-image","37","197427","0.0-2.0-2.0-1.13","q1s5fm4uajy8lqg","practice_no_cue","5c6c08c5d9c1580001ce9aab","5f60e3c0a3b16e07647b2ff9","5f60f4dc9170a70223fb31eb","true","738.1000001914799","./Stimuli/ImagesPractice/SM62.jpg","83","","","","test","true","M + N","83","","SM","SM62.jpg","forget","old","14","1","start","left","","","",""
"html-keyboard-response","38","198130","0.0-2.0-2.0-0.14","q1s5fm4uajy8lqg","practice_no_cue","5c6c08c5d9c1580001ce9aab","5f60e3c0a3b16e07647b2ff9","5f60f4dc9170a70223fb31eb","false","null","<span style=""color: black; font-size: 48px"">N + M</span>","null","","","","resp_prompt","","","","","","","","","","","","","","","",""
"categorize-image","39","199423","0.0-2.0-2.0-1.14","q1s5fm4uajy8lqg","practice_no_cue","5c6c08c5d9c1580001ce9aab","5f60e3c0a3b16e07647b2ff9","5f60f4dc9170a70223fb31eb","true","790.4399998951703","./Stimuli/ImagesPractice/LM230.jpg","83","","","","test","false","N + M","76","","LM","LM230.jpg","forget","old","15","1","start","left","","","",""
"html-keyboard-response","40","200125","0.0-2.0-2.0-0.15","q1s5fm4uajy8lqg","practice_no_cue","5c6c08c5d9c1580001ce9aab","5f60e3c0a3b16e07647b2ff9","5f60f4dc9170a70223fb31eb","false","null","<span style=""color: black; font-size: 48px"">M + N</span>","null","","","","resp_prompt","","","","","","","","","","","","","","","",""
"categorize-image","41","201487","0.0-2.0-2.0-1.15","q1s5fm4uajy8lqg","practice_no_cue","5c6c08c5d9c1580001ce9aab","5f60e3c0a3b16e07647b2ff9","5f60f4dc9170a70223fb31eb","true","858.7950000073761","./Stimuli/ImagesPractice/SN75.jpg","76","","","","test","true","M + N","76","","SN","SN75.jpg","remember","old","16","1","start","right","","","",""
"html-keyboard-response","42","207861","0.0-2.0-3.0","q1s5fm4uajy8lqg","break","5c6c08c5d9c1580001ce9aab","5f60e3c0a3b16e07647b2ff9","5f60f4dc9170a70223fb31eb","false","6370.344999944791","<p style='font-size: 32px;'>Break</><br><br><br><br><br><p style='font-size: 24px;'>In the last block, you committed 4 errors and did not respond in time on 0 trials.
</p><p style='font-size: 24px;'>Try to respond as fast and accurately as possible in the next block as well! </p><p style='font-size: 24px;'>Press SPACE to continue.</p>","32","","","","","","","","","","","","","","","","","","","",""
"html-keyboard-response","43","211891","0.0-2.0-4.0","q1s5fm4uajy8lqg","instructions","5c6c08c5d9c1580001ce9aab","5f60e3c0a3b16e07647b2ff9","5f60f4dc9170a70223fb31eb","false","4028.734999941662","<div align=left> Great!<br><br>Are you ready to continue?<br><br>If you want to reread the instructions and redo the practice trials, <br>please press „Z“. <br><br>Press SPACE to CONTINUE with the experiment when you are ready. </div>","32","","","","","","","","","","","","","","","","","","","",""
"html-keyboard-response","44","236328","0.0-3.0-0.0","q1s5fm4uajy8lqg","instructions","5c6c08c5d9c1580001ce9aab","5f60e3c0a3b16e07647b2ff9","5f60f4dc9170a70223fb31eb","false","24434.64499991387","<div align=left>Great!<br> <strong>Attention</strong>! You will now receive a second, additional task! <br><br>To this point it was you <strong>first task</strong> to correctly <strong>classify objects</strong>. <br><br>As mentioned in the beginning, we aim to examine how well humans can remember previously learned information.<br>We would like to find out whether our memory improves if we only remember information that is relevant to us. <br><br>Therefore, your <strong>second task</strong> will be to <strong>remember</strong> the pictures you are to categorize. <br> After the learning phase, there will be a memory test phase, in which you will be asked to indicate whether you have seen a picture before or not. <br>Some, but not all pictures shown in the learning phase will appear in the memory test phase.<br>After classifying a picture, you will be told whether you should remember it for the memory test phase or not. <br>Thus, some pictures can be forgotten, whereas others have to be remembered. <br><br>Note: From now on, feedback will only be displayed if you responded incorrectly or not in time.<br><br>Press SPACE to continue.</div>","32","","","","","","","","","","","","","","","","","","","",""
"html-keyboard-response","45","254437","0.0-3.0-1.0","q1s5fm4uajy8lqg","instructions","5c6c08c5d9c1580001ce9aab","5f60e3c0a3b16e07647b2ff9","5f60f4dc9170a70223fb31eb","false","18107.17500001192","<div align=left>In the following part, you will thus have to remember only some pictures. <br>Immediately after seeing and classifying the picture, a symbol will be displayed, indicating whether you should remember or forget the previous picture. <br><br>A <span style='color: dodgerblue; font-size: 28px'>O</span> indicates REMEMBER. That means, you have to remember this picture, because it will be tested later. <br><br>A <span style='color: darkorange; font-size:28px'>Ø</span> indicates FORGET. You do not have to remember this picture. <br><br> As you will have to remember a lot of pictures, it will be hard for you to remember all of them. <br>It will put you at an advantage if you instantly forget the pictures you are not asked to remember. <br> This will make it easier for you to remember the pictures that will be tested afterwards. <br><br>Press SPACE to continue.</div>","32","","","","","","","","","","","","","","","","","","","",""
"html-keyboard-response","46","269918","0.0-3.0-2.0","q1s5fm4uajy8lqg","instructions","5c6c08c5d9c1580001ce9aab","5f60e3c0a3b16e07647b2ff9","5f60f4dc9170a70223fb31eb","false","15478.750000009313","<div align=left> Now you have the chance to practice both tasks together.<br><br>Remember: <br> <br><li>Please place your index fingers on the <strong>'S'</strong> and <strong>'L'</strong> keys <br>to respond as fast and accurately as possible.</li><li>Every picture can be classified as either mechanical or non-mechanical.</li><li>If you do not respond in time or commit an error, you will receive a corresponding feedback. <br>Please try to respond as <strong> fast </strong> and as <strong> accurately as possible </strong>.</li><li> Please remember only the to-be-remembered <span style='color: dodgerblue; font-size: 28px'>O</span> pictures. <br></li><li> Please minimize distractions and stay focused. </li><br><br>Press SPACE to START</div>","32","","","","","","","","","","","","","","","","","","","",""
"html-keyboard-response","47","270620","0.0-3.0-3.0-0.0","q1s5fm4uajy8lqg","practice_cue","5c6c08c5d9c1580001ce9aab","5f60e3c0a3b16e07647b2ff9","5f60f4dc9170a70223fb31eb","false","null","<span style=""color: black; font-size: 48px"">N + M</span>","null","","","","resp_prompt","","","","","","","","","","","","","","","",""
"categorize-image","48","271397","0.0-3.0-3.0-1.0","q1s5fm4uajy8lqg","practice_cue","5c6c08c5d9c1580001ce9aab","5f60e3c0a3b16e07647b2ff9","5f60f4dc9170a70223fb31eb","true","772.1649999730289","./Stimuli/ImagesPractice/LM55.jpg","76","","","","test","true","N + M","76","","LM","LM55.jpg","forget","old","17","2","practice_forget","right","","","",""
"html-keyboard-response","49","273400","0.0-3.0-3.0-3.0","q1s5fm4uajy8lqg","practice_cue","5c6c08c5d9c1580001ce9aab","5f60e3c0a3b16e07647b2ff9","5f60f4dc9170a70223fb31eb","false","null","<div style=""align-items: center; display: flex; color: darkorange; font-size: 90px""><b>ø</b></div>","null","","","","forget_cue","","","","","","","","","","","","","","","",""
"html-keyboard-response","50","274102","0.0-3.0-3.0-0.1","q1s5fm4uajy8lqg","practice_cue","5c6c08c5d9c1580001ce9aab","5f60e3c0a3b16e07647b2ff9","5f60f4dc9170a70223fb31eb","false","null","<span style=""color: black; font-size: 48px"">N + M</span>","null","","","","resp_prompt","","","","","","","","","","","","","","","",""
"categorize-image","51","274848","0.0-3.0-3.0-1.1","q1s5fm4uajy8lqg","practice_cue","5c6c08c5d9c1580001ce9aab","5f60e3c0a3b16e07647b2ff9","5f60f4dc9170a70223fb31eb","true","742.1649999450892","./Stimuli/ImagesPractice/LM224.jpg","76","","","","test","true","N + M","76","","LM","LM224.jpg","remember","old","18","2","practice_forget","right","","","",""
"html-keyboard-response","52","276850","0.0-3.0-3.0-3.1","q1s5fm4uajy8lqg","practice_cue","5c6c08c5d9c1580001ce9aab","5f60e3c0a3b16e07647b2ff9","5f60f4dc9170a70223fb31eb","false","null","<div style=""align-items: center; display: flex; color: dodgerblue; font-size: 90px""><b>o</b></div>","null","","","","forget_cue","","","","","","","","","","","","","","","",""
"html-keyboard-response","53","277552","0.0-3.0-3.0-0.2","q1s5fm4uajy8lqg","practice_cue","5c6c08c5d9c1580001ce9aab","5f60e3c0a3b16e07647b2ff9","5f60f4dc9170a70223fb31eb","false","null","<span style=""color: black; font-size: 48px"">M + N</span>","null","","","","resp_prompt","","","","","","","","","","","","","","","",""
"categorize-image","54","278452","0.0-3.0-3.0-1.2","q1s5fm4uajy8lqg","practice_cue","5c6c08c5d9c1580001ce9aab","5f60e3c0a3b16e07647b2ff9","5f60f4dc9170a70223fb31eb","true","896.500000031665","./Stimuli/ImagesPractice/SM37.jpg","83","","","","test","true","M + N","83","","SM","SM37.jpg","forget","old","19","2","practice_forget","left","","","",""
"html-keyboard-response","55","280455","0.0-3.0-3.0-3.2","q1s5fm4uajy8lqg","practice_cue","5c6c08c5d9c1580001ce9aab","5f60e3c0a3b16e07647b2ff9","5f60f4dc9170a70223fb31eb","false","null","<div style=""align-items: center; display: flex; color: darkorange; font-size: 90px""><b>ø</b></div>","null","","","","forget_cue","","","","","","","","","","","","","","","",""
"html-keyboard-response","56","281157","0.0-3.0-3.0-0.3","q1s5fm4uajy8lqg","practice_cue","5c6c08c5d9c1580001ce9aab","5f60e3c0a3b16e07647b2ff9","5f60f4dc9170a70223fb31eb","false","null","<span style=""color: black; font-size: 48px"">N + M</span>","null","","","","resp_prompt","","","","","","","","","","","","","","","",""
"categorize-image","57","281803","0.0-3.0-3.0-1.3","q1s5fm4uajy8lqg","practice_cue","5c6c08c5d9c1580001ce9aab","5f60e3c0a3b16e07647b2ff9","5f60f4dc9170a70223fb31eb","true","641.2849999032915","./Stimuli/ImagesPractice/LM239.jpg","76","","","","test","true","N + M","76","","LM","LM239.jpg","forget","old","20","2","practice_forget","right","","","",""
"html-keyboard-response","58","283805","0.0-3.0-3.0-3.3","q1s5fm4uajy8lqg","practice_cue","5c6c08c5d9c1580001ce9aab","5f60e3c0a3b16e07647b2ff9","5f60f4dc9170a70223fb31eb","false","null","<div style=""align-items: center; display: flex; color: darkorange; font-size: 90px""><b>ø</b></div>","null","","","","forget_cue","","","","","","","","","","","","","","","",""
"html-keyboard-response","59","284508","0.0-3.0-3.0-0.4","q1s5fm4uajy8lqg","practice_cue","5c6c08c5d9c1580001ce9aab","5f60e3c0a3b16e07647b2ff9","5f60f4dc9170a70223fb31eb","false","null","<span style=""color: black; font-size: 48px"">N + M</span>","null","","","","resp_prompt","","","","","","","","","","","","","","","",""
"categorize-image","60","285634","0.0-3.0-3.0-1.4","q1s5fm4uajy8lqg","practice_cue","5c6c08c5d9c1580001ce9aab","5f60e3c0a3b16e07647b2ff9","5f60f4dc9170a70223fb31eb","true","1117.3600000329316","./Stimuli/ImagesPractice/LN4.jpg","83","","","","test","true","N + M","83","","LN","LN4.jpg","remember","old","21","2","practice_forget","left","","","",""
"html-keyboard-response","61","287639","0.0-3.0-3.0-3.4","q1s5fm4uajy8lqg","practice_cue","5c6c08c5d9c1580001ce9aab","5f60e3c0a3b16e07647b2ff9","5f60f4dc9170a70223fb31eb","false","null","<div style=""align-items: center; display: flex; color: dodgerblue; font-size: 90px""><b>o</b></div>","null","","","","forget_cue","","","","","","","","","","","","","","","",""
"html-keyboard-response","62","288341","0.0-3.0-3.0-0.5","q1s5fm4uajy8lqg","practice_cue","5c6c08c5d9c1580001ce9aab","5f60e3c0a3b16e07647b2ff9","5f60f4dc9170a70223fb31eb","false","null","<span style=""color: black; font-size: 48px"">M + N</span>","null","","","","resp_prompt","","","","","","","","","","","","","","","",""
"categorize-image","63","289724","0.0-3.0-3.0-1.5","q1s5fm4uajy8lqg","practice_cue","5c6c08c5d9c1580001ce9aab","5f60e3c0a3b16e07647b2ff9","5f60f4dc9170a70223fb31eb","true","1378.1049998942763","./Stimuli/ImagesPractice/SM62.jpg","83","","","","test","true","M + N","83","","SM","SM62.jpg","forget","old","22","2","practice_forget","left","","","",""
"html-keyboard-response","64","291726","0.0-3.0-3.0-3.5","q1s5fm4uajy8lqg","practice_cue","5c6c08c5d9c1580001ce9aab","5f60e3c0a3b16e07647b2ff9","5f60f4dc9170a70223fb31eb","false","null","<div style=""align-items: center; display: flex; color: darkorange; font-size: 90px""><b>ø</b></div>","null","","","","forget_cue","","","","","","","","","","","","","","","",""
"html-keyboard-response","65","292428","0.0-3.0-3.0-0.6","q1s5fm4uajy8lqg","practice_cue","5c6c08c5d9c1580001ce9aab","5f60e3c0a3b16e07647b2ff9","5f60f4dc9170a70223fb31eb","false","null","<span style=""color: black; font-size: 48px"">M + N</span>","null","","","","resp_prompt","","","","","","","","","","","","","","","",""
"categorize-image","66","293209","0.0-3.0-3.0-1.6","q1s5fm4uajy8lqg","practice_cue","5c6c08c5d9c1580001ce9aab","5f60e3c0a3b16e07647b2ff9","5f60f4dc9170a70223fb31eb","true","776.4449999667704","./Stimuli/ImagesPractice/SN75.jpg","76","","","","test","true","M + N","76","","SN","SN75.jpg","remember","old","23","2","practice_forget","right","","","",""
"html-keyboard-response","67","295211","0.0-3.0-3.0-3.6","q1s5fm4uajy8lqg","practice_cue","5c6c08c5d9c1580001ce9aab","5f60e3c0a3b16e07647b2ff9","5f60f4dc9170a70223fb31eb","false","null","<div style=""align-items: center; display: flex; color: dodgerblue; font-size: 90px""><b>o</b></div>","null","","","","forget_cue","","","","","","","","","","","","","","","",""
"html-keyboard-response","68","295914","0.0-3.0-3.0-0.7","q1s5fm4uajy8lqg","practice_cue","5c6c08c5d9c1580001ce9aab","5f60e3c0a3b16e07647b2ff9","5f60f4dc9170a70223fb31eb","false","null","<span style=""color: black; font-size: 48px"">M + N</span>","null","","","","resp_prompt","","","","","","","","","","","","","","","",""
"categorize-image","69","297375","0.0-3.0-3.0-1.7","q1s5fm4uajy8lqg","practice_cue","5c6c08c5d9c1580001ce9aab","5f60e3c0a3b16e07647b2ff9","5f60f4dc9170a70223fb31eb","true","1457.1049998048693","./Stimuli/ImagesPractice/LN17.jpg","76","","","","test","true","M + N","76","","LN","LN17.jpg","remember","old","24","2","practice_forget","right","","","",""
"html-keyboard-response","70","299378","0.0-3.0-3.0-3.7","q1s5fm4uajy8lqg","practice_cue","5c6c08c5d9c1580001ce9aab","5f60e3c0a3b16e07647b2ff9","5f60f4dc9170a70223fb31eb","false","null","<div style=""align-items: center; display: flex; color: dodgerblue; font-size: 90px""><b>o</b></div>","null","","","","forget_cue","","","","","","","","","","","","","","","",""
"html-keyboard-response","71","300080","0.0-3.0-3.0-0.8","q1s5fm4uajy8lqg","practice_cue","5c6c08c5d9c1580001ce9aab","5f60e3c0a3b16e07647b2ff9","5f60f4dc9170a70223fb31eb","false","null","<span style=""color: black; font-size: 48px"">N + M</span>","null","","","","resp_prompt","","","","","","","","","","","","","","","",""
"categorize-image","72","301377","0.0-3.0-3.0-1.8","q1s5fm4uajy8lqg","practice_cue","5c6c08c5d9c1580001ce9aab","5f60e3c0a3b16e07647b2ff9","5f60f4dc9170a70223fb31eb","true","1292.664999840781","./Stimuli/ImagesPractice/LN72.jpg","83","","","","test","true","N + M","83","","LN","LN72.jpg","remember","old","25","2","practice_forget","left","","","",""
"html-keyboard-response","73","303379","0.0-3.0-3.0-3.8","q1s5fm4uajy8lqg","practice_cue","5c6c08c5d9c1580001ce9aab","5f60e3c0a3b16e07647b2ff9","5f60f4dc9170a70223fb31eb","false","null","<div style=""align-items: center; display: flex; color: dodgerblue; font-size: 90px""><b>o</b></div>","null","","","","forget_cue","","","","","","","","","","","","","","","",""
"html-keyboard-response","74","304081","0.0-3.0-3.0-0.9","q1s5fm4uajy8lqg","practice_cue","5c6c08c5d9c1580001ce9aab","5f60e3c0a3b16e07647b2ff9","5f60f4dc9170a70223fb31eb","false","null","<span style=""color: black; font-size: 48px"">N + M</span>","null","","","","resp_prompt","","","","","","","","","","","","","","","",""
"categorize-image","75","305126","0.0-3.0-3.0-1.9","q1s5fm4uajy8lqg","practice_cue","5c6c08c5d9c1580001ce9aab","5f60e3c0a3b16e07647b2ff9","5f60f4dc9170a70223fb31eb","true","1039.589999942109","./Stimuli/ImagesPractice/LM230.jpg","76","","","","test","true","N + M","76","","LM","LM230.jpg","forget","old","26","2","practice_forget","right","","","",""
"html-keyboard-response","76","307129","0.0-3.0-3.0-3.9","q1s5fm4uajy8lqg","practice_cue","5c6c08c5d9c1580001ce9aab","5f60e3c0a3b16e07647b2ff9","5f60f4dc9170a70223fb31eb","false","null","<div style=""align-items: center; display: flex; color: darkorange; font-size: 90px""><b>ø</b></div>","null","","","","forget_cue","","","","","","","","","","","","","","","",""
"html-keyboard-response","77","307832","0.0-3.0-3.0-0.10","q1s5fm4uajy8lqg","practice_cue","5c6c08c5d9c1580001ce9aab","5f60e3c0a3b16e07647b2ff9","5f60f4dc9170a70223fb31eb","false","null","<span style=""color: black; font-size: 48px"">M + N</span>","null","","","","resp_prompt","","","","","","","","","","","","","","","",""
"categorize-image","78","309101","0.0-3.0-3.0-1.10","q1s5fm4uajy8lqg","practice_cue","5c6c08c5d9c1580001ce9aab","5f60e3c0a3b16e07647b2ff9","5f60f4dc9170a70223fb31eb","true","1262.635000050068","./Stimuli/ImagesPractice/LM143.jpg","83","","","","test","true","M + N","83","","LM","LM143.jpg","forget","old","27","2","practice_forget","left","","","",""
"html-keyboard-response","79","311103","0.0-3.0-3.0-3.10","q1s5fm4uajy8lqg","practice_cue","5c6c08c5d9c1580001ce9aab","5f60e3c0a3b16e07647b2ff9","5f60f4dc9170a70223fb31eb","false","null","<div style=""align-items: center; display: flex; color: darkorange; font-size: 90px""><b>ø</b></div>","null","","","","forget_cue","","","","","","","","","","","","","","","",""
"html-keyboard-response","80","311805","0.0-3.0-3.0-0.11","q1s5fm4uajy8lqg","practice_cue","5c6c08c5d9c1580001ce9aab","5f60e3c0a3b16e07647b2ff9","5f60f4dc9170a70223fb31eb","false","null","<span style=""color: black; font-size: 48px"">M + N</span>","null","","","","resp_prompt","","","","","","","","","","","","","","","",""
"categorize-image","81","312757","0.0-3.0-3.0-1.11","q1s5fm4uajy8lqg","practice_cue","5c6c08c5d9c1580001ce9aab","5f60e3c0a3b16e07647b2ff9","5f60f4dc9170a70223fb31eb","true","948.134999955073","./Stimuli/ImagesPractice/SM35.jpg","83","","","","test","true","M + N","83","","SM","SM35.jpg","forget","old","28","2","practice_forget","left","","","",""
"html-keyboard-response","82","314759","0.0-3.0-3.0-3.11","q1s5fm4uajy8lqg","practice_cue","5c6c08c5d9c1580001ce9aab","5f60e3c0a3b16e07647b2ff9","5f60f4dc9170a70223fb31eb","false","null","<div style=""align-items: center; display: flex; color: darkorange; font-size: 90px""><b>ø</b></div>","null","","","","forget_cue","","","","","","","","","","","","","","","",""
"html-keyboard-response","83","315461","0.0-3.0-3.0-0.12","q1s5fm4uajy8lqg","practice_cue","5c6c08c5d9c1580001ce9aab","5f60e3c0a3b16e07647b2ff9","5f60f4dc9170a70223fb31eb","false","null","<span style=""color: black; font-size: 48px"">N + M</span>","null","","","","resp_prompt","","","","","","","","","","","","","","","",""
"categorize-image","84","316512","0.0-3.0-3.0-1.12","q1s5fm4uajy8lqg","practice_cue","5c6c08c5d9c1580001ce9aab","5f60e3c0a3b16e07647b2ff9","5f60f4dc9170a70223fb31eb","true","1046.5900001581758","./Stimuli/ImagesPractice/LN109.jpg","76","","","","test","false","N + M","83","","LN","LN109.jpg","forget","old","29","2","practice_forget","right","","","",""
"html-keyboard-response","85","317013","0.0-3.0-3.0-2.12-0.12","q1s5fm4uajy8lqg","practice_cue","5c6c08c5d9c1580001ce9aab","5f60e3c0a3b16e07647b2ff9","5f60f4dc9170a70223fb31eb","false","null","<span style=""color: red; font-size: 48px"">Error!</span>","null","","","","feedback","","","","","","","","","","","","","","","",""
"html-keyboard-response","86","319016","0.0-3.0-3.0-3.12","q1s5fm4uajy8lqg","practice_cue","5c6c08c5d9c1580001ce9aab","5f60e3c0a3b16e07647b2ff9","5f60f4dc9170a70223fb31eb","false","null","<div style=""align-items: center; display: flex; color: darkorange; font-size: 90px""><b>ø</b></div>","null","","","","forget_cue","","","","","","","","","","","","","","","",""
"html-keyboard-response","87","319718","0.0-3.0-3.0-0.13","q1s5fm4uajy8lqg","practice_cue","5c6c08c5d9c1580001ce9aab","5f60e3c0a3b16e07647b2ff9","5f60f4dc9170a70223fb31eb","false","null","<span style=""color: black; font-size: 48px"">M + N</span>","null","","","","resp_prompt","","","","","","","","","","","","","","","",""
"categorize-image","88","320477","0.0-3.0-3.0-1.13","q1s5fm4uajy8lqg","practice_cue","5c6c08c5d9c1580001ce9aab","5f60e3c0a3b16e07647b2ff9","5f60f4dc9170a70223fb31eb","true","755.0449999980628","./Stimuli/ImagesPractice/SN222.jpg","76","","","","test","true","M + N","76","","SN","SN222.jpg","remember","old","30","2","practice_forget","right","","","",""
"html-keyboard-response","89","322479","0.0-3.0-3.0-3.13","q1s5fm4uajy8lqg","practice_cue","5c6c08c5d9c1580001ce9aab","5f60e3c0a3b16e07647b2ff9","5f60f4dc9170a70223fb31eb","false","null","<div style=""align-items: center; display: flex; color: dodgerblue; font-size: 90px""><b>o</b></div>","null","","","","forget_cue","","","","","","","","","","","","","","","",""
"html-keyboard-response","90","323181","0.0-3.0-3.0-0.14","q1s5fm4uajy8lqg","practice_cue","5c6c08c5d9c1580001ce9aab","5f60e3c0a3b16e07647b2ff9","5f60f4dc9170a70223fb31eb","false","null","<span style=""color: black; font-size: 48px"">N + M</span>","null","","","","resp_prompt","","","","","","","","","","","","","","","",""
"categorize-image","91","324534","0.0-3.0-3.0-1.14","q1s5fm4uajy8lqg","practice_cue","5c6c08c5d9c1580001ce9aab","5f60e3c0a3b16e07647b2ff9","5f60f4dc9170a70223fb31eb","true","1349.1100000683218","./Stimuli/ImagesPractice/SM61.jpg","76","","","","test","true","N + M","76","","SM","SM61.jpg","remember","old","31","2","practice_forget","right","","","",""
"html-keyboard-response","92","326537","0.0-3.0-3.0-3.14","q1s5fm4uajy8lqg","practice_cue","5c6c08c5d9c1580001ce9aab","5f60e3c0a3b16e07647b2ff9","5f60f4dc9170a70223fb31eb","false","null","<div style=""align-items: center; display: flex; color: dodgerblue; font-size: 90px""><b>o</b></div>","null","","","","forget_cue","","","","","","","","","","","","","","","",""
"html-keyboard-response","93","327239","0.0-3.0-3.0-0.15","q1s5fm4uajy8lqg","practice_cue","5c6c08c5d9c1580001ce9aab","5f60e3c0a3b16e07647b2ff9","5f60f4dc9170a70223fb31eb","false","null","<span style=""color: black; font-size: 48px"">M + N</span>","null","","","","resp_prompt","","","","","","","","","","","","","","","",""
"categorize-image","94","328218","0.0-3.0-3.0-1.15","q1s5fm4uajy8lqg","practice_cue","5c6c08c5d9c1580001ce9aab","5f60e3c0a3b16e07647b2ff9","5f60f4dc9170a70223fb31eb","true","974.7500000521541","./Stimuli/ImagesPractice/LN15.jpg","76","","","","test","true","M + N","76","","LN","LN15.jpg","remember","old","32","2","practice_forget","right","","","",""
"html-keyboard-response","95","330220","0.0-3.0-3.0-3.15","q1s5fm4uajy8lqg","practice_cue","5c6c08c5d9c1580001ce9aab","5f60e3c0a3b16e07647b2ff9","5f60f4dc9170a70223fb31eb","false","null","<div style=""align-items: center; display: flex; color: dodgerblue; font-size: 90px""><b>o</b></div>","null","","","","forget_cue","","","","","","","","","","","","","","","",""
"html-keyboard-response","96","332430","0.0-3.0-4.0","q1s5fm4uajy8lqg","break","5c6c08c5d9c1580001ce9aab","5f60e3c0a3b16e07647b2ff9","5f60f4dc9170a70223fb31eb","false","2206.785000162199","<p style='font-size: 32px;'>Break</><br><br><br><br><br><p style='font-size: 24px;'>In the last block, you committed 1 errors and did not respond in time on 0 trials.
</p><p style='font-size: 24px;'>Try to respond as fast and accurately as possible in the next block as well! </p><p style='font-size: 24px;'>Press SPACE to continue.</p>","32","","","","","","","","","","","","","","","","","","","",""
"html-keyboard-response","97","347088","0.0-3.0-5.0","q1s5fm4uajy8lqg","instructions","5c6c08c5d9c1580001ce9aab","5f60e3c0a3b16e07647b2ff9","5f60f4dc9170a70223fb31eb","false","14656.655000057071","<div align=left> Now, to practice, we kindly ask you to remember as many of the to-be-remembered pictures<br>of the previous learning phase as possible.<br><br>The pictures you were instructed to remember were the pictures followed by a <span style='color: dodgerblue; font-size: 28px'>O</span>.<br><br>In this memory test phase, you will also see some new pictures.<br>It is your task to remember whether you were presented with this specific picture in this study so far or not.<br>If you recognize an object (you have already seen it in this study), it is an OLD object. <br>If you do not recognize an object (you have NOT seen it in this study), it is a NEW object. <br><strong> Attention</strong>: As already mentioned, <span style='color: darkorange; font-size:28px'>Ø</span>-pictures will <strong>never</strong> appear in this memory test (neither as new objects). <br><br>Press SPACE to continue. </div>","32","","","","","","","","","","","","","","","","","","","",""
"html-keyboard-response","98","369479","0.0-3.0-6.0","q1s5fm4uajy8lqg","instructions","5c6c08c5d9c1580001ce9aab","5f60e3c0a3b16e07647b2ff9","5f60f4dc9170a70223fb31eb","false","22388.090000022203","<div align=left> M and N no longer will appear on the left/right of the fixation cross. <br>Instead there will be a note at the bottom of the left or right side  <br>indicating which key you should press for an old or new object:  <br> <br>Press the <strong>right</strong> key to classify an object as <strong>old</strong> and press the <strong>left</strong>, to classify an object as <strong>new</strong>.<br>Please classify the objects as new/old by again placing your index finger on the 'S' and 'L' keys <br>and press them accordingly.<br><br><strong>Old:</strong> This object has been presented before. <br><strong>New:</strong> This object has <strong>not</strong> been presented.<br><br>Now please put your right and left index fingers on the 'S' and 'L' keys of your keyboard. <br>Please respond as fast and as accurately as possible!<br><br>Press SPACE to continue. </div>","32","","","","","","","","","","","","","","","","","","","",""
"categorize-image","99","371547","0.0-3.0-7.0-0.0","q1s5fm4uajy8lqg","practice_recog","5c6c08c5d9c1580001ce9aab","5f60e3c0a3b16e07647b2ff9","5f60f4dc9170a70223fb31eb","true","1563.1500000599772","./Stimuli/ImagesPractice/LM147.jpg","76","","","","test","true","","76","","LM","LM147.jpg","","new","33","3","practice_recog","right","","","",""
"categorize-image","100","373678","0.0-3.0-7.0-0.1","q1s5fm4uajy8lqg","practice_recog","5c6c08c5d9c1580001ce9aab","5f60e3c0a3b16e07647b2ff9","5f60f4dc9170a70223fb31eb","true","1627.8000001329929","./Stimuli/ImagesPractice/LM224.jpg","83","","","","test","true","","83","","LM","LM224.jpg","","old","34","3","practice_recog","left","","","",""
"categorize-image","101","375262","0.0-3.0-7.0-0.2","q1s5fm4uajy8lqg","practice_recog","5c6c08c5d9c1580001ce9aab","5f60e3c0a3b16e07647b2ff9","5f60f4dc9170a70223fb31eb","true","1080.19999996759","./Stimuli/ImagesPractice/SM98.jpg","83","","","","test","false","","76","","SM","SM98.jpg","","new","35","3","practice_recog","left","","","",""
"categorize-image","102","377307","0.0-3.0-7.0-0.3","q1s5fm4uajy8lqg","practice_recog","5c6c08c5d9c1580001ce9aab","5f60e3c0a3b16e07647b2ff9","5f60f4dc9170a70223fb31eb","true","1542.3049998935312","./Stimuli/ImagesPractice/SN220.jpg","76","","","","test","true","","76","","SN","SN220.jpg","","new","36","3","practice_recog","right","","","",""
"categorize-image","103","378747","0.0-3.0-7.0-0.4","q1s5fm4uajy8lqg","practice_recog","5c6c08c5d9c1580001ce9aab","5f60e3c0a3b16e07647b2ff9","5f60f4dc9170a70223fb31eb","true","936.5799999795854","./Stimuli/ImagesPractice/SN221.jpg","76","","","","test","true","","76","","SN","SN221.jpg","","new","37","3","practice_recog","right","","","",""
"categorize-image","104","380249","0.0-3.0-7.0-0.5","q1s5fm4uajy8lqg","practice_recog","5c6c08c5d9c1580001ce9aab","5f60e3c0a3b16e07647b2ff9","5f60f4dc9170a70223fb31eb","true","999.7400001157075","./Stimuli/ImagesPractice/LN2.jpg","76","","","","test","true","","76","","LN","LN2.jpg","","new","38","3","practice_recog","right","","","",""
"categorize-image","105","381670","0.0-3.0-7.0-0.6","q1s5fm4uajy8lqg","practice_recog","5c6c08c5d9c1580001ce9aab","5f60e3c0a3b16e07647b2ff9","5f60f4dc9170a70223fb31eb","true","918.5899998992682","./Stimuli/ImagesPractice/SN222.jpg","83","","","","test","true","","83","","SN","SN222.jpg","","old","39","3","practice_recog","left","","","",""
"categorize-image","106","383176","0.0-3.0-7.0-0.7","q1s5fm4uajy8lqg","practice_recog","5c6c08c5d9c1580001ce9aab","5f60e3c0a3b16e07647b2ff9","5f60f4dc9170a70223fb31eb","true","1003.8399999029934","./Stimuli/ImagesPractice/LN4.jpg","83","","","","test","true","","83","","LN","LN4.jpg","","old","40","3","practice_recog","left","","","",""
"categorize-image","107","384492","0.0-3.0-7.0-0.8","q1s5fm4uajy8lqg","practice_recog","5c6c08c5d9c1580001ce9aab","5f60e3c0a3b16e07647b2ff9","5f60f4dc9170a70223fb31eb","true","813.2949999999255","./Stimuli/ImagesPractice/SN75.jpg","83","","","","test","true","","83","","SN","SN75.jpg","","old","41","3","practice_recog","left","","","",""
"categorize-image","108","386754","0.0-3.0-7.0-0.9","q1s5fm4uajy8lqg","practice_recog","5c6c08c5d9c1580001ce9aab","5f60e3c0a3b16e07647b2ff9","5f60f4dc9170a70223fb31eb","true","1758.5500001441687","./Stimuli/ImagesPractice/LN15.jpg","83","","","","test","true","","83","","LN","LN15.jpg","","old","42","3","practice_recog","left","","","",""
"categorize-image","109","387986","0.0-3.0-7.0-0.10","q1s5fm4uajy8lqg","practice_recog","5c6c08c5d9c1580001ce9aab","5f60e3c0a3b16e07647b2ff9","5f60f4dc9170a70223fb31eb","true","729.9999999813735","./Stimuli/ImagesPractice/LN72.jpg","83","","","","test","true","","83","","LN","LN72.jpg","","old","43","3","practice_recog","left","","","",""
"categorize-image","110","389143","0.0-3.0-7.0-0.11","q1s5fm4uajy8lqg","practice_recog","5c6c08c5d9c1580001ce9aab","5f60e3c0a3b16e07647b2ff9","5f60f4dc9170a70223fb31eb","true","654.225000180304","./Stimuli/ImagesPractice/LN17.jpg","83","","","","test","true","","83","","LN","LN17.jpg","","old","44","3","practice_recog","left","","","",""
"categorize-image","111","390310","0.0-3.0-7.0-0.12","q1s5fm4uajy8lqg","practice_recog","5c6c08c5d9c1580001ce9aab","5f60e3c0a3b16e07647b2ff9","5f60f4dc9170a70223fb31eb","true","663.9500001911074","./Stimuli/ImagesPractice/SM61.jpg","83","","","","test","true","","83","","SM","SM61.jpg","","old","45","3","practice_recog","left","","","",""
"categorize-image","112","391500","0.0-3.0-7.0-0.13","q1s5fm4uajy8lqg","practice_recog","5c6c08c5d9c1580001ce9aab","5f60e3c0a3b16e07647b2ff9","5f60f4dc9170a70223fb31eb","true","686.1550000030547","./Stimuli/ImagesPractice/SM97.jpg","76","","","","test","true","","76","","SM","SM97.jpg","","new","46","3","practice_recog","right","","","",""
"categorize-image","113","392667","0.0-3.0-7.0-0.14","q1s5fm4uajy8lqg","practice_recog","5c6c08c5d9c1580001ce9aab","5f60e3c0a3b16e07647b2ff9","5f60f4dc9170a70223fb31eb","true","664.0149999875575","./Stimuli/ImagesPractice/SN76.jpg","76","","","","test","true","","76","","SN","SN76.jpg","","new","47","3","practice_recog","right","","","",""
"categorize-image","114","393778","0.0-3.0-7.0-0.15","q1s5fm4uajy8lqg","practice_recog","5c6c08c5d9c1580001ce9aab","5f60e3c0a3b16e07647b2ff9","5f60f4dc9170a70223fb31eb","true","608.1449999473989","./Stimuli/ImagesPractice/SN205.jpg","76","","","","test","true","","76","","SN","SN205.jpg","","new","48","3","practice_recog","right","","","",""
"html-keyboard-response","115","403288","0.0-3.0-8.0","q1s5fm4uajy8lqg","instructions","5c6c08c5d9c1580001ce9aab","5f60e3c0a3b16e07647b2ff9","5f60f4dc9170a70223fb31eb","false","9507.92000000365","<div align=left> Great!<br><br>Are you ready to continue?<br>If you want to reread the instructions and redo the practice trials, please <br>press „Z“.<br><br>You can proceed when you are ready.<br><br>After the presentation of each object, you will receive an instruction whether to <br>remember or to forget the object.<br>We will test your memory of the following pictures only at the very end of <br>the experiment after all learning blocks are completed. <br><br>Press SPACE to CONTINUE when you are ready. </div>","32","","","","","","","","","","","","","","","","","","","",""
"html-keyboard-response","116","406985","0.0-4.0-0.0","q1s5fm4uajy8lqg","instructions","5c6c08c5d9c1580001ce9aab","5f60e3c0a3b16e07647b2ff9","5f60f4dc9170a70223fb31eb","false","3695.9350001998246","<div align=left> The actual experiment is about to start.<br>The practice trials are over!<br><br>Please always respond both fast and accurately!<br><br>Remember: <br> <br><li> Please place your index fingers on the <strong>'S'</strong> and <strong>'L'</strong> keys <br>to respond as fast and accurately as possible.</li><li> Every picture can be classified as either mechanical or non-mechanical.</li><li> If you do not respond in time or commit an error, you will receive a corresponding feedback.<br> Please try to respond as <strong> fast </strong> and as <strong> accurately as possible </strong>.</li><li> Remember the <span style='color: dodgerblue; font-size: 28px'>O</span> pictures. <br></li><li> Please minimize distractions and stay focused. </li><br><br>Press SPACE to START.</div>","32","","","","","","","","","","","","","","","","","","","",""
"html-keyboard-response","117","407688","0.0-4.0-1.0-0.0","q1s5fm4uajy8lqg","prime","5c6c08c5d9c1580001ce9aab","5f60e3c0a3b16e07647b2ff9","5f60f4dc9170a70223fb31eb","false","null","<span style=""color: black; font-size: 48px"">M + N</span>","null","","","","resp_prompt","","","","","","","","","","","","","","","",""
"categorize-image","118","408403","0.0-4.0-1.0-1.0","q1s5fm4uajy8lqg","prime","5c6c08c5d9c1580001ce9aab","5f60e3c0a3b16e07647b2ff9","5f60f4dc9170a70223fb31eb","true","711.0550000797957","./Stimuli/SelectedImages/SM/SM76.bmp","76","","","","test","false","M + N","83","repetition","SM","SM76.bmp","remember","","49","3","prime1","right","","","",""
"html-keyboard-response","119","408906","0.0-4.0-1.0-2.0-0.0","q1s5fm4uajy8lqg","prime","5c6c08c5d9c1580001ce9aab","5f60e3c0a3b16e07647b2ff9","5f60f4dc9170a70223fb31eb","false","null","<span style=""color: red; font-size: 48px"">Error!</span>","null","","","","feedback","","","","","","","","","","","","","","","",""
"html-keyboard-response","120","410907","0.0-4.0-1.0-3.0","q1s5fm4uajy8lqg","prime","5c6c08c5d9c1580001ce9aab","5f60e3c0a3b16e07647b2ff9","5f60f4dc9170a70223fb31eb","false","null","<div style=""align-items: center; display: flex; color: dodgerblue; font-size: 90px""><b>o</b></div>","null","","","","forget_cue","","","","","","","","","","","","","","","",""
"html-keyboard-response","121","411610","0.0-4.0-1.0-0.1","q1s5fm4uajy8lqg","prime","5c6c08c5d9c1580001ce9aab","5f60e3c0a3b16e07647b2ff9","5f60f4dc9170a70223fb31eb","false","null","<span style=""color: black; font-size: 48px"">M + N</span>","null","","","","resp_prompt","","","","","","","","","","","","","","","",""
"categorize-image","122","413488","0.0-4.0-1.0-1.1","q1s5fm4uajy8lqg","prime","5c6c08c5d9c1580001ce9aab","5f60e3c0a3b16e07647b2ff9","5f60f4dc9170a70223fb31eb","true","1873.8400000147521","./Stimuli/SelectedImages/LN/LN150.bmp","76","","","","test","true","M + N","76","switch","LN","LN150.bmp","remember","","50","3","prime1","right","","","",""
"html-keyboard-response","123","415491","0.0-4.0-1.0-3.1","q1s5fm4uajy8lqg","prime","5c6c08c5d9c1580001ce9aab","5f60e3c0a3b16e07647b2ff9","5f60f4dc9170a70223fb31eb","false","null","<div style=""align-items: center; display: flex; color: dodgerblue; font-size: 90px""><b>o</b></div>","null","","","","forget_cue","","","","","","","","","","","","","","","",""
"html-keyboard-response","124","416193","0.0-4.0-1.0-0.2","q1s5fm4uajy8lqg","prime","5c6c08c5d9c1580001ce9aab","5f60e3c0a3b16e07647b2ff9","5f60f4dc9170a70223fb31eb","false","null","<span style=""color: black; font-size: 48px"">N + M</span>","null","","","","resp_prompt","","","","","","","","","","","","","","","",""
"categorize-image","125","417178","0.0-4.0-1.0-1.2","q1s5fm4uajy8lqg","prime","5c6c08c5d9c1580001ce9aab","5f60e3c0a3b16e07647b2ff9","5f60f4dc9170a70223fb31eb","true","980.0400000531226","./Stimuli/SelectedImages/SM/SM24.bmp","76","","","","test","true","N + M","76","repetition","SM","SM24.bmp","remember","","51","3","prime1","right","","","",""
"html-keyboard-response","126","419180","0.0-4.0-1.0-3.2","q1s5fm4uajy8lqg","prime","5c6c08c5d9c1580001ce9aab","5f60e3c0a3b16e07647b2ff9","5f60f4dc9170a70223fb31eb","false","null","<div style=""align-items: center; display: flex; color: dodgerblue; font-size: 90px""><b>o</b></div>","null","","","","forget_cue","","","","","","","","","","","","","","","",""
"html-keyboard-response","127","419882","0.0-4.0-1.0-0.3","q1s5fm4uajy8lqg","prime","5c6c08c5d9c1580001ce9aab","5f60e3c0a3b16e07647b2ff9","5f60f4dc9170a70223fb31eb","false","null","<span style=""color: black; font-size: 48px"">N + M</span>","null","","","","resp_prompt","","","","","","","","","","","","","","","",""
"categorize-image","128","421300","0.0-4.0-1.0-1.3","q1s5fm4uajy8lqg","prime","5c6c08c5d9c1580001ce9aab","5f60e3c0a3b16e07647b2ff9","5f60f4dc9170a70223fb31eb","true","1414.9449998512864","./Stimuli/SelectedImages/SM/SM106.bmp","76","","","","test","true","N + M","76","switch","SM","SM106.bmp","remember","","52","3","prime1","right","","","",""
"html-keyboard-response","129","423302","0.0-4.0-1.0-3.3","q1s5fm4uajy8lqg","prime","5c6c08c5d9c1580001ce9aab","5f60e3c0a3b16e07647b2ff9","5f60f4dc9170a70223fb31eb","false","null","<div style=""align-items: center; display: flex; color: dodgerblue; font-size: 90px""><b>o</b></div>","null","","","","forget_cue","","","","","","","","","","","","","","","",""
"html-keyboard-response","130","424003","0.0-4.0-1.0-0.4","q1s5fm4uajy8lqg","prime","5c6c08c5d9c1580001ce9aab","5f60e3c0a3b16e07647b2ff9","5f60f4dc9170a70223fb31eb","false","null","<span style=""color: black; font-size: 48px"">M + N</span>","null","","","","resp_prompt","","","","","","","","","","","","","","","",""
"categorize-image","131","425063","0.0-4.0-1.0-1.4","q1s5fm4uajy8lqg","prime","5c6c08c5d9c1580001ce9aab","5f60e3c0a3b16e07647b2ff9","5f60f4dc9170a70223fb31eb","true","1055.8199998922646","./Stimuli/SelectedImages/LN/LN59.bmp","76","","","","test","true","M + N","76","repetition","LN","LN59.bmp","forget","","53","3","prime1","right","","","",""
"html-keyboard-response","132","427065","0.0-4.0-1.0-3.4","q1s5fm4uajy8lqg","prime","5c6c08c5d9c1580001ce9aab","5f60e3c0a3b16e07647b2ff9","5f60f4dc9170a70223fb31eb","false","null","<div style=""align-items: center; display: flex; color: darkorange; font-size: 90px""><b>ø</b></div>","null","","","","forget_cue","","","","","","","","","","","","","","","",""
"html-keyboard-response","133","427767","0.0-4.0-1.0-0.5","q1s5fm4uajy8lqg","prime","5c6c08c5d9c1580001ce9aab","5f60e3c0a3b16e07647b2ff9","5f60f4dc9170a70223fb31eb","false","null","<span style=""color: black; font-size: 48px"">N + M</span>","null","","","","resp_prompt","","","","","","","","","","","","","","","",""
"categorize-image","134","429052","0.0-4.0-1.0-1.5","q1s5fm4uajy8lqg","prime","5c6c08c5d9c1580001ce9aab","5f60e3c0a3b16e07647b2ff9","5f60f4dc9170a70223fb31eb","true","1280.7899999897927","./Stimuli/SelectedImages/LM/LM157.bmp","76","","","","test","true","N + M","76","switch","LM","LM157.bmp","remember","","54","3","prime1","right","","","",""
"html-keyboard-response","135","431053","0.0-4.0-1.0-3.5","q1s5fm4uajy8lqg","prime","5c6c08c5d9c1580001ce9aab","5f60e3c0a3b16e07647b2ff9","5f60f4dc9170a70223fb31eb","false","null","<div style=""align-items: center; display: flex; color: dodgerblue; font-size: 90px""><b>o</b></div>","null","","","","forget_cue","","","","","","","","","","","","","","","",""
"html-keyboard-response","136","431756","0.0-4.0-1.0-0.6","q1s5fm4uajy8lqg","prime","5c6c08c5d9c1580001ce9aab","5f60e3c0a3b16e07647b2ff9","5f60f4dc9170a70223fb31eb","false","null","<span style=""color: black; font-size: 48px"">N + M</span>","null","","","","resp_prompt","","","","","","","","","","","","","","","",""
"categorize-image","137","432556","0.0-4.0-1.0-1.6","q1s5fm4uajy8lqg","prime","5c6c08c5d9c1580001ce9aab","5f60e3c0a3b16e07647b2ff9","5f60f4dc9170a70223fb31eb","true","796.8399999663234","./Stimuli/SelectedImages/LM/LM57.bmp","76","","","","test","true","N + M","76","repetition","LM","LM57.bmp","forget","","55","3","prime1","right","","","",""
"html-keyboard-response","138","434558","0.0-4.0-1.0-3.6","q1s5fm4uajy8lqg","prime","5c6c08c5d9c1580001ce9aab","5f60e3c0a3b16e07647b2ff9","5f60f4dc9170a70223fb31eb","false","null","<div style=""align-items: center; display: flex; color: darkorange; font-size: 90px""><b>ø</b></div>","null","","","","forget_cue","","","","","","","","","","","","","","","",""
"html-keyboard-response","139","435260","0.0-4.0-1.0-0.7","q1s5fm4uajy8lqg","prime","5c6c08c5d9c1580001ce9aab","5f60e3c0a3b16e07647b2ff9","5f60f4dc9170a70223fb31eb","false","null","<span style=""color: black; font-size: 48px"">M + N</span>","null","","","","resp_prompt","","","","","","","","","","","","","","","",""
"categorize-image","140","436593","0.0-4.0-1.0-1.7","q1s5fm4uajy8lqg","prime","5c6c08c5d9c1580001ce9aab","5f60e3c0a3b16e07647b2ff9","5f60f4dc9170a70223fb31eb","true","1329.020000062883","./Stimuli/SelectedImages/LN/LN82.bmp","76","","","","test","true","M + N","76","repetition","LN","LN82.bmp","remember","","56","3","prime1","right","","","",""
"html-keyboard-response","141","438595","0.0-4.0-1.0-3.7","q1s5fm4uajy8lqg","prime","5c6c08c5d9c1580001ce9aab","5f60e3c0a3b16e07647b2ff9","5f60f4dc9170a70223fb31eb","false","null","<div style=""align-items: center; display: flex; color: dodgerblue; font-size: 90px""><b>o</b></div>","null","","","","forget_cue","","","","","","","","","","","","","","","",""
"html-keyboard-response","142","439296","0.0-4.0-1.0-0.8","q1s5fm4uajy8lqg","prime","5c6c08c5d9c1580001ce9aab","5f60e3c0a3b16e07647b2ff9","5f60f4dc9170a70223fb31eb","false","null","<span style=""color: black; font-size: 48px"">M + N</span>","null","","","","resp_prompt","","","","","","","","","","","","","","","",""
"categorize-image","143","440210","0.0-4.0-1.0-1.8","q1s5fm4uajy8lqg","prime","5c6c08c5d9c1580001ce9aab","5f60e3c0a3b16e07647b2ff9","5f60f4dc9170a70223fb31eb","true","909.9500000011176","./Stimuli/SelectedImages/SN/SN27.bmp","76","","","","test","true","M + N","76","repetition","SN","SN27.bmp","forget","","57","3","prime1","right","","","",""
"html-keyboard-response","144","442213","0.0-4.0-1.0-3.8","q1s5fm4uajy8lqg","prime","5c6c08c5d9c1580001ce9aab","5f60e3c0a3b16e07647b2ff9","5f60f4dc9170a70223fb31eb","false","null","<div style=""align-items: center; display: flex; color: darkorange; font-size: 90px""><b>ø</b></div>","null","","","","forget_cue","","","","","","","","","","","","","","","",""
"html-keyboard-response","145","442915","0.0-4.0-1.0-0.9","q1s5fm4uajy8lqg","prime","5c6c08c5d9c1580001ce9aab","5f60e3c0a3b16e07647b2ff9","5f60f4dc9170a70223fb31eb","false","null","<span style=""color: black; font-size: 48px"">N + M</span>","null","","","","resp_prompt","","","","","","","","","","","","","","","",""
"categorize-image","146","443893","0.0-4.0-1.0-1.9","q1s5fm4uajy8lqg","prime","5c6c08c5d9c1580001ce9aab","5f60e3c0a3b16e07647b2ff9","5f60f4dc9170a70223fb31eb","true","974.3800000287592","./Stimuli/SelectedImages/LN/LN177.bmp","83","","","","test","true","N + M","83","repetition","LN","LN177.bmp","forget","","58","3","prime1","left","","","",""
"html-keyboard-response","147","445895","0.0-4.0-1.0-3.9","q1s5fm4uajy8lqg","prime","5c6c08c5d9c1580001ce9aab","5f60e3c0a3b16e07647b2ff9","5f60f4dc9170a70223fb31eb","false","null","<div style=""align-items: center; display: flex; color: darkorange; font-size: 90px""><b>ø</b></div>","null","","","","forget_cue","","","","","","","","","","","","","","","",""
"html-keyboard-response","148","446598","0.0-4.0-1.0-0.10","q1s5fm4uajy8lqg","prime","5c6c08c5d9c1580001ce9aab","5f60e3c0a3b16e07647b2ff9","5f60f4dc9170a70223fb31eb","false","null","<span style=""color: black; font-size: 48px"">M + N</span>","null","","","","resp_prompt","","","","","","","","","","","","","","","",""
"categorize-image","149","447846","0.0-4.0-1.0-1.10","q1s5fm4uajy8lqg","prime","5c6c08c5d9c1580001ce9aab","5f60e3c0a3b16e07647b2ff9","5f60f4dc9170a70223fb31eb","true","1243.9549998380244","./Stimuli/SelectedImages/SN/SN187.bmp","76","","","","test","true","M + N","76","repetition","SN","SN187.bmp","forget","","59","3","prime1","right","","","",""
"html-keyboard-response","150","449847","0.0-4.0-1.0-3.10","q1s5fm4uajy8lqg","prime","5c6c08c5d9c1580001ce9aab","5f60e3c0a3b16e07647b2ff9","5f60f4dc9170a70223fb31eb","false","null","<div style=""align-items: center; display: flex; color: darkorange; font-size: 90px""><b>ø</b></div>","null","","","","forget_cue","","","","","","","","","","","","","","","",""
"html-keyboard-response","151","450549","0.0-4.0-1.0-0.11","q1s5fm4uajy8lqg","prime","5c6c08c5d9c1580001ce9aab","5f60e3c0a3b16e07647b2ff9","5f60f4dc9170a70223fb31eb","false","null","<span style=""color: black; font-size: 48px"">N + M</span>","null","","","","resp_prompt","","","","","","","","","","","","","","","",""
"categorize-image","152","451356","0.0-4.0-1.0-1.11","q1s5fm4uajy8lqg","prime","5c6c08c5d9c1580001ce9aab","5f60e3c0a3b16e07647b2ff9","5f60f4dc9170a70223fb31eb","true","803.3650000579655","./Stimuli/SelectedImages/SM/SM78.bmp","76","","","","test","true","N + M","76","repetition","SM","SM78.bmp","forget","","60","3","prime1","right","","","",""
"html-keyboard-response","153","453359","0.0-4.0-1.0-3.11","q1s5fm4uajy8lqg","prime","5c6c08c5d9c1580001ce9aab","5f60e3c0a3b16e07647b2ff9","5f60f4dc9170a70223fb31eb","false","null","<div style=""align-items: center; display: flex; color: darkorange; font-size: 90px""><b>ø</b></div>","null","","","","forget_cue","","","","","","","","","","","","","","","",""
"html-keyboard-response","154","454060","0.0-4.0-1.0-0.12","q1s5fm4uajy8lqg","prime","5c6c08c5d9c1580001ce9aab","5f60e3c0a3b16e07647b2ff9","5f60f4dc9170a70223fb31eb","false","null","<span style=""color: black; font-size: 48px"">M + N</span>","null","","","","resp_prompt","","","","","","","","","","","","","","","",""
"categorize-image","155","454847","0.0-4.0-1.0-1.12","q1s5fm4uajy8lqg","prime","5c6c08c5d9c1580001ce9aab","5f60e3c0a3b16e07647b2ff9","5f60f4dc9170a70223fb31eb","true","783.0349998548627","./Stimuli/SelectedImages/SM/SM148.bmp","83","","","","test","true","M + N","83","switch","SM","SM148.bmp","remember","","61","3","prime1","left","","","",""
"html-keyboard-response","156","456849","0.0-4.0-1.0-3.12","q1s5fm4uajy8lqg","prime","5c6c08c5d9c1580001ce9aab","5f60e3c0a3b16e07647b2ff9","5f60f4dc9170a70223fb31eb","false","null","<div style=""align-items: center; display: flex; color: dodgerblue; font-size: 90px""><b>o</b></div>","null","","","","forget_cue","","","","","","","","","","","","","","","",""
"html-keyboard-response","157","457550","0.0-4.0-1.0-0.13","q1s5fm4uajy8lqg","prime","5c6c08c5d9c1580001ce9aab","5f60e3c0a3b16e07647b2ff9","5f60f4dc9170a70223fb31eb","false","null","<span style=""color: black; font-size: 48px"">M + N</span>","null","","","","resp_prompt","","","","","","","","","","","","","","","",""
"categorize-image","158","458512","0.0-4.0-1.0-1.13","q1s5fm4uajy8lqg","prime","5c6c08c5d9c1580001ce9aab","5f60e3c0a3b16e07647b2ff9","5f60f4dc9170a70223fb31eb","true","957.6050001196563","./Stimuli/SelectedImages/SM/SM207.bmp","83","","","","test","true","M + N","83","repetition","SM","SM207.bmp","forget","","62","3","prime1","left","","","",""
"html-keyboard-response","159","460513","0.0-4.0-1.0-3.13","q1s5fm4uajy8lqg","prime","5c6c08c5d9c1580001ce9aab","5f60e3c0a3b16e07647b2ff9","5f60f4dc9170a70223fb31eb","false","null","<div style=""align-items: center; display: flex; color: darkorange; font-size: 90px""><b>ø</b></div>","null","","","","forget_cue","","","","","","","","","","","","","","","",""
"html-keyboard-response","160","461215","0.0-4.0-1.0-0.14","q1s5fm4uajy8lqg","prime","5c6c08c5d9c1580001ce9aab","5f60e3c0a3b16e07647b2ff9","5f60f4dc9170a70223fb31eb","false","null","<span style=""color: black; font-size: 48px"">N + M</span>","null","","","","resp_prompt","","","","","","","","","","","","","","","",""
"categorize-image","161","462096","0.0-4.0-1.0-1.14","q1s5fm4uajy8lqg","prime","5c6c08c5d9c1580001ce9aab","5f60e3c0a3b16e07647b2ff9","5f60f4dc9170a70223fb31eb","true","877.0199997816235","./Stimuli/SelectedImages/LM/LM235.bmp","76","","","","test","true","N + M","76","repetition","LM","LM235.bmp","remember","","63","3","prime1","right","","","",""
"html-keyboard-response","162","464099","0.0-4.0-1.0-3.14","q1s5fm4uajy8lqg","prime","5c6c08c5d9c1580001ce9aab","5f60e3c0a3b16e07647b2ff9","5f60f4dc9170a70223fb31eb","false","null","<div style=""align-items: center; display: flex; color: dodgerblue; font-size: 90px""><b>o</b></div>","null","","","","forget_cue","","","","","","","","","","","","","","","",""
"html-keyboard-response","163","464801","0.0-4.0-1.0-0.15","q1s5fm4uajy8lqg","prime","5c6c08c5d9c1580001ce9aab","5f60e3c0a3b16e07647b2ff9","5f60f4dc9170a70223fb31eb","false","null","<span style=""color: black; font-size: 48px"">M + N</span>","null","","","","resp_prompt","","","","","","","","","","","","","","","",""
"categorize-image","164","465541","0.0-4.0-1.0-1.15","q1s5fm4uajy8lqg","prime","5c6c08c5d9c1580001ce9aab","5f60e3c0a3b16e07647b2ff9","5f60f4dc9170a70223fb31eb","true","734.4200001098216","./Stimuli/SelectedImages/LN/LN92.bmp","76","","","","test","true","M + N","76","switch","LN","LN92.bmp","forget","","64","3","prime1","right","","","",""
"html-keyboard-response","165","467543","0.0-4.0-1.0-3.15","q1s5fm4uajy8lqg","prime","5c6c08c5d9c1580001ce9aab","5f60e3c0a3b16e07647b2ff9","5f60f4dc9170a70223fb31eb","false","null","<div style=""align-items: center; display: flex; color: darkorange; font-size: 90px""><b>ø</b></div>","null","","","","forget_cue","","","","","","","","","","","","","","","",""
"html-keyboard-response","166","468245","0.0-4.0-1.0-0.16","q1s5fm4uajy8lqg","prime","5c6c08c5d9c1580001ce9aab","5f60e3c0a3b16e07647b2ff9","5f60f4dc9170a70223fb31eb","false","null","<span style=""color: black; font-size: 48px"">M + N</span>","null","","","","resp_prompt","","","","","","","","","","","","","","","",""
"categorize-image","167","468818","0.0-4.0-1.0-1.16","q1s5fm4uajy8lqg","prime","5c6c08c5d9c1580001ce9aab","5f60e3c0a3b16e07647b2ff9","5f60f4dc9170a70223fb31eb","true","569.3249998148531","./Stimuli/SelectedImages/LN/LN128.bmp","76","","","","test","true","M + N","76","repetition","LN","LN128.bmp","forget","","65","3","prime1","right","","","",""
"html-keyboard-response","168","470819","0.0-4.0-1.0-3.16","q1s5fm4uajy8lqg","prime","5c6c08c5d9c1580001ce9aab","5f60e3c0a3b16e07647b2ff9","5f60f4dc9170a70223fb31eb","false","null","<div style=""align-items: center; display: flex; color: darkorange; font-size: 90px""><b>ø</b></div>","null","","","","forget_cue","","","","","","","","","","","","","","","",""
"html-keyboard-response","169","471521","0.0-4.0-1.0-0.17","q1s5fm4uajy8lqg","prime","5c6c08c5d9c1580001ce9aab","5f60e3c0a3b16e07647b2ff9","5f60f4dc9170a70223fb31eb","false","null","<span style=""color: black; font-size: 48px"">N + M</span>","null","","","","resp_prompt","","","","","","","","","","","","","","","",""
"categorize-image","170","472730","0.0-4.0-1.0-1.17","q1s5fm4uajy8lqg","prime","5c6c08c5d9c1580001ce9aab","5f60e3c0a3b16e07647b2ff9","5f60f4dc9170a70223fb31eb","true","1204.6999998856336","./Stimuli/SelectedImages/SM/SM184.bmp","76","","","","test","true","N + M","76","repetition","SM","SM184.bmp","remember","","66","3","prime1","right","","","",""
"html-keyboard-response","171","474732","0.0-4.0-1.0-3.17","q1s5fm4uajy8lqg","prime","5c6c08c5d9c1580001ce9aab","5f60e3c0a3b16e07647b2ff9","5f60f4dc9170a70223fb31eb","false","null","<div style=""align-items: center; display: flex; color: dodgerblue; font-size: 90px""><b>o</b></div>","null","","","","forget_cue","","","","","","","","","","","","","","","",""
"html-keyboard-response","172","475434","0.0-4.0-1.0-0.18","q1s5fm4uajy8lqg","prime","5c6c08c5d9c1580001ce9aab","5f60e3c0a3b16e07647b2ff9","5f60f4dc9170a70223fb31eb","false","null","<span style=""color: black; font-size: 48px"">M + N</span>","null","","","","resp_prompt","","","","","","","","","","","","","","","",""
"categorize-image","173","476174","0.0-4.0-1.0-1.18","q1s5fm4uajy8lqg","prime","5c6c08c5d9c1580001ce9aab","5f60e3c0a3b16e07647b2ff9","5f60f4dc9170a70223fb31eb","true","734.9800001829863","./Stimuli/SelectedImages/LM/LM216.bmp","83","","","","test","true","M + N","83","repetition","LM","LM216.bmp","forget","","67","3","prime1","left","","","",""
"html-keyboard-response","174","478175","0.0-4.0-1.0-3.18","q1s5fm4uajy8lqg","prime","5c6c08c5d9c1580001ce9aab","5f60e3c0a3b16e07647b2ff9","5f60f4dc9170a70223fb31eb","false","null","<div style=""align-items: center; display: flex; color: darkorange; font-size: 90px""><b>ø</b></div>","null","","","","forget_cue","","","","","","","","","","","","","","","",""
"html-keyboard-response","175","478878","0.0-4.0-1.0-0.19","q1s5fm4uajy8lqg","prime","5c6c08c5d9c1580001ce9aab","5f60e3c0a3b16e07647b2ff9","5f60f4dc9170a70223fb31eb","false","null","<span style=""color: black; font-size: 48px"">N + M</span>","null","","","","resp_prompt","","","","","","","","","","","","","","","",""
"categorize-image","176","479615","0.0-4.0-1.0-1.19","q1s5fm4uajy8lqg","prime","5c6c08c5d9c1580001ce9aab","5f60e3c0a3b16e07647b2ff9","5f60f4dc9170a70223fb31eb","true","733.5999999195337","./Stimuli/SelectedImages/SM/SM108.bmp","76","","","","test","true","N + M","76","switch","SM","SM108.bmp","forget","","68","3","prime1","right","","","",""
"html-keyboard-response","177","481617","0.0-4.0-1.0-3.19","q1s5fm4uajy8lqg","prime","5c6c08c5d9c1580001ce9aab","5f60e3c0a3b16e07647b2ff9","5f60f4dc9170a70223fb31eb","false","null","<div style=""align-items: center; display: flex; color: darkorange; font-size: 90px""><b>ø</b></div>","null","","","","forget_cue","","","","","","","","","","","","","","","",""
"html-keyboard-response","178","482319","0.0-4.0-1.0-0.20","q1s5fm4uajy8lqg","prime","5c6c08c5d9c1580001ce9aab","5f60e3c0a3b16e07647b2ff9","5f60f4dc9170a70223fb31eb","false","null","<span style=""color: black; font-size: 48px"">N + M</span>","null","","","","resp_prompt","","","","","","","","","","","","","","","",""
"categorize-image","179","483377","0.0-4.0-1.0-1.20","q1s5fm4uajy8lqg","prime","5c6c08c5d9c1580001ce9aab","5f60e3c0a3b16e07647b2ff9","5f60f4dc9170a70223fb31eb","true","1053.4949998836964","./Stimuli/SelectedImages/LM/LM58.bmp","83","","","","test","false","N + M","76","switch","LM","LM58.bmp","remember","","69","3","prime1","left","","","",""
"html-keyboard-response","180","483878","0.0-4.0-1.0-2.20-0.20","q1s5fm4uajy8lqg","prime","5c6c08c5d9c1580001ce9aab","5f60e3c0a3b16e07647b2ff9","5f60f4dc9170a70223fb31eb","false","null","<span style=""color: red; font-size: 48px"">Error!</span>","null","","","","feedback","","","","","","","","","","","","","","","",""
"html-keyboard-response","181","485881","0.0-4.0-1.0-3.20","q1s5fm4uajy8lqg","prime","5c6c08c5d9c1580001ce9aab","5f60e3c0a3b16e07647b2ff9","5f60f4dc9170a70223fb31eb","false","null","<div style=""align-items: center; display: flex; color: dodgerblue; font-size: 90px""><b>o</b></div>","null","","","","forget_cue","","","","","","","","","","","","","","","",""
"html-keyboard-response","182","486583","0.0-4.0-1.0-0.21","q1s5fm4uajy8lqg","prime","5c6c08c5d9c1580001ce9aab","5f60e3c0a3b16e07647b2ff9","5f60f4dc9170a70223fb31eb","false","null","<span style=""color: black; font-size: 48px"">M + N</span>","null","","","","resp_prompt","","","","","","","","","","","","","","","",""
"categorize-image","183","487194","0.0-4.0-1.0-1.21","q1s5fm4uajy8lqg","prime","5c6c08c5d9c1580001ce9aab","5f60e3c0a3b16e07647b2ff9","5f60f4dc9170a70223fb31eb","true","606.8900001700968","./Stimuli/SelectedImages/LN/LN166.bmp","76","","","","test","true","M + N","76","repetition","LN","LN166.bmp","remember","","70","3","prime1","right","","","",""
"html-keyboard-response","184","489196","0.0-4.0-1.0-3.21","q1s5fm4uajy8lqg","prime","5c6c08c5d9c1580001ce9aab","5f60e3c0a3b16e07647b2ff9","5f60f4dc9170a70223fb31eb","false","null","<div style=""align-items: center; display: flex; color: dodgerblue; font-size: 90px""><b>o</b></div>","null","","","","forget_cue","","","","","","","","","","","","","","","",""
"html-keyboard-response","185","489898","0.0-4.0-1.0-0.22","q1s5fm4uajy8lqg","prime","5c6c08c5d9c1580001ce9aab","5f60e3c0a3b16e07647b2ff9","5f60f4dc9170a70223fb31eb","false","null","<span style=""color: black; font-size: 48px"">N + M</span>","null","","","","resp_prompt","","","","","","","","","","","","","","","",""
"categorize-image","186","491380","0.0-4.0-1.0-1.22","q1s5fm4uajy8lqg","prime","5c6c08c5d9c1580001ce9aab","5f60e3c0a3b16e07647b2ff9","5f60f4dc9170a70223fb31eb","true","1478.059999877587","./Stimuli/SelectedImages/SN/SN64.bmp","83","","","","test","true","N + M","83","switch","SN","SN64.bmp","remember","","71","3","prime1","left","","","",""
"html-keyboard-response","187","493381","0.0-4.0-1.0-3.22","q1s5fm4uajy8lqg","prime","5c6c08c5d9c1580001ce9aab","5f60e3c0a3b16e07647b2ff9","5f60f4dc9170a70223fb31eb","false","null","<div style=""align-items: center; display: flex; color: dodgerblue; font-size: 90px""><b>o</b></div>","null","","","","forget_cue","","","","","","","","","","","","","","","",""
"html-keyboard-response","188","494083","0.0-4.0-1.0-0.23","q1s5fm4uajy8lqg","prime","5c6c08c5d9c1580001ce9aab","5f60e3c0a3b16e07647b2ff9","5f60f4dc9170a70223fb31eb","false","null","<span style=""color: black; font-size: 48px"">M + N</span>","null","","","","resp_prompt","","","","","","","","","","","","","","","",""
"categorize-image","189","494795","0.0-4.0-1.0-1.23","q1s5fm4uajy8lqg","prime","5c6c08c5d9c1580001ce9aab","5f60e3c0a3b16e07647b2ff9","5f60f4dc9170a70223fb31eb","true","707.9749999102205","./Stimuli/SelectedImages/LM/LM129.bmp","83","","","","test","true","M + N","83","switch","LM","LM129.bmp","forget","","72","3","prime1","left","","","",""
"html-keyboard-response","190","496798","0.0-4.0-1.0-3.23","q1s5fm4uajy8lqg","prime","5c6c08c5d9c1580001ce9aab","5f60e3c0a3b16e07647b2ff9","5f60f4dc9170a70223fb31eb","false","null","<div style=""align-items: center; display: flex; color: darkorange; font-size: 90px""><b>ø</b></div>","null","","","","forget_cue","","","","","","","","","","","","","","","",""
"html-keyboard-response","191","497499","0.0-4.0-1.0-0.24","q1s5fm4uajy8lqg","prime","5c6c08c5d9c1580001ce9aab","5f60e3c0a3b16e07647b2ff9","5f60f4dc9170a70223fb31eb","false","null","<span style=""color: black; font-size: 48px"">M + N</span>","null","","","","resp_prompt","","","","","","","","","","","","","","","",""
"categorize-image","192","498530","0.0-4.0-1.0-1.24","q1s5fm4uajy8lqg","prime","5c6c08c5d9c1580001ce9aab","5f60e3c0a3b16e07647b2ff9","5f60f4dc9170a70223fb31eb","true","1026.754999998957","./Stimuli/SelectedImages/SM/SM73.bmp","83","","","","test","true","M + N","83","repetition","SM","SM73.bmp","remember","","73","3","prime1","left","","","",""
"html-keyboard-response","193","500533","0.0-4.0-1.0-3.24","q1s5fm4uajy8lqg","prime","5c6c08c5d9c1580001ce9aab","5f60e3c0a3b16e07647b2ff9","5f60f4dc9170a70223fb31eb","false","null","<div style=""align-items: center; display: flex; color: dodgerblue; font-size: 90px""><b>o</b></div>","null","","","","forget_cue","","","","","","","","","","","","","","","",""
"html-keyboard-response","194","501235","0.0-4.0-1.0-0.25","q1s5fm4uajy8lqg","prime","5c6c08c5d9c1580001ce9aab","5f60e3c0a3b16e07647b2ff9","5f60f4dc9170a70223fb31eb","false","null","<span style=""color: black; font-size: 48px"">M + N</span>","null","","","","resp_prompt","","","","","","","","","","","","","","","",""
"categorize-image","195","502676","0.0-4.0-1.0-1.25","q1s5fm4uajy8lqg","prime","5c6c08c5d9c1580001ce9aab","5f60e3c0a3b16e07647b2ff9","5f60f4dc9170a70223fb31eb","true","1437.0850000996143","./Stimuli/SelectedImages/LM/LM103.bmp","83","","","","test","true","M + N","83","switch","LM","LM103.bmp","remember","","74","3","prime1","left","","","",""
"html-keyboard-response","196","504679","0.0-4.0-1.0-3.25","q1s5fm4uajy8lqg","prime","5c6c08c5d9c1580001ce9aab","5f60e3c0a3b16e07647b2ff9","5f60f4dc9170a70223fb31eb","false","null","<div style=""align-items: center; display: flex; color: dodgerblue; font-size: 90px""><b>o</b></div>","null","","","","forget_cue","","","","","","","","","","","","","","","",""
"html-keyboard-response","197","505381","0.0-4.0-1.0-0.26","q1s5fm4uajy8lqg","prime","5c6c08c5d9c1580001ce9aab","5f60e3c0a3b16e07647b2ff9","5f60f4dc9170a70223fb31eb","false","null","<span style=""color: black; font-size: 48px"">N + M</span>","null","","","","resp_prompt","","","","","","","","","","","","","","","",""
"categorize-image","198","506305","0.0-4.0-1.0-1.26","q1s5fm4uajy8lqg","prime","5c6c08c5d9c1580001ce9aab","5f60e3c0a3b16e07647b2ff9","5f60f4dc9170a70223fb31eb","true","920.2650000806898","./Stimuli/SelectedImages/LM/LM100.bmp","76","","","","test","true","N + M","76","switch","LM","LM100.bmp","forget","","75","3","prime1","right","","","",""
"html-keyboard-response","199","508308","0.0-4.0-1.0-3.26","q1s5fm4uajy8lqg","prime","5c6c08c5d9c1580001ce9aab","5f60e3c0a3b16e07647b2ff9","5f60f4dc9170a70223fb31eb","false","null","<div style=""align-items: center; display: flex; color: darkorange; font-size: 90px""><b>ø</b></div>","null","","","","forget_cue","","","","","","","","","","","","","","","",""
"html-keyboard-response","200","509011","0.0-4.0-1.0-0.27","q1s5fm4uajy8lqg","prime","5c6c08c5d9c1580001ce9aab","5f60e3c0a3b16e07647b2ff9","5f60f4dc9170a70223fb31eb","false","null","<span style=""color: black; font-size: 48px"">N + M</span>","null","","","","resp_prompt","","","","","","","","","","","","","","","",""
"categorize-image","201","510498","0.0-4.0-1.0-1.27","q1s5fm4uajy8lqg","prime","5c6c08c5d9c1580001ce9aab","5f60e3c0a3b16e07647b2ff9","5f60f4dc9170a70223fb31eb","true","1484.0200000908226","./Stimuli/SelectedImages/LM/LM59.bmp","76","","","","test","true","N + M","76","repetition","LM","LM59.bmp","forget","","76","3","prime1","right","","","",""
"html-keyboard-response","202","512501","0.0-4.0-1.0-3.27","q1s5fm4uajy8lqg","prime","5c6c08c5d9c1580001ce9aab","5f60e3c0a3b16e07647b2ff9","5f60f4dc9170a70223fb31eb","false","null","<div style=""align-items: center; display: flex; color: darkorange; font-size: 90px""><b>ø</b></div>","null","","","","forget_cue","","","","","","","","","","","","","","","",""
"html-keyboard-response","203","513202","0.0-4.0-1.0-0.28","q1s5fm4uajy8lqg","prime","5c6c08c5d9c1580001ce9aab","5f60e3c0a3b16e07647b2ff9","5f60f4dc9170a70223fb31eb","false","null","<span style=""color: black; font-size: 48px"">N + M</span>","null","","","","resp_prompt","","","","","","","","","","","","","","","",""
"categorize-image","204","514236","0.0-4.0-1.0-1.28","q1s5fm4uajy8lqg","prime","5c6c08c5d9c1580001ce9aab","5f60e3c0a3b16e07647b2ff9","5f60f4dc9170a70223fb31eb","true","1027.3949999827892","./Stimuli/SelectedImages/LN/LN12.bmp","83","","","","test","true","N + M","83","switch","LN","LN12.bmp","forget","","77","3","prime1","left","","","",""
"html-keyboard-response","205","516238","0.0-4.0-1.0-3.28","q1s5fm4uajy8lqg","prime","5c6c08c5d9c1580001ce9aab","5f60e3c0a3b16e07647b2ff9","5f60f4dc9170a70223fb31eb","false","null","<div style=""align-items: center; display: flex; color: darkorange; font-size: 90px""><b>ø</b></div>","null","","","","forget_cue","","","","","","","","","","","","","","","",""
"html-keyboard-response","206","516940","0.0-4.0-1.0-0.29","q1s5fm4uajy8lqg","prime","5c6c08c5d9c1580001ce9aab","5f60e3c0a3b16e07647b2ff9","5f60f4dc9170a70223fb31eb","false","null","<span style=""color: black; font-size: 48px"">N + M</span>","null","","","","resp_prompt","","","","","","","","","","","","","","","",""
"categorize-image","207","517683","0.0-4.0-1.0-1.29","q1s5fm4uajy8lqg","prime","5c6c08c5d9c1580001ce9aab","5f60e3c0a3b16e07647b2ff9","5f60f4dc9170a70223fb31eb","true","738.8400000054389","./Stimuli/SelectedImages/SM/SM17.bmp","76","","","","test","true","N + M","76","switch","SM","SM17.bmp","remember","","78","3","prime1","right","","","",""
"html-keyboard-response","208","519685","0.0-4.0-1.0-3.29","q1s5fm4uajy8lqg","prime","5c6c08c5d9c1580001ce9aab","5f60e3c0a3b16e07647b2ff9","5f60f4dc9170a70223fb31eb","false","null","<div style=""align-items: center; display: flex; color: dodgerblue; font-size: 90px""><b>o</b></div>","null","","","","forget_cue","","","","","","","","","","","","","","","",""
"html-keyboard-response","209","520387","0.0-4.0-1.0-0.30","q1s5fm4uajy8lqg","prime","5c6c08c5d9c1580001ce9aab","5f60e3c0a3b16e07647b2ff9","5f60f4dc9170a70223fb31eb","false","null","<span style=""color: black; font-size: 48px"">M + N</span>","null","","","","resp_prompt","","","","","","","","","","","","","","","",""
"categorize-image","210","521041","0.0-4.0-1.0-1.30","q1s5fm4uajy8lqg","prime","5c6c08c5d9c1580001ce9aab","5f60e3c0a3b16e07647b2ff9","5f60f4dc9170a70223fb31eb","true","649.269999936223","./Stimuli/SelectedImages/SN/SN240.bmp","76","","","","test","true","M + N","76","switch","SN","SN240.bmp","remember","","79","3","prime1","right","","","",""
"html-keyboard-response","211","523044","0.0-4.0-1.0-3.30","q1s5fm4uajy8lqg","prime","5c6c08c5d9c1580001ce9aab","5f60e3c0a3b16e07647b2ff9","5f60f4dc9170a70223fb31eb","false","null","<div style=""align-items: center; display: flex; color: dodgerblue; font-size: 90px""><b>o</b></div>","null","","","","forget_cue","","","","","","","","","","","","","","","",""
"html-keyboard-response","212","523745","0.0-4.0-1.0-0.31","q1s5fm4uajy8lqg","prime","5c6c08c5d9c1580001ce9aab","5f60e3c0a3b16e07647b2ff9","5f60f4dc9170a70223fb31eb","false","null","<span style=""color: black; font-size: 48px"">N + M</span>","null","","","","resp_prompt","","","","","","","","","","","","","","","",""
"categorize-image","213","524605","0.0-4.0-1.0-1.31","q1s5fm4uajy8lqg","prime","5c6c08c5d9c1580001ce9aab","5f60e3c0a3b16e07647b2ff9","5f60f4dc9170a70223fb31eb","true","856.160000199452","./Stimuli/SelectedImages/LN/LN111.bmp","83","","","","test","true","N + M","83","switch","LN","LN111.bmp","forget","","80","3","prime1","left","","","",""
"html-keyboard-response","214","526608","0.0-4.0-1.0-3.31","q1s5fm4uajy8lqg","prime","5c6c08c5d9c1580001ce9aab","5f60e3c0a3b16e07647b2ff9","5f60f4dc9170a70223fb31eb","false","null","<div style=""align-items: center; display: flex; color: darkorange; font-size: 90px""><b>ø</b></div>","null","","","","forget_cue","","","","","","","","","","","","","","","",""
"html-keyboard-response","215","527309","0.0-4.0-1.0-0.32","q1s5fm4uajy8lqg","prime","5c6c08c5d9c1580001ce9aab","5f60e3c0a3b16e07647b2ff9","5f60f4dc9170a70223fb31eb","false","null","<span style=""color: black; font-size: 48px"">M + N</span>","null","","","","resp_prompt","","","","","","","","","","","","","","","",""
"categorize-image","216","528052","0.0-4.0-1.0-1.32","q1s5fm4uajy8lqg","prime","5c6c08c5d9c1580001ce9aab","5f60e3c0a3b16e07647b2ff9","5f60f4dc9170a70223fb31eb","true","739.534999942407","./Stimuli/SelectedImages/LN/LN28.bmp","76","","","","test","true","M + N","76","switch","LN","LN28.bmp","forget","","81","3","prime1","right","","","",""
"html-keyboard-response","217","530054","0.0-4.0-1.0-3.32","q1s5fm4uajy8lqg","prime","5c6c08c5d9c1580001ce9aab","5f60e3c0a3b16e07647b2ff9","5f60f4dc9170a70223fb31eb","false","null","<div style=""align-items: center; display: flex; color: darkorange; font-size: 90px""><b>ø</b></div>","null","","","","forget_cue","","","","","","","","","","","","","","","",""
"html-keyboard-response","218","530756","0.0-4.0-1.0-0.33","q1s5fm4uajy8lqg","prime","5c6c08c5d9c1580001ce9aab","5f60e3c0a3b16e07647b2ff9","5f60f4dc9170a70223fb31eb","false","null","<span style=""color: black; font-size: 48px"">N + M</span>","null","","","","resp_prompt","","","","","","","","","","","","","","","",""
"categorize-image","219","531809","0.0-4.0-1.0-1.33","q1s5fm4uajy8lqg","prime","5c6c08c5d9c1580001ce9aab","5f60e3c0a3b16e07647b2ff9","5f60f4dc9170a70223fb31eb","true","1049.1100000217557","./Stimuli/SelectedImages/LN/LN9.bmp","83","","","","test","true","N + M","83","switch","LN","LN9.bmp","remember","","82","3","prime1","left","","","",""
"html-keyboard-response","220","533811","0.0-4.0-1.0-3.33","q1s5fm4uajy8lqg","prime","5c6c08c5d9c1580001ce9aab","5f60e3c0a3b16e07647b2ff9","5f60f4dc9170a70223fb31eb","false","null","<div style=""align-items: center; display: flex; color: dodgerblue; font-size: 90px""><b>o</b></div>","null","","","","forget_cue","","","","","","","","","","","","","","","",""
"html-keyboard-response","221","534513","0.0-4.0-1.0-0.34","q1s5fm4uajy8lqg","prime","5c6c08c5d9c1580001ce9aab","5f60e3c0a3b16e07647b2ff9","5f60f4dc9170a70223fb31eb","false","null","<span style=""color: black; font-size: 48px"">N + M</span>","null","","","","resp_prompt","","","","","","","","","","","","","","","",""
"categorize-image","222","535007","0.0-4.0-1.0-1.34","q1s5fm4uajy8lqg","prime","5c6c08c5d9c1580001ce9aab","5f60e3c0a3b16e07647b2ff9","5f60f4dc9170a70223fb31eb","true","489.31000009179115","./Stimuli/SelectedImages/SN/SN140.bmp","83","","","","test","true","N + M","83","repetition","SN","SN140.bmp","forget","","83","3","prime1","left","","","",""
"html-keyboard-response","223","537009","0.0-4.0-1.0-3.34","q1s5fm4uajy8lqg","prime","5c6c08c5d9c1580001ce9aab","5f60e3c0a3b16e07647b2ff9","5f60f4dc9170a70223fb31eb","false","null","<div style=""align-items: center; display: flex; color: darkorange; font-size: 90px""><b>ø</b></div>","null","","","","forget_cue","","","","","","","","","","","","","","","",""
"html-keyboard-response","224","537711","0.0-4.0-1.0-0.35","q1s5fm4uajy8lqg","prime","5c6c08c5d9c1580001ce9aab","5f60e3c0a3b16e07647b2ff9","5f60f4dc9170a70223fb31eb","false","null","<span style=""color: black; font-size: 48px"">N + M</span>","null","","","","resp_prompt","","","","","","","","","","","","","","","",""
"categorize-image","225","538393","0.0-4.0-1.0-1.35","q1s5fm4uajy8lqg","prime","5c6c08c5d9c1580001ce9aab","5f60e3c0a3b16e07647b2ff9","5f60f4dc9170a70223fb31eb","true","678.7649998441339","./Stimuli/SelectedImages/LM/LM51.bmp","76","","","","test","true","N + M","76","repetition","LM","LM51.bmp","remember","","84","3","prime1","right","","","",""
"html-keyboard-response","226","540395","0.0-4.0-1.0-3.35","q1s5fm4uajy8lqg","prime","5c6c08c5d9c1580001ce9aab","5f60e3c0a3b16e07647b2ff9","5f60f4dc9170a70223fb31eb","false","null","<div style=""align-items: center; display: flex; color: dodgerblue; font-size: 90px""><b>o</b></div>","null","","","","forget_cue","","","","","","","","","","","","","","","",""
"html-keyboard-response","227","541097","0.0-4.0-1.0-0.36","q1s5fm4uajy8lqg","prime","5c6c08c5d9c1580001ce9aab","5f60e3c0a3b16e07647b2ff9","5f60f4dc9170a70223fb31eb","false","null","<span style=""color: black; font-size: 48px"">M + N</span>","null","","","","resp_prompt","","","","","","","","","","","","","","","",""
"categorize-image","228","541689","0.0-4.0-1.0-1.36","q1s5fm4uajy8lqg","prime","5c6c08c5d9c1580001ce9aab","5f60e3c0a3b16e07647b2ff9","5f60f4dc9170a70223fb31eb","true","588.105000089854","./Stimuli/SelectedImages/LN/LN149.bmp","76","","","","test","true","M + N","76","switch","LN","LN149.bmp","remember","","85","3","prime1","right","","","",""
"html-keyboard-response","229","543690","0.0-4.0-1.0-3.36","q1s5fm4uajy8lqg","prime","5c6c08c5d9c1580001ce9aab","5f60e3c0a3b16e07647b2ff9","5f60f4dc9170a70223fb31eb","false","null","<div style=""align-items: center; display: flex; color: dodgerblue; font-size: 90px""><b>o</b></div>","null","","","","forget_cue","","","","","","","","","","","","","","","",""
"html-keyboard-response","230","544392","0.0-4.0-1.0-0.37","q1s5fm4uajy8lqg","prime","5c6c08c5d9c1580001ce9aab","5f60e3c0a3b16e07647b2ff9","5f60f4dc9170a70223fb31eb","false","null","<span style=""color: black; font-size: 48px"">M + N</span>","null","","","","resp_prompt","","","","","","","","","","","","","","","",""
"categorize-image","231","545149","0.0-4.0-1.0-1.37","q1s5fm4uajy8lqg","prime","5c6c08c5d9c1580001ce9aab","5f60e3c0a3b16e07647b2ff9","5f60f4dc9170a70223fb31eb","true","753.6899999249727","./Stimuli/SelectedImages/SM/SM205.bmp","83","","","","test","true","M + N","83","repetition","SM","SM205.bmp","forget","","86","3","prime1","left","","","",""
"html-keyboard-response","232","547152","0.0-4.0-1.0-3.37","q1s5fm4uajy8lqg","prime","5c6c08c5d9c1580001ce9aab","5f60e3c0a3b16e07647b2ff9","5f60f4dc9170a70223fb31eb","false","null","<div style=""align-items: center; display: flex; color: darkorange; font-size: 90px""><b>ø</b></div>","null","","","","forget_cue","","","","","","","","","","","","","","","",""
"html-keyboard-response","233","547854","0.0-4.0-1.0-0.38","q1s5fm4uajy8lqg","prime","5c6c08c5d9c1580001ce9aab","5f60e3c0a3b16e07647b2ff9","5f60f4dc9170a70223fb31eb","false","null","<span style=""color: black; font-size: 48px"">N + M</span>","null","","","","resp_prompt","","","","","","","","","","","","","","","",""
"categorize-image","234","548609","0.0-4.0-1.0-1.38","q1s5fm4uajy8lqg","prime","5c6c08c5d9c1580001ce9aab","5f60e3c0a3b16e07647b2ff9","5f60f4dc9170a70223fb31eb","true","750.3500001039356","./Stimuli/SelectedImages/SN/SN155.bmp","83","","","","test","true","N + M","83","switch","SN","SN155.bmp","forget","","87","3","prime1","left","","","",""
"html-keyboard-response","235","550611","0.0-4.0-1.0-3.38","q1s5fm4uajy8lqg","prime","5c6c08c5d9c1580001ce9aab","5f60e3c0a3b16e07647b2ff9","5f60f4dc9170a70223fb31eb","false","null","<div style=""align-items: center; display: flex; color: darkorange; font-size: 90px""><b>ø</b></div>","null","","","","forget_cue","","","","","","","","","","","","","","","",""
"html-keyboard-response","236","551312","0.0-4.0-1.0-0.39","q1s5fm4uajy8lqg","prime","5c6c08c5d9c1580001ce9aab","5f60e3c0a3b16e07647b2ff9","5f60f4dc9170a70223fb31eb","false","null","<span style=""color: black; font-size: 48px"">N + M</span>","null","","","","resp_prompt","","","","","","","","","","","","","","","",""
"categorize-image","237","551999","0.0-4.0-1.0-1.39","q1s5fm4uajy8lqg","prime","5c6c08c5d9c1580001ce9aab","5f60e3c0a3b16e07647b2ff9","5f60f4dc9170a70223fb31eb","true","682.0149999111891","./Stimuli/SelectedImages/SN/SN60.bmp","83","","","","test","true","N + M","83","repetition","SN","SN60.bmp","forget","","88","3","prime1","left","","","",""
"html-keyboard-response","238","554003","0.0-4.0-1.0-3.39","q1s5fm4uajy8lqg","prime","5c6c08c5d9c1580001ce9aab","5f60e3c0a3b16e07647b2ff9","5f60f4dc9170a70223fb31eb","false","null","<div style=""align-items: center; display: flex; color: darkorange; font-size: 90px""><b>ø</b></div>","null","","","","forget_cue","","","","","","","","","","","","","","","",""
"html-keyboard-response","239","554705","0.0-4.0-1.0-0.40","q1s5fm4uajy8lqg","prime","5c6c08c5d9c1580001ce9aab","5f60e3c0a3b16e07647b2ff9","5f60f4dc9170a70223fb31eb","false","null","<span style=""color: black; font-size: 48px"">M + N</span>","null","","","","resp_prompt","","","","","","","","","","","","","","","",""
"categorize-image","240","555452","0.0-4.0-1.0-1.40","q1s5fm4uajy8lqg","prime","5c6c08c5d9c1580001ce9aab","5f60e3c0a3b16e07647b2ff9","5f60f4dc9170a70223fb31eb","true","742.6899999845773","./Stimuli/SelectedImages/LM/LM75.bmp","83","","","","test","true","M + N","83","repetition","LM","LM75.bmp","remember","","89","3","prime1","left","","","",""
"html-keyboard-response","241","557454","0.0-4.0-1.0-3.40","q1s5fm4uajy8lqg","prime","5c6c08c5d9c1580001ce9aab","5f60e3c0a3b16e07647b2ff9","5f60f4dc9170a70223fb31eb","false","null","<div style=""align-items: center; display: flex; color: dodgerblue; font-size: 90px""><b>o</b></div>","null","","","","forget_cue","","","","","","","","","","","","","","","",""
"html-keyboard-response","242","558156","0.0-4.0-1.0-0.41","q1s5fm4uajy8lqg","prime","5c6c08c5d9c1580001ce9aab","5f60e3c0a3b16e07647b2ff9","5f60f4dc9170a70223fb31eb","false","null","<span style=""color: black; font-size: 48px"">M + N</span>","null","","","","resp_prompt","","","","","","","","","","","","","","","",""
"categorize-image","243","558752","0.0-4.0-1.0-1.41","q1s5fm4uajy8lqg","prime","5c6c08c5d9c1580001ce9aab","5f60e3c0a3b16e07647b2ff9","5f60f4dc9170a70223fb31eb","true","592.6349998917431","./Stimuli/SelectedImages/SN/SN181.bmp","76","","","","test","true","M + N","76","switch","SN","SN181.bmp","forget","","90","3","prime1","right","","","",""
"html-keyboard-response","244","560755","0.0-4.0-1.0-3.41","q1s5fm4uajy8lqg","prime","5c6c08c5d9c1580001ce9aab","5f60e3c0a3b16e07647b2ff9","5f60f4dc9170a70223fb31eb","false","null","<div style=""align-items: center; display: flex; color: darkorange; font-size: 90px""><b>ø</b></div>","null","","","","forget_cue","","","","","","","","","","","","","","","",""
"html-keyboard-response","245","561456","0.0-4.0-1.0-0.42","q1s5fm4uajy8lqg","prime","5c6c08c5d9c1580001ce9aab","5f60e3c0a3b16e07647b2ff9","5f60f4dc9170a70223fb31eb","false","null","<span style=""color: black; font-size: 48px"">M + N</span>","null","","","","resp_prompt","","","","","","","","","","","","","","","",""
"categorize-image","246","562121","0.0-4.0-1.0-1.42","q1s5fm4uajy8lqg","prime","5c6c08c5d9c1580001ce9aab","5f60e3c0a3b16e07647b2ff9","5f60f4dc9170a70223fb31eb","true","660.4049999732524","./Stimuli/SelectedImages/SM/SM213.bmp","83","","","","test","true","M + N","83","switch","SM","SM213.bmp","forget","","91","3","prime1","left","","","",""
"html-keyboard-response","247","564123","0.0-4.0-1.0-3.42","q1s5fm4uajy8lqg","prime","5c6c08c5d9c1580001ce9aab","5f60e3c0a3b16e07647b2ff9","5f60f4dc9170a70223fb31eb","false","null","<div style=""align-items: center; display: flex; color: darkorange; font-size: 90px""><b>ø</b></div>","null","","","","forget_cue","","","","","","","","","","","","","","","",""
"html-keyboard-response","248","564826","0.0-4.0-1.0-0.43","q1s5fm4uajy8lqg","prime","5c6c08c5d9c1580001ce9aab","5f60e3c0a3b16e07647b2ff9","5f60f4dc9170a70223fb31eb","false","null","<span style=""color: black; font-size: 48px"">M + N</span>","null","","","","resp_prompt","","","","","","","","","","","","","","","",""
"categorize-image","249","565525","0.0-4.0-1.0-1.43","q1s5fm4uajy8lqg","prime","5c6c08c5d9c1580001ce9aab","5f60e3c0a3b16e07647b2ff9","5f60f4dc9170a70223fb31eb","true","696.3650002144277","./Stimuli/SelectedImages/SN/SN182.bmp","76","","","","test","true","M + N","76","switch","SN","SN182.bmp","forget","","92","3","prime1","right","","","",""
"html-keyboard-response","250","567527","0.0-4.0-1.0-3.43","q1s5fm4uajy8lqg","prime","5c6c08c5d9c1580001ce9aab","5f60e3c0a3b16e07647b2ff9","5f60f4dc9170a70223fb31eb","false","null","<div style=""align-items: center; display: flex; color: darkorange; font-size: 90px""><b>ø</b></div>","null","","","","forget_cue","","","","","","","","","","","","","","","",""
"html-keyboard-response","251","568228","0.0-4.0-1.0-0.44","q1s5fm4uajy8lqg","prime","5c6c08c5d9c1580001ce9aab","5f60e3c0a3b16e07647b2ff9","5f60f4dc9170a70223fb31eb","false","null","<span style=""color: black; font-size: 48px"">N + M</span>","null","","","","resp_prompt","","","","","","","","","","","","","","","",""
"categorize-image","252","568939","0.0-4.0-1.0-1.44","q1s5fm4uajy8lqg","prime","5c6c08c5d9c1580001ce9aab","5f60e3c0a3b16e07647b2ff9","5f60f4dc9170a70223fb31eb","true","707.2499999776483","./Stimuli/SelectedImages/SN/SN128.bmp","83","","","","test","true","N + M","83","switch","SN","SN128.bmp","forget","","93","3","prime1","left","","","",""
